subject,day,trial,cat,x,y,xt,yt,resp,rt,fb
14,4,0,B,66.40396316308265,46.85835926483111,3.320198158154133,0.7360493861283232,B,1088.45549999387,Correct
14,4,1,B,43.13850418623418,19.01963300638042,2.156925209311709,0.2987596966340934,A,582.0497079985216,Incorrect
14,4,2,A,13.663678770184823,42.32403496943452,0.6831839385092411,0.664824386651265,A,692.4675829941407,Correct
14,4,3,A,29.761794313198457,39.39780182447006,1.4880897156599229,0.6188592238967083,A,2145.208375004586,Correct
14,4,4,A,25.205978003309326,39.0965209126699,1.2602989001654663,0.6141267144008173,A,787.8124999988358,Correct
14,4,5,B,83.45124841193783,53.941101132533525,4.172562420596892,0.8473048352225571,B,538.437375013018,Correct
14,4,6,B,75.51493840957738,43.58244892519115,3.775746920478869,0.6845915068441645,A,1553.7173750053626,Incorrect
14,4,7,B,65.59230435560984,51.81896050463791,3.279615217780492,0.8139703281901504,B,584.5628749812022,Correct
14,4,8,A,63.017195770397606,79.53399280803917,3.1508597885198806,1.2493170375819966,A,579.8492500034627,Correct
14,4,9,A,38.77856313021059,64.10458512104324,1.9389281565105296,1.0069524683884552,B,714.6746669895947,Incorrect
14,4,10,A,35.758298289301074,45.96632701250577,1.7879149144650537,0.722037376274971,A,433.8374999933876,Correct
14,4,11,A,44.05764991423377,66.99523806602956,2.2028824957116884,1.0523587386686886,B,930.2369170181919,Incorrect
14,4,12,B,72.49113646760851,61.254371786187804,3.6245568233804253,0.9621814220187275,A,349.745499988785,Incorrect
14,4,13,B,82.46746115950094,61.408585289421325,4.123373057975047,0.9646038020629414,B,635.3316250024363,Correct
14,4,14,A,55.86821623883145,71.20820561763186,2.7934108119415724,1.1185358782183183,A,689.5049579907209,Correct
14,4,15,A,22.5480208517668,37.71457919405806,1.12740104258834,0.5924192246464164,A,533.6217080184724,Correct
14,4,16,B,73.48446230180795,44.57783425514798,3.6742231150903977,0.7002269830445815,B,903.0029999848921,Correct
14,4,17,A,30.095435403181472,44.02775659896348,1.5047717701590735,0.691586383426716,A,522.5951669854112,Correct
14,4,18,A,40.58110338734801,71.19876231738192,2.0290551693674006,1.1183875432048642,B,625.1167919836007,Incorrect
14,4,19,B,81.99752258034637,60.472399438127646,4.099876129017319,0.9498982290988468,B,614.890374999959,Correct
14,4,20,B,41.7731488023545,31.207910688520283,2.088657440117725,0.49021271476470857,A,526.0439169942401,Incorrect
14,4,21,B,65.24322883103454,51.34274528698192,3.2621614415517275,0.806489957043572,B,756.5749999776017,Correct
14,4,22,A,54.711742617738665,79.926952343459,2.735587130886933,1.2554896315301616,A,425.2262920199428,Correct
14,4,23,B,59.9956146613311,35.852209897502746,2.9997807330665553,0.5631651961447695,B,605.4872910026461,Correct
14,4,24,B,56.028474496333445,31.540398430566498,2.8014237248166722,0.4954354200038138,A,667.2115830006078,Incorrect
14,4,25,A,59.610492771704735,70.53191035443172,2.9805246385852366,1.1079126570656825,B,561.5027919993736,Incorrect
14,4,26,B,40.408259584958444,28.259082506527516,2.020412979247922,0.4438926299984734,A,508.283917006338,Incorrect
14,4,27,A,21.704245142423094,38.12325055255408,1.0852122571211547,0.5988386193343347,A,1297.9228339972906,Correct
14,4,28,A,59.27053941558228,80.28689172615407,2.963526970779114,1.2611435461322236,B,1995.2626249869354,Incorrect
14,4,29,A,66.78308442170335,81.34818501938543,3.3391542210851672,1.2778143021988226,B,1833.8392909790855,Incorrect
14,4,30,B,74.532278253476,51.33154176870879,3.7266139126737996,0.8063139725900657,B,560.6873340148013,Correct
14,4,31,A,33.4492439960808,46.650808695204674,1.6724621998040403,0.7327891894043892,A,624.9238750024233,Correct
14,4,32,A,52.469838671902124,77.68907266911663,2.6234919335951066,1.220337099807502,B,672.808833012823,Incorrect
14,4,33,B,64.90840745542965,49.91783516636443,3.2454203727714828,0.7841075212087836,B,525.2155830094125,Correct
14,4,34,A,48.168096460724705,68.78276389360924,2.408404823036235,1.0804371287088204,A,2343.3629159990232,Correct
14,4,35,A,26.979178856680086,49.386776009871745,1.3489589428340043,0.7757656634854886,A,1820.337292010663,Correct
14,4,36,B,73.78525981031196,48.094361527549424,3.689262990515598,0.7554644642702043,B,558.9620840037242,Correct
14,4,37,B,88.2487750943913,61.14099525623149,4.412438754719565,0.9604005076507262,B,599.4133330241311,Correct
14,4,38,B,40.60430634527759,26.741531276037506,2.0302153172638797,0.42005499101270555,A,745.6754999875557,Incorrect
14,4,39,A,46.24233654588267,72.82273187479105,2.3121168272941337,1.143896797360914,A,788.592917000642,Correct
14,4,40,A,62.091813214880304,84.27129876960257,3.104590660744015,1.32373046561527,B,2256.8620840029325,Incorrect
14,4,41,A,56.377902178970366,71.09443691048943,2.818895108948518,1.1167488035454833,A,617.5894580082968,Correct
14,4,42,B,57.00922842596056,33.122690920735295,2.8504614212980277,0.5202900123185367,B,1353.9338750124443,Correct
14,4,43,A,64.00734168831289,75.12442876269742,3.200367084415644,1.1800517675300999,B,1232.98583299038,Incorrect
14,4,44,A,42.96042259590241,63.74678319823083,2.1480211297951204,1.0013321289277162,A,693.4929169947281,Correct
14,4,45,B,74.23519246770056,41.69929036396853,3.7117596233850283,0.655010921336756,B,524.793332995614,Correct
14,4,46,A,63.03446105860219,74.01264805168819,3.1517230529301092,1.1625879569595525,B,688.1392500072252,Incorrect
14,4,47,B,44.69518097404388,20.040993600643645,2.2347590487021938,0.3148031913321107,A,559.4975409912877,Incorrect
14,4,48,A,51.723774897845026,59.96357738986125,2.586188744892251,0.9419056710547555,B,1550.173833995359,Incorrect
14,4,49,A,59.5631541753486,71.95019320929019,2.97815770876743,1.1301909920533615,A,977.4437499872874,Correct
14,4,50,A,44.58113034255435,64.8199976326128,2.229056517127718,1.0181901418416208,B,932.351707975613,Incorrect
14,4,51,A,27.464696365137847,47.789547270933795,1.3732348182568925,0.7506764531237387,A,1370.130249997601,Correct
14,4,52,B,61.486387431484154,33.52477594053943,3.0743193715742074,0.5266059490402125,A,2583.0061250017025,Incorrect
14,4,53,A,39.664733386833596,61.30356710390615,1.9832366693416799,0.9629541802624022,B,824.7186670196243,Incorrect
14,4,54,A,14.508435908870865,32.0552680897375,0.7254217954435432,0.5035229736978533,A,723.6721250228584,Correct
14,4,55,A,43.32727939586121,68.97678116003324,2.1663639697930606,1.0834847448031564,A,759.633459005272,Correct
14,4,56,B,57.617689737852636,45.566594047857436,2.880884486892632,0.7157583855492866,B,2665.403459017398,Correct
14,4,57,B,77.49255658113033,57.84647838508015,3.874627829056516,0.9086503576530427,B,3864.604208007222,Correct
14,4,58,B,54.894231532888774,33.61120028211108,2.7447115766444385,0.5279634994230767,B,3550.6590000004508,Correct
14,4,59,A,34.12809840739146,51.83528673406945,1.706404920369573,0.8142267800023653,A,1096.994999999879,Correct
14,4,60,A,32.56486116777711,62.067059863708884,1.6282430583888554,0.9749470964887286,B,6685.172917001182,Incorrect
14,4,61,A,25.45275490160923,43.527195156182835,1.2726377450804613,0.6837235826701661,A,606.5887919976376,Correct
14,4,62,A,32.300188785131105,64.57584805205668,1.6150094392565553,1.0143550491983602,A,1693.0587080132682,Correct
14,4,63,A,13.10593292823916,39.11377345677249,0.655296646411958,0.6143977167298595,A,879.0703330014367,Correct
14,4,64,A,66.70465253574272,79.08952901454359,3.3352326267871364,1.2423354166398346,B,1291.6095409891568,Incorrect
14,4,65,B,31.759901623986266,18.99289718267741,1.587995081199313,0.29833973129742813,A,4206.808374990942,Incorrect
14,4,66,B,83.12699112968473,65.87350665841045,4.156349556484236,1.034738622921303,B,2151.4548340055626,Correct
14,4,67,B,44.285038104375545,21.896977370783436,2.2142519052187772,0.3439569162193759,A,5585.43320800527,Incorrect
14,4,68,B,81.78245832704314,67.12504645796125,4.089122916352157,1.054397764121023,B,1227.375291986391,Correct
14,4,69,A,60.05015616524131,72.47481131438668,3.0025078082620653,1.1384316739779181,A,1762.1170410129707,Correct
14,4,70,A,21.165663171058206,39.19033637142209,1.0582831585529104,0.6156003641808626,A,1848.1586659909226,Correct
14,4,71,A,62.12424008768472,77.96758051864339,3.1062120043842363,1.2247118908777037,A,3286.467124999035,Correct
14,4,72,A,34.59083350475845,51.942993929596504,1.7295416752379225,0.8159186406733981,A,2863.3519160212018,Correct
14,4,73,B,61.76824856505915,34.90064313400677,3.0884124282529575,0.5482180203767736,B,4760.474874987267,Correct
14,4,74,A,30.68006149254215,44.58143527017445,1.5340030746271076,0.7002835476563447,A,573.0088330165017,Correct
14,4,75,A,53.09541960944607,69.23089119099666,2.6547709804723034,1.087476295835547,B,2724.8041249986272,Incorrect
14,4,76,A,46.686741002883004,67.2537089504455,2.3343370501441503,1.0564187898269284,A,2895.641250011977,Correct
14,4,77,A,23.897579483537296,41.42181946995708,1.1948789741768648,0.6506524187256991,B,1673.1931249960326,Incorrect
14,4,78,A,13.761727368414178,41.662005718295134,0.6880863684207088,0.6544252554920598,A,1631.0487499868032,Correct
14,4,79,B,82.69175084407345,58.43080431739429,4.134587542203673,0.9178289279343433,B,5613.81574999541,Correct
14,4,80,A,47.52615421761573,78.73193576507904,2.3763077108807864,1.2367183550123793,B,3674.8802500078455,Incorrect
14,4,81,B,74.01193469839406,43.89807827991603,3.700596734919703,0.6895494011544693,B,745.4544579959475,Correct
14,4,82,A,26.296231693359132,57.64769575130216,1.3148115846679564,0.9055278873433519,A,871.3023329910357,Correct
14,4,83,B,86.59413282206005,58.976021120260306,4.3297066411030025,0.9263931734468314,B,1400.9992499777582,Correct
14,4,84,A,14.810852937711307,37.06368568284958,0.7405426468855653,0.5821950132810072,A,602.4065829988103,Correct
14,4,85,B,51.43288183061996,23.867011070841464,2.5716440915309984,0.37490213321650906,B,1581.9718329876196,Correct
14,4,86,B,51.47963684499021,43.78261925806603,2.5739818422495104,0.6877357750802962,B,1200.5991660116706,Correct
14,4,87,B,85.36978099288032,57.3815263561337,4.268489049644017,0.9013469082609936,A,1534.2448329902254,Incorrect
14,4,88,B,75.74754366545918,49.61691656380576,3.7873771832729584,0.7793807028531494,B,450.01954201143235,Correct
14,4,89,A,64.77841368656408,83.42356240972072,3.238920684328204,1.3104142540133412,B,1895.2741669781972,Incorrect
14,4,90,A,52.22827553158664,80.41903261260731,2.611413776579332,1.2632192103228257,B,912.2903340030462,Incorrect
14,4,91,B,77.74461278155192,59.1265241597517,3.8872306390775964,0.9287572696628769,B,501.28737502382137,Correct
14,4,92,B,51.244123277391395,22.724834074238032,2.5622061638695697,0.35696085890836604,B,3658.49483301281,Correct
14,4,93,A,23.890286328895936,44.71644735179271,1.1945143164447969,0.7024043124751337,A,700.0441249983851,Correct
14,4,94,B,41.34033618713447,14.385736691440087,2.0670168093567236,0.22597062353152658,B,974.0638340008445,Correct
14,4,95,B,84.3776780592617,68.09115291592593,4.218883902963085,1.0695733288756606,B,1159.9773329799064,Correct
14,4,96,B,36.24805635138569,11.985502838809854,1.8124028175692846,0.18826783833992325,A,556.6330419969745,Incorrect
14,4,97,A,37.83021131009037,56.424334651026406,1.8915105655045183,0.8863113761167827,B,581.4788329880685,Incorrect
14,4,98,B,69.80094968962115,45.06593371302432,3.490047484481057,0.7078940314000091,A,552.428791008424,Incorrect
14,4,99,B,71.56897086854224,62.12562545300301,3.578448543427112,0.9758670426141266,B,573.1601669976953,Correct
14,4,100,B,38.67297054856424,14.026875791159512,1.933648527428212,0.22033364969161617,A,1246.4001670014113,Incorrect
14,4,101,A,12.435953660166579,33.73784091013337,0.6217976830083289,0.5299527657562808,A,930.0467089924496,Correct
14,4,102,A,49.949345901626614,74.44710265909447,2.4974672950813304,1.1694123539742816,B,575.9700420021545,Incorrect
14,4,103,B,75.72398499375043,53.08515575623056,3.7861992496875216,0.8338596766922193,B,551.6371249977965,Correct
14,4,104,B,80.23591230333253,57.43521160786473,4.011795615166626,0.9021901942232151,B,1707.0997090195306,Correct
14,4,105,B,62.18753109579856,32.69553176345396,3.1093765547899284,0.5135802119663934,B,3025.2204590069596,Correct
14,4,106,B,54.59172624455345,46.24146401415671,2.7295863122276725,0.7263592181905576,B,6640.072040987434,Correct
14,4,107,B,62.5257767589155,43.73433988862285,3.126288837945775,0.686977404518483,A,1744.5613750023767,Incorrect
14,4,108,B,57.656289792190506,44.00415126785606,2.882814489609525,0.6912155917527529,B,4770.47133402084,Correct
14,4,109,B,44.54811044675029,24.44279784964104,2.2274055223375147,0.3839465707880634,B,3719.257791992277,Correct
14,4,110,A,33.75805306647185,59.862838524900866,1.6879026533235928,0.940323268664303,A,696.3068749755621,Correct
14,4,111,A,12.699351747386412,34.283025622160686,0.6349675873693207,0.5385165071870534,A,2017.8567910043057,Correct
14,4,112,B,64.62102856394054,32.42038216750308,3.2310514281970266,0.509258172220006,A,8715.529457986122,Incorrect
14,4,113,A,49.818925792689825,60.45582436508867,2.490946289634491,0.9496378684603869,B,1690.364124980988,Incorrect
14,4,114,A,46.79261051371206,66.07682562552604,2.339630525685603,1.0379323497884319,A,361.2969170208089,Correct
14,4,115,A,32.59311812592221,45.90304640274696,1.6296559062961107,0.7210433667813061,B,9072.429082996678,Incorrect
14,4,116,A,61.51278586564693,77.2068200065083,3.0756392932823466,1.2127618926973798,A,641.7568329779897,Correct
14,4,117,B,66.24349541977509,53.165968418619,3.312174770988754,0.8351290790246021,B,1518.3827499859035,Correct
14,4,118,B,50.69129336193093,24.24762600652013,2.5345646680965466,0.38088081864538226,B,2948.712874989724,Correct
14,4,119,B,75.61928110333648,64.5687186740929,3.7809640551668235,1.014243061191182,B,2773.8914170186035,Correct
14,4,120,B,45.90654606840764,28.816370761208514,2.295327303420382,0.45264649343266194,A,469.4709579925984,Incorrect
14,4,121,A,40.9150752017476,59.64744566876269,2.0457537600873796,0.936939885591906,B,673.9639580191579,Incorrect
14,4,122,B,33.09621775519169,14.386532404874732,1.6548108877595842,0.2259831225689298,A,558.1577499979176,Incorrect
14,4,123,A,39.16734608061994,46.21969090750902,1.9583673040309972,0.7260172070311065,B,715.7331249909475,Incorrect
14,4,124,A,30.559293797031472,44.17307618514203,1.5279646898515735,0.6938690581485223,A,3861.7214580008294,Correct
14,4,125,A,52.85041238733651,67.28771090152804,2.6425206193668256,1.0569528912255717,B,959.4600420095958,Incorrect
14,4,126,B,51.16994719450466,30.0655556448352,2.5584973597252327,0.472268643699547,B,4756.908209004905,Correct
14,4,127,A,56.97213176152209,65.99310091961419,2.8486065880761045,1.0366172051833487,B,3315.116791985929,Incorrect
14,4,128,B,72.2761983676985,59.855526468417224,3.613809918384925,0.9402084111496449,B,9228.245250007603,Correct
14,4,129,B,45.600833630977284,32.00733337455405,2.280041681548864,0.502770016952492,B,12117.241707979701,Correct
14,4,130,A,26.339319011915638,38.55246870815265,1.3169659505957818,0.6055807623564138,A,6380.580541997915,Correct
14,4,131,A,42.49208460575843,66.79408524043022,2.1246042302879213,1.04919903747293,A,4712.411042011809,Correct
14,4,132,B,59.49810658686768,31.425362683979046,2.974905329343384,0.493628442721917,B,1233.6187500040978,Correct
14,4,133,B,71.32344651096356,61.18845309972723,3.566172325548178,0.9611459737131333,B,914.9008340027649,Correct
14,4,134,A,13.797286370233603,31.350450912357104,0.6898643185116802,0.4924517313649425,A,4418.255041993689,Correct
14,4,135,A,31.712579648378032,58.011141610996425,1.5856289824189016,0.9112368815573175,A,2652.891375008039,Correct
14,4,136,A,20.721679603127495,34.610588111020924,1.0360839801563748,0.5436618467300278,A,5630.204499990214,Correct
14,4,137,A,43.07404587479229,54.36164156729627,2.1537022937396144,0.8539106689244973,B,1207.2483339870814,Incorrect
14,4,138,B,52.73215218157602,43.150539479866175,2.636607609078801,0.6778070891419196,B,1325.0781660026405,Correct
14,4,139,B,75.6601731690329,44.19777517484321,3.783008658451645,0.6942570289715039,B,1344.168040988734,Correct
14,4,140,A,29.31909268786379,46.91029954039561,1.4659546343931895,0.7368652620690175,A,1367.458709020866,Correct
14,4,141,A,58.623129356008086,76.96804369480758,2.9311564678004043,1.2090112031639284,B,1328.0509589822032,Incorrect
14,4,142,A,36.413566400725735,65.4044982194638,1.8206783200362866,1.0273714555899711,A,565.9669589949772,Correct
14,4,143,A,23.08547921770281,54.778092328754774,1.1542739608851407,0.860452262188397,A,695.5970419803634,Correct
14,4,144,A,32.2383226654061,52.307558351597876,1.611916133270305,0.8216452052229967,A,497.5431660132017,Correct
14,4,145,B,32.740425298733285,16.02670195372454,1.6370212649366642,0.251746845595471,B,728.6328330228571,Correct
14,4,146,B,63.207868208257246,50.00154678597136,3.160393410412862,0.7854224602546697,A,1023.0313329957426,Incorrect
14,4,147,B,64.66105683015547,55.90330866411025,3.2330528415077735,0.8781271190526571,B,580.4665829928126,Correct
14,4,148,A,34.30722001924818,48.391385972751095,1.715361000962409,0.7601301133451149,A,1095.7382499764208,Correct
14,4,149,B,38.69012669254906,23.890946609920135,1.934506334627453,0.37527811178515535,A,1104.141250019893,Incorrect
14,4,150,B,48.85363887644975,18.406892134617877,2.442681943822487,0.28913478552767635,A,791.550666996045,Incorrect
14,4,151,A,36.92522268295958,65.17347251770228,1.8462611341479789,1.0237425123527486,B,604.8717079975177,Incorrect
14,4,152,B,60.03681674859426,46.7771403832987,3.001840837429713,0.7347736029205483,A,797.7949170162901,Incorrect
14,4,153,B,65.4216982736234,50.4844380844326,3.2710849136811704,0.7930076990333109,B,531.0348329949193,Correct
14,4,154,B,79.4032536640055,53.635222659110134,3.970162683200275,0.842500107397566,A,848.6747500137426,Incorrect
14,4,155,A,13.381484097020138,36.279832153566936,0.6690742048510069,0.5698822708355833,A,501.2924589973409,Correct
14,4,156,A,34.03422371080736,60.58535549146337,1.7017111855403682,0.9516725386355367,B,799.810083990451,Incorrect
14,4,157,A,49.08495226616478,78.33022787248471,2.454247613308239,1.2304083421910619,A,485.9915419947356,Correct
14,4,158,B,80.56068536830684,61.06922552780333,4.028034268415342,0.959273151392826,B,580.7914170145523,Correct
14,4,159,A,16.33778922068868,46.696705113061476,0.8168894610344339,0.7335101286502144,A,1883.9690840104595,Correct
14,4,160,B,83.6791351368784,62.47596103976033,4.18395675684392,0.9813701011423659,B,706.9077909982298,Correct
14,4,161,A,49.73432736797687,59.77509423352112,2.4867163683988434,0.938944984558338,B,2945.6914170004893,Incorrect
14,4,162,A,18.479150589623167,45.71659455469836,0.9239575294811584,0.7181145880009177,A,3870.9347079857253,Correct
14,4,163,B,46.86575479728923,21.234403609792775,2.3432877398644614,0.3335492319194278,A,3448.049541009823,Incorrect
14,4,164,B,52.54052212897417,29.31816048581983,2.6270261064487084,0.46052858799509067,B,1110.7468339905608,Correct
14,4,165,A,48.8482519386047,79.86309217557498,2.442412596930235,1.2544865183587541,A,810.9606249781791,Correct
14,4,166,B,50.65620097370178,39.58076765400473,2.532810048685089,0.6217332444263288,B,1648.698292003246,Correct
14,4,167,A,17.69535266010512,38.89287988095909,0.8847676330052558,0.6109279285548568,A,4088.3982079976704,Correct
14,4,168,B,88.3912846434962,63.69249161227187,4.41956423217481,1.0004793186897143,B,521.1404589936137,Correct
14,4,169,B,51.49926369220355,37.40812864290615,2.5749631846101773,0.5876055106454794,A,584.3292080098763,Incorrect
14,4,170,B,88.29528625824287,64.03418295701296,4.414764312912143,1.0058465937818832,B,1058.6851660045795,Correct
14,4,171,A,20.800839577088556,46.87277282406338,1.0400419788544277,0.7362757937873041,B,3997.1841249789577,Incorrect
14,4,172,B,57.16602511592231,29.10001915156676,2.8583012557961154,0.457102031929422,B,966.9242499803659,Correct
14,4,173,B,60.43626851841478,52.906396652211825,3.0218134259207385,0.8310517352524815,A,2263.4718750196043,Incorrect
14,4,174,B,66.93982503525734,45.31791422585528,3.346991251762867,0.7118521320397966,B,565.7827499962877,Correct
14,4,175,B,74.50921557552184,57.98105898599523,3.7254607787760916,0.9107643447887953,A,878.6327080160845,Incorrect
14,4,176,B,78.04268673838791,62.211819919891916,3.902134336919396,0.977220982133918,B,493.24924999382347,Correct
14,4,177,B,80.98648796852561,66.81134843331044,4.04932439842628,1.0494702070725799,B,861.8220410135109,Correct
14,4,178,A,26.601511208171953,49.06737050418562,1.3300755604085976,0.7707484535345903,A,2376.691999990726,Correct
14,4,179,A,26.171879148035273,47.14008050376711,1.3085939574017635,0.740474653001331,A,590.4384999885224,Correct
14,4,180,B,57.42862809732011,30.186646769130498,2.8714314048660055,0.47417073863205217,B,889.4814999948721,Correct
14,4,181,A,62.033049310010625,81.67159354302125,3.101652465500531,1.282894391408636,B,2295.0051660009194,Incorrect
14,4,182,A,61.338634006980556,86.00242909536787,3.066931700349028,1.3509229971844239,B,1978.2903329760302,Incorrect
14,4,183,B,42.28436532104553,31.864192230795293,2.1142182660522764,0.5005215611241973,A,666.2179580016527,Incorrect
14,4,184,B,76.06742324380843,57.29444218784626,3.803371162190422,0.8999789933443145,B,3318.770207988564,Correct
14,4,185,B,62.71245991006136,30.575924180009814,3.135622995503068,0.4802854939031868,B,904.12141699926,Correct
14,4,186,B,41.578009546155904,15.57085967101698,2.078900477307795,0.2445864917627226,A,645.6393330008723,Incorrect
14,4,187,B,45.74277491673066,21.69199091842371,2.287138745836533,0.3407369965552821,A,14045.644208003068,Incorrect
14,4,188,B,42.73998169782976,30.394320129653323,2.136999084891488,0.4774328641508762,B,517.1072079974692,Correct
14,4,189,B,76.957262038757,62.33307235471413,3.8478631019378495,0.9791256109262546,B,707.0726249949075,Correct
14,4,190,A,27.154312037449895,39.093106774566024,1.3577156018724947,0.61407308524489,B,619.5880840241443,Incorrect
14,4,191,A,24.4802168074636,47.39781492839539,1.2240108403731798,0.7445231358762779,A,398.00379099324346,Correct
14,4,192,A,14.66681806871378,33.986052349660724,0.733340903435689,0.5338516619310613,A,623.6617499962449,Correct
14,4,193,B,31.39464885010077,18.18206459608725,1.5697324425050385,0.28560320281081386,A,596.7004169942811,Incorrect
14,4,194,B,60.49688496860139,27.463236190034408,3.0248442484300697,0.43139150529206716,B,520.9577079804149,Correct
14,4,195,A,39.933114527954224,49.67737827498419,1.9966557263977112,0.7803304331914577,A,490.8377919928171,Correct
14,4,196,A,26.262654988255015,52.51746379726833,1.3131327494127507,0.8249423922533304,A,621.3570419931784,Correct
14,4,197,A,29.975225411417025,59.411717547819265,1.498761270570851,0.9332370769269039,A,516.6877909796312,Correct
14,4,198,B,48.377045808725256,31.677420790768746,2.418852290436263,0.49758776220475837,A,473.2885409903247,Incorrect
14,4,199,A,48.19067236483163,67.93625264541282,2.4095336182415816,1.0671401611162454,B,477.4737499828916,Incorrect
14,4,200,B,68.80612797503849,43.63766145215492,3.440306398751925,0.685458783189642,B,744.9714170070365,Correct
14,4,201,B,84.79271825615237,56.754126103315684,4.239635912807619,0.8914917281354263,B,557.3206249973737,Correct
14,4,202,B,66.85517598492713,44.60243165183754,3.3427587992463565,0.7006133580482684,A,900.6296670122538,Incorrect
14,4,203,A,61.38263269747696,84.10451309935794,3.0691316348738478,1.3211106024334474,B,2004.2455419898033,Incorrect
14,4,204,B,55.935209184093715,24.730597704573142,2.7967604592046857,0.38846732033785786,A,517.8381250007078,Incorrect
14,4,205,B,38.56782331154848,14.104491801819254,1.928391165577424,0.22155283913606416,B,622.7953339985106,Correct
14,4,206,B,48.21601887697783,27.16120507939123,2.4108009438488915,0.42664721170030634,A,840.8137499936856,Incorrect
14,4,207,A,23.574054055704753,40.695910016746566,1.1787027027852377,0.6392498596988113,A,641.6276250092778,Correct
14,4,208,A,53.19383455176595,65.35250155664545,2.6596917275882976,1.0265546939203642,A,2396.422749996418,Correct
14,4,209,A,47.15979034405983,62.316618360692466,2.3579895172029914,0.9788671521925514,B,563.260208000429,Incorrect
14,4,210,A,26.13757228142371,49.984802384814294,1.3068786140711857,0.7851594398163508,A,647.9109590000007,Correct
14,4,211,B,52.60513710905105,37.01480835376102,2.6302568554525525,0.5814272499910487,B,538.2335839967709,Correct
14,4,212,B,53.03263415036051,34.28046661467285,2.6516317075180256,0.538476310391432,A,598.7435409915633,Incorrect
14,4,213,A,61.04597759240502,86.27566738431761,3.0522988796202513,1.3552150141906436,B,481.41879099421203,Incorrect
14,4,214,B,36.84838873737906,23.607150014622828,1.842419436868953,0.3708202452906562,A,576.0484999918845,Incorrect
14,4,215,B,79.46350156706252,58.577164552619166,3.973175078353126,0.9201279491331442,B,456.6534170007799,Correct
14,4,216,A,24.795047660542544,41.17138374292062,1.239752383027127,0.6467185835244282,A,499.5317500142846,Correct
14,4,217,A,47.17709661122256,63.58874407215727,2.358854830561128,0.998849656140454,B,887.1822080109268,Incorrect
14,4,218,A,37.31551521543875,55.84831377455456,1.8657757607719376,0.8772632613475912,A,578.7892500229646,Correct
14,4,219,B,42.154706535455254,32.81294727763554,2.107735326772763,0.515424570550245,A,1040.9048330038786,Incorrect
14,4,220,B,40.13175255554463,25.699627875417644,2.0065876277772317,0.4036888106670176,B,535.3172499744687,Correct
14,4,221,B,63.75026744292711,32.294635123182275,3.1875133721463556,0.5072829422667616,B,672.2349580086302,Correct
14,4,222,B,76.41233253200258,52.117851419531746,3.820616626600129,0.8186652957024266,A,882.2782920033205,Incorrect
14,4,223,B,77.54262009178908,48.574708779496454,3.877131004589454,0.7630097412596483,B,643.3648749953136,Correct
14,4,224,A,32.70110562418302,40.95501344180967,1.635055281209151,0.6433198467823024,A,535.9162499953527,Correct
14,4,225,B,55.678631493362616,38.90804177598569,2.783931574668131,0.6111660910450071,A,608.8905000069644,Incorrect
14,4,226,A,18.585849037958017,43.10389280954895,0.9292924518979008,0.6770743649580044,A,818.533416982973,Correct
14,4,227,B,67.20712457260339,37.247944397822025,3.3603562286301694,0.5850893424075938,B,1309.403667022707,Correct
14,4,228,B,49.49865321633486,37.493253131135,2.4749326608167426,0.588942642979781,B,958.386749989586,Correct
14,4,229,B,62.601148239321844,34.27841499959621,3.130057411966092,0.5384440836971681,A,632.7461249893531,Incorrect
14,4,230,B,35.92399006645226,18.294131872540433,1.796199503322613,0.28736355147287956,A,747.5643329962622,Incorrect
14,4,231,A,43.0923138323472,71.33124654632532,2.15461569161736,1.1204686006066897,B,529.9424590193667,Incorrect
14,4,232,A,34.36165011577818,59.23861798819795,1.7180825057889093,0.9305180354026743,A,833.2227909995709,Correct
14,4,233,B,63.52606293402519,32.709474801604166,3.1763031467012595,0.5137992286975005,A,1618.3352079824544,Incorrect
14,4,234,A,46.67169646387143,78.3513037372732,2.333584823193571,1.2307394011009998,B,276.55854102340527,Incorrect
14,4,235,B,53.92150678605326,32.39449713594409,2.696075339302663,0.5088515710950878,A,1921.2774579937104,Incorrect
14,4,236,B,34.30758332559173,15.149268043672482,1.7153791662795865,0.23796414596632043,B,611.3268340122886,Correct
14,4,237,B,67.45472851029393,36.4566465468979,3.3727364255146965,0.5726596648312707,B,1893.4660000086296,Correct
14,4,238,A,40.637605800826165,71.42594792059907,2.0318802900413084,1.1219561663152058,B,968.6996660020668,Incorrect
14,4,239,A,39.88765825259142,67.82971397544853,1.9943829126295711,1.0654666556018302,B,614.5637089794036,Incorrect
14,4,240,B,51.91881919588056,38.71351205357816,2.5959409597940284,0.6081104253109053,B,3361.3662910065614,Correct
14,4,241,A,39.09526539256688,55.010253108629854,1.9547632696283441,0.8640990351909331,A,4039.297000010265,Correct
14,4,242,A,62.34289088942746,86.9799008028784,3.117144544471373,1.3662770868614589,B,1026.84037500876,Incorrect
14,4,243,A,52.748282666184,64.43689183626749,2.6374141333091994,1.0121723300648904,A,560.1116670004558,Correct
14,4,244,B,73.50612545002237,62.075833463080414,3.675306272501118,0.9750849118653844,B,700.1910840044729,Correct
14,4,245,A,58.61671640751688,69.85221486953674,2.930835820375844,1.0972360253555615,B,589.5170829899143,Incorrect
14,4,246,A,50.126073405185394,68.44534372071024,2.50630367025927,1.0751369450270578,A,1304.1525000007823,Correct
14,4,247,B,44.039101326132176,33.74435609472705,2.2019550663066085,0.5300551060365624,B,641.4728749950882,Correct
14,4,248,A,40.854829961654325,56.349495510796544,2.0427414980827163,0.8851358056510473,B,3255.8848329936154,Incorrect
14,4,249,A,60.63926612613774,76.67731337174425,3.0319633063068867,1.2044444219283705,A,887.7661250007804,Correct
14,4,250,B,81.10462023872465,62.1904571675846,4.0552310119362325,0.9768854168053723,B,2389.5352499966975,Correct
14,4,251,A,58.90727152146606,80.76044944770784,2.945363576073303,1.268582173427644,B,780.3571670083329,Incorrect
14,4,252,A,45.555785045024386,58.125841871721676,2.2777892522512193,0.913038589039614,A,537.7025000052527,Correct
14,4,253,B,61.859190898732535,37.901133260151404,3.092959544936627,0.5953496090640971,A,1048.2076669868547,Incorrect
14,4,254,B,75.90746111304236,56.99305766429805,3.795373055652118,0.895244856318891,B,683.9852080156561,Correct
14,4,255,A,57.70053688013032,79.29815507361455,2.885026844006516,1.2456125071124582,B,4098.212209006306,Incorrect
14,4,256,A,19.740567062594337,41.75020764356529,0.9870283531297168,0.6558107280943657,A,640.002917003585,Correct
14,4,257,B,68.22395435029594,57.053765744492466,3.411197717514797,0.8961984566126527,B,546.2915000098292,Correct
14,4,258,A,22.494858491676847,47.307286367259636,1.1247429245838425,0.7431011165632571,A,380.08141599129885,Correct
14,4,259,B,60.971288937072885,30.942738796339682,3.048564446853644,0.4860474044226431,B,491.6575420065783,Correct
14,4,260,A,19.097144171592582,32.53436028564766,0.9548572085796292,0.511048536313171,A,594.8204169981182,Correct
14,4,261,B,54.900546351467135,30.08154338326394,2.7450273175733564,0.47251977850752325,B,521.4960839948617,Correct
14,4,262,B,39.97324232646012,20.81329480370621,1.9986621163230058,0.32693447026161027,A,1028.797625011066,Incorrect
14,4,263,A,57.25696752190261,76.09148715274792,2.86284837609513,1.195242285198975,B,360.87108301580884,Incorrect
14,4,264,B,50.10270173880921,21.120732512535266,2.5051350869404603,0.33176369049907944,A,652.7118330122903,Incorrect
14,4,265,A,50.604208681427394,81.13117870687157,2.53021043407137,1.274405575012942,A,1325.9533749951515,Correct
14,4,266,A,33.09652876000207,54.56047135395388,1.6548264380001034,0.8570338799098891,B,629.7138329828158,Incorrect
14,4,267,B,56.34354967085663,42.031958035806,2.8171774835428316,0.660236452906413,A,475.87550000753254,Incorrect
14,4,268,A,24.51165251876048,45.4142064852397,1.225582625938024,0.713364687313195,A,625.4218749818392,Correct
14,4,269,B,33.47556073038782,18.338623285313172,1.673778036519391,0.28806242095045287,B,689.756750012748,Correct
14,4,270,A,35.3286896278244,61.840004910880054,1.7664344813912203,0.9713805256298877,A,679.0327079943381,Correct
14,4,271,A,19.17189406664024,49.61273659059616,0.9585947033320121,0.7793150439875121,B,480.1466249919031,Incorrect
14,4,272,B,35.9939697081317,19.602433238981913,1.7996984854065852,0.30791430128034974,A,614.27012499189,Incorrect
14,4,273,A,26.5166559673399,41.76935387624948,1.3258327983669949,0.6561114764140886,A,629.2870420147665,Correct
14,4,274,A,35.06231747227393,59.33563271041261,1.7531158736136967,0.9320419390956725,A,367.19904199708253,Correct
14,4,275,A,64.89459458087775,75.71871538348375,3.244729729043888,1.1893867999400451,B,1426.6415830061305,Incorrect
14,4,276,B,80.65556639798427,56.09311506523737,4.032778319899213,0.8811085910295833,B,570.7215840229765,Correct
14,4,277,B,53.58785179240186,42.56751908040379,2.6793925896200927,0.6686490261226995,B,586.0269170079846,Correct
14,4,278,B,61.227704906365155,34.502460574672526,3.0613852453182577,0.5419633833608134,B,522.665041993605,Correct
14,4,279,A,66.42119853004323,88.74356265046774,3.321059926502161,1.393980622380475,B,616.068000002997,Incorrect
14,4,280,B,66.21164061657393,34.281192044583136,3.3105820308286966,0.5384877054178162,B,485.02933300915174,Correct
14,4,281,A,68.18227711330073,81.92817881779482,3.4091138556650367,1.2869248234798754,B,541.4194170152768,Incorrect
14,4,282,A,21.739128019900303,43.118637884361235,1.0869564009950152,0.677305980051539,A,554.9987079866696,Correct
14,4,283,B,62.077057590234055,32.71408837532131,3.1038528795117024,0.5138716985439834,B,568.6681669903919,Correct
14,4,284,B,43.27850095175404,33.50692614172955,2.163925047587702,0.5263255650561668,B,662.911040999461,Correct
14,4,285,B,47.54745684314646,20.424696911298483,2.377372842157323,0.32083038884166726,B,569.8501660081092,Correct
14,4,286,A,47.99895016271603,65.28565243570044,2.3999475081358015,1.0255046303840654,B,627.7325830014888,Incorrect
14,4,287,B,37.678070657266204,13.81612467218233,1.8839035328633102,0.21702317885604347,A,666.3079170102719,Incorrect
14,4,288,A,20.588772669106778,33.12438899847742,1.029438633455339,0.520316685661336,A,811.6992500144988,Correct
14,4,289,B,84.83531902468033,69.44424032421543,4.241765951234016,1.0908275761833963,B,529.8973340250086,Correct
14,4,290,A,35.88745252206319,57.2359594485762,1.7943726261031596,0.8990603486240515,A,687.2207919950597,Correct
14,4,291,A,39.39348083843164,47.988241094369165,1.969674041921582,0.75379752840383,A,726.008916972205,Correct
14,4,292,A,57.134291137222256,77.70071782631227,2.856714556861113,1.2205200215089806,A,677.3867910087574,Correct
14,4,293,B,55.94706379494713,39.99271985308908,2.7973531897473563,0.6282041744376965,B,572.8427499998361,Correct
14,4,294,B,55.26063417048237,31.392839706273627,2.7630317085241183,0.4931175729827559,A,581.2955829896964,Incorrect
14,4,295,A,16.881255184148184,46.666891343975415,0.8440627592074093,0.7330418150605312,A,1158.8604589924216,Correct
14,4,296,A,41.05447672569788,49.782396029296514,2.052723836284894,0.781980048218678,B,542.3289999889676,Incorrect
14,4,297,B,53.94956876933798,45.130092279863995,2.6974784384668986,0.7089018318112508,B,797.729125013575,Correct
14,4,298,B,48.750833789543236,41.81305000021913,2.437541689477162,0.6567978535243555,B,456.60283300094306,Correct
14,4,299,A,48.61813307442462,69.06364350855391,2.430906653721231,1.084849175383087,A,887.1882919920608,Correct
