subject,day,trial,cat,x,y,xt,yt,resp,rt,fb
18,9,0,A,46.85899323361573,76.44503487864952,2.3429496616807866,1.2007957998909042,B,1192.291207999915,Incorrect
18,9,1,B,74.71761757660028,45.96040743586585,3.735880878830014,0.7219443917825491,B,703.2146660003491,Correct
18,9,2,B,71.89336296984533,50.30841899698494,3.5946681484922665,0.7902427976732254,B,723.3314169998266,Correct
18,9,3,B,46.05815636552997,23.89160649798767,2.3029078182764984,0.3752884772826812,A,389.2909999999574,Incorrect
18,9,4,B,51.74942158269573,36.490550091592745,2.5874710791347866,0.5731922204659905,B,424.5702089997394,Correct
18,9,5,A,21.511549074922076,37.57593565204651,1.0755774537461038,0.5902414169811605,A,243.13420900034544,Correct
18,9,6,B,53.80138240726217,34.560308870810424,2.690069120363108,0.5428720622716608,B,384.87374999976964,Correct
18,9,7,B,77.99060040307224,60.188881489839304,3.8995300201536116,0.9454447395813291,A,273.62558400000125,Incorrect
18,9,8,A,30.138763645461122,45.38527418072965,1.506938182273056,0.7129102197366939,A,477.05245799988916,Correct
18,9,9,A,35.4671695828118,68.53188601624929,1.77335847914059,1.076496348226509,A,303.8464589999421,Correct
18,9,10,B,34.69367981745204,17.39070540988347,1.7346839908726022,0.27317256178217086,A,398.3944999999949,Incorrect
18,9,11,A,30.904423620900516,53.482715084924294,1.5452211810450256,0.840104524024171,B,345.2348340001663,Incorrect
18,9,12,A,52.79929666098647,66.47987616764412,2.6399648330493233,1.0442634528991497,A,290.4710409998188,Correct
18,9,13,B,62.77718052718386,51.129620771345685,3.138859026359193,0.8031422049804585,A,305.10545800007094,Incorrect
18,9,14,B,80.42978794364565,64.57525505026184,4.0214893971822825,1.0143457343479492,B,1119.7789579996424,Correct
18,9,15,A,40.48655555402478,63.71396806695979,2.0243277777012394,1.0008166700510777,A,843.1080000000293,Correct
18,9,16,B,42.17921926099208,28.65679871933791,2.108960963049604,0.4501399416603668,A,301.73645900003976,Incorrect
18,9,17,A,39.7538559035163,63.85549507133749,1.987692795175815,1.0030397710372654,B,387.60999999976775,Incorrect
18,9,18,A,50.208762630617585,75.21844792936561,2.5104381315308792,1.1815286171466068,A,244.05779200014877,Correct
18,9,19,A,62.6271533836026,72.31870707486684,3.1313576691801295,1.1359795943175692,A,325.36966699990444,Correct
18,9,20,B,50.64462913862748,40.063592850221255,2.532231456931374,0.6293174448733383,B,491.9126250001682,Correct
18,9,21,B,51.913718530136606,20.98977167797241,2.5956859265068304,0.3297065625202261,B,367.3922500001936,Correct
18,9,22,B,76.05073990585929,57.47869293192986,3.8025369952929644,0.9028731972644721,A,423.5411659997226,Incorrect
18,9,23,A,68.59939080709947,88.47377517260806,3.429969540354973,1.3897428105881027,B,569.5145409999895,Incorrect
18,9,24,B,30.34685567751565,14.09759592105829,1.5173427838757823,0.22144451889437075,A,422.5533750000068,Incorrect
18,9,25,B,68.98163469979093,50.272274661896226,3.449081734989546,0.7896750437853075,B,365.5753329999243,Correct
18,9,26,A,19.016091710989222,44.38411750995313,0.9508045855494612,0.6971840875266742,A,1557.5910410002507,Correct
18,9,27,B,80.70420886259318,63.17475884251182,4.035210443129659,0.9923467913597098,B,464.87183299996104,Correct
18,9,28,A,29.79191288231993,62.33304109721633,1.4895956441159965,0.9791251199346274,A,295.80187500005195,Correct
18,9,29,B,67.12875732931394,37.467113552181225,3.356437866465697,0.5885320434337356,B,454.3394160000389,Correct
18,9,30,A,47.44846838633411,71.60564273919638,2.3724234193167058,1.1247788059251733,A,256.3567909996891,Correct
18,9,31,B,87.91602831098822,65.10823748972555,4.395801415549411,1.0227178029295068,B,301.47308300001896,Correct
18,9,32,B,72.69347474864196,53.25447315069482,3.634673737432098,0.8365193081050889,A,375.4657079998651,Incorrect
18,9,33,A,21.08997549780578,44.758956553866845,1.054498774890289,0.703072045459864,A,540.6244579999111,Correct
18,9,34,B,66.9898758834804,56.466950673962565,3.3494937941740197,0.8869807870396901,B,557.3140420001437,Correct
18,9,35,A,26.925071499274353,49.13885453356952,1.3462535749637174,0.7718713220423976,A,374.0535000001728,Correct
18,9,36,A,20.948939171137148,37.53931292785924,1.0474469585568573,0.5896661485748548,B,458.3593329998621,Incorrect
18,9,37,A,47.55468046019877,65.94477155744353,2.377734023009938,1.0358580493376086,B,367.74537499968574,Incorrect
18,9,38,B,30.96480919365998,15.365440813702794,1.548240459682999,0.24135977989748736,A,630.9814169999299,Incorrect
18,9,39,B,39.99114251830183,26.197422383259664,1.9995571259150915,0.41150814851118683,A,534.6000829999866,Incorrect
18,9,40,A,45.18272159491352,65.46304890834833,2.2591360797456757,1.0282911676602822,B,253.2741250001891,Incorrect
18,9,41,B,62.46638601745947,45.79266279435873,3.123319300872973,0.7193094651153602,A,213.99441599987767,Incorrect
18,9,42,A,24.449020734555965,39.272424406045445,1.2224510367277983,0.6168898000134644,B,194.36441600009857,Incorrect
18,9,43,B,52.03942748788058,33.653596773734535,2.6019713743940294,0.5286294619561879,A,294.87266700016335,Incorrect
18,9,44,B,75.11865142481012,53.337474254708304,3.7559325712405065,0.8378230863981319,B,385.3184169997803,Correct
18,9,45,A,54.30574569739498,73.45000352564902,2.715287284869749,1.153749957411617,B,357.83945800039874,Incorrect
18,9,46,A,55.04488336762079,76.9890967197398,2.7522441683810395,1.209341903306243,A,351.5704579999692,Correct
18,9,47,B,52.018266474406545,43.210475566892775,2.6009133237203277,0.6787485629953579,B,419.55125000004045,Correct
18,9,48,A,67.21381345057442,80.47601978579661,3.360690672528721,1.2641143627460272,A,369.57087500013586,Correct
18,9,49,B,81.51729740055482,63.91014347466258,4.075864870027741,1.0038981861493481,B,299.2657499999041,Correct
18,9,50,B,62.55984119159555,37.357589029860556,3.1279920595797774,0.5868116362601828,A,220.0285420003638,Incorrect
18,9,51,B,31.964051973170978,10.285542974446045,1.5982025986585489,0.16156493123350904,B,324.0040420000696,Correct
18,9,52,A,49.73899004760308,73.33430369243928,2.486949502380154,1.1519325486814505,B,430.03379199990377,Incorrect
18,9,53,B,56.63655638395093,24.236376676946296,2.831827819197547,0.3807041145896475,A,293.9060420003443,Incorrect
18,9,54,A,39.52927109652281,59.99927686222685,1.9764635548261407,0.9424664370553596,B,269.562374999623,Incorrect
18,9,55,A,23.046798858329772,43.38813160957898,1.1523399429164884,0.681539177588202,B,399.8009160000038,Incorrect
18,9,56,A,24.09242177783288,37.514727583712954,1.204621088891644,0.589279962892075,A,334.7647919999872,Correct
18,9,57,B,52.028337879780345,32.21734016572138,2.6014168939890174,0.5060687959141683,A,325.2497499997844,Incorrect
18,9,58,A,39.49804253646485,70.45001290023119,1.9749021268232425,1.106626214863362,B,241.3005409998732,Incorrect
18,9,59,A,42.547729175075276,69.23866553178665,2.127386458753764,1.0875984148951088,A,311.82862500008923,Correct
18,9,60,B,60.364752890412234,27.41134122982951,3.0182376445206116,0.430576341163377,A,413.15208400010306,Incorrect
18,9,61,B,67.31631339257116,39.040721016868844,3.365815669628558,0.6132502116872189,B,256.9842080001763,Correct
18,9,62,B,39.515846629096785,20.446200557621818,1.9757923314548393,0.32116816732824116,A,278.20962500027235,Incorrect
18,9,63,A,19.96554027630684,42.363082546381335,0.998277013815342,0.665437744555648,B,230.44245900018723,Incorrect
18,9,64,A,28.53340692873202,45.177511161827255,1.4266703464366008,0.7096466858673369,A,348.17833300030543,Correct
18,9,65,A,17.250963815661112,37.3832006310836,0.8625481907830556,0.5872139423514277,A,341.81079100017087,Correct
18,9,66,B,45.6528629032072,19.603247342942584,2.28264314516036,0.3079270891954603,A,508.06124999962776,Incorrect
18,9,67,B,64.20842572039143,53.20016650562607,3.2104212860195718,0.8356662613191432,B,349.62099999984275,Correct
18,9,68,B,35.28623210271659,21.527650908041007,1.7643116051358294,0.33815554970873635,B,569.787333000022,Correct
18,9,69,B,61.42493573465746,52.10169066799625,3.071246786732873,0.8184114432109246,A,352.81391699982123,Incorrect
18,9,70,A,19.47888559728049,49.99573069768683,0.9739442798640247,0.7853311013535332,B,284.1219169999931,Incorrect
18,9,71,A,26.929516637032293,44.24549053208924,1.3464758318516146,0.6950065400504415,A,314.00433399994654,Correct
18,9,72,A,61.034219835005,79.96623406287796,3.05171099175025,1.2561066673358963,B,518.405249999887,Incorrect
18,9,73,B,39.10482861093189,13.382424008734208,1.9552414305465944,0.2102106247653153,A,308.02966600003856,Incorrect
18,9,74,A,46.22250338991499,66.26322775834811,2.3111251694957495,1.0408603476438683,B,320.27625000000626,Incorrect
18,9,75,B,61.98907262476837,53.47620325822503,3.0994536312384184,0.8400022364895716,A,259.45029100012107,Incorrect
18,9,76,A,33.69601588918715,66.33327872483983,1.6848007944593575,1.0419607056524047,B,144.40191599987884,Incorrect
18,9,77,A,63.11528363578137,86.44629921559886,3.1557641817890683,1.357895292728752,B,448.49629100008315,Incorrect
18,9,78,B,38.86787149129071,17.644505822040777,1.9433935745645354,0.2771592493337282,A,288.9217499996448,Incorrect
18,9,79,A,53.26665947495626,73.24029592129398,2.663332973747813,1.1504558780653984,B,327.3620420000043,Incorrect
18,9,80,A,51.93069119879899,81.82130828525027,2.5965345599399496,1.2852461050802395,B,547.011958999974,Incorrect
18,9,81,A,58.90996381778663,81.04000446086893,2.945498190889332,1.2729734133057495,B,533.6166249999224,Incorrect
18,9,82,B,68.19928364099528,38.52359143756926,3.409964182049764,0.6051271592508112,B,509.70145899964336,Correct
18,9,83,A,67.62782120872042,80.99129015536326,3.3813910604360213,1.2722082107842427,A,321.1602080000375,Correct
18,9,84,B,57.90164175585124,38.42157271669139,2.8950820877925616,0.6035246529306184,A,365.48087499977555,Incorrect
18,9,85,B,53.36426714302368,22.580463176389493,2.668213357151184,0.3546930861480004,A,649.1467920000105,Incorrect
18,9,86,B,30.120717290872697,13.220146668852113,1.506035864543635,0.2076615782712269,A,1152.04841700006,Incorrect
18,9,87,B,46.065400956279724,27.761589916158638,2.303270047813986,0.4360780346628823,B,547.8555419999793,Correct
18,9,88,A,24.850686909151957,41.17673409451719,1.2425343454575979,0.6468026266507778,A,412.75133299996014,Correct
18,9,89,A,14.921355727928269,32.31490091279142,0.7460677863964135,0.5076012765455382,A,411.0209999998915,Correct
18,9,90,B,42.96567420628591,25.624247169188962,2.1482837103142955,0.4025047333024655,A,438.3947910000643,Incorrect
18,9,91,A,68.03944744433119,82.37547268300575,3.4019723722165596,1.2939508990845878,B,467.53016699994987,Incorrect
18,9,92,B,72.66469884113427,55.99074732371079,3.6332349420567134,0.8795006023058609,A,414.7457909998593,Incorrect
18,9,93,A,59.75824440847119,87.51071933190343,2.9879122204235595,1.3746151648173306,A,1076.4450830001806,Correct
18,9,94,A,48.03407282296108,56.951386554396365,2.401703641148054,0.8945902880552208,B,521.5944160004256,Incorrect
18,9,95,B,33.1576389689932,21.197019296291835,1.6578819484496596,0.3329620004961576,A,596.4454580002894,Incorrect
18,9,96,B,83.42379251031653,59.54285509122775,4.171189625515826,0.9352969806418135,A,334.2742909999288,Incorrect
18,9,97,A,24.38337765454001,51.49395373252818,1.2191688827270004,0.8088651337520162,A,581.5864169999259,Correct
18,9,98,B,46.10288887550513,23.681788691082104,2.3051444437752564,0.3719926668788469,A,444.2894579997301,Incorrect
18,9,99,B,47.372509961068374,19.921756688347713,2.3686254980534187,0.31293022229358247,B,442.0754580000903,Correct
18,9,100,A,29.563806213663277,55.19030321376661,1.4781903106831638,0.8669272556288118,A,437.0875839999826,Correct
18,9,101,A,17.479708180988894,32.04032903327578,0.8739854090494447,0.5032883115476948,A,453.52908399991065,Correct
18,9,102,B,56.11390634430123,48.74983179448289,2.805695317215061,0.7657605671464278,B,534.2579580001257,Correct
18,9,103,A,55.07601000493097,82.45389459286021,2.7538005002465487,1.295182747563984,A,335.6012499998542,Correct
18,9,104,B,52.57806290615062,22.68670340736473,2.628903145307531,0.3563619037937378,A,525.7747089999611,Incorrect
18,9,105,B,70.05079045872614,45.956182955398305,3.502539522936307,0.721878033798539,B,347.64945799997804,Correct
18,9,106,B,67.66627265986742,52.89485940581436,3.3833136329933713,0.8308705086098568,A,437.8047499999411,Incorrect
18,9,107,B,40.22310463245301,19.199486764673736,2.0111552316226504,0.3015848328629674,A,463.49458399981813,Incorrect
18,9,108,A,52.86464141511224,67.71401437364084,2.643232070755612,1.0636492505065185,B,572.6051249998818,Incorrect
18,9,109,B,46.96016849095107,34.15743583187184,2.3480084245475537,0.5365437473743667,A,444.60125000023254,Incorrect
18,9,110,A,31.06762440518956,44.7448850076273,1.553381220259478,0.7028510101284101,B,362.15833300002487,Incorrect
18,9,111,B,50.30344883538889,20.82713872648759,2.5151724417694448,0.3271519300921445,A,381.7134169999008,Incorrect
18,9,112,B,70.7966575982758,49.40414365553789,3.5398328799137904,0.7760384738256629,B,360.72304199979044,Correct
18,9,113,A,27.104186231708713,47.49317493560657,1.3552093115854356,0.7460210473667824,B,552.6303340002414,Incorrect
18,9,114,A,40.465466999856446,55.24237121954595,2.0232733499928224,0.8677451379510289,A,585.2104999999028,Correct
18,9,115,A,28.677530616909856,53.01366669680883,1.4338765308454926,0.8327367291727625,A,439.89341600035914,Correct
18,9,116,B,55.901159018475425,47.74246068459482,2.795057950923771,0.749936818755113,B,705.7930000000852,Correct
18,9,117,B,75.48432261983528,63.161929553158345,3.774216130991764,0.9921452693537914,B,554.2059999997946,Correct
18,9,118,B,54.04324344127274,32.727300377748385,2.702162172063637,0.5140792321928039,A,598.339708000367,Incorrect
18,9,119,B,72.34805229683718,56.050903880258446,3.617402614841859,0.8804455392864379,B,510.3942079999797,Correct
18,9,120,A,34.35933264117946,60.97845099378152,1.7179666320589733,0.9578472683467463,A,501.3323749999472,Correct
18,9,121,B,39.62908247849998,30.719661497188167,1.981454123924999,0.4825433144016579,B,564.2304999996668,Correct
18,9,122,B,44.320152440676075,21.9209603284564,2.216007622033804,0.3443336396375596,A,356.1352080000688,Incorrect
18,9,123,A,21.701253445251673,42.15986318259151,1.0850626722625836,0.6622455822539013,B,256.4968330002557,Incorrect
18,9,124,A,19.76117305436036,35.12344375032724,0.988058652718018,0.551717764274012,A,444.39870900032474,Correct
18,9,125,A,26.169131592383813,37.99611452934613,1.3084565796191907,0.596841571351751,A,351.20975000018007,Correct
18,9,126,B,67.6014839143478,54.23186533992489,3.38007419571739,0.8518721487118948,B,545.111542000086,Correct
18,9,127,B,53.7647951604976,46.12540218738516,2.68823975802488,0.724536123278819,B,506.21399999999994,Correct
18,9,128,A,42.38733421702644,57.703957760688375,2.119366710851322,0.9064116489201717,A,591.0685419999027,Correct
18,9,129,A,16.40089143838395,42.66461258404607,0.8200445719191976,0.6701741673114688,A,510.5015409999396,Correct
18,9,130,B,52.46181632383738,33.878491719421575,2.6230908161918696,0.5321621035021873,B,385.5135829999199,Correct
18,9,131,B,63.15246993278452,46.41062492257329,3.157623496639226,0.7290163915263381,A,518.6447920000319,Incorrect
18,9,132,B,63.24869159230339,46.29952739210758,3.1624345796151694,0.7272712755986228,B,384.7045839997918,Correct
18,9,133,B,35.9589198694235,24.69118146202034,1.7979459934711748,0.38784817144767786,A,471.09870799977216,Incorrect
18,9,134,B,83.24377779603671,54.30043013953439,4.162188889801836,0.8529491620656352,B,436.09404199969504,Correct
18,9,135,B,38.86072706840561,14.05727871321768,1.9430363534202804,0.2208112176745442,A,539.7038329997486,Incorrect
18,9,136,B,46.81355236992917,34.5165352663965,2.3406776184964584,0.5421844681014213,A,411.5831250001065,Incorrect
18,9,137,B,85.63809168397452,65.168003583226,4.281904584198726,1.0236566065308803,B,427.36966599977677,Correct
18,9,138,A,49.157737970704446,65.91217644190502,2.457886898535222,1.0353460464600153,B,368.19195799989757,Incorrect
18,9,139,A,13.8326568879693,38.33877152230737,0.6916328443984651,0.602224014810692,A,422.19824999983757,Correct
18,9,140,A,35.29919185382685,52.82776474833079,1.7649595926913424,0.8298165881946292,B,436.5680829996563,Incorrect
18,9,141,A,30.951625117143106,40.53487353116913,1.5475812558571553,0.6367203044985615,A,465.2243749997069,Correct
18,9,142,A,27.228760430087895,49.24007255649305,1.3614380215043949,0.7734612510285347,A,356.4897920000476,Correct
18,9,143,A,17.603482137898673,39.35678850615011,0.8801741068949337,0.6182149881990421,A,380.22845900013635,Correct
18,9,144,A,38.25557170479034,54.14968142845068,1.912778585239517,0.8505812068492417,A,486.54254200027935,Correct
18,9,145,B,52.312581279929084,32.08775767620733,2.6156290639964546,0.5040333189287122,A,502.11929199986116,Incorrect
18,9,146,A,43.26194393892878,63.90061468097663,2.1630971969464388,1.0037485082081412,B,360.20650000000387,Incorrect
18,9,147,B,59.18046082426755,37.66659030668102,2.9590230412133773,0.5916654169662281,A,437.48087499989197,Incorrect
18,9,148,A,45.60972666743775,76.92423419436231,2.280486333371887,1.2083230451401468,B,252.2869169997648,Incorrect
18,9,149,B,42.61351030569685,30.237301206144558,2.1306755152848424,0.4749664166680277,A,119.10216700016463,Incorrect
18,9,150,B,70.10345415335836,38.876158351077265,3.505172707667918,0.6106652673776891,B,269.77416700037793,Correct
18,9,151,B,49.72542137276914,36.48070645908574,2.486271068638457,0.5730375970481473,A,439.1414579999946,Incorrect
18,9,152,B,33.4480969294481,13.33923857229604,1.6724048464724048,0.2095322695160342,B,268.96866700008104,Correct
18,9,153,B,57.6527323287353,33.497008374721986,2.8826366164367645,0.5261697771363119,B,303.25691600000937,Correct
18,9,154,B,36.15552043807046,19.463178283783282,1.807776021903523,0.30572688955920974,B,288.70204100030605,Correct
18,9,155,A,22.22390100735555,34.54474371073103,1.1111950503677774,0.542627565308874,A,483.19908399980704,Correct
18,9,156,A,43.06561087880398,68.32343710942106,2.1532805439401987,1.0732220404548074,A,310.1706249999552,Correct
18,9,157,A,50.59237486764781,69.1508950639281,2.5296187433823905,1.086219719609976,A,401.0809579999659,Correct
18,9,158,B,44.11355473840936,34.11308206876194,2.2056777369204683,0.5358470400926411,A,332.47062500004176,Incorrect
18,9,159,A,53.380846020108066,75.4125704849674,2.669042301005403,1.18457788711948,B,258.2597910000004,Incorrect
18,9,160,A,64.62598459797105,76.82283848148762,3.231299229898553,1.206730325006784,A,265.86791599993376,Correct
18,9,161,A,66.2194147088803,86.17886123768234,3.3109707354440148,1.3536943867951854,A,368.32062499979656,Correct
18,9,162,B,53.14286943750254,46.48167585579698,2.657143471875127,0.7301324569755693,A,411.25562499973967,Incorrect
18,9,163,A,36.459288821815846,62.50217832909147,1.8229644410907924,0.9817819213601647,B,428.1446660002075,Incorrect
18,9,164,A,52.96692254666335,77.06772147524961,2.6483461273331677,1.2105769380777427,A,359.36583400007294,Correct
18,9,165,B,83.77704896124408,64.05570532790199,4.188852448062204,1.0061846663932472,A,375.47337499972855,Incorrect
18,9,166,A,45.696542283474884,67.59505676242033,2.284827114173744,1.0617806687190237,B,465.55770799977836,Incorrect
18,9,167,B,51.59350941124086,33.67062886197891,2.579675470562043,0.528897001372707,A,891.3613750000877,Incorrect
18,9,168,A,30.833872145043472,48.829711686668816,1.5416936072521736,0.7670153175587321,A,679.35316699959,Correct
18,9,169,B,75.87599412847861,63.850129082053314,3.793799706423931,1.0029554822746933,B,836.0934170000291,Correct
18,9,170,A,57.292772887282034,73.26204652782968,2.864638644364102,1.1507975357939169,A,744.0254169996479,Correct
18,9,171,A,23.027726135119597,36.89001415014497,1.1513863067559797,0.5794669872245948,A,579.6930830001656,Correct
18,9,172,A,62.33994032929702,79.77084717900722,3.116997016464851,1.2530375373410156,B,521.6560419999041,Incorrect
18,9,173,B,75.36194274076254,45.74722680462775,3.768097137038127,0.7185957582576231,B,610.7217080002556,Correct
18,9,174,B,75.26068031540423,63.28916667403747,3.763034015770211,0.9941439053748804,B,470.05158299998584,Correct
18,9,175,B,42.860470803711856,33.6132955896652,2.1430235401855926,0.5279964124371719,A,543.520959000034,Incorrect
18,9,176,B,73.38916890413132,59.7195973794535,3.6694584452065664,0.938073242013157,B,444.81554200001483,Correct
18,9,177,A,42.49687874279552,60.708322664785605,2.1248439371397763,0.9536041024772459,A,687.7208750001955,Correct
18,9,178,B,68.40275020322912,43.81267499554403,3.4201375101614557,0.6882078895005916,B,350.2212079997662,Correct
18,9,179,A,31.02796516280429,50.81671153657496,1.5513982581402144,0.7982270382144779,A,459.26091699993776,Correct
18,9,180,B,58.89933422738421,33.54412551055312,2.9449667113692106,0.5269098913752384,B,405.1913329999479,Correct
18,9,181,A,13.330958829208257,33.34964708713372,0.6665479414604129,0.5238550314437577,A,542.9994999999508,Correct
18,9,182,B,84.79173706202756,61.90214122988051,4.239586853101378,0.9723565606463522,B,1134.5035419999476,Correct
18,9,183,A,52.209987098100356,66.75474023550282,2.6104993549050177,1.0485810075807531,B,740.9625420000339,Incorrect
18,9,184,A,34.50500285067439,60.5529363706324,1.7252501425337192,0.9511633002763448,A,656.7210000002888,Correct
18,9,185,A,58.216204772035404,66.3492258084513,2.9108102386017705,1.0422112018560044,B,733.0956249998053,Incorrect
18,9,186,B,69.77351128515714,46.65755982896094,3.488675564257857,0.7328952359654497,B,468.9223340001263,Correct
18,9,187,B,39.18005391109985,16.511903464159268,1.9590026955549922,0.25936837309893307,B,386.3522910000938,Correct
18,9,188,A,36.1831263535908,54.48016961960913,1.8091563176795402,0.8557725032164494,A,498.9890000001651,Correct
18,9,189,B,51.67436208708528,22.909207365521006,2.5837181043542636,0.3598569877954298,B,364.91354200006754,Correct
18,9,190,A,56.701926189536564,77.49259349704994,2.8350963094768282,1.2172508121897612,A,402.1969159998662,Correct
18,9,191,B,47.06518130235885,27.489336953235632,2.3532590651179426,0.4318014951216975,B,333.6655000002793,Correct
18,9,192,A,64.86818786604346,85.42721996912428,3.243409393302173,1.3418876333580005,A,400.16941700014286,Correct
18,9,193,A,47.348172965431296,63.48540571544243,2.367408648271565,0.9972264210290069,B,324.76779199987504,Incorrect
18,9,194,B,64.24751132748871,51.78977822349046,3.2123755663744356,0.8135119339898113,B,520.894582999972,Correct
18,9,195,A,22.87862259275427,51.79773639461017,1.1439311296377135,0.8136369406494399,A,395.1528339998731,Correct
18,9,196,A,38.117302818368145,64.89714972318315,1.9058651409184073,1.0194020440463452,B,461.7100840000603,Incorrect
18,9,197,A,45.351642773118876,61.589596760708744,2.2675821386559436,0.9674471236050016,A,304.6024159998524,Correct
18,9,198,A,29.128283984008014,51.437276134691984,1.4564141992004007,0.8079748441270895,A,354.8251249999339,Correct
18,9,199,B,76.96449301401984,53.625317079082,3.8482246507009914,0.8423445109103365,B,533.000875000198,Correct
18,9,200,B,41.15623431597449,31.38773651932311,2.0578117157987244,0.49303741230958775,A,421.7141670001183,Incorrect
18,9,201,B,52.35229390037369,31.614260822214042,2.617614695018684,0.4965956477386962,B,355.3040840001813,Correct
18,9,202,B,58.832093883293226,48.110520407182314,2.941604694164661,0.7557182873579289,B,438.4271250000893,Correct
18,9,203,A,44.02834098018629,69.80304141454103,2.2014170490093146,1.0964636105307308,B,509.6938339997905,Incorrect
18,9,204,B,56.523209265423155,25.656468821080637,2.8261604632711577,0.4030108698268125,A,251.1747909998121,Incorrect
18,9,205,B,40.16128302999407,17.849593424302054,2.0080641514997035,0.28038075785676003,B,150.82412499987186,Correct
18,9,206,B,85.73277372806318,68.30392458189044,4.286638686403159,1.0729155383890914,B,538.2152089996453,Correct
18,9,207,A,43.11401603096086,53.13480243575518,2.155700801548043,0.8346395249105675,B,492.88954100029514,Incorrect
18,9,208,A,59.21677382537684,76.85224523685883,2.960838691268842,1.2071922452399844,A,587.9408750001858,Correct
18,9,209,B,74.38508514887891,60.25003817456477,3.719254257443946,0.9464053865385864,B,435.32762499989985,Correct
18,9,210,B,61.37158216375433,36.19234224509712,3.0685791081877163,0.5685079825670232,B,465.0705000003654,Correct
18,9,211,A,33.41464973525971,48.892276146739384,1.6707324867629854,0.7679980777993998,B,325.1154170002337,Incorrect
18,9,212,B,80.57931543156036,56.87168346446441,4.028965771578018,0.8933383148462275,B,501.99595899994165,Correct
18,9,213,A,31.44462811786608,46.90425816427489,1.572231405893304,0.7367703643548253,B,573.8497090001147,Incorrect
18,9,214,B,43.42548598564787,25.454344977898252,2.1712742992823935,0.399835915922527,B,419.8919170003137,Correct
18,9,215,A,50.71925886671909,68.51728245611004,2.5359629433359543,1.0762669560402605,B,524.4085829999676,Incorrect
18,9,216,A,25.819028264114223,49.06431215522561,1.2909514132057112,0.7707004131014658,A,360.9042920002139,Correct
18,9,217,B,67.5005124615063,39.29133447269994,3.3750256230753153,0.6171868386458675,B,1343.687332999707,Correct
18,9,218,B,45.997982663376646,23.91775795958691,2.2998991331688323,0.3756992634808851,A,531.5069579996816,Incorrect
18,9,219,B,56.29957798183938,29.572541979580855,2.814978899091969,0.4645244031551348,B,298.01516699990316,Correct
18,9,220,A,58.11194201103177,67.38229827109272,2.9055971005515886,1.0584386661523055,B,701.8718750000517,Incorrect
18,9,221,B,59.17299343736874,38.510625225977066,2.9586496718684367,0.6049234864753965,A,363.71733299984044,Incorrect
18,9,222,A,42.71096155858436,71.69580752843707,2.1355480779292177,1.1261951111226287,B,119.1145000002507,Incorrect
18,9,223,B,55.75546650047154,25.99127737789453,2.787773325023577,0.40827003033904014,A,310.9557500001756,Incorrect
18,9,224,A,47.64571386681516,54.850262761756596,2.3822856933407577,0.8615859126990216,B,275.05583400034084,Incorrect
18,9,225,A,37.70322396926815,48.04038133456645,1.8851611984634076,0.7546165453816308,A,515.8435830003327,Correct
18,9,226,B,74.58510995143368,44.900855751631426,3.7292554975716836,0.7053009928461015,B,480.0741660001222,Correct
18,9,227,A,48.25570807798397,71.53622309464825,2.4127854038991985,1.1236883646985374,A,289.3703340000684,Correct
18,9,228,A,51.77291245613683,76.45514704830545,2.5886456228068413,1.2009546414804189,A,512.1655840002859,Correct
18,9,229,B,72.48978650036251,58.618573430239856,3.624489325018126,0.9207783982617768,B,703.7713750000876,Correct
18,9,230,A,33.1820110560522,50.8915315003154,1.65910055280261,0.799402307456622,B,468.5273329996562,Incorrect
18,9,231,B,40.23040355633204,31.65399619821565,2.0115201778166023,0.49721980956536765,A,223.65862500009825,Incorrect
18,9,232,A,46.73987699546846,65.2917074049182,2.336993849773423,1.0255997416181266,B,177.6234580001983,Incorrect
18,9,233,A,45.10164555670382,55.918153405868985,2.255082277835191,0.8783602997109254,B,274.2118749997644,Incorrect
18,9,234,A,21.198026803185222,41.16824041031202,1.0599013401592612,0.6466692081712735,A,484.2770410000412,Correct
18,9,235,B,65.47429230611091,46.150123331899906,3.273714615305545,0.7249244421087983,A,269.6577500000785,Incorrect
18,9,236,B,44.4284522958567,19.076713863834648,2.221422614792835,0.2996563206462874,B,345.87108400000943,Correct
18,9,237,A,58.87424874172587,78.91472992624867,2.943712437086294,1.239589678981627,B,448.737125000207,Incorrect
18,9,238,A,14.439515456956808,39.86593234291287,0.7219757728478404,0.6262126008850141,A,365.3399999998328,Correct
18,9,239,A,25.65892750578305,44.44320512746642,1.2829463752891526,0.6981122336521637,A,376.915082999858,Correct
18,9,240,B,45.52695394454261,29.88161006438215,2.2763476972271306,0.46937923327848896,A,449.9777080000058,Incorrect
18,9,241,B,53.26953873429925,22.57539374322181,2.6634769367149627,0.3546134556780131,B,233.82470800015653,Correct
18,9,242,A,44.10072957732834,70.9479222765449,2.205036478866417,1.1144473570572655,B,316.1993329999859,Incorrect
18,9,243,B,50.1872453704924,18.874403147699677,2.50936226852462,0.29647843134852686,A,324.06458300010854,Incorrect
18,9,244,A,37.378944607452986,45.834621444260065,1.8689472303726493,0.7199685500467832,B,271.5707080001266,Incorrect
18,9,245,A,26.221672727575722,55.92453168476769,1.3110836363787859,0.8784604894815788,A,142.27566699992167,Correct
18,9,246,B,61.151348032862586,38.018730099379624,3.057567401643129,0.5971968158951209,A,595.3169169997636,Incorrect
18,9,247,A,10.204511990977643,34.56773637186089,0.5102255995488821,0.5429887331853342,A,498.6354590000701,Correct
18,9,248,A,53.80792316670757,70.93761383260393,2.6903961583353784,1.114285432398491,B,519.4964160000382,Incorrect
18,9,249,B,56.865990871574155,29.984145745070528,2.8432995435787074,0.4709898599843961,A,351.33979199963505,Incorrect
18,9,250,B,61.38753115142424,46.858110590204426,3.069376557571212,0.7360454799564216,B,347.8220000001784,Correct
18,9,251,A,51.98723324302327,72.63916408530363,2.5993616621511637,1.1410133212664673,B,374.70399999983783,Incorrect
18,9,252,B,87.64712563515143,61.705639323953186,4.382356281757572,0.9692699159259639,A,409.7004159998505,Incorrect
18,9,253,B,72.53327882666623,44.031254221770794,3.6266639413333115,0.6916413239572985,B,475.17112500008807,Correct
18,9,254,A,21.005945726075016,48.29040731148244,1.0502972863037507,0.7585439442430604,A,482.9435840001679,Correct
18,9,255,A,42.89339833521626,55.98215982155982,2.144669916760813,0.8793657101375101,B,573.9471249999042,Incorrect
18,9,256,B,57.74989384703066,43.25923380376516,2.8874946923515328,0.6795144555891593,B,428.78062499994485,Correct
18,9,257,B,66.92068103594373,33.99841680908481,3.3460340517971865,0.5340458824055229,B,408.6032079999313,Correct
18,9,258,B,48.57001012288824,25.90391274794188,2.4285005061444123,0.406897709940826,A,644.3803750003099,Incorrect
18,9,259,B,47.413756583466295,39.44685268356304,2.3706878291733147,0.6196297129896022,B,361.54237500022646,Correct
18,9,260,B,68.57615229512669,51.33236653825409,3.4288076147563347,0.8063269280397879,B,416.7979160001778,Correct
18,9,261,A,57.68048622184018,72.33310508143248,2.884024311092009,1.136205757675834,B,330.8714999998301,Incorrect
18,9,262,A,39.98255943162636,60.081049262102404,1.9991279715813182,0.9437509149089368,A,489.67004199994335,Correct
18,9,263,A,30.45287583286315,47.80113902913066,1.5226437916431577,0.7508585360357062,A,668.4460830001626,Correct
18,9,264,A,24.681628418918002,44.786576924224946,1.2340814209459001,0.7035059052228961,A,495.1277919999484,Correct
18,9,265,B,68.4258493461612,50.55439363575135,3.42129246730806,0.7941065582638152,B,512.8548330003468,Correct
18,9,266,B,82.82910644838505,59.56327482958329,4.141455322419253,0.9356177331418435,B,448.331541999778,Correct
18,9,267,A,11.910009098171578,39.00639212525478,0.595500454908579,0.6127109747187158,A,758.1802919999063,Correct
18,9,268,A,55.509910132648415,75.67919024558971,2.7754955066324207,1.1887659405258446,B,486.85716699992554,Incorrect
18,9,269,B,69.26780040924491,59.66744266240774,3.4633900204622456,0.9372539976335517,B,525.323791000119,Correct
18,9,270,B,70.85381317756377,52.318603875443685,3.5426906588781883,0.8218187079058418,B,390.215791999708,Correct
18,9,271,B,60.95053899710779,28.750381189957675,3.0475269498553894,0.451609931671386,B,399.949375000233,Correct
18,9,272,B,38.863977696615386,15.732823739665246,1.9431988848307693,0.24713061740377718,A,644.136625000101,Incorrect
18,9,273,A,21.501056052969673,44.67168123160887,1.0750528026484836,0.7017011279036374,A,552.5312079998912,Correct
18,9,274,A,56.76838064967786,68.62722621515846,2.838419032483893,1.0779939485689334,B,431.7906669994045,Incorrect
18,9,275,B,66.31853471506497,49.942494225227755,3.3159267357532487,0.7844948647996309,B,465.26204200017673,Correct
18,9,276,B,37.20212741296379,19.484912596412492,1.8601063706481895,0.30606829134364355,B,561.1640840006658,Correct
18,9,277,B,42.79069584999017,25.5133331976848,2.139534792499509,0.40076250071217584,B,415.4850000004444,Correct
18,9,278,A,13.016275310963067,38.513981591831765,0.6508137655481534,0.6049762081469561,A,364.86770899955445,Correct
18,9,279,A,42.12695955053332,71.62428229843553,2.106347977526666,1.1250715954370325,A,522.7513750005528,Correct
18,9,280,A,33.13452084090462,53.89309852644054,1.6567260420452312,0.8465508120492826,A,492.6126659993315,Correct
18,9,281,B,78.65079932058484,58.23464688521297,3.9325399660292417,0.9147476941949039,B,458.97983299983025,Correct
18,9,282,B,57.515910836011464,31.566532807541527,2.875795541800573,0.4958459378373683,B,376.4479580004263,Correct
18,9,283,A,21.67072373537848,53.40256178875914,1.0835361867689242,0.8388454789922035,A,412.02358300051856,Correct
18,9,284,B,79.344276283253,55.82349800546868,3.96721381416265,0.8768734561583245,B,416.8630829999529,Correct
18,9,285,A,45.5856113582222,61.73109628222419,2.27928056791111,0.9696697928913985,A,437.0755830004782,Correct
18,9,286,A,44.18211685640757,59.51384781274554,2.2091058428203785,0.9348413353769119,B,359.55558299974655,Incorrect
18,9,287,A,38.90201885205134,68.4467387299452,1.9451009426025672,1.0751588577808788,A,441.1019170001964,Correct
18,9,288,A,57.25300669678502,86.02510004993424,2.862650334839251,1.351279111706002,A,539.5860420003373,Correct
18,9,289,B,49.02299433890574,31.25046546480171,2.4511497169452867,0.49088116362741296,B,764.8585000006278,Correct
18,9,290,A,44.63590588357197,77.03190354210106,2.231795294178599,1.2100143112995112,B,427.17733399967983,Incorrect
18,9,291,A,47.23533054299942,67.38092908057428,2.361766527149971,1.058417158957935,A,513.3590410005127,Correct
18,9,292,A,29.756495823532582,48.00552912458036,1.4878247911766291,0.7540690881473626,A,419.2759580000711,Correct
18,9,293,A,46.623971261851445,57.98159218653869,2.3311985630925722,0.9107727202833465,A,404.5242499996675,Correct
18,9,294,B,36.70861150078221,14.78638734437299,1.8354305750391107,0.23226402927107637,B,499.6565000001283,Correct
18,9,295,B,50.2074251817394,26.243794893508483,2.5103712590869702,0.4122365661988179,B,429.19220800013136,Correct
18,9,296,A,37.61429487993542,70.85517242610902,1.880714743996771,1.112990445813511,A,460.03324999946926,Correct
18,9,297,A,27.767675314634104,37.99930378015257,1.3883837657317053,0.5968916679862709,B,423.2874580002317,Incorrect
18,9,298,A,55.027619538581845,77.48363981589135,2.7513809769290924,1.2171101680950092,A,359.37066699989373,Correct
18,9,299,A,63.19474638328055,80.68068710023611,3.1597373191640274,1.2673292694033929,A,482.1327500003463,Correct
