subject,day,trial,cat,x,y,xt,yt,resp,rt,fb
18,2,0,B,75.20633741163599,51.655872360686125,3.7603168705817995,0.8114085456155179,A,1760.4462510207668,Incorrect
18,2,1,B,65.71936507547413,51.40146825862065,3.2859682537737065,0.8074123753250578,B,433.97687596734613,Correct
18,2,2,B,79.50091254553602,58.962452732589036,3.9750456272768013,0.9261800417116858,B,255.79625100363046,Correct
18,2,3,B,57.62085486131462,32.37074014137599,2.8810427430657306,0.5084783970970551,A,216.23700100462884,Incorrect
18,2,4,A,57.418246956930545,80.52332707029444,2.8709123478465273,1.2648574638332255,B,248.3500010566786,Incorrect
18,2,5,A,32.8436077203965,47.46079381119301,1.642180386019825,0.7455124058539195,A,201.29308407194912,Correct
18,2,6,B,61.6559725981606,31.393926951704202,3.08279862990803,0.49313465139404267,A,247.43250105530024,Incorrect
18,2,7,B,34.90762727837579,16.577050570933547,1.7453813639187896,0.2603917014591566,B,240.9887919202447,Correct
18,2,8,A,60.53415319925101,77.31752626432028,3.0267076599625504,1.2145008625286224,A,239.92854298558086,Correct
18,2,9,B,87.47242482976372,64.92361302409836,4.373621241488186,1.0198177286050703,B,283.96274999249727,Correct
18,2,10,A,22.66539151639389,36.74655789301768,1.1332695758196945,0.5772135816070819,A,235.7453340664506,Correct
18,2,11,A,46.62072848929323,75.52269885951442,2.3310364244646617,1.1863077795816237,B,282.360874931328,Incorrect
18,2,12,A,31.43152548824889,43.17016123868464,1.5715762744124444,0.6781153070086926,A,277.82333397772163,Correct
18,2,13,B,63.58233915809246,38.18566134665777,3.1791169579046232,0.5998189657956389,A,346.81254194583744,Incorrect
18,2,14,A,37.155841032434125,51.74590431518915,1.8577920516217064,0.8128227642497929,B,475.2947089727968,Incorrect
18,2,15,B,57.50506740359517,50.21745882915371,2.8752533701797587,0.788813998698086,A,786.4615420112386,Incorrect
18,2,16,A,40.25338154840447,66.14848679369221,2.0126690774202234,1.0390580007857246,B,294.2528339335695,Incorrect
18,2,17,A,37.31858238216162,46.99840935509189,1.8659291191080811,0.7382492878018123,A,225.98324995487928,Correct
18,2,18,B,71.63791370964587,41.42593771309028,3.581895685482294,0.6507171079375638,A,278.24825106654316,Incorrect
18,2,19,B,80.19972417897085,58.15582238888024,4.009986208948543,0.9135095219018948,A,269.8597509879619,Incorrect
18,2,20,A,62.04377901634793,88.23438426747242,3.1021889508173968,1.3859824670435508,B,525.8519180351868,Incorrect
18,2,21,B,68.57297189240157,44.13698355554512,3.428648594620079,0.6933021164485704,B,696.6072500217706,Correct
18,2,22,B,33.947105250921496,19.31919922555246,1.6973552625460746,0.30346527180116617,A,446.0625840583816,Incorrect
18,2,23,B,88.35092328657541,69.32310840010571,4.41754616432877,1.088924840368905,B,541.2051680032164,Correct
18,2,24,B,61.210569139066465,31.956212594143096,3.0605284569533233,0.5019670136115679,B,519.2182919709012,Correct
18,2,25,A,50.19580936483773,80.2112294862673,2.5097904682418863,1.2599550464473117,A,654.1352090425789,Correct
18,2,26,B,58.83456859572912,43.4794989132808,2.9417284297864557,0.6829743718386418,B,575.7837500423193,Correct
18,2,27,A,28.630754602364515,42.45801458578501,1.4315377301182257,0.6669289335435523,A,703.871208941564,Correct
18,2,28,B,70.13334503269577,52.89041214681389,3.5066672516347888,0.8308006512288343,B,2284.534167032689,Correct
18,2,29,B,85.196373047771,57.84344518028345,4.2598186523885495,0.9086027121835121,A,274.47149995714426,Incorrect
18,2,30,A,42.10781557608222,64.07732143860386,2.105390778804111,1.0065242114661481,A,636.1571250017732,Correct
18,2,31,B,46.87379087479589,22.294031163418495,2.343689543739794,0.3501938226094872,A,367.21745890099555,Incorrect
18,2,32,A,54.69973779465165,66.1272192740019,2.7349868897325824,1.0387239313676286,B,284.25783396232873,Incorrect
18,2,33,B,41.38855005105758,14.09607205252069,2.0694275025528786,0.22142058202335696,A,232.01312602031976,Incorrect
18,2,34,A,15.458022483856979,35.07710082858024,0.772901124192849,0.5509898113614806,A,523.0518759926781,Correct
18,2,35,B,52.67508088874062,32.0352970513666,2.6337540444370307,0.5032092693607003,A,310.5129590258002,Incorrect
18,2,36,B,61.0525419778705,42.50348166940526,3.052627098893525,0.6676431288229601,B,541.2851679138839,Correct
18,2,37,A,39.03893323631494,66.25894403821694,1.9519466618157468,1.0407930591253978,A,291.792458971031,Correct
18,2,38,B,71.04163211896574,52.141189811615554,3.5520816059482865,0.8190318943080118,B,371.89787602983415,Correct
18,2,39,A,50.339665304155766,70.42564691658734,2.5169832652077884,1.1062434748872971,A,205.06841700989753,Correct
18,2,40,A,38.45979059144938,63.71671292221211,1.9229895295724688,1.0008597861365571,A,537.9933760268614,Correct
18,2,41,B,77.02958429609285,53.54731600010936,3.8514792148046424,0.8411192728269736,B,505.1957929972559,Correct
18,2,42,A,58.82301596774434,84.35628589253206,2.941150798387217,1.3250654402204949,B,395.0807509245351,Incorrect
18,2,43,B,63.50788341950254,46.31018583709743,3.1753941709751268,0.7274386980610169,B,293.3617919916287,Correct
18,2,44,B,83.50449809311058,68.26478275608329,4.175224904655529,1.0723007000270723,B,280.01700004097074,Correct
18,2,45,B,72.24272479309528,40.3610256283576,3.6121362396547636,0.6339895080269881,B,662.5750840175897,Correct
18,2,46,A,43.15375204174702,51.86901364916023,2.157687602087351,0.8147565611457525,B,346.2507090298459,Incorrect
18,2,47,A,65.5413493638402,86.41350511223675,3.27706746819201,1.357380164157735,B,1090.365376090631,Incorrect
18,2,48,A,63.09668649739919,79.60619529866739,3.15483432486996,1.2504511916526388,B,724.031624966301,Incorrect
18,2,49,A,15.252022847291663,32.58013029130325,0.7626011423645832,0.5117674898807829,A,288.5426259599626,Correct
18,2,50,A,20.053906512143694,48.54031573367473,1.0026953256071847,0.7624694965592079,B,808.408834040165,Incorrect
18,2,51,A,61.75797227760633,86.28238684204925,3.0878986138803164,1.3553205631858727,B,438.39895899873227,Incorrect
18,2,52,A,49.11503325563763,76.58128443542697,2.455751662781881,1.2029360029240388,A,239.26945903804153,Correct
18,2,53,B,81.64000953936016,58.13836900825684,4.082000476968008,0.9132353648401609,A,438.6758339824155,Incorrect
18,2,54,A,52.46043032724637,70.43084079867901,2.6230215163623187,1.1063250601964114,B,360.66195892635733,Incorrect
18,2,55,B,68.07007438205558,52.81049154690491,3.403503719102779,0.8295452613811117,A,306.5772510599345,Incorrect
18,2,56,B,44.75990309053056,33.32866905505903,2.2379951545265278,0.5235255092864947,B,226.0717509780079,Correct
18,2,57,B,31.63884786242208,12.570345157435625,1.581942393121104,0.19745451999843897,B,252.28408398106694,Correct
18,2,58,A,40.683967848316584,56.79144070221067,2.034198392415829,0.8920778644842269,B,291.6846669977531,Incorrect
18,2,59,B,72.87608672710498,43.134126937600925,3.643804336355249,0.6775492815308833,A,261.5947090089321,Incorrect
18,2,60,B,71.86825660063923,41.85842561914887,3.5934128300319617,0.6575106120797645,B,326.4886260731146,Correct
18,2,61,B,72.37745061945698,58.51059603901402,3.618872530972849,0.9190822933666324,A,348.896500072442,Incorrect
18,2,62,A,36.443707150692106,65.53642172494476,1.8221853575346052,1.0294437051682448,B,244.74079196806997,Incorrect
18,2,63,A,28.44288430925773,41.066575792653936,1.4221442154628867,0.6450722640914501,A,216.32216696161777,Correct
18,2,64,B,83.31276565485771,57.58333415781807,4.1656382827428855,0.9045168977970373,A,447.0412509981543,Incorrect
18,2,65,A,46.895315736424365,73.20084374221742,2.3447657868212186,1.149836164685623,B,364.4433340523392,Incorrect
18,2,66,B,38.72363424502139,25.48262942129245,1.9361817122510694,0.40028020692041744,A,251.56466709449887,Incorrect
18,2,67,A,20.08070708836825,41.65947301696869,1.0040353544184126,0.6543854719126553,B,319.2630000412464,Incorrect
18,2,68,B,49.02905582845942,41.3542324219672,2.4514527914229713,0.649590763858485,A,517.768876045011,Incorrect
18,2,69,B,55.9821728956998,25.33326403993579,2.7991086447849898,0.3979339809965638,B,294.01550092734396,Correct
18,2,70,A,37.556125219056696,55.63262919521265,1.8778062609528348,0.8738752958978254,B,416.53950000181794,Incorrect
18,2,71,B,32.50833329215083,14.906077257351882,1.6254166646075416,0.23414411402769283,A,756.8420839961618,Incorrect
18,2,72,A,64.717011384458,82.76662595233368,3.2358505692229005,1.300095120271329,B,609.3121260637417,Incorrect
18,2,73,A,57.93078850077707,69.47082679382996,2.896539425038853,1.0912451954715259,A,535.1137090474367,Correct
18,2,74,A,47.52190161892631,58.59924716841389,2.3760950809463153,0.9204748220509078,A,672.1063760342076,Correct
18,2,75,B,51.5600429748895,26.52202914836886,2.5780021487444746,0.41660705965404976,B,1043.5874169925228,Correct
18,2,76,B,56.14005832176919,38.63043268434397,2.807002916088459,0.6068054176306503,B,1122.0848760567605,Correct
18,2,77,A,22.8419369397976,35.985809939360415,1.1420968469898798,0.5652637806948662,A,490.296250092797,Correct
18,2,78,B,43.98739950887248,24.319283303701305,2.199369975443624,0.3820064088373846,A,1166.3943340536207,Incorrect
18,2,79,B,42.67187984651328,18.00364424789103,2.1335939923256637,0.282800582535093,A,1452.1452089538798,Incorrect
18,2,80,A,42.5925277186908,64.6246658061164,2.1296263859345403,1.0151218766859538,B,1055.6527089793235,Incorrect
18,2,81,A,33.158747990884024,47.6004059655461,1.6579373995442013,0.7477054284462568,B,1149.5767090236768,Incorrect
18,2,82,A,52.05999493821709,67.46479986086416,2.602999746910854,1.0597345980939827,B,863.4127510013059,Incorrect
18,2,83,B,67.87040098437039,58.59401736029836,3.3935200492185196,0.9203926724171307,A,271.64050098508596,Incorrect
18,2,84,A,36.53145638924954,45.70347474493998,1.826572819462477,0.7179085025111505,B,335.6567920418456,Incorrect
18,2,85,B,59.90356192920313,44.69391335263633,2.9951780964601564,0.7020503492441053,B,418.40895893983543,Correct
18,2,86,B,71.5135971054325,43.02232327173766,3.5756798552716247,0.6757930736542811,B,382.4747509788722,Correct
18,2,87,B,80.52355386673325,63.88495672293416,4.026177693336662,1.0035025535783593,B,379.85029199626297,Correct
18,2,88,A,45.182626378472065,74.22529702662455,2.259131318923603,1.1659282392468198,B,456.963500007987,Incorrect
18,2,89,A,34.61458486502737,52.51702558400613,1.7307292432513686,0.8249355088155041,A,324.10900096874684,Correct
18,2,90,B,33.99619231704341,21.18657663511658,1.6998096158521705,0.332797967557997,A,681.0295010218397,Incorrect
18,2,91,A,36.39409679125549,46.77525808101798,1.8197048395627746,0.7347440357854634,B,299.16754306759685,Incorrect
18,2,92,A,34.752763560760336,47.90094318634295,1.7376381780380168,0.7524262560711853,A,381.40779198147357,Correct
18,2,93,B,68.25592294858671,59.02689094067459,3.4127961474293356,0.9271922347173459,B,1004.7598760575056,Correct
18,2,94,A,27.360353927228736,55.7280501848875,1.368017696361437,0.8753741652986295,A,584.8248340189457,Correct
18,2,95,A,52.75725330071093,68.48999210968663,2.637862665035547,1.075838280281072,B,999.2204169975594,Incorrect
18,2,96,B,63.37139198804655,42.04901932763771,3.1685695994023275,0.6605044510518093,A,285.8697510091588,Incorrect
18,2,97,B,39.225235784799594,27.417649538976075,1.9612617892399797,0.43067543185173407,B,204.5882090460509,Correct
18,2,98,B,64.53083703044338,50.428010158236305,3.226541851522169,0.7921213312413332,B,345.8619168959558,Correct
18,2,99,B,42.55137053821817,34.853748015389336,2.127568526910909,0.5474813935760848,B,358.0133341019973,Correct
18,2,100,A,51.23102807323583,60.01290137470814,2.5615514036617912,0.9426804503969595,B,458.88645900413394,Incorrect
18,2,101,B,56.29544154774478,31.340476585927245,2.814772077387239,0.4922950550117597,A,3359.7917089937255,Incorrect
18,2,102,B,42.675941648217005,34.05119728960575,2.1337970824108505,0.5348749562548105,A,512.0007920777425,Incorrect
18,2,103,A,55.727732820313975,78.22015401671295,2.7863866410156986,1.2286793061078378,B,298.33358398173004,Incorrect
18,2,104,A,32.339754315329486,48.94169122534842,1.6169877157664743,0.7687742880390732,A,262.7658750861883,Correct
18,2,105,B,32.90495996372299,20.444131466810717,1.6452479981861494,0.32113566612578237,A,379.3727089650929,Incorrect
18,2,106,A,63.32376310499216,86.5951928559764,3.166188155249608,1.3602341085626342,B,399.49745894409716,Incorrect
18,2,107,A,65.14634834078632,80.02751627296196,3.2573174170393155,1.2570692860408748,A,290.0903340196237,Correct
18,2,108,A,38.941852071967354,69.6664015260039,1.9470926035983678,1.0943172761806528,A,785.7278339797631,Correct
18,2,109,A,19.33788359598151,37.27106198137744,0.9668941797990754,0.585452472560926,A,884.4386669807136,Correct
18,2,110,B,50.214757798209284,23.74193774240166,2.510737889910464,0.3729374859675764,A,828.7970839301124,Incorrect
18,2,111,B,79.77565528756718,66.76496444929816,3.988782764378359,1.048741609155494,B,1360.3925839997828,Correct
18,2,112,B,61.906486236523826,43.63386389924512,3.0953243118261913,0.6853991313680268,A,648.9260839298368,Incorrect
18,2,113,A,20.42339454056837,39.59796760441803,1.0211697270284186,0.6220034206156315,B,236.6077930200845,Incorrect
18,2,114,B,71.34656627321559,44.277684673357015,3.567328313660779,0.6955122444389189,A,390.51504305098206,Incorrect
18,2,115,A,16.105348348021735,42.89967247974384,0.8052674174010868,0.6738664795188574,A,585.7477090321481,Correct
18,2,116,A,21.031918058972757,36.81473005267429,1.051595902948638,0.5782844273868647,A,614.5919170230627,Correct
18,2,117,B,34.705253156893136,19.99097441909629,1.7352626578446568,0.314017491865672,A,798.3292929129675,Incorrect
18,2,118,B,64.3885575435093,43.374215740087756,3.2194278771754647,0.6813205876213922,B,374.4217921048403,Correct
18,2,119,B,44.487667928023804,33.17720236793413,2.22438339640119,0.5211462761288187,B,651.6137510770932,Correct
18,2,120,B,57.680386020424834,30.96033075749518,2.884019301021242,0.48632373830228487,B,565.5730840517208,Correct
18,2,121,A,49.867130111638104,66.82287986380742,2.4933565055819056,1.0496513423592535,B,781.883625080809,Incorrect
18,2,122,A,66.87763230852661,89.51465741965059,3.3438816154263304,1.4060929506909068,A,361.7070009931922,Correct
18,2,123,B,63.30515314514503,55.199534668986196,3.1652576572572513,0.8670722629883106,A,724.1642090957612,Incorrect
18,2,124,B,79.98223262337405,48.879238688947716,3.9991116311687023,0.7677932858913007,B,246.70024996157736,Correct
18,2,125,A,53.729282190674084,78.24878149213971,2.6864641095337043,1.2291289854402954,B,555.2136260084808,Incorrect
18,2,126,A,23.01057866467894,40.20432145792002,1.150528933233947,0.6315280046738201,A,272.4909170065075,Correct
18,2,127,A,22.207418527708395,49.83341018994236,1.1103709263854198,0.7827813767802484,A,354.29041797760874,Correct
18,2,128,B,72.4557489049367,57.62718351429176,3.6227874452468347,0.9052056818778491,B,441.5373340016231,Correct
18,2,129,A,19.068825155455805,42.37259050204908,0.9534412577727903,0.6655870951740303,A,621.7159590451047,Correct
18,2,130,A,13.888376098242837,36.683493582563685,0.6944188049121419,0.5762229697349519,A,428.88116801623255,Correct
18,2,131,B,58.474372914411106,43.28327149930889,2.9237186457205553,0.6798920388278065,B,582.90754200425,Correct
18,2,132,B,75.75184354524262,52.86249984792799,3.7875921772621313,0.8303622058632105,B,707.1543760830536,Correct
18,2,133,B,71.25004630742198,50.29151775295597,3.5625023153710993,0.7899773135528357,B,552.6196249993518,Correct
18,2,134,B,40.66754854342455,19.190384154167045,2.0333774271712275,0.3014418493914858,A,898.2899589464068,Incorrect
18,2,135,B,53.867689774279675,38.95049185247281,2.693384488713984,0.6118328952871883,B,572.1028340049088,Correct
18,2,136,A,31.59832783961388,45.81075802448764,1.579916391980694,0.71959370432555,B,1161.5243760170415,Incorrect
18,2,137,A,45.930584228939736,74.25847646564091,2.2965292114469866,1.16644942065614,B,846.467875991948,Incorrect
18,2,138,A,34.163930459103206,44.61907271591348,1.7081965229551601,0.700874755271513,A,479.1375839849934,Correct
18,2,139,A,40.72205761640171,48.46828811353784,2.036102880820086,0.7613380893478199,A,444.85337601508945,Correct
18,2,140,B,35.792264057540145,12.944276733510723,1.789613202877007,0.20332822346015283,A,632.8035419574007,Incorrect
18,2,141,B,46.47742335000978,25.718201634589562,2.323871167500489,0.4039805665938379,B,406.1689169611782,Correct
18,2,142,B,51.22565969227209,40.56936277782041,2.5612829846136043,0.637262060318099,A,470.8487089956179,Incorrect
18,2,143,A,29.7325086601403,46.66786612034622,1.4866254330070152,0.7330571268119584,B,226.9608760252595,Incorrect
18,2,144,B,72.50415080319067,39.87522170406673,3.6252075401595336,0.6263585178288015,A,391.07129198964685,Incorrect
18,2,145,B,52.04669964081354,22.648952796484274,2.602334982040677,0.35576891858468496,B,264.69937595538795,Correct
18,2,146,B,38.493693306268746,20.58665441526868,1.9246846653134373,0.3233744113649998,A,380.2566679660231,Incorrect
18,2,147,A,43.340602714862214,69.40510656250572,2.1670301357431105,1.0902128644919236,B,251.198083977215,Incorrect
18,2,148,B,59.48136761629236,33.80681016011965,2.974068380814618,0.5310361322016834,A,259.60112595930696,Incorrect
18,2,149,A,55.914972734538274,79.54978723913365,2.795748636726914,1.2495651359254665,B,106.20966693386436,Incorrect
18,2,150,B,83.23972376380601,62.32149862845097,4.1619861881903,0.9789438112592398,B,385.8924589585513,Correct
18,2,151,A,55.26372822028172,82.86991529209541,2.763186411014086,1.301717585426277,B,421.54716688673943,Incorrect
18,2,152,A,37.6659006433517,64.12880225831805,1.883295032167585,1.0073328702912225,A,300.14087504241616,Correct
18,2,153,B,76.54804146034421,63.95767719632313,3.8274020730172107,1.0046448441031808,A,431.13208399154246,Incorrect
18,2,154,B,67.87214711108116,40.8491520497569,3.3936073555540585,0.6416569799244436,B,316.8683339608833,Correct
18,2,155,B,84.17107321546884,61.67714354311481,4.2085536607734415,0.9688223052472631,B,130.0755419069901,Correct
18,2,156,A,26.003138947857277,55.82432120215866,1.3001569473928638,0.8768863869016927,B,251.6021259361878,Incorrect
18,2,157,B,43.70919563918719,22.941553726627887,2.1854597819593597,0.3603650832475486,A,445.76862605754286,Incorrect
18,2,158,A,57.2678437804809,78.62352608052957,2.8633921890240455,1.2350154596695861,B,459.1636670520529,Incorrect
18,2,159,B,74.56004500311191,49.07989763439417,3.7280022501555954,0.770945229235759,A,348.0933760292828,Incorrect
18,2,160,B,60.41036013783204,29.624926287292116,3.0205180068916024,0.4653472539364803,B,294.9685000348836,Correct
18,2,161,B,75.4513867863147,55.44144704737203,3.772569339315735,0.8708722137420575,B,250.94608403742313,Correct
18,2,162,B,70.87798121147036,44.04038021041704,3.5438990605735174,0.6917846746517373,B,442.83229298889637,Correct
18,2,163,B,73.02118311723663,50.983812413768675,3.651059155861832,0.8008518526554789,B,458.1570419250056,Correct
18,2,164,B,58.033344831118995,43.677418224757176,2.9016672415559497,0.6860832811133304,B,231.42645903863013,Correct
18,2,165,B,63.062378630361536,37.88288290020943,3.153118931518077,0.5950629330805017,B,465.35937604494393,Correct
18,2,166,B,58.06361299838931,30.730967099737683,2.9031806499194652,0.4827209023912277,B,327.7329170377925,Correct
18,2,167,B,72.47901662684275,51.619479109525415,3.623950831342137,0.8108368817630841,B,324.3748339591548,Correct
18,2,168,B,75.05857709440748,64.25749659269798,3.7529288547203743,1.0093543961684557,B,245.06516801193357,Correct
18,2,169,B,66.41612246999367,36.09542828009353,3.320806123499683,0.5669856615645955,B,283.82158395834267,Correct
18,2,170,B,50.5673514400004,35.299965532535346,2.52836757200002,0.5544905619449297,B,358.94479195121676,Correct
18,2,171,B,53.788901171662374,25.669190772685077,2.6894450585831184,0.40321070577531176,B,324.5769169880077,Correct
18,2,172,A,64.40986429585985,84.22231841971634,3.2204932147929926,1.3229610840784058,B,302.47625010088086,Incorrect
18,2,173,B,41.82365120810075,22.49270924977748,2.0911825604050374,0.35331465069216056,B,378.62845906056464,Correct
18,2,174,B,42.057283345790815,14.492450511721849,2.1028641672895407,0.22764688030069502,B,384.3704180326313,Correct
18,2,175,B,47.85970992979441,35.71636391949943,2.3929854964897204,0.5610313325121947,B,324.37979301903397,Correct
18,2,176,A,51.75362473292924,68.52591664431077,2.587681236646462,1.076402581551366,B,332.0223339833319,Incorrect
18,2,177,B,43.38849280839804,30.44985996728939,2.1694246404199022,0.47830528188037147,A,249.8958338983357,Incorrect
18,2,178,A,57.46743858130358,83.42927449562883,2.8733719290651787,1.3105039792489692,B,248.57225094456226,Incorrect
18,2,179,B,48.10036637206797,17.575775301955936,2.4050183186033984,0.2760796328488485,A,252.46237602550536,Incorrect
18,2,180,A,51.24853967448756,58.62716735123899,2.5624269837243783,0.9209133912571589,B,497.4616679828614,Incorrect
18,2,181,A,66.69351682208952,85.07775390582381,3.334675841104476,1.3363982332722821,B,218.64300104789436,Incorrect
18,2,182,B,46.163333268721765,23.12965199402466,2.3081666634360882,0.36331972392258194,A,221.52358398307115,Incorrect
18,2,183,B,36.136991822513785,22.930372496941384,1.8068495911256892,0.36018944890234245,A,232.0945009123534,Incorrect
18,2,184,B,51.26277217610038,29.408306720572813,2.5631386088050188,0.46194460173933444,B,481.389625929296,Correct
18,2,185,B,48.183048395894986,18.131077299391286,2.4091524197947494,0.2848022962271816,B,397.998376050964,Correct
18,2,186,A,56.878845996821255,68.53497357533146,2.843942299841063,1.0765448474911596,B,258.25683400034904,Incorrect
18,2,187,A,34.69637687395864,65.09332967477152,1.734818843697932,1.0224836315198036,B,215.3198339510709,Incorrect
18,2,188,B,42.58218456553303,14.14600536029032,2.1291092282766515,0.22220493258764956,A,294.7325420100242,Incorrect
18,2,189,A,58.90125646334813,72.09268173336613,2.9450628231674068,1.1324291965556508,B,352.42666699923575,Incorrect
18,2,190,B,41.9586594277838,16.120265118925516,2.09793297138919,0.253216532357681,A,309.8871259717271,Incorrect
18,2,191,A,50.889322043704134,63.38328339004708,2.544466102185207,0.9956222872928594,B,674.5255429996178,Incorrect
18,2,192,A,52.4430817396832,80.17329760743185,2.62215408698416,1.2593592138878802,A,249.43270906805992,Correct
18,2,193,B,61.933256169755666,37.064060437200446,3.0966628084877836,0.5822008999085851,A,427.13766696397215,Incorrect
18,2,194,A,40.083363923805905,60.13747255025527,2.004168196190295,0.944637209846699,B,74.07050009351224,Incorrect
18,2,195,A,63.335411783489285,74.56013272168305,3.166770589174464,1.171187826045597,A,415.50470900256187,Correct
18,2,196,A,58.625491746293434,69.33855235972528,2.9312745873146717,1.0891674335193207,A,314.3470010254532,Correct
18,2,197,B,56.88515817076997,27.30903886610306,2.8442579085384985,0.42896937939173746,A,278.7441669497639,Incorrect
18,2,198,B,77.36354367535435,49.978480760160124,3.8681771837677172,0.7850601399684893,B,279.5765839982778,Correct
18,2,199,A,15.988024700332378,42.84022133152052,0.7994012350166189,0.6729326230663281,A,721.9592920737341,Correct
18,2,200,A,41.65597407547111,63.53637526564296,2.0827987037735554,0.9980270488513409,A,471.0576670477167,Correct
18,2,201,A,58.27087348827209,84.12169426293269,2.9135436744136043,1.32138048351978,A,338.9993760501966,Correct
18,2,202,A,22.229329782426667,44.28540762071743,1.1114664891213335,0.6956335562123765,A,310.7765429886058,Correct
18,2,203,B,59.85151872564699,30.860165130290014,2.9925759362823494,0.48475034030943503,A,386.747834039852,Incorrect
18,2,204,B,74.49953613010594,47.99462795248613,3.7249768065052966,0.7538978529365289,B,388.7025429867208,Correct
18,2,205,B,47.12594578525747,26.44422508188166,2.3562972892628737,0.41538491623557194,B,1043.4345010435209,Correct
18,2,206,A,22.119367874877415,35.54746752003902,1.1059683937438707,0.5583783140733819,A,651.3485419563949,Correct
18,2,207,A,35.58819652821106,65.0566804647984,1.779409826410553,1.0219079470757462,B,621.5696670114994,Incorrect
18,2,208,A,29.39526104174884,48.238046964370284,1.4697630520874418,0.7577214698339257,A,741.9359179912135,Correct
18,2,209,A,41.300664273669256,55.35819617140674,2.065033213683463,0.8695645120403701,A,550.8374179480597,Correct
18,2,210,A,26.676985014485425,56.76232632178836,1.3338492507242712,0.8916205368659844,A,253.3496250398457,Correct
18,2,211,A,32.8327408314157,62.52431620083651,1.6416370415707848,0.9821296622363663,A,209.9260010290891,Correct
18,2,212,A,54.412635556489946,70.0131448715249,2.7206317778244973,1.0997639079155026,A,289.63750100228935,Correct
18,2,213,B,69.66611418340209,39.14546743561065,3.4833057091701045,0.6148955645852645,A,256.77924999035895,Incorrect
18,2,214,A,52.31207458343169,80.67303959340943,2.615603729171584,1.2672091426470677,A,307.21708410419524,Correct
18,2,215,A,16.565160073268864,31.193612114057704,0.8282580036634432,0.48998811328226627,B,248.74654202722013,Incorrect
18,2,216,B,60.77713166227775,34.866718134961054,3.0388565831138874,0.5476851277378982,B,821.1160009959713,Correct
18,2,217,A,50.57526227209396,75.32758010708848,2.528763113604698,1.1832428613856292,B,642.2249590978026,Incorrect
18,2,218,B,55.42101577576694,39.2650661244007,2.7710507887883473,0.6167742163956734,A,1059.830543003045,Incorrect
18,2,219,B,56.76609839603496,44.41858692553326,2.8383049198017485,0.6977255318404747,B,571.9672499690205,Correct
18,2,220,A,57.95288812275487,71.49531521502298,2.8976444061377435,1.123045785228014,B,511.0370840411633,Incorrect
18,2,221,A,26.013242161247504,56.49071696124291,1.300662108062375,0.8873541070073053,A,306.3713760348037,Correct
18,2,222,A,59.16452156419007,82.55800850318042,2.9582260782095036,1.2968181650429764,A,472.83079207409173,Correct
18,2,223,A,66.36906455563408,89.52884260009941,3.318453227781704,1.4063157709843461,B,509.05045901890844,Incorrect
18,2,224,A,40.10982239044802,49.172184835217344,2.005491119522401,0.7723948731963912,A,332.87891710642725,Correct
18,2,225,A,36.24111064124724,68.12709787306407,1.8120555320623621,1.0701379509420545,A,754.1492090094835,Correct
18,2,226,A,42.4497341401427,52.08139517069135,2.1224867070071354,0.8180926422847544,A,432.857041945681,Correct
18,2,227,A,48.34748630072674,72.48822595763512,2.417374315036337,1.1386423907013172,A,381.2217089580372,Correct
18,2,228,B,53.782513136661365,32.06305456252973,2.689125656833068,0.5036452833264604,A,543.9967920538038,Incorrect
18,2,229,B,31.349533008623162,14.153319012461662,1.567476650431158,0.22231981516731153,A,630.8898340212181,Incorrect
18,2,230,B,65.16019562551215,52.03641113256238,3.2580097812756073,0.8173860346661805,B,470.1950419694185,Correct
18,2,231,B,77.63551457040734,62.21937565837596,3.881775728520367,0.9773396673964874,B,561.868584016338,Correct
18,2,232,B,69.70074605030686,43.90223433221493,3.485037302515343,0.6896146842713201,B,443.1501670042053,Correct
18,2,233,A,52.65334998906517,62.17686608927032,2.6326674994532584,0.97667192864644,B,1165.6862091040239,Incorrect
18,2,234,A,18.80291006619351,45.806885764396704,0.9401455033096754,0.7195328790062777,A,665.8854170236737,Correct
18,2,235,B,78.6540259419605,63.55356782106567,3.932701297098025,0.998297108880403,B,1223.7088759429753,Correct
18,2,236,B,48.46605263542948,37.020921096367005,2.423302631771474,0.5815232687273698,B,1013.6734179686755,Correct
18,2,237,A,52.80227790104696,63.09282425478152,2.640113895052348,0.9910597658652677,A,1248.8115009618923,Correct
18,2,238,B,41.59553226424427,15.092579169990191,2.0797766132122133,0.2370736792208176,B,994.1385419806466,Correct
18,2,239,B,46.53372791983523,37.5428787034631,2.3266863959917616,0.5897221596470619,A,705.0152919255197,Incorrect
18,2,240,A,25.38238372548807,37.84349604786631,1.2691191862744033,0.5944442458506559,A,835.7496670214459,Correct
18,2,241,B,83.37585305887005,59.87537256225008,4.168792652943503,0.9405201528625836,B,862.5536259496585,Correct
18,2,242,A,35.32134884172743,68.59099960226298,1.7660674420863713,1.077424902264249,A,552.3451260523871,Correct
18,2,243,A,49.954107654564616,57.3423593011795,2.4977053827282307,0.9007316736004592,A,609.7857929999009,Correct
18,2,244,B,55.49643745319453,43.54092208142464,2.7748218726597265,0.6839392047076464,B,988.4577089687809,Correct
18,2,245,A,59.41319427953229,81.91901381041268,2.970659713976614,1.2867808598805661,A,506.3715010182932,Correct
18,2,246,B,51.754943464522015,27.12419924157041,2.5877471732261004,0.42606592535911714,A,632.6408759923652,Incorrect
18,2,247,B,38.012431690406814,13.574450864852931,1.9006215845203405,0.21322697556768794,B,472.0216259593144,Correct
18,2,248,A,16.16375429987162,39.00688438804535,0.8081877149935809,0.6127187071645483,A,682.4027089169249,Correct
18,2,249,B,70.02763815982594,44.370701140398396,3.5013819079912967,0.6969733436865192,B,606.2263760250062,Correct
18,2,250,A,59.90372097416665,74.70872026375753,2.9951860487083324,1.173521833698578,A,791.376292007044,Correct
18,2,251,A,26.623019658064905,40.289630859475416,1.331150982903245,0.6328680416198631,A,971.6897510224953,Correct
18,2,252,A,22.115477558286827,52.42134718135396,1.1057738779143413,0.823432595981108,A,1271.0701680043712,Correct
18,2,253,B,52.13723571933256,36.08546870386449,2.6068617859666277,0.5668292169070254,B,1033.873041975312,Correct
18,2,254,B,57.652327753042364,28.034854398457057,2.8826163876521185,0.440370463113261,B,997.2020420245826,Correct
18,2,255,B,62.88670768877259,53.94251147593573,3.1443353844386297,0.847326988844914,A,840.1390420040116,Incorrect
18,2,256,A,50.41403833639893,74.13550022163119,2.5207019168199465,1.164517714332405,B,671.2591260438785,Incorrect
18,2,257,B,55.85579780856605,39.36588549488469,2.792789890428303,0.6183578833639336,A,368.73912590090185,Incorrect
18,2,258,A,64.32691171177032,75.05361264213747,3.216345585588516,1.1789393905095653,A,439.5178749691695,Correct
18,2,259,A,44.1572733916749,71.54824757721249,2.207863669583745,1.1238772448289727,A,524.2446250049397,Correct
18,2,260,B,67.5236866218131,38.76986863118054,3.376184331090655,0.6089956723617908,A,247.66991706565022,Incorrect
18,2,261,A,45.47024583578055,60.39756988512536,2.273512291789028,0.9487228092289297,B,334.7229999490082,Incorrect
18,2,262,A,38.75937696866167,52.75759179638501,1.9379688484330837,0.8287143140430614,A,227.3738340009004,Correct
18,2,263,A,47.1893117504541,70.46298625761442,2.359465587522705,1.1068299998845998,A,299.54270902089775,Correct
18,2,264,B,35.71749617073274,12.23543124522854,1.785874808536637,0.19219370456756496,A,334.0368759818375,Incorrect
18,2,265,A,28.266051649958705,59.83984848163833,1.4133025824979353,0.9399621419092065,B,301.60145892295986,Incorrect
18,2,266,A,25.50386389827854,41.45517882122385,1.275193194913927,0.6511764261900402,A,247.60075099766254,Correct
18,2,267,B,32.87757188398002,15.76639889589267,1.6438785941990008,0.2476580147245132,A,326.38887595385313,Incorrect
18,2,268,A,48.185359122811285,75.31212491727698,2.4092679561405643,1.1830000918317707,B,256.4503760077059,Incorrect
18,2,269,B,82.9706274187721,63.52694177985995,4.1485313709386045,0.9978788680031727,A,234.05520897358656,Incorrect
18,2,270,A,22.322853299727953,52.23836709223739,1.1161426649863977,0.8205583514624989,B,310.23774994537234,Incorrect
18,2,271,A,51.81017365686752,62.19352627611832,2.590508682843376,0.9769336262494854,A,328.73270905110985,Correct
18,2,272,A,52.19815529367388,70.11941441297951,2.609907764683694,1.1014331859691733,A,359.8822510102764,Correct
18,2,273,A,60.439236181393106,72.13027309119731,3.0219618090696554,1.1330196802236552,A,321.4962090132758,Correct
18,2,274,B,68.5944230768913,55.785119841081766,3.4297211538445653,0.8762706133618434,A,325.1465839566663,Incorrect
18,2,275,A,52.43497275341397,70.45967043996421,2.621748637670698,1.1067779151427475,B,298.63254202064127,Incorrect
18,2,276,A,47.2544674349089,67.70154372649253,2.3627233717454446,1.0634533620391855,A,242.5000430084765,Correct
18,2,277,A,37.80718239568847,55.05031891194521,1.8903591197844236,0.8647283873577117,A,280.04137601237744,Correct
18,2,278,A,48.71456952063531,70.35335386385,2.4357284760317652,1.1051078982703713,A,427.40908393170685,Correct
18,2,279,A,25.789017140391717,52.9286814668482,1.289450857019586,0.8314017843022227,A,276.1257510865107,Correct
18,2,280,B,76.93149410025094,60.90256085114754,3.846574705012547,0.9566551887738522,A,313.25270899105817,Incorrect
18,2,281,A,31.34408767766041,53.33536427645875,1.5672043838830205,0.8377899429372916,B,264.03691701125354,Incorrect
18,2,282,A,26.891159757865946,53.728303328887705,1.3445579878932972,0.8439622151393883,A,524.3637920357287,Correct
18,2,283,B,62.155169954843885,31.333449103932963,3.107758497742194,0.49218466758272744,A,226.7895839177072,Incorrect
18,2,284,B,44.36778967796217,33.50915485421995,2.218389483898109,0.5263605735901007,B,236.09104193747044,Correct
18,2,285,A,53.885440776884906,72.8768072736908,2.6942720388442454,1.1447462117405311,B,390.01479209400713,Incorrect
18,2,286,B,55.038463026229834,24.495080664994482,2.7519231513114915,0.38476782733118026,A,271.51262608822435,Incorrect
18,2,287,A,33.30907026970078,58.50551299762687,1.6654535134850392,0.9190024491392336,B,264.2954180482775,Incorrect
18,2,288,A,25.650488990145632,36.471135546631785,1.2825244495072814,0.5728872575068799,A,372.3994590109214,Correct
18,2,289,B,78.07576852458905,48.16716585714201,3.9037884262294527,0.7566080720051922,B,625.0370839843526,Correct
18,2,290,A,41.81882500331899,73.96103782912199,2.0909412501659492,1.161777265479232,A,578.4547930816188,Correct
18,2,291,B,39.856821911645454,28.556838871592255,1.9928410955822726,0.44856977604370835,B,405.32141795847565,Correct
18,2,292,A,34.78053501656791,49.29464910885801,1.7390267508283954,0.7743185375083749,A,606.855999911204,Correct
18,2,293,B,44.62433092243965,18.584307367578532,2.231216546121982,0.29192161749019696,B,371.8998759286478,Correct
18,2,294,B,38.39187308925459,27.55868866845281,1.9195936544627294,0.43289086931689813,A,477.4712090147659,Incorrect
18,2,295,A,56.798172624172935,83.27331354713021,2.8399086312086466,1.3080541503987184,B,3255.4452510084957,Incorrect
18,2,296,B,41.91348998682828,24.557923808458092,2.095674499341414,0.38575496512034907,A,291.3797090295702,Incorrect
18,2,297,A,22.65033891210095,44.86590890123017,1.1325169456050475,0.7047520490036681,B,369.0680010477081,Incorrect
18,2,298,A,38.64183558394151,61.51872935633768,1.9320917791970755,0.9663339410202461,A,298.1850419891998,Correct
18,2,299,A,46.37515458567459,67.45885244868414,2.3187577292837296,1.0596411763619196,A,325.2907090354711,Correct
