subject,day,trial,cat,x,y,xt,yt,resp,rt,fb,ns_left_digit,ns_right_digit,ns_left_size,ns_right_size,ns_congruent,ns_cue,ns_correct_side,ns_resp,ns_rt,ns_fb
18,22,0,A,44.44052285141573,58.75556129494762,2.2220261425707863,0.9229301986087612,B,1000.9386659949087,Incorrect,2,8,big,small,False,Value,right,right,2149.2629580025095,Correct
18,22,1,B,71.65899524986347,54.31572163620928,3.582949762493173,0.8531893603337163,A,1312.719041001401,Incorrect,2,3,big,small,False,Value,right,right,829.0542910035583,Correct
18,22,2,B,35.966023074058484,20.925709300489775,1.798301153702924,0.32870027304787136,A,1079.512790995068,Incorrect,5,4,small,big,False,Value,left,right,1030.9811659972183,Incorrect
18,22,3,A,47.5247911976349,76.05780908746787,2.376239559881745,1.1947132713866202,B,662.5828739997814,Incorrect,2,3,big,small,False,Value,right,left,2666.1825830015005,Incorrect
18,22,4,B,50.76691293809241,35.30681243260961,2.5383456469046206,0.5545981127997955,B,1552.3356670018984,Correct,7,8,big,small,False,Value,right,left,2436.274040999706,Incorrect
18,22,5,B,42.7232244952834,33.821935413113124,2.13616122476417,0.5312737191201232,A,867.7205420026439,Incorrect,8,3,small,big,False,Value,left,right,2078.6530830009724,Incorrect
18,22,6,A,66.48202092198355,84.4858204350538,3.3241010460991776,1.3271001640563571,B,894.3109160027234,Incorrect,6,5,big,small,True,Value,left,left,610.3952909979853,Correct
18,22,7,A,13.215879967598873,41.37835295680679,0.6607939983799437,0.6499696483337486,A,1429.8576250002952,Correct,6,7,big,small,False,Value,right,right,449.6218329950352,Correct
18,22,8,A,45.00895417359393,71.40500038119832,2.2504477086796966,1.121627123135745,A,1419.8907909958507,Correct,8,3,small,big,False,Size,right,right,1516.7359160041087,Correct
18,22,9,B,59.062266744135485,31.927350242164394,2.9531133372067746,0.5015136448468598,A,939.3672080041142,Incorrect,5,2,small,big,False,Value,left,left,1342.5318750014412,Correct
18,22,10,A,27.241403068840135,57.73556731393349,1.3620701534420068,0.9069081706214622,A,786.9390000050771,Correct,5,8,big,small,False,Value,right,right,1769.9464999968768,Correct
18,22,11,A,54.43909873255011,62.47999428282501,2.7219549366275055,0.9814334551762767,A,625.9005829997477,Correct,3,7,big,small,False,Value,right,right,821.4319170001545,Correct
18,22,12,B,62.549127322026706,50.38072880388316,3.1274563661013355,0.791378637463895,A,498.1123329998809,Incorrect,4,8,big,small,False,Size,left,left,867.5312499981374,Correct
18,22,13,A,30.906403951485046,58.73038123154035,1.5453201975742525,0.9225346710976752,A,725.9072079978068,Correct,4,3,small,big,False,Value,left,left,1951.2615829953575,Correct
18,22,14,B,52.42587885518352,41.82622090951134,2.621293942759176,0.6570047416837231,A,626.1656659989967,Incorrect,4,2,small,big,False,Size,right,right,734.8893750022398,Correct
18,22,15,A,14.238566844584803,32.78236713581143,0.7119283422292401,0.5149442188057431,A,390.7848329981789,Correct,6,7,big,small,False,Size,left,right,522.0629579998786,Incorrect
18,22,16,B,74.05978580314931,54.273022480433596,3.7029892901574657,0.8525186435632195,B,796.2857079983223,Correct,3,7,big,small,False,Value,right,right,943.6213750013849,Correct
18,22,17,A,13.801142615025242,30.102397793154193,0.6900571307512621,0.47284735881205414,A,642.4487910044263,Correct,2,8,big,small,False,Value,right,right,1144.9334579956485,Correct
18,22,18,B,88.75123208213367,62.91585727346149,4.437561604106683,0.9882799750230529,B,798.6165409965906,Correct,7,2,small,big,False,Size,right,right,868.962583001121,Correct
18,22,19,A,46.54116562218374,53.620977678354734,2.327058281109187,0.8422763477631077,A,481.5072080018581,Correct,2,8,big,small,False,Value,right,right,874.0329159991234,Correct
18,22,20,A,63.69270916829828,74.38200838312254,3.184635458414914,1.168389855478361,A,600.8615829996415,Correct,8,2,small,big,False,Value,left,left,731.6362490018946,Correct
18,22,21,A,58.316119607149474,72.70978390216362,2.9158059803574736,1.142122614755693,B,520.2950410021003,Incorrect,7,3,small,big,False,Value,left,left,535.1834579996648,Correct
18,22,22,B,78.82102660983526,60.75120134415792,3.9410513304917627,0.9542776391978044,B,402.29770799487596,Correct,7,2,small,big,False,Value,left,left,624.2098329967121,Correct
18,22,23,B,60.583378550895276,41.02465922287725,3.029168927544764,0.6444138401530797,B,4261.071582994191,Correct,3,4,big,small,False,Value,right,left,1197.4374579949654,Incorrect
18,22,24,A,47.37757992319234,66.5746833366423,2.368878996159617,1.0457526804273112,A,1134.88554200012,Correct,3,4,big,small,False,Value,right,left,1025.8450410037767,Incorrect
18,22,25,A,19.820666288254166,36.686214769544065,0.9910333144127083,0.576265714040085,A,1293.646999001794,Correct,3,6,big,small,False,Size,left,right,1443.08083299984,Incorrect
18,22,26,B,47.601814969153665,38.62840348484433,2.3800907484576834,0.6067735430394465,A,1185.613875000854,Incorrect,6,2,big,small,True,Value,left,left,981.6337080046651,Correct
18,22,27,B,74.36396105964458,47.73897275825609,3.718198052982229,0.7498820305363031,B,618.6394579999615,Correct,8,4,small,big,False,Value,left,left,1082.5755420009955,Correct
18,22,28,A,53.35705399001438,68.2650042740234,2.667852699500719,1.0723041796227386,A,710.8776239983854,Correct,4,5,big,small,False,Size,left,left,760.3118329934659,Correct
18,22,29,A,60.106740522614075,84.13875704342871,3.0053370261307037,1.3216485050490605,A,708.5636670017266,Correct,4,2,small,big,False,Size,right,right,732.6412920010625,Correct
18,22,30,A,24.975450513412124,38.74621540201225,1.2487725256706061,0.6086241283068469,A,539.9959579954157,Correct,8,6,small,big,False,Value,left,left,671.9779579943861,Correct
18,22,31,B,52.57969910632825,27.236522378800288,2.628984955316412,0.4278302930728649,B,587.5495830041473,Correct,4,7,big,small,False,Value,right,left,736.1956660024589,Incorrect
18,22,32,A,21.724619267532546,52.72288258717672,1.0862309633766274,0.8281691030597581,A,396.7861239943886,Correct,3,7,small,big,True,Value,right,right,772.7594999960274,Correct
18,22,33,A,49.889386134298476,74.29889242118318,2.494469306714924,1.1670842730012372,A,317.0360830044956,Correct,5,6,big,small,False,Size,left,right,932.1890409992193,Incorrect
18,22,34,B,62.33729657144434,32.915331736183965,3.1168648285722167,0.5170328218643326,A,539.4740409974474,Incorrect,3,8,big,small,False,Value,right,right,691.1765409968211,Correct
18,22,35,B,61.14563129142327,37.93726778114954,3.0572815645711637,0.5959172087926407,A,311.8372500030091,Incorrect,7,8,big,small,False,Value,right,right,727.7025420044083,Correct
18,22,36,A,55.058151519849154,67.72393741200497,2.7529075759924577,1.063805121228649,A,474.41916599927936,Correct,5,2,small,big,False,Size,right,right,2352.591457995004,Correct
18,22,37,A,34.26324810561031,53.32230746158105,1.7131624052805154,0.8375848469687962,A,431.05183300212957,Correct,4,8,big,small,False,Size,left,right,711.4669989969116,Incorrect
18,22,38,B,41.8270037239937,18.64394723836987,2.091350186199685,0.29285843838989245,A,569.8604170029284,Incorrect,7,5,small,big,False,Size,right,right,468.64791700500064,Correct
18,22,39,A,22.841823832206977,44.823989459378005,1.1420911916103489,0.7040935799508413,A,370.1183330049389,Correct,7,4,small,big,False,Size,right,right,1009.6550000016578,Correct
18,22,40,A,16.920656434002975,40.857087671701414,0.8460328217001488,0.6417816323824564,A,716.0358330002055,Correct,4,3,big,small,True,Size,left,left,986.5166660019895,Correct
18,22,41,B,69.87248876014435,54.39765568933829,3.4936244380072172,0.8544763774306611,B,585.306250002759,Correct,8,6,small,big,False,Value,left,left,610.2187500000582,Correct
18,22,42,A,40.51950204423151,62.09190141936082,2.0259751022115755,0.975337306732428,A,543.4314999947674,Correct,7,8,big,small,False,Value,right,right,728.1664990005083,Correct
18,22,43,A,32.989929081818815,60.989053462778934,1.6494964540909407,0.9580138115403071,A,391.94524900085526,Correct,2,3,big,small,False,Value,right,right,524.3106659982004,Correct
18,22,44,B,40.31749270973938,13.065604588984414,2.015874635486969,0.2052340369573126,A,423.45966599532403,Incorrect,2,6,small,big,True,Size,right,right,666.8987079974613,Correct
18,22,45,A,25.516566105012856,54.651730246652455,1.2758283052506427,0.8584673712442724,B,300.92791600327473,Incorrect,3,5,big,small,False,Value,right,left,707.1636249966105,Incorrect
18,22,46,A,29.448795376393974,40.298807339967794,1.4724397688196986,0.6330121854383663,B,314.06720799714094,Incorrect,3,7,big,small,False,Value,right,left,540.0882079993607,Incorrect
18,22,47,A,57.73877024975458,78.81315468726908,2.886938512487729,1.2379941388588025,A,424.5037080036127,Correct,7,6,small,big,False,Value,left,right,500.8375410034205,Incorrect
18,22,48,A,56.3423844643704,81.65887873681636,2.81711922321852,1.28269466769981,A,363.3022499998333,Correct,2,4,big,small,False,Size,left,left,690.9465000062482,Correct
18,22,49,B,77.80188214147388,53.96841624103361,3.890094107073694,0.8477338999435364,B,364.87812499399297,Correct,3,2,small,big,False,Size,right,left,930.3972920024535,Incorrect
18,22,50,A,33.505482975351114,60.52322056275542,1.6752741487675558,0.9506965254577356,B,505.5177079993882,Incorrect,2,3,small,big,True,Size,right,right,783.940374996746,Correct
18,22,51,B,35.1471470688482,19.893542906576894,1.7573573534424098,0.31248704124587656,A,554.2803740027011,Incorrect,7,5,small,big,False,Size,right,right,506.2516250036424,Correct
18,22,52,A,26.43280376673591,36.979991933341765,1.3216401883367954,0.5808803549379815,A,521.1765830026707,Correct,8,6,small,big,False,Size,right,right,701.2375830017845,Correct
18,22,53,A,53.33660916795641,74.55161604572044,2.66683045839782,1.1710540464124115,A,396.5437919978285,Correct,7,3,small,big,False,Size,right,right,1633.3393329987302,Correct
18,22,54,B,40.2251143323636,17.163936413810738,2.01125571661818,0.2696104827215508,A,370.85845800174866,Incorrect,4,7,big,small,False,Value,right,right,589.7168749943376,Correct
18,22,55,A,37.86712126044983,49.082751482370995,1.8933560630224915,0.7709900573749512,A,299.2769579941523,Correct,5,7,big,small,False,Size,left,right,804.4422500024666,Incorrect
18,22,56,A,64.41697906820363,77.66212758777874,3.2208489534101816,1.2199138474595945,B,1301.6288750004605,Incorrect,5,6,big,small,False,Size,left,left,1061.066166999808,Correct
18,22,57,B,44.97474333262333,24.17941220576509,2.248737166631167,0.3798093187687549,B,4505.887541999982,Correct,4,7,big,small,False,Size,left,left,619.1258750041015,Correct
18,22,58,A,34.76485679226258,57.48908840429311,1.7382428396131289,0.9030364889625072,A,389.4361670027138,Correct,4,8,big,small,False,Size,left,right,640.5870829985361,Incorrect
18,22,59,B,82.62623021323317,56.53341529633532,4.131311510661658,0.8880248108865394,A,355.37679200206185,Incorrect,4,2,big,small,True,Size,left,right,656.3012080005137,Incorrect
18,22,60,A,15.173548793110328,44.769392023270235,0.7586774396555164,0.7032359654299363,A,525.0752080028178,Correct,6,4,small,big,False,Size,right,right,665.0365000023157,Correct
18,22,61,A,36.60138774876242,48.20643572410286,1.830069387438121,0.7572249216329505,A,448.07983299688203,Correct,5,2,small,big,False,Size,right,right,525.0693330017384,Correct
18,22,62,B,53.98290145029134,40.88633168860056,2.699145072514567,0.6422409963257155,A,457.7083740005037,Incorrect,5,4,small,big,False,Size,right,right,861.3532079980359,Correct
18,22,63,A,25.916674267928016,51.504683564629026,1.2958337133964009,0.8090336775605276,A,660.5738750004093,Correct,8,2,small,big,False,Size,right,right,606.8318329998874,Correct
18,22,64,B,40.86801530105767,13.942638396393434,2.0434007650528834,0.21901045178884293,A,429.12258300202666,Incorrect,3,6,small,big,True,Size,right,right,588.3934579978813,Correct
18,22,65,A,34.474780526122025,67.05868945667322,1.7237390263061014,1.0533554307822195,A,347.18374999647494,Correct,6,4,small,big,False,Size,right,right,630.3105410042917,Correct
18,22,66,A,61.42310140594209,79.37953868586631,3.071155070297104,1.2468908779043217,A,360.7693329977337,Correct,5,8,big,small,False,Value,right,right,400.35441600048216,Correct
18,22,67,A,14.87661587825566,44.28792130664816,0.7438307939127831,0.6956730410986436,A,442.5147080037277,Correct,2,4,big,small,False,Value,right,right,490.0060410000151,Correct
18,22,68,B,70.22753707558918,44.13195565801472,3.511376853779459,0.6932231384188478,A,373.3185420060181,Incorrect,7,2,small,big,False,Value,left,right,515.5341239951667,Incorrect
18,22,69,B,42.17518214592939,33.660379408540976,2.1087591072964695,0.5287360033345874,A,535.5728750000708,Incorrect,2,4,small,big,True,Size,right,right,386.6464999955497,Correct
18,22,70,A,49.39076564799932,78.40822744678067,2.469538282399966,1.2316335566390189,B,516.4881669988972,Incorrect,7,3,big,small,True,Size,left,right,407.3973330014269,Incorrect
18,22,71,B,83.4790994429059,55.943025214864306,4.173954972145295,0.8787509851730314,A,404.83674900315236,Incorrect,5,7,big,small,False,Value,right,right,404.5032079957309,Correct
18,22,72,A,15.520958572116836,38.8578797801632,0.7760479286058418,0.6103781482571804,A,669.9205830009305,Correct,3,2,small,big,False,Value,left,right,781.1714999988908,Incorrect
18,22,73,B,52.82364167200521,43.72890312990085,2.6411820836002606,0.6868920041121811,B,783.3125409961212,Correct,6,7,big,small,False,Value,right,left,657.2099999975762,Incorrect
18,22,74,B,75.22898049027854,60.52386558512171,3.7614490245139276,0.9507066574453724,B,360.16812500020023,Correct,5,8,big,small,False,Size,left,left,850.8618330015452,Correct
18,22,75,A,33.91342184945137,66.71789899204865,1.6956710924725684,1.0480023066818294,A,536.1937080015196,Correct,7,5,big,small,True,Value,left,left,642.7995419944637,Correct
18,22,76,A,20.259377678965556,36.62842426463469,1.012968883948278,0.5753579429117323,A,492.86270800075727,Correct,2,5,big,small,False,Value,right,right,511.5410409998731,Correct
18,22,77,A,37.298202078879875,65.17297621896601,1.864910103943994,1.0237347165104296,A,542.2564580003382,Correct,6,5,small,big,False,Size,right,left,637.4498329969356,Incorrect
18,22,78,A,42.73588101949374,68.26083542507529,2.136794050974687,1.0722386954965921,A,653.38829200482,Correct,8,6,small,big,False,Size,right,left,1657.7584170008777,Incorrect
18,22,79,B,82.74050731199962,66.05059514730556,4.137025365599981,1.037520322400044,B,1316.1814989944105,Correct,4,2,small,big,False,Value,left,left,2274.299457996676,Correct
18,22,80,A,25.217955889072265,51.024377222479536,1.2608977944536133,0.8014890431806804,A,933.400123998581,Correct,8,7,big,small,True,Value,left,left,1293.2773330030614,Correct
18,22,81,A,36.53787918658939,53.312970231161856,1.8268939593294697,0.8374381780963471,A,751.3014580035815,Correct,8,7,small,big,False,Value,left,left,1224.471416004235,Correct
18,22,82,B,74.23620910221692,41.30709550747698,3.7118104551108457,0.6488503389371082,A,328.649666000274,Incorrect,6,8,big,small,False,Size,left,left,683.3745410040137,Correct
18,22,83,A,40.51402779913181,70.70793967855178,2.0257013899565903,1.1106777192230426,A,477.01066699664807,Correct,5,4,small,big,False,Value,left,left,683.9938749981229,Correct
18,22,84,B,48.72641991130731,28.834740237838098,2.4363209955653655,0.4529350404968108,A,796.4555409998866,Incorrect,8,6,small,big,False,Value,left,left,538.1135829957202,Correct
18,22,85,A,41.69182843545877,61.963584158394276,2.0845914217729384,0.9733217039105218,A,447.63687399972696,Correct,4,2,small,big,False,Value,left,right,939.0351249967352,Incorrect
18,22,86,A,61.941147375442455,87.96547053272687,3.097057368772123,1.3817583799759208,A,435.40720799501287,Correct,7,4,small,big,False,Size,right,right,1236.7492080011289,Correct
18,22,87,A,43.17106806471012,74.88244907868717,2.158553403235506,1.176250759542077,A,2039.0174579952145,Correct,5,4,small,big,False,Size,right,left,1078.128998997272,Incorrect
18,22,88,A,38.06014905258897,53.02341084252875,1.9030074526294485,0.8328897898558085,A,1279.9989169943728,Correct,3,7,big,small,False,Size,left,left,1089.672292000614,Correct
18,22,89,A,29.259953773849716,57.49992197718568,1.4629976886924856,0.9032066623275641,A,906.4429580030264,Correct,8,3,small,big,False,Size,right,left,1385.2065829996718,Incorrect
18,22,90,A,20.83530226050913,37.94790612436124,1.0417651130254566,0.5960843154970419,A,1223.2702910041553,Correct,7,4,small,big,False,Size,right,right,843.6804580051103,Correct
18,22,91,A,40.51175496391811,67.94158859623575,2.0255877481959055,1.0672239780357715,A,1431.436915998347,Correct,7,3,small,big,False,Size,right,right,1124.0549159992952,Correct
18,22,92,B,48.185176637682645,41.071497304455626,2.409258831884132,0.6451495710180539,A,910.6968330015661,Incorrect,8,2,small,big,False,Value,left,left,3936.359708000964,Correct
18,22,93,B,82.74762509823236,52.642774293726866,4.137381254911618,0.8269107649287897,B,4639.143500004138,Correct,7,5,small,big,False,Size,right,left,667.5735410026391,Incorrect
18,22,94,A,48.04966821103619,61.59424157090001,2.4024834105518096,0.9675200841128726,A,1018.488248999347,Correct,8,7,big,small,True,Value,left,right,1518.7637499984703,Incorrect
18,22,95,A,53.10728773758203,64.86424374528514,2.6553643868791017,1.0188851581542275,A,2401.15020799567,Correct,3,4,big,small,False,Value,right,right,1931.7513330024667,Correct
18,22,96,A,24.6857124933889,49.619347622846924,1.234285624669445,0.7794188898392703,A,891.5424169972539,Correct,7,6,small,big,False,Size,right,right,907.3542499972973,Correct
18,22,97,B,80.84466255923977,67.6165578890353,4.042233127961988,1.0621184076261114,A,438.972249001381,Incorrect,4,2,small,big,False,Size,right,right,514.8476239992306,Correct
18,22,98,A,33.094324514537924,43.753102690753416,1.6547162257268964,0.6872721299251536,A,515.3457920023357,Correct,6,4,small,big,False,Value,left,left,1113.0845000006957,Correct
18,22,99,A,57.20530144094469,74.0487574288548,2.8602650720472345,1.1631551617297142,B,532.0782920025522,Incorrect,5,6,big,small,False,Value,right,left,1854.7059990014532,Incorrect
18,22,100,B,62.17664378267842,46.11337719304287,3.108832189133921,0.7243472351093929,A,1051.3427080004476,Incorrect,3,4,big,small,False,Size,left,right,1640.4780829980155,Incorrect
18,22,101,A,29.14678581110857,44.850490890056555,1.4573392905554283,0.704509863450488,A,1029.4332499979646,Correct,3,2,small,big,False,Value,left,left,2393.48520799831,Correct
18,22,102,A,56.859254291797015,75.12829516455021,2.842962714589851,1.1801125008283826,A,801.0545409997576,Correct,6,2,small,big,False,Size,right,left,791.4859159936896,Incorrect
18,22,103,A,48.70839769142079,61.28302260782108,2.4354198845710395,0.9626314680725395,A,989.4882079970557,Correct,6,5,small,big,False,Size,right,left,970.4073330067331,Incorrect
18,22,104,A,11.605682864743656,34.07712065026672,0.5802841432371828,0.5352821594518549,A,775.8927920003771,Correct,5,3,small,big,False,Size,right,left,753.6896660021739,Incorrect
18,22,105,A,57.4182124982503,69.06099168113056,2.870910624912515,1.0848075205753278,A,800.187625005492,Correct,8,3,small,big,False,Value,left,right,873.9167079984327,Incorrect
18,22,106,A,37.390783233424,66.71967207429233,1.8695391616712,1.0480301581925842,A,502.58991600276204,Correct,8,6,small,big,False,Size,right,right,682.081165999989,Correct
18,22,107,A,17.739044287355618,35.53436645901253,0.8869522143677809,0.5581725230880066,A,571.8901240034029,Correct,4,5,big,small,False,Value,right,right,346.049291001691,Correct
18,22,108,A,33.0221641441459,45.73080246407392,1.651108207207295,0.7183377653195031,A,441.43008300306974,Correct,3,7,small,big,True,Size,right,right,369.86720799905015,Correct
18,22,109,A,24.20686544815485,48.067186375322756,1.2103432724077425,0.7550375979772268,A,431.1344999950961,Correct,5,8,big,small,False,Value,right,left,557.0617909979774,Incorrect
18,22,110,B,47.175662963416805,20.022299699437905,2.3587831481708403,0.3145095482186362,A,461.6284580042702,Incorrect,8,7,small,big,False,Size,right,right,886.0670830035815,Correct
18,22,111,A,65.9698875583218,78.83358386676284,3.2984943779160902,1.2383150396598848,A,372.40066599770216,Correct,6,5,small,big,False,Value,left,left,479.2929989998811,Correct
18,22,112,A,40.25539528843123,73.30220799360521,2.0127697644215616,1.1514283906231058,A,465.63354099635035,Correct,7,5,small,big,False,Value,left,left,448.2653750019381,Correct
18,22,113,A,53.06600924433642,69.41452829713585,2.653300462216821,1.0903608607534139,A,350.93120799865574,Correct,8,4,small,big,False,Size,right,left,487.91520800295984,Incorrect
18,22,114,B,35.36939386765889,24.7043195691655,1.7684696933829445,0.3880545443521245,A,484.8407910030801,Incorrect,3,5,small,big,True,Size,right,right,369.34054199809907,Correct
18,22,115,B,49.36597152331486,33.15246313739678,2.468298576165743,0.5207576732042607,A,383.954958000686,Incorrect,8,5,small,big,False,Value,left,right,515.8713329947204,Incorrect
18,22,116,B,64.41074895437373,38.00325100593902,3.2205374477186863,0.5969536708639347,A,400.94320800562855,Incorrect,6,8,big,small,False,Size,left,right,668.5738329979358,Incorrect
18,22,117,B,33.51667749490815,15.761423495367463,1.6758338747454076,0.24757986131581994,A,417.40912499517435,Incorrect,8,7,small,big,False,Value,left,left,928.9808749963413,Correct
18,22,118,B,87.2705419755175,61.97790461183439,4.363527098775875,0.9735466490671395,B,748.2836660055909,Correct,3,7,big,small,False,Value,right,right,1284.4645410004887,Correct
18,22,119,A,50.56099708642411,71.17608038650614,2.528049854321205,1.1180312562678214,A,835.139998998784,Correct,8,6,small,big,False,Value,left,right,1057.2763750024023,Incorrect
18,22,120,B,77.9204791562612,59.47776878938739,3.8960239578130595,0.9342746074032585,A,1183.232457995473,Incorrect,5,3,small,big,False,Value,left,right,667.3559159971774,Incorrect
18,22,121,A,44.86574580531366,65.25960675820781,2.2432872902656826,1.0250955058387226,A,4054.2924990004394,Correct,6,4,small,big,False,Value,left,right,505.64599900098983,Incorrect
18,22,122,A,56.12945887050368,81.58365158740412,2.8064729435251845,1.2815130024000903,B,14.385167000000365,Incorrect,4,8,small,big,True,Value,right,left,634.6332079992862,Incorrect
18,22,123,A,22.93207946638287,37.07052969924233,1.1466039733191435,0.5823025188391097,A,479.87458299758146,Correct,6,7,big,small,False,Size,left,left,375.7088330021361,Correct
18,22,124,B,40.95952443009388,32.493482970146886,2.047976221504694,0.5104064369427925,A,583.0416249955306,Incorrect,7,4,small,big,False,Value,left,left,955.5337909987429,Correct
18,22,125,A,44.360991660580005,76.49093532238638,2.2180495830290003,1.2015168023751053,A,604.318500001682,Correct,6,5,big,small,True,Value,left,right,674.2971659987234,Incorrect
18,22,126,B,50.43972181572948,40.87020385548158,2.521986090786474,0.6419876609154908,A,263.4376659989357,Incorrect,6,7,big,small,False,Value,right,right,551.8587080005091,Correct
18,22,127,B,37.882666192028196,27.340319313597206,1.8941333096014097,0.42946073151198055,A,488.211374002276,Incorrect,8,2,small,big,False,Size,right,right,617.0152499980759,Correct
18,22,128,A,28.55981250777466,40.96818227770375,1.4279906253887331,0.6435267023728082,A,277.24520799529273,Correct,5,2,small,big,False,Size,right,left,740.2943330016569,Incorrect
18,22,129,A,39.682193941721295,49.5292540965401,1.9841096970860648,0.7780037040373629,A,467.63808299874654,Correct,6,7,big,small,False,Size,left,right,696.8558329972439,Incorrect
18,22,130,B,69.09266276525352,36.38511209816155,3.4546331382626763,0.5715360043381271,A,304.487582994625,Incorrect,7,8,big,small,False,Value,right,right,765.535833001195,Correct
18,22,131,A,35.81331451400092,62.176454199572454,1.790665725700046,0.9766654586981954,A,328.6125410013483,Correct,2,7,big,small,False,Value,right,right,899.1127910048817,Correct
18,22,132,A,45.842714591627065,53.190408743920266,2.292135729581353,0.8355129867566912,A,313.5766249979497,Correct,7,5,small,big,False,Size,right,left,831.992124003591,Incorrect
18,22,133,B,45.153616649254126,37.75102815739862,2.2576808324627065,0.5929917636237246,B,483.83733299851883,Correct,5,3,small,big,False,Value,left,left,822.6254160035751,Correct
18,22,134,A,17.434582928143747,38.83790423590089,0.8717291464071875,0.6100643731416507,A,539.453625002352,Correct,5,3,big,small,True,Size,left,left,451.89633299742127,Correct
18,22,135,A,69.45800787723036,85.01296861186398,3.4729003938615177,1.3353805882544578,B,530.1987499988172,Incorrect,7,3,small,big,False,Value,left,left,372.9550000061863,Correct
18,22,136,B,43.411533733914254,23.171493937859225,2.170576686695713,0.36397697563939474,A,337.7810829988448,Incorrect,2,5,big,small,False,Value,right,right,521.7041659998358,Correct
18,22,137,B,48.18611876704196,37.512956570996174,2.409305938352098,0.5892521438893726,A,308.0589989986038,Incorrect,8,7,small,big,False,Size,right,left,398.1670409993967,Incorrect
18,22,138,B,77.73296480100623,61.41504379986455,3.8866482400503117,0.9647052521077494,B,532.2788330013282,Correct,6,2,small,big,False,Value,left,left,301.8719579995377,Correct
18,22,139,A,21.436616770472007,44.12843126073078,1.0718308385236002,0.69316777731577,A,494.91187399689807,Correct,3,8,big,small,False,Size,left,left,524.6894169977168,Correct
18,22,140,B,48.15681475052247,27.980695577962372,2.4078407375261235,0.439519738350295,B,677.7272910039756,Correct,7,4,big,small,True,Value,left,left,767.4396660004277,Correct
18,22,141,B,64.34180551869149,54.07430805585355,3.2170902759345745,0.8493972446811044,B,481.9725000052131,Correct,6,4,small,big,False,Value,left,left,549.4437079978525,Correct
18,22,142,A,17.675564310137737,42.40686217319265,0.8837782155068868,0.6661254333254846,A,489.11545800365275,Correct,8,6,small,big,False,Value,left,left,393.72466599888867,Correct
18,22,143,A,35.03631955348601,68.07832168280827,1.7518159776743005,1.0693717763371657,A,355.20887399616186,Correct,7,6,small,big,False,Value,left,left,418.3265419997042,Correct
18,22,144,A,18.635373598803664,42.05739115450359,0.9317686799401832,0.6606359554007042,A,326.1627920001047,Correct,6,3,small,big,False,Size,right,right,853.7149990006583,Correct
18,22,145,B,40.273634745644,15.029412545542606,2.0136817372822002,0.23608146020423462,A,232.97708300378872,Incorrect,4,7,big,small,False,Size,left,right,599.1751239998848,Incorrect
18,22,146,A,23.77583238535405,51.87557893940733,1.1887916192677026,0.8148596884837974,A,284.73954099899856,Correct,7,3,small,big,False,Value,left,right,598.5045000052196,Incorrect
18,22,147,A,14.994142764088053,32.192565310607435,0.7497071382044027,0.5056796334000696,A,343.6923749977723,Correct,3,7,big,small,False,Size,left,left,787.1052080008667,Correct
18,22,148,B,65.25181529811098,43.16214313321056,3.262590764905549,0.6779893589024272,B,392.7810409950325,Correct,4,8,big,small,False,Value,right,left,378.7006249986007,Incorrect
18,22,149,A,12.184177902732014,34.92146800760015,0.6092088951366007,0.5485451367262381,A,402.8056250026566,Correct,4,3,big,small,True,Value,left,right,566.722874995321,Incorrect
18,22,150,B,88.1480050088926,62.83410906394623,4.4074002504446295,0.9869958771507665,A,314.2437909991713,Incorrect,6,7,big,small,False,Value,right,right,475.95379200356547,Correct
18,22,151,A,53.5945431510171,73.17793961374919,2.679727157550855,1.1494763874769598,A,379.55458299984457,Correct,4,2,small,big,False,Size,right,left,423.9480830001412,Incorrect
18,22,152,B,49.59688086590711,19.406451775714707,2.4798440432953557,0.30483583165414957,A,492.3868330006371,Incorrect,5,8,big,small,False,Value,right,right,371.09262499870965,Correct
18,22,153,B,71.64543996652077,42.27337173758668,3.5822719983260383,0.6640285704663634,B,601.7609999980778,Correct,8,3,small,big,False,Size,right,right,1133.2073739977204,Correct
18,22,154,A,56.03167438202124,73.57330442033643,2.801583719101062,1.155686763336272,A,431.20695799734676,Correct,8,6,small,big,False,Size,right,left,870.1965410000412,Incorrect
18,22,155,A,25.95200046417802,52.76601904518824,1.2976000232089009,0.8288466889577123,A,447.303249995457,Correct,4,6,big,small,False,Size,left,right,987.8250830006436,Incorrect
18,22,156,B,35.00738726220031,16.02532017837081,1.7503693631100157,0.25172514071897,A,394.79766699514585,Incorrect,2,7,big,small,False,Value,right,left,661.7565830019885,Incorrect
18,22,157,B,71.57537346148904,57.11586442742299,3.578768673074452,0.8971739004431133,B,598.0239999989863,Correct,4,8,small,big,True,Value,right,right,1424.2574579984648,Correct
18,22,158,A,17.634484831935623,46.04108217118562,0.8817242415967812,0.7232116275616037,A,279.0067079986329,Correct,7,2,big,small,True,Value,left,left,350.73679099878063,Correct
18,22,159,B,50.52403787829192,33.145836350790525,2.526201893914596,0.5206535798836651,B,462.4962500020047,Correct,6,7,big,small,False,Size,left,left,635.4385829981766,Correct
18,22,160,B,38.6659918815254,23.096635617272796,1.93329959407627,0.36280110388932285,A,367.9901659997995,Incorrect,8,7,small,big,False,Value,left,left,881.8840829990222,Correct
18,22,161,A,48.08494016662438,76.90928900198047,2.404247008331219,1.2080882866071805,A,378.55945799674373,Correct,7,3,small,big,False,Value,left,left,475.9941240045009,Correct
18,22,162,A,48.85690604931342,61.16518195816943,2.442845302465671,0.9607804314763401,A,310.7210829984979,Correct,3,7,big,small,False,Value,right,right,675.5652499996359,Correct
18,22,163,A,23.50336417960846,54.0071320127593,1.1751682089804232,0.8483420458636938,A,289.89016600098694,Correct,5,2,small,big,False,Value,left,left,574.0086250007153,Correct
18,22,164,A,38.96593897826627,70.66949009154905,1.9482969489133137,1.110073754522736,A,349.34516700013774,Correct,4,6,big,small,False,Size,left,right,368.8019160035765,Incorrect
18,22,165,A,13.993814208242096,43.02763549674212,0.6996907104121048,0.6758765178895223,A,237.46016599761788,Correct,5,2,small,big,False,Value,left,left,319.11291699361755,Correct
18,22,166,A,40.91916907587548,60.773416587297085,2.0459584537937743,0.954626595421023,A,247.3512500000652,Correct,5,4,small,big,False,Value,left,left,833.5215420011082,Correct
18,22,167,B,84.06430282557653,66.13204180786039,4.203215141278827,1.0387996835523363,A,579.7247500013327,Incorrect,8,6,small,big,False,Size,right,right,839.144582998415,Correct
18,22,168,B,73.05170913256381,59.239390790182014,3.6525854566281906,0.9305301745478534,B,589.2174990003696,Correct,2,4,big,small,False,Value,right,right,851.3772919977782,Correct
18,22,169,A,32.915135247266555,63.22671190923277,1.6457567623633278,0.9931628682234197,A,524.7119990017381,Correct,7,8,small,big,True,Size,right,right,792.2927079998772,Correct
18,22,170,B,79.30781293622614,49.94174316172901,3.965390646811307,0.7844830671217806,B,659.2500409969944,Correct,7,6,big,small,True,Value,left,left,325.22112500009825,Correct
18,22,171,A,31.096495153883296,50.51362177722206,1.5548247576941647,0.7934661154076712,A,418.12645799655,Correct,4,3,small,big,False,Size,right,right,451.4717079946422,Correct
18,22,172,A,58.61850956795228,86.80420829082857,2.9309254783976137,1.3635173153357263,A,527.3639160004677,Correct,8,7,big,small,True,Value,left,left,435.555916003068,Correct
18,22,173,B,78.93265074888696,48.03910726976558,3.946632537444348,0.7545965324185379,B,421.12737499701325,Correct,4,2,small,big,False,Size,right,left,809.1851670033066,Incorrect
18,22,174,A,31.99260461317595,43.2870490035597,1.5996302306587975,0.6799513757258226,B,350.05220799939707,Incorrect,3,8,big,small,False,Size,left,right,390.5559170016204,Incorrect
18,22,175,A,26.743185677698584,45.44923141370667,1.3371592838849293,0.7139148576030167,A,471.73225000005914,Correct,6,4,small,big,False,Value,left,left,390.10058299754746,Correct
18,22,176,A,59.899969387046724,80.78231305911775,2.9949984693523364,1.2689256062325758,B,510.74845800030744,Incorrect,6,3,big,small,True,Size,left,left,392.0706240023719,Correct
18,22,177,B,52.431710649537216,26.95894157411985,2.621585532476861,0.4234700639890569,A,491.5982079983223,Incorrect,8,4,small,big,False,Value,left,left,659.4808329973603,Correct
18,22,178,B,76.32572501131511,64.96917094571074,3.8162862505657555,1.0205333507643215,B,323.9642500047921,Correct,7,5,small,big,False,Value,left,left,212.5229160010349,Correct
18,22,179,B,75.66711310844616,44.73584146695045,3.7833556554223082,0.7027089545236458,A,361.1298739997437,Incorrect,6,4,small,big,False,Value,left,right,494.686083002307,Incorrect
18,22,180,A,60.03091131385297,82.07172166030271,3.0015455656926484,1.2891795891773665,B,353.47374900447903,Incorrect,2,4,big,small,False,Size,left,left,1075.2075830023387,Correct
18,22,181,B,85.86484599532822,57.68813645397146,4.293242299766411,0.9061631284154115,A,262.97591600450687,Incorrect,4,3,small,big,False,Size,right,right,229.20558299665572,Correct
18,22,182,A,23.647372219819008,37.04931246401238,1.1823686109909504,0.5819692392874702,A,317.53591600136133,Correct,5,6,big,small,False,Value,right,left,465.7042079998064,Incorrect
18,22,183,B,36.15046606274948,15.240562474508494,1.807523303137474,0.23939819553246078,A,401.70383299846435,Incorrect,6,5,big,small,True,Value,left,left,367.8742490010336,Correct
18,22,184,A,22.50245334757637,38.71639607482923,1.1251226673788184,0.608155727410781,B,304.662875001668,Incorrect,2,4,big,small,False,Size,left,left,495.76808299752884,Correct
18,22,185,A,31.361704755213847,42.45004324480283,1.5680852377606922,0.6668037200122079,A,570.220582994807,Correct,2,8,big,small,False,Value,right,right,1023.6233749965322,Correct
18,22,186,A,32.01659106324581,49.42033075161363,1.6008295531622907,0.7762927401362355,A,1153.5453739998047,Correct,4,3,small,big,False,Size,right,left,1038.0633329987177,Incorrect
18,22,187,A,53.722464325649334,78.97547439028678,2.6861232162824664,1.2405438507914688,A,773.0988330004038,Correct,2,8,big,small,False,Value,right,right,1355.2385830043931,Correct
18,22,188,B,58.40178582576577,33.96220385721773,2.9200892912882885,0.5334770506877707,A,847.9853329990874,Incorrect,2,7,big,small,False,Size,left,left,526.6851660053362,Correct
18,22,189,B,70.95322455483911,54.93091350569517,3.5476612277419552,0.8628527716223415,A,374.85875000129454,Incorrect,6,7,big,small,False,Value,right,right,1654.0822500028298,Correct
18,22,190,B,41.09801351605637,23.19990305738769,2.0549006758028185,0.36442322504542274,A,595.03379099624,Incorrect,6,2,small,big,False,Value,left,left,541.139540997392,Correct
18,22,191,A,35.55798889424696,48.821218255372735,1.777899444712348,0.7668819030519145,A,895.1470829997561,Correct,4,8,big,small,False,Value,right,left,1592.4693750057486,Incorrect
18,22,192,A,46.15289890785858,71.72107270186196,2.3076449453929286,1.1265919755387448,A,1050.1230410009157,Correct,5,4,small,big,False,Size,right,left,865.7461239999975,Incorrect
18,22,193,B,38.23746440155469,25.424077126476334,1.9118732200777344,0.3993604696241917,A,1356.0417909975513,Incorrect,4,7,big,small,False,Size,left,left,970.07433300314,Correct
18,22,194,B,86.30769978295594,67.05808849210554,4.3153849891477964,1.053345990852865,B,1309.2813750045025,Correct,4,7,big,small,False,Value,right,left,920.2770829942892,Incorrect
18,22,195,B,82.72097855600704,67.73997107746189,4.136048927800352,1.0640569774566966,B,975.8765410006163,Correct,3,4,small,big,True,Value,right,left,954.0979579978739,Incorrect
18,22,196,A,17.271314158463642,38.2514706563026,0.8635657079231821,0.600852696014229,A,772.6426239969442,Correct,5,8,big,small,False,Value,right,left,989.09270799777,Incorrect
18,22,197,A,34.232322773198206,58.90003409255975,1.7116161386599102,0.9251995720068703,A,847.1899990036036,Correct,6,2,small,big,False,Size,right,right,2344.3866669986164,Correct
18,22,198,B,57.8462916210945,41.53723776866242,2.892314581054725,0.6524654051222117,A,1181.7672920005862,Incorrect,3,7,big,small,False,Value,right,right,882.8946659996291,Correct
18,22,199,B,55.99598912359414,28.38736065627907,2.799799456179707,0.4459076184628513,A,997.81208299828,Incorrect,4,7,small,big,True,Size,right,right,712.8406240008189,Correct
18,22,200,B,66.19296052103694,58.223709585894106,3.3096480260518466,0.9145758914989527,A,5069.386208000651,Incorrect,7,2,big,small,True,Size,left,left,4494.286957997247,Correct
18,22,201,B,43.33049708607999,34.54092021744278,2.1665248543039994,0.542567506016747,A,523.138499003835,Incorrect,4,6,small,big,True,Value,right,right,18963.857458002167,Correct
18,22,202,B,81.79701633457316,54.358518931656555,4.089850816728658,0.8538616186785697,A,3199.434166002902,Incorrect,3,2,small,big,False,Size,right,right,2275.753916001122,Correct
18,22,203,B,56.79701882215325,47.82896051165895,2.8398509411076622,0.7512955548613203,A,984.8447490003309,Incorrect,6,7,big,small,False,Size,left,left,1961.9893750059418,Correct
18,22,204,A,34.699371470000074,47.1577987895993,1.7349685735000038,0.740752971184354,A,1845.9683749970281,Correct,4,3,small,big,False,Value,left,right,4739.759124000557,Incorrect
18,22,205,B,50.01438466401231,25.809555560618954,2.5007192332006154,0.40541555070829044,A,1123.4166249996633,Incorrect,5,3,small,big,False,Size,right,left,748.9823330033687,Incorrect
18,22,206,B,72.18324458217235,61.5334223047232,3.6091622291086174,0.9665647373137836,A,1828.4296659985557,Incorrect,6,7,big,small,False,Value,right,left,1138.3351669937838,Incorrect
18,22,207,A,60.70732600934079,71.43615574299128,3.03536630046704,1.1221165104143884,A,1151.6646660020342,Correct,2,6,big,small,False,Value,right,right,1366.7497080023168,Correct
18,22,208,B,70.20029105316175,46.1631532182812,3.5100145526580877,0.7251291150854611,A,946.9963329975144,Incorrect,4,5,big,small,False,Size,left,left,753.1713330026832,Correct
18,22,209,B,35.85504193682161,18.900111247240797,1.7927520968410804,0.29688225323180756,A,653.3773330011172,Incorrect,3,8,big,small,False,Value,right,right,583.7482499991893,Correct
18,22,210,B,84.09052156585813,58.02239539034147,4.204526078292906,0.9114136555098952,A,323.8792909978656,Incorrect,7,5,small,big,False,Size,right,right,2133.7235829996644,Correct
18,22,211,B,76.4208604539023,64.35829095027368,3.8210430226951155,1.0109376702348714,A,2134.9885420058854,Incorrect,3,7,big,small,False,Value,right,left,1736.946542005171,Incorrect
18,22,212,A,36.81335477807428,47.93142354143065,1.840667738903714,0.752905040369297,A,1383.3404159959173,Correct,6,2,small,big,False,Size,right,right,908.3395420020679,Correct
18,22,213,A,24.66498072363885,43.5506124795597,1.2332490361819424,0.6840914211256036,A,809.9610409990419,Correct,6,8,big,small,False,Size,left,left,965.6018329988001,Correct
18,22,214,B,74.41518725197466,48.61028710035581,3.720759362598733,0.7635686042168426,A,318.85808300285134,Incorrect,4,2,small,big,False,Size,right,left,725.602375001472,Incorrect
18,22,215,B,54.6082081577529,45.86121144301732,2.7304104078876446,0.7203862247705568,A,741.1537920052069,Incorrect,4,7,big,small,False,Size,left,right,463.8427079989924,Incorrect
18,22,216,A,49.58942725949231,65.93528947951225,2.4794713629746155,1.0357091052057603,A,733.071957998618,Correct,3,2,small,big,False,Size,right,left,1606.714457993803,Incorrect
18,22,217,A,31.721989033888477,49.176575486038296,1.5860994516944238,0.772463841378209,A,998.1480419955915,Correct,4,2,small,big,False,Value,left,right,1380.4055829969002,Incorrect
18,22,218,A,11.255969622067113,34.106016384012605,0.5627984811033556,0.5357360525761355,A,773.7373750060215,Correct,6,2,small,big,False,Value,left,left,1027.8371239983244,Correct
18,22,219,A,65.65443156636243,87.26003391473338,3.2827215783181214,1.370677407492613,A,641.2872489963775,Correct,4,2,small,big,False,Value,left,left,1117.4333750022925,Correct
18,22,220,A,56.78740161219479,76.00064711575617,2.8393700806097395,1.1938153732346495,A,659.9541250034235,Correct,8,3,big,small,True,Value,left,left,1415.7887080000364,Correct
18,22,221,B,62.887492125306856,44.51867635236188,3.144374606265343,0.6992977328806086,A,1590.3895829978865,Incorrect,6,5,big,small,True,Value,left,left,1806.1059580068104,Correct
18,22,222,B,52.44238964891941,23.54653805030597,2.622119482445971,0.36986815478156887,A,601.788874999329,Incorrect,6,3,small,big,False,Value,left,left,1166.778583006817,Correct
18,22,223,B,65.03223592732039,42.852474751178065,3.251611796366019,0.6731250993322155,A,588.4903330006637,Incorrect,8,5,small,big,False,Size,right,left,1353.5931250007707,Incorrect
18,22,224,A,41.969964307750395,57.272790590084426,2.0984982153875196,0.8996388908419793,A,679.1179580031894,Correct,8,7,big,small,True,Value,left,left,393.3660830007284,Correct
18,22,225,B,38.93471796922664,29.938733954141412,1.946735898461332,0.47027653324054974,A,468.8638750012615,Incorrect,8,7,small,big,False,Size,right,left,1285.580250005296,Incorrect
18,22,226,B,83.9195003256099,69.08999467831181,4.195975016280495,1.0852630985897116,A,712.2984160014312,Incorrect,5,6,big,small,False,Value,right,left,1181.0865830047987,Incorrect
18,22,227,A,25.242363252446285,54.07786542525663,1.2621181626223141,0.8494531237090186,A,647.7189580036793,Correct,5,2,small,big,False,Value,left,left,424.52529200090794,Correct
18,22,228,A,68.33661462376935,84.80493809196884,3.4168307311884676,1.3321128524893324,B,1262.3812909951084,Incorrect,4,2,small,big,False,Value,left,left,1097.359833001974,Correct
18,22,229,B,89.4857506053936,64.83210242461635,4.47428753026968,1.0183802834697786,B,1355.6025409998256,Correct,3,8,big,small,False,Value,right,left,647.7434580010595,Incorrect
18,22,230,B,78.96676896325162,62.39558666230897,3.9483384481625814,0.9801075833736758,B,1119.8825829997077,Correct,4,5,big,small,False,Value,right,left,1211.533875000896,Incorrect
18,22,231,A,32.672841699941294,50.04688997888731,1.6336420849970648,0.786134709463445,A,761.9294580072165,Correct,6,8,big,small,False,Value,right,right,1009.2413330057752,Correct
18,22,232,A,20.215690212342825,35.30668933645848,1.0107845106171411,0.5545961792099753,A,756.1262910021469,Correct,2,6,big,small,False,Size,left,left,886.2997079995694,Correct
18,22,233,B,53.31582943551403,44.63747418229514,2.6657914717757016,0.7011638048295123,A,631.221582996659,Incorrect,5,4,small,big,False,Value,left,left,1359.9127499983297,Correct
18,22,234,B,74.50766357414953,63.947125985843286,3.7253831787074767,1.0044791060765312,A,904.5509579955251,Incorrect,3,6,big,small,False,Size,left,left,1620.1619159983238,Correct
18,22,235,B,48.44506009811143,38.58775739782426,2.422253004905572,0.6061350757975494,A,889.0590829978464,Incorrect,3,7,big,small,False,Value,right,left,1182.765498997469,Incorrect
18,22,236,A,20.177029234068254,48.470257398459964,1.0088514617034128,0.7613690228030408,A,737.7058749989374,Correct,3,8,big,small,False,Value,right,left,751.4326669988804,Incorrect
18,22,237,B,65.08276529220474,32.38844568992731,3.254138264610237,0.5087565152033382,B,1062.0003329968313,Correct,7,2,small,big,False,Value,left,left,1197.6312920014607,Correct
18,22,238,A,67.15502492510916,82.174583757502,3.357751246255458,1.2907953432218373,A,862.2529990025214,Correct,5,2,small,big,False,Value,left,left,511.5715000065393,Correct
18,22,239,B,64.50553154277154,39.760865568463544,3.225276577138577,0.6245622158512821,A,722.9714579952997,Incorrect,2,8,big,small,False,Size,left,right,1333.6808329986525,Incorrect
18,22,240,B,77.03916229912005,61.83343664680105,3.8519581149560027,0.9712773515790002,A,1035.8471250001458,Incorrect,4,5,big,small,False,Size,left,right,1272.1441660032724,Incorrect
18,22,241,B,78.0519898518532,58.76496580738943,3.9025994925926595,0.92307792434475,B,1079.8122499982128,Correct,2,6,big,small,False,Value,right,left,1183.0607500014594,Incorrect
18,22,242,B,70.45648564628011,57.6241365745998,3.5228242823140055,0.9051578206610883,B,991.3786250035628,Correct,2,3,big,small,False,Value,right,right,1535.0899160039262,Correct
18,22,243,A,31.957920135180128,53.647233377339745,1.5978960067590062,0.8426887713183384,A,1048.4416249964852,Correct,3,7,big,small,False,Value,right,right,1699.8997920018155,Correct
18,22,244,B,64.9066294291167,56.788026577448804,3.2453314714558354,0.8920242355378755,B,1825.98175000021,Correct,3,7,big,small,False,Value,right,left,485.0761660054559,Incorrect
18,22,245,A,19.175309491831264,40.68718398594086,0.9587654745915631,0.6391127915274405,A,1579.756790997635,Correct,2,4,big,small,False,Size,left,right,1408.7171239953022,Incorrect
18,22,246,A,57.196176595659466,82.466553275989,2.8598088297829736,1.2953815896935916,A,347.1615830057999,Correct,6,7,big,small,False,Size,left,left,587.7561250090366,Correct
18,22,247,A,62.29068865493132,72.28011545669085,3.114534432746566,1.1353733985968102,A,1041.523457999574,Correct,4,2,small,big,False,Size,right,right,1243.5496660036733,Correct
18,22,248,B,38.15351553454352,21.856314561107986,1.9076757767271761,0.3433181862986224,A,598.6465410096571,Incorrect,4,8,big,small,False,Size,left,right,605.4168750124518,Incorrect
18,22,249,A,33.20359820336853,51.0339426819124,1.6601799101684265,0.8016392970660929,A,353.8603329943726,Correct,2,5,big,small,False,Value,right,right,741.3420410011895,Correct
18,22,250,A,40.49178409916344,50.0029784049936,2.024589204958172,0.7854449480736848,A,365.20737399405334,Correct,7,6,small,big,False,Size,right,left,430.5825829942478,Incorrect
18,22,251,A,60.70084142438202,79.8629416928635,3.035042071219101,1.2544841545818497,A,907.0715829875553,Correct,7,2,small,big,False,Value,left,left,1016.3120409997646,Correct
18,22,252,B,69.84253810155403,47.04809591700753,3.4921269050777015,0.739029762491294,A,375.38283300818875,Incorrect,6,5,small,big,False,Size,right,left,979.1861659905408,Incorrect
18,22,253,B,40.02463484940479,23.37124289065597,2.0012317424702393,0.36711462485273744,A,397.6778749929508,Incorrect,6,4,small,big,False,Value,left,right,1729.6538329974283,Incorrect
18,22,254,B,80.90465859011377,58.916087227972426,4.045232929505688,0.9254517340682681,B,1033.5214989900123,Correct,8,2,small,big,False,Size,right,left,1639.5992080069846,Incorrect
18,22,255,A,53.645131120729594,83.75819771261483,2.6822565560364797,1.3156706930593607,A,870.043999995687,Correct,2,3,big,small,False,Size,left,left,631.7007079924224,Correct
18,22,256,B,88.52626670579897,62.18856673140236,4.426313335289949,0.9768557219032614,B,769.3035830016015,Correct,2,4,big,small,False,Value,right,left,665.8056660089642,Incorrect
18,22,257,A,45.598250846504115,75.7473229589472,2.279912542325206,1.1898361666846098,A,442.7069160010433,Correct,5,7,big,small,False,Value,right,right,684.6382490039105,Correct
18,22,258,A,31.29720537347394,53.51616564894167,1.564860268673697,0.8406299642550479,A,336.55820800049696,Correct,3,5,big,small,False,Value,right,right,599.3861660099356,Correct
18,22,259,B,50.67420053751704,33.793610644427744,2.533710026875852,0.5308287946940402,A,409.98783300165087,Incorrect,6,5,small,big,False,Value,left,right,447.42091599619016,Incorrect
18,22,260,A,28.512579563321957,51.79693270344975,1.425628978166098,0.8136243162982131,A,481.4054999878863,Correct,4,3,small,big,False,Value,left,left,827.6164999988396,Correct
18,22,261,B,59.107645596676804,34.83497213814613,2.95538227983384,0.547186462786025,A,331.8354169896338,Incorrect,7,2,small,big,False,Value,left,left,540.087790999678,Correct
18,22,262,A,39.44896587009867,55.337349662052006,1.9724482935049334,0.8692370558371612,A,407.00437501072884,Correct,2,7,big,small,False,Value,right,right,662.0154989941511,Correct
18,22,263,B,51.659398202885825,35.085322386345226,2.5829699101442913,0.5511189552888583,A,473.84808299830183,Incorrect,7,8,big,small,False,Value,right,right,429.93741600366775,Correct
18,22,264,B,68.55955318540298,52.01598919812808,3.427977659270149,0.8170652476702261,A,271.1502079910133,Incorrect,3,2,small,big,False,Size,right,left,683.903332988848,Incorrect
18,22,265,B,69.69499611629566,46.49050226892962,3.4847498058147828,0.7302711019488443,A,406.6879159945529,Incorrect,2,4,big,small,False,Size,left,right,585.6211659993278,Incorrect
18,22,266,A,35.20782117711411,51.09732870407909,1.7603910588557057,0.8026349623739888,A,423.25333299231716,Correct,6,7,big,small,False,Size,left,right,540.5939159973059,Incorrect
18,22,267,A,15.945618963909169,42.08078051246501,0.7972809481954585,0.661003354576423,A,324.08749900059775,Correct,7,8,big,small,False,Value,right,right,1075.3735420003068,Correct
18,22,268,A,30.784071772329412,53.418563788414076,1.5392035886164706,0.839096837814997,A,415.6050830060849,Correct,2,5,big,small,False,Value,right,left,596.3167500012787,Incorrect
18,22,269,B,89.04357332377603,68.26532597427885,4.452178666188802,1.0723092328785344,B,636.6290419973666,Correct,4,2,small,big,False,Size,right,right,698.3930830028839,Correct
18,22,270,B,84.41998098879573,66.01343875011327,4.220999049439786,1.0369366710777779,A,605.042458002572,Incorrect,6,4,small,big,False,Size,right,right,760.3869579907041,Correct
18,22,271,B,60.09105042297254,49.90080320550935,3.0045525211486273,0.7838399837932908,B,657.0574579964159,Correct,7,5,small,big,False,Value,left,left,1977.9718330100877,Correct
18,22,272,A,20.349933300364285,46.39265264564098,1.0174966650182142,0.728734083660444,A,392.8572079894366,Correct,8,3,small,big,False,Size,right,right,353.90604099666234,Correct
18,22,273,B,68.6251486356222,44.3500731500579,3.4312574317811095,0.6966493199719592,A,364.20666599588003,Incorrect,3,8,big,small,False,Size,left,right,654.2022920039017,Incorrect
18,22,274,A,20.366353654095228,48.82117395565355,1.0183176827047615,0.7668812071935526,A,268.7703749979846,Correct,8,2,small,big,False,Value,left,left,686.5379170048982,Correct
18,22,275,A,24.2029514844966,44.5757921814405,1.21014757422483,0.700194906225794,A,728.846625002916,Correct,3,7,big,small,False,Size,left,left,528.6775830027182,Correct
18,22,276,A,12.051216554695213,34.140675423488716,0.6025608277347607,0.5362804754951287,A,249.60974999703467,Correct,3,2,small,big,False,Size,right,left,713.6565410037292,Incorrect
18,22,277,B,67.35254366455662,56.310057213381555,3.367627183227831,0.8845163103239021,A,422.7407080034027,Incorrect,2,6,big,small,False,Value,right,left,780.6409579934552,Incorrect
18,22,278,B,36.36874189717956,20.486597188791407,1.818437094858978,0.321802716126802,A,633.0047079973156,Incorrect,7,3,small,big,False,Size,right,left,1324.378417004482,Incorrect
18,22,279,A,37.244662904180146,48.961274442333064,1.862233145209007,0.7690819004921363,A,360.8009169984143,Correct,5,7,big,small,False,Value,right,left,673.7076249992242,Incorrect
18,22,280,B,70.29435719153165,59.93391784783605,3.514717859576582,0.9414397800580796,A,409.9798329989426,Incorrect,4,3,small,big,False,Size,right,left,824.635415992816,Incorrect
18,22,281,A,60.11073772888352,80.41283422847982,3.005536886444176,1.2631218463326304,B,1150.4368739988422,Incorrect,8,6,small,big,False,Value,left,left,579.8227500054054,Correct
18,22,282,B,83.20290003860119,65.70193301586934,4.160145001930059,1.032043550446519,B,1193.4192499902565,Correct,7,2,small,big,False,Size,right,left,488.26066601031926,Incorrect
18,22,283,B,64.3573873242555,49.69598200532016,3.217869366212775,0.7806226599042219,A,557.9367079917574,Incorrect,3,5,big,small,False,Size,left,left,907.7161250024801,Correct
18,22,284,A,21.73835420129231,38.130981581745544,1.0869177100646155,0.5989600580568976,A,556.2007500120671,Correct,4,7,big,small,False,Size,left,left,687.1065000013914,Correct
18,22,285,B,80.92595631339755,57.46380603515125,4.0462978156698775,0.9026393544367,A,463.1527079909574,Incorrect,8,3,small,big,False,Size,right,right,1161.6194160014857,Correct
18,22,286,B,88.67794156993196,69.53548525995706,4.433897078496598,1.092260848282412,B,1712.6947920041857,Correct,8,2,small,big,False,Value,left,left,677.6832079922315,Correct
18,22,287,B,32.518809646874196,14.50784737446428,1.6259404823437098,0.22788873365509474,B,431.6291670111241,Correct,2,8,big,small,False,Value,right,left,577.436999999918,Incorrect
18,22,288,A,33.1692860760873,46.70772081323251,1.6584643038043652,0.7336831628638717,A,588.9121249929303,Correct,8,5,small,big,False,Value,left,left,530.1114580070134,Correct
18,22,289,B,71.39274777823945,42.89129303944983,3.569637388911973,0.673734855578513,B,546.6325419984059,Correct,5,8,big,small,False,Size,left,left,542.1950830059359,Correct
18,22,290,B,62.0439382381732,35.493028619664436,3.10219691190866,0.5575231898259504,A,378.86283300758805,Incorrect,7,3,small,big,False,Value,left,left,506.01262399868574,Correct
18,22,291,A,36.27548754681912,47.43195818089306,1.8137743773409563,0.7450594568323596,B,377.1705420076614,Incorrect,8,4,small,big,False,Value,left,left,387.8346249985043,Correct
18,22,292,A,65.78048425569648,80.64837844442337,3.289024212784824,1.2668217662246495,A,263.1892909994349,Correct,5,2,big,small,True,Size,left,left,510.19204199837986,Correct
18,22,293,A,49.9044140086515,75.19818062735875,2.495220700432575,1.1812102591111429,B,488.11191599816084,Incorrect,7,3,small,big,False,Value,left,left,589.307332993485,Correct
18,22,294,B,88.42683938691201,62.85556166695981,4.4213419693456,0.9873328538509056,B,723.0445829918608,Correct,7,5,small,big,False,Value,left,right,886.1021249904297,Incorrect
18,22,295,A,60.28130437966549,80.18904927291386,3.0140652189832746,1.2596066404706807,A,418.7142080045305,Correct,5,4,small,big,False,Size,right,left,313.53024899726734,Incorrect
18,22,296,B,61.43368842480615,30.534189731624814,3.071684421240308,0.479629930720947,A,603.1599169946276,Incorrect,7,2,small,big,False,Size,right,right,1443.8813740125624,Correct
18,22,297,B,74.692271660808,64.38232476521338,3.7346135830404,1.0113151925171329,A,512.1116250084015,Incorrect,6,3,small,big,False,Value,left,right,863.1645410059718,Incorrect
18,22,298,B,53.051569792377556,22.952559036445155,2.6525784896188775,0.3605379542499106,A,388.57333299529273,Incorrect,5,6,big,small,False,Size,left,left,718.4667920082575,Correct
18,22,299,B,46.26013088430225,23.606267005103742,2.313006544215112,0.3708063750095652,A,453.56612499745097,Incorrect,3,8,big,small,False,Size,left,left,794.7670830035349,Correct
18,22,300,B,66.19133274018675,49.90936117957253,3.3095666370093375,0.7839744121355233,B,1198.487458008458,Correct,7,8,big,small,False,Value,right,right,1456.494208003278,Correct
18,22,301,A,42.08505435618065,61.41242638230795,2.1042527178090324,0.9646641378089131,A,767.9952080070507,Correct,8,4,small,big,False,Value,left,left,744.4434159988305,Correct
18,22,302,A,48.5157461902609,76.61248815672892,2.425787309513045,1.2034261498320729,A,468.62625000358094,Correct,3,2,small,big,False,Value,left,right,1600.9239169943612,Incorrect
18,22,303,B,38.618035953304044,25.636327528833952,1.9309017976652023,0.40269449114803263,A,877.4584579950897,Incorrect,6,8,big,small,False,Size,left,left,952.1353749878472,Correct
18,22,304,B,51.127253914679045,41.58073744225702,2.5563626957339523,0.6531486963972034,A,508.4084160043858,Incorrect,4,2,small,big,False,Value,left,left,1336.1243330000434,Correct
18,22,305,A,23.041474857379416,37.81313695528512,1.1520737428689707,0.5939673663395423,A,504.0524159994675,Correct,8,3,small,big,False,Value,left,left,493.1294580019312,Correct
18,22,306,B,57.37569019652837,28.75393589204014,2.868784509826418,0.45166576880112586,A,882.9693750012666,Incorrect,8,5,small,big,False,Value,left,left,1176.2126659887144,Correct
18,22,307,B,74.88780603535557,50.31214460692893,3.744390301767778,0.7903013194173765,B,1133.876958003384,Correct,2,6,big,small,False,Size,left,left,1691.3556660001632,Correct
18,22,308,B,51.7683837634278,39.245253657524586,2.58841918817139,0.616463002893736,A,704.9913749942789,Incorrect,2,4,small,big,True,Value,right,left,1874.0835830103606,Incorrect
18,22,309,A,35.33237798596242,56.351153940981746,1.7666188992981207,0.8851618562114789,B,1114.22545798996,Incorrect,7,2,big,small,True,Value,left,left,2100.27183299826,Correct
18,22,310,B,62.35396199497471,39.9489774097992,3.117698099748736,0.6275170697452488,A,1075.3604579949751,Incorrect,4,8,big,small,False,Value,right,left,921.9971660058945,Incorrect
18,22,311,B,82.29222789895661,51.384344046655784,4.114611394947831,0.807143388832521,A,339.33541699661873,Incorrect,8,6,big,small,True,Size,left,left,1364.5204580097925,Correct
18,22,312,B,77.65118527293279,65.41842010409368,3.8825592636466397,1.0275901400423577,B,936.7157500091707,Correct,5,4,small,big,False,Value,left,left,597.5422079936834,Correct
18,22,313,A,26.17248408525419,42.977104595971994,1.3086242042627094,0.6750827803563287,A,281.6590830043424,Correct,6,2,small,big,False,Size,right,left,1175.3552079899237,Incorrect
18,22,314,A,48.009994530489536,59.259540723235084,2.400499726524477,0.9308466889561026,A,188.23999899905175,Correct,8,2,small,big,False,Value,left,left,1590.3432079940103,Correct
18,22,315,B,57.54819287369811,48.48762746415633,2.8774096436849055,0.7616418711569611,A,253.11904099362437,Incorrect,7,6,big,small,True,Value,left,left,1035.4558749968419,Correct
18,22,316,B,68.48735151948699,50.32694426691752,3.4243675759743497,0.7905337919328551,A,281.79154099780135,Incorrect,3,8,big,small,False,Size,left,right,1593.2641249964945,Incorrect
18,22,317,B,44.81228282518562,35.44686091045483,2.2406141412592806,0.5567979891455205,A,700.8417489996646,Incorrect,7,8,big,small,False,Value,right,right,1167.2003749990836,Correct
18,22,318,A,31.534045387462207,49.7933625191129,1.5767022693731105,0.7821523094378922,A,575.5762920016423,Correct,7,5,small,big,False,Size,right,right,1330.7697499985807,Correct
18,22,319,A,18.735403773727157,45.05289971871409,0.9367701886863579,0.7076892938961491,A,494.64058299781755,Correct,8,3,small,big,False,Size,right,left,591.0970830009319,Incorrect
18,22,320,A,54.75827641587901,65.2022595227869,2.7379138207939504,1.0241946975712124,A,547.4695830052951,Correct,3,2,small,big,False,Value,left,left,678.6954579874873,Correct
18,22,321,B,37.463190876305504,14.813608299480602,1.8731595438152753,0.23269161503402522,A,305.0745420041494,Incorrect,5,6,small,big,True,Value,right,left,828.8319580024108,Incorrect
18,22,322,A,53.885126077487016,80.45812116811138,2.6942563038743508,1.2638332119168807,A,304.49749900435563,Correct,4,3,small,big,False,Value,left,left,2400.6937079975614,Correct
18,22,323,B,39.61162622865706,22.259045944872852,1.980581311432853,0.34964427608165116,A,506.8151250015944,Incorrect,2,6,big,small,False,Value,right,right,2394.196166002075,Correct
18,22,324,B,89.11794960826808,65.64354221743176,4.4558974804134035,1.0311263499294752,B,1141.6021250042832,Correct,2,8,big,small,False,Value,right,left,687.7332919975743,Incorrect
18,22,325,B,78.2024922590174,51.20698010266692,3.91012461295087,0.8043573625152854,A,413.9930410019588,Incorrect,5,4,big,small,True,Value,left,left,861.6503329976695,Correct
18,22,326,B,79.02414285750073,52.12412731704617,3.951207142875037,0.8187638772700565,B,1121.0120409959927,Correct,2,4,big,small,False,Value,right,right,1426.64700000023,Correct
18,22,327,B,50.556375136283734,38.1137439824577,2.5278187568141868,0.5986892904804565,A,740.9662910067709,Incorrect,6,8,big,small,False,Size,left,left,622.1252079994883,Correct
18,22,328,A,43.386424182929595,76.01154140538216,2.1693212091464797,1.193986500335925,A,449.23708301212173,Correct,4,3,small,big,False,Size,right,left,598.3912500087172,Incorrect
18,22,329,A,23.29622237151201,38.821969769877505,1.1648111185756005,0.609814075134661,A,422.0618739927886,Correct,4,5,big,small,False,Value,right,right,1840.992790996097,Correct
18,22,330,A,62.03927570376029,83.30759514029927,3.1019637851880146,1.3085926444049845,A,408.89941599743906,Correct,6,5,small,big,False,Value,left,left,678.0017919954844,Correct
18,22,331,A,53.68376761093275,73.48787502906873,2.6841883805466376,1.1543448415962356,A,298.57145799905993,Correct,7,5,small,big,False,Size,right,left,1233.0259169975761,Incorrect
18,22,332,A,56.66670766885267,66.31704050930027,2.833335383442634,1.0417056363591721,B,979.5567500113975,Incorrect,4,8,big,small,False,Value,right,right,1018.587208003737,Correct
18,22,333,B,84.36172939082229,67.83598547547973,4.218086469541115,1.065565168093955,A,302.7871250087628,Incorrect,5,4,small,big,False,Value,left,left,669.4328330049757,Correct
18,22,334,B,57.99211902524705,45.57416514688397,2.8996059512623527,0.7158773120946934,A,239.330873999279,Incorrect,4,2,big,small,True,Size,left,left,837.8830420115264,Correct
18,22,335,A,14.734142227552361,41.977588868154584,0.736707111377618,0.6593824240180356,A,474.9444580083946,Correct,7,3,big,small,True,Value,left,left,729.5276249933522,Correct
18,22,336,B,47.28182724905305,17.591253843663353,2.3640913624526525,0.27632276921342996,A,362.2202499973355,Incorrect,5,7,big,small,False,Value,right,left,987.7289159921929,Incorrect
18,22,337,B,69.76549973554371,39.09216630808976,3.4882749867771854,0.6140583124320261,A,1038.704582999344,Incorrect,3,7,big,small,False,Size,left,right,1137.746624997817,Incorrect
18,22,338,B,48.88144232929537,28.806829868037635,2.4440721164647683,0.45249662543319036,A,794.2234579968499,Incorrect,2,4,big,small,False,Value,right,right,875.1136249920819,Correct
18,22,339,A,26.365053849703397,56.516824670168816,1.3182526924851699,0.8877642059401236,A,735.861749999458,Correct,8,3,small,big,False,Value,left,left,364.2201250040671,Correct
18,22,340,A,56.27423833035489,63.979993845128796,2.8137119165177444,1.0049953932028841,A,608.868541996344,Correct,8,2,small,big,False,Size,right,right,969.9832909973338,Correct
18,22,341,A,36.063306294225356,69.2831511837111,1.8031653147112678,1.088297193881489,A,394.7249579941854,Correct,3,8,big,small,False,Value,right,right,1278.549374997965,Correct
18,22,342,A,30.214390552946675,41.02868305661093,1.5107195276473337,0.6444770463855647,A,482.57883300539106,Correct,3,4,small,big,True,Value,right,right,329.9662920035189,Correct
18,22,343,B,66.42194174050054,35.92596291144667,3.321097087025027,0.5643237057787012,B,545.7481669873232,Correct,7,2,small,big,False,Value,left,left,451.9228330027545,Correct
18,22,344,A,66.42544800154414,80.24780516933757,3.3212724000772074,1.2605295759334796,A,293.259832993499,Correct,7,5,small,big,False,Value,left,right,468.87670799333137,Incorrect
18,22,345,A,23.933545013738087,54.910698380771976,1.1966772506869043,0.862535233182591,B,419.269207995967,Incorrect,8,6,small,big,False,Value,left,right,545.3584999922896,Incorrect
18,22,346,A,50.404862860225755,59.19714647616217,2.520243143011288,0.9298666024149499,A,282.846125002834,Correct,7,4,big,small,True,Size,left,left,461.6249999962747,Correct
18,22,347,A,24.954960054214453,42.448481410289745,1.2477480027107226,0.6667791867730458,A,276.12695800780784,Correct,8,4,small,big,False,Size,right,right,774.9769989895867,Correct
18,22,348,B,45.37431658694844,17.83165072361587,2.268715829347422,0.28009891457345365,A,324.9098749947734,Incorrect,6,5,small,big,False,Value,left,right,640.3606250096345,Incorrect
18,22,349,B,73.708910850243,41.99603306675389,3.68544554251215,0.6596721448121402,A,301.8886240024585,Incorrect,5,7,big,small,False,Value,right,right,301.0229169885861,Correct
18,22,350,A,67.5032382793332,89.10295170292468,3.3751619139666604,1.3996258924153717,B,407.07891699275933,Incorrect,2,7,big,small,False,Size,left,left,506.3764579972485,Correct
18,22,351,B,55.7398651834143,43.00735413557731,2.7869932591707154,0.6755579390133214,B,457.7878749987576,Correct,6,7,big,small,False,Size,left,left,681.1915419966681,Correct
18,22,352,A,23.282221807151856,41.84253609495557,1.1641110903575929,0.6572610200173908,A,480.14187399530783,Correct,7,3,small,big,False,Size,right,left,598.3484579919605,Incorrect
18,22,353,B,58.44464990475709,31.076855863582836,2.9222324952378544,0.4881541103885036,A,288.39633300958667,Incorrect,8,6,small,big,False,Value,left,right,654.9699989991495,Incorrect
18,22,354,B,80.19312571048617,59.91068841311027,4.009656285524309,0.9410748929506719,A,499.7907490032958,Incorrect,3,6,big,small,False,Value,right,right,579.7352920053527,Correct
18,22,355,B,70.17383812270859,47.911494700813066,3.5086919061354296,0.7525919988729031,B,553.5637080029119,Correct,3,6,big,small,False,Value,right,right,472.29224900365807,Correct
18,22,356,B,40.03692887450441,26.696510967595163,2.0018464437252206,0.41934781366138146,A,205.4799159959657,Incorrect,4,5,big,small,False,Value,right,left,960.5654579936527,Incorrect
18,22,357,B,51.00785472064119,40.02630590091187,2.5503927360320597,0.6287317428432126,B,239.02524998993613,Correct,4,6,big,small,False,Size,left,right,544.5312920055585,Incorrect
18,22,358,A,30.20507985773389,57.50701276774423,1.5102539928866943,0.9033180442051985,B,598.5297500010347,Incorrect,2,8,big,small,False,Size,left,left,1562.3724579927512,Correct
18,22,359,B,44.4609795800433,21.77548800248008,2.223048979002165,0.3420485656846205,A,437.91025000973605,Incorrect,7,6,small,big,False,Value,left,right,384.4722490030108,Incorrect
18,22,360,A,52.26503039683159,74.74085120395144,2.6132515198415796,1.1740265453269083,A,329.70887499686796,Correct,4,7,big,small,False,Size,left,right,656.7737500008661,Incorrect
18,22,361,B,62.03793504264294,48.48315351200458,3.101896752132147,0.7615715944808987,A,325.99554098851513,Incorrect,5,4,small,big,False,Value,left,right,432.0499579916941,Incorrect
18,22,362,B,45.87861406280433,37.259673155122684,2.2939307031402167,0.5852735772964512,A,251.39166601002216,Incorrect,8,6,small,big,False,Size,right,right,483.1127499928698,Correct
18,22,363,B,41.035502657473636,16.984654974732724,2.051775132873682,0.2667943364618883,A,387.3635420022765,Incorrect,7,6,small,big,False,Value,left,right,436.32825001259334,Incorrect
18,22,364,A,46.70939117481399,72.46091423009263,2.3354695587406993,1.1382133790882956,A,316.6128330049105,Correct,2,5,big,small,False,Size,left,right,459.79399899079,Incorrect
18,22,365,A,39.6223722382723,60.37575789718855,1.981118611913615,0.9483801873236173,A,272.6771239977097,Correct,5,6,big,small,False,Value,right,right,483.475291999639,Correct
18,22,366,B,80.46871894158079,66.39791862044332,4.023435947079039,1.0429760667581884,A,307.0701660035411,Incorrect,7,6,small,big,False,Value,left,right,420.23645801236853,Incorrect
18,22,367,A,41.08111540502781,63.069579893240004,2.0540557702513906,0.9906946442879866,A,348.2421669905307,Correct,6,8,big,small,False,Value,right,left,425.17862500972115,Incorrect
18,22,368,B,60.36820877604802,37.49081425310313,3.0184104388024013,0.5889043331732415,B,390.35470799717586,Correct,5,4,small,big,False,Size,right,right,479.5272909977939,Correct
18,22,369,B,32.34200262163857,11.690425875559217,1.6171001310819286,0.18363278023996432,A,310.19579200074077,Incorrect,2,4,big,small,False,Value,right,right,377.00766600028146,Correct
18,22,370,B,86.90074645225636,59.31932033804987,4.345037322612818,0.9317857049497854,B,519.1597499942873,Correct,2,7,big,small,False,Size,left,right,534.4128329888918,Incorrect
18,22,371,A,53.18206588557123,68.63158968112029,2.6591032942785615,1.0780624897319826,A,263.98175000213087,Correct,5,2,small,big,False,Size,right,right,399.0587080043042,Correct
18,22,372,B,64.96889768477499,38.725492519080554,3.2484448842387494,0.6082986140229498,A,303.90308299683966,Incorrect,8,5,small,big,False,Size,right,right,665.4269579885295,Correct
18,22,373,B,77.2968553690406,55.27065232752706,3.86484276845203,0.868189376556373,A,436.94225000217557,Incorrect,2,8,big,small,False,Size,left,right,537.2533329937141,Incorrect
18,22,374,B,47.47837488659949,35.451644542551804,2.3739187443299743,0.5568731302627872,B,236.06495800777338,Correct,7,4,small,big,False,Size,right,left,527.7940410014708,Incorrect
18,22,375,A,22.590411847353224,46.41664784423482,1.1295205923676612,0.729110999358563,B,214.92070800741203,Incorrect,7,5,small,big,False,Size,right,right,477.088375002495,Correct
18,22,376,A,20.082668449565013,51.803060710016474,1.0041334224782505,0.813720574800269,A,257.3090410005534,Correct,3,5,big,small,False,Size,left,right,404.37349998683203,Incorrect
18,22,377,A,61.531497117119386,72.66411867244824,3.076574855855969,1.1414053070047014,A,261.38304099731613,Correct,8,2,small,big,False,Value,left,left,549.3065830087289,Correct
18,22,378,B,47.87036224635446,25.05026528990419,2.393518112317723,0.393488647026192,A,430.47449899313506,Incorrect,4,8,big,small,False,Value,right,left,463.4332079876913,Incorrect
18,22,379,A,12.126191833899416,37.52753223389246,0.6063095916949708,0.5894810978667534,A,339.3869160063332,Correct,5,6,big,small,False,Value,right,left,948.5403329890687,Incorrect
18,22,380,B,80.79009300814914,64.79340337778149,4.039504650407457,1.017772400263592,A,360.23458300041966,Incorrect,7,8,big,small,False,Value,right,left,546.8677079916233,Incorrect
18,22,381,A,33.34888165812485,52.34859016950685,1.6674440829062427,0.8222897315115278,B,350.1408750016708,Incorrect,2,8,big,small,False,Value,right,left,650.0954990042374,Incorrect
18,22,382,B,50.63781333760981,41.983124160778424,2.531890666880491,0.6594693721912482,A,274.1298330074642,Incorrect,2,8,big,small,False,Size,left,left,665.6327490054537,Correct
18,22,383,B,78.31811725054109,48.496155518305144,3.9159058625270546,0.7617758295182777,A,263.12637398950756,Incorrect,5,8,big,small,False,Value,right,left,1983.3299159945454,Incorrect
18,22,384,B,41.87403611309557,29.175131477197446,2.0937018056547787,0.4582818935813991,A,331.5508329978911,Incorrect,8,3,small,big,False,Value,left,left,752.914917000453,Correct
18,22,385,A,11.223313810919326,31.812352352483874,0.5611656905459662,0.4997072622198665,A,537.5669159984682,Correct,2,3,big,small,False,Value,right,left,715.5140830000164,Incorrect
18,22,386,B,67.04708502355412,58.19555365714024,3.3523542511777062,0.9141336192043119,A,4201.3232489989605,Incorrect,3,4,big,small,False,Value,right,left,683.9602079999167,Incorrect
18,22,387,B,35.28534851412127,13.439031057145296,1.7642674257060633,0.21109980620246363,B,381.69766699138563,Correct,7,6,small,big,False,Value,left,left,514.8052080039633,Correct
18,22,388,A,36.83934917085426,44.65571925631984,1.841967458542713,0.7014503977821134,B,934.3226659984794,Incorrect,7,3,small,big,False,Value,left,left,462.323291998473,Correct
18,22,389,A,37.78720254732711,69.26506151881064,1.8893601273663558,1.088013042089703,A,336.88262398936786,Correct,2,5,big,small,False,Value,right,left,696.7280410026433,Incorrect
18,22,390,B,77.21895841536205,54.828941245818726,3.860947920768103,0.8612509951098525,A,438.2298330019694,Incorrect,6,8,big,small,False,Value,right,left,1900.0127079925733,Incorrect
18,22,391,A,37.64958656143021,65.06610109310171,1.8824793280715106,1.0220559259590958,A,384.3334159901133,Correct,3,2,small,big,False,Value,left,left,757.6604999921983,Correct
18,22,392,B,44.44809793197089,24.021595447154986,2.222404896598545,0.37733033892144063,A,347.6439579972066,Incorrect,8,6,small,big,False,Value,left,left,1717.073583000456,Correct
18,22,393,A,19.79126193675641,33.809575373186405,0.9895630968378205,0.531079568066964,A,781.5948329953244,Correct,8,2,small,big,False,Size,right,left,1687.413583000307,Incorrect
18,22,394,B,69.13975731572626,42.46971700653842,3.4569878657863127,0.6671127547388929,A,687.7764989912976,Incorrect,8,5,small,big,False,Size,right,left,903.7569159991108,Incorrect
18,22,395,B,86.81709113504913,67.4283722465725,4.340854556752456,1.0591623944667503,A,67.53254099749029,Incorrect,8,4,small,big,False,Size,right,left,2585.1900419947924,Incorrect
18,22,396,A,42.62169692581168,58.68215661299454,2.1310848462905843,0.9217771605609468,A,600.9913740126649,Correct,4,8,big,small,False,Value,right,left,502.0627079939004,Incorrect
18,22,397,A,30.27937295949739,52.48805219516446,1.5139686479748695,0.8244803958878314,A,495.7130410039099,Correct,5,7,big,small,False,Value,right,right,913.6989160033409,Correct
18,22,398,B,47.005952903378144,34.50283626621176,2.3502976451689075,0.5419692847097117,A,321.1617080087308,Incorrect,8,7,small,big,False,Value,left,left,602.8617080010008,Correct
18,22,399,B,47.7005947208591,20.607847612133998,2.385029736042955,0.32370731332289066,A,241.94033299863804,Incorrect,4,3,small,big,False,Value,left,left,684.7676659963327,Correct
18,22,400,A,38.33489148125843,66.28478994852478,1.9167445740629216,1.04119904573514,A,281.6295410011662,Correct,7,2,small,big,False,Value,left,left,541.1659159872215,Correct
18,22,401,A,69.65969304372759,88.08343295693615,3.4829846521863796,1.3836113294023984,A,397.398000000976,Correct,4,2,small,big,False,Value,left,left,554.0215829969384,Correct
18,22,402,B,38.52891375717811,22.00190352775488,1.9264456878589056,0.34560509243893045,A,427.1608740091324,Incorrect,6,2,small,big,False,Value,left,left,715.796832999331,Correct
18,22,403,A,63.35079634181615,81.44842947852038,3.167539817090807,1.2793889384807298,A,327.9124580003554,Correct,8,4,small,big,False,Size,right,left,869.7248329990543,Incorrect
18,22,404,A,42.22363716143977,73.17799436931125,2.1111818580719883,1.1494772475753174,A,494.752291997429,Correct,8,4,small,big,False,Size,right,right,1268.3998749998864,Correct
18,22,405,A,30.378522821095835,47.87331130495803,1.5189261410547916,0.7519922154933667,A,236.42283299705014,Correct,8,3,small,big,False,Value,left,left,643.9066250022734,Correct
18,22,406,A,63.019549524606205,86.20869667979483,3.15097747623031,1.354163040823971,A,4324.897957994835,Correct,8,7,small,big,False,Size,right,left,1755.0085830007447,Incorrect
18,22,407,B,43.3101292536464,35.536515284372015,2.16550646268232,0.5582062767578226,A,224.58741599984933,Incorrect,4,3,small,big,False,Size,right,left,532.0069159934064,Incorrect
18,22,408,B,89.03671133253775,66.90434851318197,4.451835566626887,1.0509310489111183,A,344.06574998865835,Incorrect,7,2,small,big,False,Value,left,left,747.143499989761,Correct
18,22,409,A,20.81564406484155,47.721146112357985,1.0407822032420775,0.749602010237345,A,1181.7555830057245,Correct,4,5,big,small,False,Value,right,right,1120.0760829960927,Correct
18,22,410,B,31.971692199794308,12.090014660732777,1.5985846099897154,0.18990950619975494,A,406.782749996637,Incorrect,5,4,small,big,False,Size,right,left,503.9016249938868,Incorrect
18,22,411,B,59.02578787157537,50.30697154406934,2.9512893935787683,0.7902200611359951,A,298.9219999872148,Incorrect,3,6,big,small,False,Size,left,right,973.2657490094425,Incorrect
18,22,412,B,56.03499765434879,25.12001155267398,2.8017498827174396,0.39458421875985655,B,624.6694580040639,Correct,6,7,big,small,False,Value,right,left,429.0912500000559,Incorrect
18,22,413,B,52.58556285431767,29.790250268021943,2.629278142715884,0.4679441569530955,A,343.6754580034176,Incorrect,2,6,big,small,False,Size,left,left,635.8234170038486,Correct
18,22,414,A,28.79112227277502,44.343032996512605,1.4395561136387511,0.6965387334986689,A,339.3708750081714,Correct,5,2,big,small,True,Value,left,left,675.3987909905845,Correct
18,22,415,A,45.6744424494876,72.9164593869145,2.28372212247438,1.1453690656785456,A,363.34962499677204,Correct,7,3,small,big,False,Value,left,left,812.6356239954475,Correct
18,22,416,B,72.2443912067994,59.8277941410607,3.61221956033997,0.9397727927701938,A,430.7715829927474,Incorrect,6,2,small,big,False,Size,right,right,1167.123998995521,Correct
18,22,417,A,41.66576634102783,54.45493970525526,2.083288317051392,0.8553761926485253,A,1100.4215419961838,Correct,8,5,small,big,False,Value,left,left,1042.0515000005253,Correct
18,22,418,B,76.57559667217998,62.80783015279977,3.828779833608999,0.9865830889797563,A,274.57083298941143,Incorrect,6,2,small,big,False,Value,left,left,529.9745829979656,Correct
18,22,419,A,51.741812335389696,59.25523459550841,2.5870906167694847,0.9307790484599447,A,350.42795799381565,Correct,6,4,small,big,False,Value,left,left,531.9638329965528,Correct
18,22,420,B,64.88348670678607,55.88886790807841,3.2441743353393035,0.8779002841873474,A,231.7504170059692,Incorrect,3,8,big,small,False,Size,left,right,1509.142958006123,Incorrect
18,22,421,A,49.88371522610746,75.19807908021231,2.494185761305373,1.1812086640122965,A,421.8336670019198,Correct,8,4,small,big,False,Size,right,left,1111.4917500090087,Incorrect
18,22,422,A,45.7798725737083,71.23563109291196,2.2889936286854153,1.1189666765766242,A,239.33166699134745,Correct,2,5,big,small,False,Value,right,left,422.99879099300597,Incorrect
18,22,423,B,68.19879415990673,48.20643922307709,3.409939707995336,0.7572249765947092,B,300.50054100865964,Correct,6,4,small,big,False,Value,left,left,545.3996250143973,Correct
18,22,424,A,34.37750727942352,61.32596497512487,1.718875363971176,0.9633060052007861,A,920.7902079942869,Correct,5,8,big,small,False,Value,right,right,1201.2422909901943,Correct
18,22,425,B,61.7502210121125,45.3548510191598,3.087511050605625,0.7124323338322599,B,986.5299160010181,Correct,7,6,small,big,False,Size,right,right,931.6146240016678,Correct
18,22,426,B,43.100964660660566,30.316275171974162,2.1550482330330283,0.4762069368224033,A,1144.7930419963086,Incorrect,2,4,big,small,False,Size,left,right,2207.7402910072124,Incorrect
18,22,427,A,37.35456832807904,57.48048000391456,1.867728416403952,0.9029012685255648,A,343.9659579889849,Correct,6,2,small,big,False,Size,right,left,1156.4481249952223,Incorrect
18,22,428,A,65.63205217198009,77.44344769646057,3.2816026085990044,1.2164788317593296,A,385.38366700231563,Correct,3,7,small,big,True,Size,right,right,393.9146240008995,Correct
