subject,day,trial,cat,x,y,xt,yt,resp,rt,fb
18,10,0,B,55.13679862112773,48.243805394929964,2.7568399310563865,0.757811923049638,B,987.4617909990775,Correct
18,10,1,B,48.59947935156205,29.768562330327526,2.4299739675781025,0.4676034836244341,A,902.0197079989885,Incorrect
18,10,2,A,18.73547933247361,49.404478320998834,0.9367739666236804,0.7760437307384306,A,888.5691670002416,Correct
18,10,3,A,57.483237796685756,79.91868471193219,2.874161889834288,1.2553597638778253,B,710.1803330006078,Incorrect
18,10,4,B,32.87612623455158,14.120553045456955,1.643806311727579,0.22180512856116275,A,231.20758300137823,Incorrect
18,10,5,B,79.3350781849489,58.51872685175759,3.9667539092474446,0.9192100118745471,A,399.86204199885833,Incorrect
18,10,6,B,79.38025356295068,63.29820565807435,3.969012678147534,0.9942858894041112,B,466.8218330007221,Correct
18,10,7,A,27.064064954232283,53.32781267990918,1.353203247711614,0.8376713227360766,A,458.1739170025685,Correct
18,10,8,A,32.02477317332609,50.68979937873319,1.6012386586663043,0.7962335067008431,A,523.276125000848,Correct
18,10,9,B,52.319950578531916,22.930771286603708,2.615997528926596,0.3601957130757099,B,596.0096249982598,Correct
18,10,10,A,15.198223181928618,36.52267645058,0.759911159096431,0.5736968601328953,A,636.2973329996748,Correct
18,10,11,A,38.22418905791318,62.15649314844791,1.911209452895659,0.9763519112403414,A,506.6835830002674,Correct
18,10,12,A,51.08533071892384,76.01792159476848,2.554266535946192,1.1940867201164478,A,570.4002909988048,Correct
18,10,13,B,40.41975729485806,14.502683859436363,2.020987864742903,0.2278076253507027,B,732.520208999631,Correct
18,10,14,A,45.66962619976326,65.42968667803471,2.283481309988163,1.0277671149719791,B,357.09666699767695,Incorrect
18,10,15,A,35.10934043952027,66.95131612122718,1.7554670219760136,1.051668814373076,A,358.01995800284203,Correct
18,10,16,B,51.496372039261374,41.927452913427025,2.5748186019630683,0.6585948902827715,A,539.4527919997927,Incorrect
18,10,17,B,71.36926146966638,53.13530954620135,3.5684630734833194,0.8346474905828287,B,246.3347499979136,Correct
18,10,18,A,47.71907250632731,59.32158211148365,2.3859536253163656,0.9318212328038036,A,422.23345800084644,Correct
18,10,19,B,40.64754876163232,17.240207855123643,2.032377438081616,0.27080855172008744,A,396.025665999332,Incorrect
18,10,20,B,30.39564747919838,12.980165902133422,1.519782373959919,0.20389196920259545,B,399.41437499874155,Correct
18,10,21,A,56.28629791330768,65.08914775472687,2.814314895665384,1.0224179420733526,A,247.0690839982126,Correct
18,10,22,B,40.39399702756997,29.717834285656785,2.0196998513784985,0.4668066493620912,B,354.6692500021891,Correct
18,10,23,A,24.237936460245457,50.08351019770437,1.2118968230122729,0.7867099385154878,A,540.8556670008693,Correct
18,10,24,B,61.92972688841243,44.913565088620096,3.096486344420622,0.7055006306446795,B,744.0191250025237,Correct
18,10,25,A,39.58901102616692,48.64955162312553,1.9794505513083462,0.7641853698982429,A,354.85891699863714,Correct
18,10,26,B,59.117959002297354,45.79283185649092,2.955897950114868,0.7193121207371227,B,373.226584000804,Correct
18,10,27,B,64.18118113444423,37.63179326197979,3.2090590567222113,0.5911188262662279,A,412.9052079988469,Incorrect
18,10,28,A,45.740286441047786,73.42578335044729,2.2870143220523893,1.153369507789205,B,375.19662500199047,Incorrect
18,10,29,B,78.27358022405932,54.24758147901211,3.9136790112029654,0.8521190172473909,A,345.7443749975937,Incorrect
18,10,30,A,27.560136122373535,46.73970530572164,1.3780068061186768,0.734185574097035,B,401.90679100123816,Incorrect
18,10,31,B,59.79721543226607,45.572325867717936,2.989860771613303,0.7158484207651138,B,414.33608399893274,Correct
18,10,32,A,29.30043969800691,49.89401521274123,1.4650219849003456,0.7837333582522262,A,472.50370800247765,Correct
18,10,33,A,25.13116056114462,57.039733072910536,1.2565580280572308,0.8959780319228925,A,482.0837079969351,Correct
18,10,34,B,77.65432738849645,62.255856544448484,3.8827163694248226,0.9779127078148971,B,477.65625000101863,Correct
18,10,35,A,18.0104005564102,38.07412226824062,0.9005200278205101,0.5980669140489214,A,463.63970799939125,Correct
18,10,36,B,87.09446771040032,62.251165615905734,4.354723385520016,0.9778390228816549,B,464.69079100279487,Correct
18,10,37,B,78.47478151615536,57.12825589056465,3.923739075807768,0.8973685450909787,B,490.2027919997636,Correct
18,10,38,A,52.95861573507504,81.44798084136585,2.6479307867537525,1.2793818913047859,B,503.40999999752967,Incorrect
18,10,39,B,67.91602677451888,47.63849397562726,3.395801338725944,0.7483037135095612,B,553.7892920001468,Correct
18,10,40,A,47.45373843281436,69.69197586002603,2.3726869216407183,1.094718996880075,A,553.4789160010405,Correct
18,10,41,B,74.91631924534349,55.636604445275914,3.7458159622671747,0.8739377389798002,B,474.78995799974655,Correct
18,10,42,A,34.121064762871285,53.61022648705443,1.7060532381435645,0.8421074684450757,A,537.815125000634,Correct
18,10,43,B,55.88726544529366,42.71320901826944,2.794363272264683,0.6709375183152029,B,513.6915830007638,Correct
18,10,44,B,53.95059457516834,41.54237938900994,2.697529728758417,0.6525461695057682,B,528.3111249991634,Correct
18,10,45,B,63.41830676959749,35.85603421132051,3.1709153384798747,0.5632252683257442,A,557.9336249975313,Incorrect
18,10,46,B,79.75878366274259,48.11063762415641,3.9879391831371294,0.7557201285978525,B,336.7249580005591,Correct
18,10,47,A,48.78172697228695,62.59355100434174,2.4390863486143473,0.9832171999866901,B,526.2081670007319,Incorrect
18,10,48,A,17.44562766765905,32.92312228993467,0.8722813833829526,0.5171551955964857,A,527.5430830006371,Correct
18,10,49,B,56.26534193773661,46.79604911191536,2.8132670968868303,0.7350706205351023,B,433.9365000014368,Correct
18,10,50,A,53.71170934163942,68.07814615655201,2.6855854670819714,1.0693690191771799,A,413.7489999993704,Correct
18,10,51,B,86.38922906152547,59.97613664254561,4.319461453076274,0.9421029513345944,B,305.35362499722396,Correct
18,10,52,B,86.60416759806604,61.84432364782606,4.330208379903302,0.9714483641911992,B,467.2555409997585,Correct
18,10,53,A,48.06253709073076,73.82148365153287,2.403126854536538,1.1595851535837736,A,390.3832500000135,Correct
18,10,54,A,37.03450251918016,64.22916613106112,1.851725125959008,1.0089093823176998,A,524.772832999588,Correct
18,10,55,B,53.06703366754411,41.47936941445825,2.6533516833772057,0.651556411139996,B,401.388666999992,Correct
18,10,56,A,52.951358568369024,60.59351641085546,2.6475679284184515,0.9518007300575805,A,379.2441660007171,Correct
18,10,57,B,68.34025776092588,40.13901124169735,3.4170128880462936,0.6305021141963726,A,387.914290997287,Incorrect
18,10,58,B,61.151600941564055,37.29418351362461,3.057580047078203,0.5858156647401632,B,235.1802079974732,Correct
18,10,59,A,46.988257087773434,57.021031857038324,2.349412854388672,0.8956842739109058,A,334.27291699990747,Correct
18,10,60,A,15.201369913471055,38.809308340931096,0.7600684956735527,0.6096151898738511,A,480.1197500019043,Correct
18,10,61,B,82.31552516595968,54.814016934970546,4.115776258297984,0.86101656458325,B,426.53641600190895,Correct
18,10,62,A,63.52578598227709,79.84234251099197,3.1762892991138547,1.254160583389662,A,408.24712500034366,Correct
18,10,63,B,63.52054064537679,56.03021667778495,3.1760270322688395,0.8801205854698675,B,463.02633300001617,Correct
18,10,64,B,39.835519641543506,17.63023019924898,1.9917759820771752,0.27693500837528756,A,416.8633339977532,Incorrect
18,10,65,B,71.33339141640367,50.14600189565072,3.5666695708201837,0.7876915558113806,B,369.94720800066716,Correct
18,10,66,A,44.678652505300796,69.01989971102986,2.2339326252650396,1.0841620494183786,B,452.29374999689753,Incorrect
18,10,67,B,89.33754830755905,65.3711328923938,4.466877415377952,1.0268473542579322,B,554.0974590003316,Correct
18,10,68,A,42.787059647189906,51.561422030999864,2.1393529823594952,0.8099249233061604,A,503.56825000199024,Correct
18,10,69,A,28.964829327432717,58.70443148825861,1.4482414663716359,0.9221270534833927,A,454.39729200006695,Correct
18,10,70,A,35.64092785817377,52.1190166330446,1.7820463929086885,0.8186835988334858,A,489.91154200120945,Correct
18,10,71,A,27.750141626780987,58.22279450423918,1.3875070813390493,0.9145615174299299,A,338.27575000032084,Correct
18,10,72,A,20.599520212253672,39.190352827493435,1.0299760106126836,0.6156006226722268,A,324.9183330008236,Correct
18,10,73,A,69.12656372584017,87.99192846468873,3.4563281862920086,1.3821739801993234,A,588.9214590024494,Correct
18,10,74,A,37.44806212270357,53.15343156117062,1.8724031061351782,0.8349321505283074,A,363.26550000012503,Correct
18,10,75,A,20.93255045107139,36.64048769928494,1.0466275225535695,0.5755474349001037,A,384.0867500002787,Correct
18,10,76,A,51.14524707622979,80.46110898131369,2.5572623538114896,1.2638801443769139,A,453.4600419974595,Correct
18,10,77,B,47.39856199074947,23.679057501365804,2.3699280995374736,0.3719497654511054,A,469.0667079994455,Incorrect
18,10,78,A,67.91228214493438,84.67274153378713,3.3956141072467187,1.330036313809265,B,197.37179200092214,Incorrect
18,10,79,B,38.77981570352085,28.129217154551156,1.9389907851760426,0.4418527098198494,A,492.8365829982795,Incorrect
18,10,80,B,71.86572094920574,59.8995692507294,3.5932860474602872,0.9409002335564227,B,470.42925000278046,Correct
18,10,81,A,46.60914898444172,75.6518533603263,2.330457449222086,1.188336533736267,A,392.32054199965205,Correct
18,10,82,B,51.574394136636734,22.54258998625947,2.578719706831837,0.3540981754685979,A,322.5636669994856,Incorrect
18,10,83,B,74.7500456303035,45.80864978358947,3.737502281515175,0.7195605881549617,A,384.30720799806295,Incorrect
18,10,84,B,39.704734098433896,21.49479714599138,1.9852367049216948,0.3376394840212468,B,1678.505125000811,Correct
18,10,85,B,86.86462992160631,65.25515386752278,4.343231496080316,1.0250255599954057,B,788.8111669999489,Correct
18,10,86,B,73.88788835959576,41.167434108432076,3.694394417979788,0.6466565428109605,B,497.4006670017843,Correct
18,10,87,B,40.05420335748099,26.19305340074248,2.0027101678740498,0.4114395206942885,A,423.44941700139316,Incorrect
18,10,88,B,59.97782373070082,46.0351703975102,2.998891186535041,0.7231187656378618,B,366.50016700150445,Correct
18,10,89,B,44.39491154406118,24.086250338862058,2.219745577203059,0.37834593558546864,A,422.4566659977427,Incorrect
18,10,90,B,43.0798170141756,21.417329562047012,2.15399085070878,0.33642262605819195,A,711.9721670023864,Incorrect
18,10,91,B,57.57164424093561,50.115650276707214,2.8785822120467803,0.7872147936958933,B,369.06079199980013,Correct
18,10,92,A,24.781906245582515,48.73450087778541,1.2390953122791257,0.7655197496700796,A,446.8716250012221,Correct
18,10,93,B,79.04438605247871,66.66035486723823,3.952219302623936,1.047098405683021,A,509.5207499980461,Incorrect
18,10,94,B,77.52103956207418,55.97232497608242,3.876051978103709,0.8792112247460052,B,1073.765832999925,Correct
18,10,95,A,23.554327945755045,49.729192715221785,1.1777163972877522,0.7811443325154592,A,465.9404169979098,Correct
18,10,96,A,23.565245482273937,49.25192249646689,1.1782622741136968,0.7736473894503711,A,427.8271670009417,Correct
18,10,97,B,65.90759166124997,49.984335322131074,3.2953795830624983,0.785152103212879,B,495.407291000447,Correct
18,10,98,B,71.28362821592665,54.39649198693233,3.564181410796333,0.8544580980360134,A,378.6594579978555,Incorrect
18,10,99,A,30.280045288675637,44.22683770401955,1.5140022644337818,0.6947135421122794,B,269.5730830018874,Incorrect
18,10,100,A,34.96494549373861,43.3017558203817,1.7482472746869306,0.6801823898642512,A,322.4464999984775,Correct
18,10,101,A,54.41081628076448,74.67327664696147,2.720540814038224,1.1729650866678618,A,473.87458400044125,Correct
18,10,102,B,73.62216386582722,57.22429763885799,3.681108193291361,0.89887716534536,B,530.5460830022639,Correct
18,10,103,A,41.23858588005505,64.04319922468198,2.0619292940027525,1.0059882209832423,A,386.71737499680603,Correct
18,10,104,A,17.939575782086223,41.68217540898317,0.8969787891043112,0.6547420802525132,B,479.482624999946,Incorrect
18,10,105,A,16.11512079349542,41.84487100966187,0.805756039674771,0.6572976967718313,A,476.1182080001163,Correct
18,10,106,B,46.143226915258126,32.729696730499946,2.3071613457629065,0.5141168740138026,A,490.65287499979604,Incorrect
18,10,107,B,69.82685472317944,49.53649723866886,3.491342736158972,0.7781174790478657,B,329.7180839981593,Correct
18,10,108,B,39.82967215593619,30.88712992250626,1.9914836077968092,0.48517390227509566,B,408.4794169975794,Correct
18,10,109,A,48.331529067044265,62.46769151751625,2.416576453352213,0.9812402037907124,A,298.7606249989767,Correct
18,10,110,B,52.548437273996306,42.805349512026986,2.6274218636998152,0.6723848578066371,A,572.4403749991325,Incorrect
18,10,111,B,78.21653616875761,63.22721633096464,3.9108268084378808,0.9931707916614555,B,346.216292000463,Correct
18,10,112,A,63.91520262643644,78.9098624708513,3.195760131321822,1.2395132211710367,A,375.79674999869894,Correct
18,10,113,B,47.84882017622017,22.71191646887994,2.3924410088110086,0.3567579496378913,A,432.6622499975201,Incorrect
18,10,114,A,31.44125015356125,41.15178637217854,1.5720625076780623,0.6464107487446634,B,477.84833300102036,Incorrect
18,10,115,A,14.458347413646976,42.89084341316893,0.7229173706823488,0.6737277928654084,A,455.50837500195485,Correct
18,10,116,B,59.11700857987627,40.26805053344564,2.9558504289938132,0.6325290586512767,A,675.1227499989909,Incorrect
18,10,117,A,23.019561562151672,45.701090374207794,1.1509780781075836,0.7178710489032721,A,468.4015420025389,Correct
18,10,118,A,24.931049266508445,54.28097687802659,1.2465524633254221,0.8526435909484289,A,369.90816600155085,Correct
18,10,119,A,11.728513309382073,31.190059649102164,0.5864256654691037,0.489932311293234,A,390.4495409988158,Correct
18,10,120,A,19.38567946996401,37.55585355338252,0.9692839734982005,0.5899259681130034,A,336.9356249968405,Correct
18,10,121,A,28.29580475776568,51.24264060151695,1.414790237888284,0.8049175163213387,A,353.2230000018899,Correct
18,10,122,B,81.74283614820429,58.47909804002171,4.087141807410214,0.9185875239554474,B,819.3780420006078,Correct
18,10,123,A,30.80616027865538,48.562353030579416,1.540308013932769,0.7628156576095118,A,416.30979100227705,Correct
18,10,124,A,45.45184170650019,58.56011304707605,2.2725920853250097,0.9198601047104096,A,354.5732499987935,Correct
18,10,125,B,62.36339381795678,47.97696261106394,3.1181696908978394,0.7536203664023532,A,396.4109170010488,Incorrect
18,10,126,A,11.379934048312677,34.17546458864442,0.5689967024156338,0.536826942423517,B,348.045375001675,Incorrect
18,10,127,A,60.64699609101831,73.86093519825236,3.0323498045509156,1.160204857030507,A,378.3236670024053,Correct
18,10,128,A,42.778484613269434,55.951677342534545,2.1389242306634717,0.8788868924766651,A,349.6507500021835,Correct
18,10,129,B,82.60081355773909,58.41483398029618,4.130040677886955,0.9175780664658294,B,557.3303750024934,Correct
18,10,130,A,18.390317703624593,32.53622175004033,0.9195158851812296,0.5110777761274758,A,615.2785410013166,Correct
18,10,131,B,84.28971516476837,65.98826013215567,4.2144857582384185,1.0365411662717625,B,648.7916250007402,Correct
18,10,132,B,60.91541174523186,46.293184687326374,3.0457705872615928,0.7271716446249001,A,327.1710829976655,Incorrect
18,10,133,A,69.32916555724648,83.87933606223015,3.466458277862324,1.3175735298054583,A,647.1705830008432,Correct
18,10,134,B,45.324490550142244,23.20454126573607,2.266224527507112,0.3644960818517881,B,474.2232499993406,Correct
18,10,135,A,40.505294719312104,69.51542700098689,2.0252647359656053,1.0919457738872898,A,468.39716699832934,Correct
18,10,136,B,55.46347192989581,30.29294066300483,2.7731735964947903,0.47584039921263743,B,393.2960420024756,Correct
18,10,137,A,48.869668551271005,76.67620122820901,2.44348342756355,1.2044269524185707,A,421.25395800030674,Correct
18,10,138,A,40.51726606138529,67.41088518541333,2.0258633030692645,1.0588877083523975,B,385.21920800121734,Incorrect
18,10,139,A,53.33247950050157,80.78260257102266,2.666623975025079,1.2689301538749436,B,335.0090839994664,Incorrect
18,10,140,B,36.03103383327688,14.396437269519772,1.8015516916638439,0.2261387078189481,A,487.57958300120663,Incorrect
18,10,141,B,83.92825307841552,69.25137947137262,4.196412653920777,1.0877981249911162,B,312.5304160021187,Correct
18,10,142,B,87.70869648794678,63.80097894188678,4.385434824397339,1.002183433678343,B,371.2089159998868,Correct
18,10,143,B,85.46367867574078,59.32836159013928,4.273183933787039,0.931927724605502,B,383.5685000012745,Correct
18,10,144,A,25.107790742422196,40.7414133337645,1.25538953712111,0.6399646241310989,A,509.8594579976634,Correct
18,10,145,B,80.53530583299636,61.720416821720455,4.026765291649818,0.9695020403180842,B,532.5344999982917,Correct
18,10,146,B,44.037929802121454,29.116033498187896,2.2018964901060727,0.45735358469790705,A,517.3135420009203,Incorrect
18,10,147,B,58.1058645071862,27.10959814530191,2.90529322535931,0.42583657187525975,B,497.5695409993932,Correct
18,10,148,A,21.604205555286395,49.5197336438766,1.0802102777643199,0.7778541571166302,B,453.063041997666,Incorrect
18,10,149,A,48.42848028487624,71.52607221149034,2.421424014243812,1.1235289149987555,A,375.04070899740327,Correct
18,10,150,A,30.845880164539707,52.55956925651126,1.5422940082269856,0.8256037832604985,A,570.662624999386,Correct
18,10,151,B,54.299693040387744,32.269970382754465,2.714984652019387,0.5068955094301082,B,585.614749998058,Correct
18,10,152,A,27.303133597272765,43.35613547865279,1.3651566798636383,0.681036583538897,A,707.8110000002198,Correct
18,10,153,A,68.61551050675834,83.45138232197777,3.4307755253379173,1.3108512481731924,B,530.2139160012302,Incorrect
18,10,154,B,79.50516058641912,63.46379070608326,3.9752580293209565,0.9968868932559568,B,1050.9513750002952,Correct
18,10,155,A,38.99093588891804,56.64233628619184,1.949546794445902,0.8897357377943143,A,608.5688750026748,Correct
18,10,156,A,31.06971475278059,48.686746575970496,1.5534857376390294,0.7647696268512846,A,1148.0421250016661,Correct
18,10,157,A,28.748667465425562,50.926458180441614,1.4374333732712783,0.799950934465116,A,765.7516250001208,Correct
18,10,158,B,64.44137170417896,45.40104053556806,3.222068585208948,0.7131578770593652,B,785.8608749993437,Correct
18,10,159,B,55.36020363252471,37.69570008371191,2.7680101816262357,0.5921226722745675,B,617.1698329999344,Correct
18,10,160,A,64.00741901513034,79.87146579112311,3.2003709507565166,1.2546180508042044,A,649.9761670020234,Correct
18,10,161,A,37.67509014116618,51.955508170684844,1.883754507058309,0.8161152139127399,A,497.35750000036205,Correct
18,10,162,B,41.542802372185356,25.928740471812375,2.0771401186092677,0.4072877029154105,A,430.5722919998516,Incorrect
18,10,163,A,42.67048610249933,51.04192858867327,2.1335243051249666,0.8017647393961539,A,388.77758300077403,Correct
18,10,164,A,40.23707149282038,62.40621000046952,2.0118535746410187,0.9802744543792847,A,367.93416699947556,Correct
18,10,165,A,61.288894350826524,74.8437194249809,3.0644447175413263,1.1756423955642785,A,412.568249998003,Correct
18,10,166,A,49.260666862326076,76.48210163054989,2.4630333431163036,1.2013780430682175,A,394.8188750000554,Correct
18,10,167,B,47.167682209483374,26.432362710940488,2.3583841104741685,0.4151985825485572,A,361.1100419984723,Incorrect
18,10,168,A,60.049537209377945,74.89091365848802,3.002476860468897,1.1763837208506673,B,385.22787500187405,Incorrect
18,10,169,A,26.606071840509685,53.50655805167876,1.3303035920254842,0.8404790484701489,A,147.12087500083726,Correct
18,10,170,B,46.93651019736745,18.834204835557546,2.3468255098683724,0.2958469977379648,A,275.5423750022601,Incorrect
18,10,171,B,36.54922131495117,15.923176322719922,1.8274610657475585,0.2501206687863592,B,402.89858400137746,Correct
18,10,172,A,47.265851839051045,62.73006029612229,2.3632925919525523,0.9853614829277126,B,398.9486249993206,Incorrect
18,10,173,A,58.322051590278164,79.08686720777132,2.9161025795139084,1.2422936050768294,A,166.58741700302926,Correct
18,10,174,A,59.12534323851128,72.42084522654842,2.956267161925564,1.1375839766524396,A,348.1093750015134,Correct
18,10,175,A,37.14058159428136,52.17010914350573,1.8570290797140678,0.8194861581110765,A,404.15075000055367,Correct
18,10,176,B,44.53994621140191,29.703874285301605,2.2269973105700958,0.4665873661892915,A,385.99558399801026,Incorrect
18,10,177,B,33.31675371689464,10.8540321492222,1.6658376858447321,0.1704947383091195,B,141.92116599951987,Correct
18,10,178,A,56.465336524524645,76.70927778281265,2.8232668262262326,1.2049465177233147,A,332.21908300038194,Correct
18,10,179,A,66.361153671619,85.58064767519672,3.3180576835809497,1.3442976701292721,B,325.5308750012773,Incorrect
18,10,180,B,62.615783438208034,32.78548360887449,3.1307891719104015,0.5149931722501434,A,317.8754580003442,Incorrect
18,10,181,B,81.83373830358354,67.24568531097604,4.091686915179178,1.056292754792867,B,105.30087499864749,Correct
18,10,182,A,46.391039236778646,72.04356366294384,2.319551961838932,1.1316576517096648,B,464.29362499839044,Incorrect
18,10,183,A,45.11642122351825,58.65510873130685,2.2558210611759124,0.9213522934289207,A,32.36924999873736,Correct
18,10,184,A,39.311541313155175,64.57225119966964,1.9655770656577587,1.0142985499731842,A,182.039999999688,Correct
18,10,185,A,63.270347858761625,79.79622059867003,3.1635173929380813,1.2534361020850613,A,391.1809589990298,Correct
18,10,186,B,59.255818705939205,45.039756570063034,2.96279093529696,0.7074828417999132,A,363.7828749997425,Incorrect
18,10,187,A,54.75505115651036,79.69616363389245,2.737752557825518,1.2518644109576327,B,359.942458999285,Incorrect
18,10,188,A,33.2980418585712,52.629007109922206,1.66490209292856,0.826694510511283,A,232.02754099838785,Correct
18,10,189,A,19.85730325470137,50.66492891307481,0.9928651627350686,0.7958428423398246,A,330.1988750026794,Correct
18,10,190,B,79.26661226142717,52.796783002767015,3.963330613071358,0.8293299280733366,A,348.1416670001636,Incorrect
18,10,191,B,63.2579550222377,51.883339128309416,3.162897751111885,0.8149815852460236,B,393.9059999975143,Correct
18,10,192,B,48.6655820882708,21.84361617627962,2.4332791044135402,0.34311872053617615,B,389.4969590000983,Correct
18,10,193,B,68.40250077045074,49.64714606715209,3.420125038522537,0.779855546781322,A,434.1922080020595,Incorrect
18,10,194,A,36.77524062807902,62.08482009032623,1.838762031403951,0.9752260734760643,A,708.3146670011047,Correct
18,10,195,B,73.79941265157846,43.39517766461854,3.689970632578923,0.6816498567619473,B,454.92983399890363,Correct
18,10,196,B,56.29867741852943,33.597736375529124,2.8149338709264713,0.5277520088730443,B,484.797625002102,Correct
18,10,197,B,57.510433700608644,26.830215823320074,2.8755216850304324,0.4214480446238548,B,379.8359579996031,Correct
18,10,198,B,45.33190290605859,29.18116904629276,2.2665951453029294,0.458376731494976,A,722.0628750001197,Incorrect
18,10,199,B,56.65156489478415,44.875301795095524,2.832578244739208,0.7048995922354847,B,339.4855420010572,Correct
18,10,200,A,46.502434411682266,57.21615831292717,2.325121720584113,0.898749313112613,B,338.9560000032361,Incorrect
18,10,201,A,47.98504088437004,55.115444158091606,2.399252044218502,0.8657513723319953,A,247.01358300080756,Correct
18,10,202,A,44.390217612254204,54.570448193812496,2.2195108806127104,0.8571905957439186,A,343.95724999922095,Correct
18,10,203,B,77.53392034441808,55.66628754964479,3.876696017220904,0.8744040000929053,B,496.45179100116366,Correct
18,10,204,A,13.596630027932765,33.36264684581808,0.6798315013966382,0.5240592311756638,A,425.2104999977746,Correct
18,10,205,A,24.25220812663992,36.9464286652836,1.212610406331996,0.5803531443561715,A,364.2183340016345,Correct
18,10,206,A,19.195323026256446,33.9512476751966,0.9597661513128223,0.5333049513830258,A,327.3106250017008,Correct
18,10,207,B,39.78577807321051,13.539287712436238,1.9892889036605255,0.2126746340611412,A,387.71649999762303,Incorrect
18,10,208,B,46.769638605099495,31.121514391633333,2.3384819302549746,0.48885560490672153,B,362.43649999960326,Correct
18,10,209,B,56.34385184116972,30.596034787571746,2.817192592058486,0.4806013905880657,B,384.10949999888544,Correct
18,10,210,B,70.23021605118254,40.73580219467655,3.511510802559127,0.639876484564414,B,455.5336250014079,Correct
18,10,211,A,33.19074058427729,64.84849342610529,1.6595370292138647,1.0186377527190917,B,407.7322080011072,Incorrect
18,10,212,A,42.48296518583688,61.03172849791297,2.1241482592918444,0.9586841494246511,A,628.6984590005886,Correct
18,10,213,B,46.68125277891177,37.88996845930765,2.3340626389455883,0.5951742327825494,A,941.5115000010701,Incorrect
18,10,214,A,61.68939075181717,70.88732712879728,3.084469537590859,1.1134955307022298,B,627.4220419982157,Incorrect
18,10,215,B,59.640438932853755,34.03776758330814,2.9820219466426874,0.5346640029215882,A,644.8092080026981,Incorrect
18,10,216,B,82.35330058785553,52.126896683394,4.117665029392777,0.8188073783749237,B,764.5211660019413,Correct
18,10,217,B,52.76679006149827,43.00388073622212,2.6383395030749135,0.6755033789838353,A,297.5570839989814,Incorrect
18,10,218,A,17.06240886949865,33.53037286187536,0.8531204434749325,0.5266938652749709,B,340.42575000057695,Incorrect
18,10,219,A,10.580370675003966,35.99930327497596,0.5290185337501982,0.5654757335150773,A,344.6194589996594,Correct
18,10,220,A,37.03928112852651,68.62145881727457,1.8519640564263256,1.0779033544948218,B,491.5870000004361,Incorrect
18,10,221,B,62.37434875408104,46.881886664547025,3.118717437704052,0.736418953658851,A,236.74883299827343,Incorrect
18,10,222,A,45.80518586078545,75.55842477802268,2.2902592930392727,1.1868689609972651,B,320.84074999875156,Incorrect
18,10,223,A,31.726528520891634,59.24549213863751,1.5863264260445817,0.9306260143052772,A,264.93125000342843,Correct
18,10,224,B,44.02059900355839,24.450921337673112,2.2010299501779196,0.3840741742396789,A,351.44587499962654,Incorrect
18,10,225,A,56.463268571971014,64.19164554395212,2.8231634285985505,1.0083200103135996,B,403.13275000153226,Incorrect
18,10,226,B,32.23138143698654,15.11872726012896,1.611569071849327,0.23748441246024443,A,330.84025000061956,Incorrect
18,10,227,B,75.13419813034685,52.97957295453341,3.756709906517342,0.8322011859214332,A,305.03679100002046,Incorrect
18,10,228,B,49.55250792388877,36.55820854021947,2.4776253961944383,0.5742549968917856,B,403.29729199947906,Correct
18,10,229,A,62.503552396244615,85.65539240436814,3.1251776198122307,1.3454717575895694,B,381.18066700189956,Incorrect
18,10,230,A,44.22212093575807,54.35275480786292,2.211106046787904,0.8537710760337472,A,438.0546669999603,Correct
18,10,231,A,64.02477014641798,86.93131547828474,3.2012385073208987,1.3655139103673801,A,370.3425000021525,Correct
18,10,232,A,62.62307885788759,77.23714905270194,3.1311539428943798,1.2132383002409413,A,347.9881249986647,Correct
18,10,233,B,51.39674760054051,39.575675762936996,2.569837380027025,0.6216532611884725,A,412.0906659991306,Incorrect
18,10,234,B,48.740266087721416,19.88492567931622,2.437013304386071,0.31235168215659426,B,287.9744160018163,Correct
18,10,235,B,47.861920305233646,30.878967340458676,2.393096015261682,0.48504568473612064,B,694.1881670027215,Correct
18,10,236,B,56.457071821205766,31.65954291108073,2.822853591060288,0.4973069371273101,A,299.3083330002264,Incorrect
18,10,237,A,31.30598483642386,46.61306134681235,1.565299241821193,0.7321962554423802,B,264.43366699822946,Incorrect
18,10,238,B,87.43557129249308,66.36939686455483,4.371778564624654,1.0425280480643544,A,3181.4326669991715,Incorrect
18,10,239,B,55.77135813565581,36.89972841859522,2.78856790678279,0.5796195785965862,A,636.1532919981983,Incorrect
18,10,240,A,11.580143289485022,36.597566293697454,0.5790071644742512,0.5748732270377268,A,479.19166700012283,Correct
18,10,241,A,46.78707264897725,75.46100478228527,2.3393536324488626,1.1853386912826585,A,427.8646660022787,Correct
18,10,242,B,68.3598530359625,50.76802665623404,3.4179926517981247,0.7974622979023781,B,579.0099579971866,Correct
18,10,243,B,43.978979981459226,31.588637072225087,2.1989489990729614,0.49619315081508264,A,343.1056670015096,Incorrect
18,10,244,B,53.148165408941765,29.754949088679574,2.657408270447088,0.46738964732467025,B,350.07020800185273,Correct
18,10,245,B,66.94206037544882,37.71979505446916,3.347103018772441,0.5925011551901646,A,446.00079100200674,Incorrect
18,10,246,A,43.466556521843856,67.23073430720987,2.173327826092193,1.0560579049748888,B,376.9416249997448,Incorrect
18,10,247,B,59.85382554833944,36.0051286357321,2.992691277416972,0.5655672380678574,B,542.2184999988531,Correct
18,10,248,B,59.63566313355136,32.5277466820824,2.981783156677568,0.5109446500712992,A,433.83704199732165,Incorrect
18,10,249,B,72.98902317803915,42.10585482219796,3.6494511589019574,0.6613972209126775,B,394.2854590022762,Correct
18,10,250,A,61.3081687667934,81.61109981283767,3.06540843833967,1.281944158116971,B,487.32045799988555,Incorrect
18,10,251,B,75.90686021230479,59.27610487199884,3.7953430106152393,0.9311068779964486,B,497.23870900197653,Correct
18,10,252,A,57.175225124933846,72.30815853968672,2.858761256246692,1.135813898314429,B,657.2608330025105,Incorrect
18,10,253,B,54.610219404376956,33.95648364045291,2.730510970218848,0.5333871977329443,A,556.8598329991801,Incorrect
18,10,254,A,28.793196492849656,47.28856584871097,1.4396598246424828,0.7428070553455378,A,507.89650000297115,Correct
18,10,255,B,58.21539849499946,32.683763686282056,2.910769924749973,0.5133953594424427,A,321.01608300217777,Incorrect
18,10,256,B,35.05088776157418,22.69575007984254,1.752544388078709,0.3565040085927164,A,476.1105409997981,Incorrect
18,10,257,A,37.83956963237963,47.85901475572096,1.8919784816189815,0.7517676458230925,B,380.9580000015558,Incorrect
18,10,258,A,13.426849783228057,32.30236183157767,0.6713424891614028,0.5074043131184187,A,306.21199999950477,Correct
18,10,259,B,37.56593496975269,19.919480522941534,1.8782967484876343,0.31289446837099044,A,412.34520899888594,Incorrect
18,10,260,A,56.43132682875496,75.9560749276465,2.821566341437748,1.1931152349410508,B,312.765082999249,Incorrect
18,10,261,B,47.77710682958904,29.352311704979122,2.3888553414794518,0.46106503409120053,A,195.74933300100383,Incorrect
18,10,262,A,51.376887882127164,81.81653256896422,2.568844394106358,1.28517108830424,B,336.08004200141295,Incorrect
18,10,263,A,28.29511828653557,60.28181071155275,1.4147559143267785,0.9469044683825232,A,1765.3214580022905,Correct
18,10,264,A,34.439105190056736,46.07358617548487,1.721955259502837,0.7237221992671975,B,404.5467079995433,Incorrect
18,10,265,A,41.26714304596409,61.48609873979125,2.063357152298204,0.9658213804941242,A,215.56458399936673,Correct
18,10,266,A,46.38324690729125,75.24902690656123,2.3191623453645627,1.1820089505971672,B,831.7815409973264,Incorrect
18,10,267,B,83.11677689292733,66.69106539617907,4.155838844646366,1.0475808055435631,B,1096.2526670009538,Correct
18,10,268,B,46.48406065859706,33.323913479508576,2.324203032929853,0.52345080888043,A,992.3804999998538,Incorrect
18,10,269,B,80.04484201670903,48.82118301389572,4.002242100835451,0.766881349480088,B,418.9910829991277,Correct
18,10,270,B,47.07323098432275,38.80923778295049,2.3536615492161372,0.6096140815516834,A,255.3644580002583,Incorrect
18,10,271,A,22.251947257242982,43.9728352422359,1.1125973628621493,0.6907236807726134,B,248.10533299751114,Incorrect
18,10,272,B,86.4568738315185,64.12564939869895,4.322843691575924,1.007283345288137,B,476.1705409982824,Correct
18,10,273,A,23.98455106913343,44.14328151255779,1.1992275534566716,0.6934010445259884,A,429.9572919990169,Correct
18,10,274,B,67.02979819992753,52.81943068060485,3.3514899099963764,0.8296856769649177,B,464.1606250006589,Correct
18,10,275,A,30.613119634934613,40.74808199001443,1.5306559817467305,0.6400693751385194,A,360.65654100093525,Correct
18,10,276,B,54.61762993502439,27.09074282810916,2.7308814967512194,0.4255403932453906,A,362.06441700051073,Incorrect
18,10,277,B,49.47002577592788,20.715136094240634,2.4735012887963936,0.3253925968588957,A,445.77524999840534,Incorrect
18,10,278,B,79.63953237581354,58.36640965229239,3.981976618790677,0.9168174189002708,B,270.2878750023956,Correct
18,10,279,A,59.824448936878625,75.79398512644727,2.9912224468439312,1.1905691342977038,B,393.4542080023675,Incorrect
18,10,280,A,35.25380302612031,58.87990746318991,1.7626901513060154,0.9248834236520214,A,334.29199999955017,Correct
18,10,281,A,61.36755772537393,75.36491089681215,3.068377886268696,1.1838292520593718,A,445.85870900118607,Correct
18,10,282,A,64.15948619257757,83.25179921366846,3.2079743096288786,1.307716204038967,B,398.6821670005156,Incorrect
18,10,283,B,47.62239431111196,24.988827128689994,2.3811197155555983,0.39252357864658904,A,248.6631669999042,Incorrect
18,10,284,B,63.7627248275357,52.35922012385746,3.1881362413767853,0.8224567064440073,B,805.1055830001133,Correct
18,10,285,A,20.48243086627652,45.05854966350651,1.024121543313826,0.7077780430214146,A,496.1748339992482,Correct
18,10,286,A,17.114874771321123,47.584629437849614,0.8557437385660562,0.7474576113287049,A,452.3695409989159,Correct
18,10,287,A,30.997521537555105,42.75107049678449,1.5498760768777553,0.6715322450289875,A,458.9072910021059,Correct
18,10,288,A,19.838050055432962,44.34032314290085,0.991902502771648,0.696496167217674,A,391.9062909990316,Correct
18,10,289,B,60.27535316962568,35.26749069481599,3.013767658481284,0.5539804483869015,A,277.16624999811756,Incorrect
18,10,290,B,75.90650403720882,44.52441836626215,3.7953252018604413,0.6993879282240381,B,273.17662499990547,Correct
18,10,291,B,85.63276690590537,57.83732775050835,4.281638345295269,0.9085066198213105,B,438.05058400175767,Correct
18,10,292,B,39.302203635264576,17.155776842978682,1.9651101817632286,0.2694823124826386,A,473.72845799691277,Incorrect
18,10,293,B,38.47256234926474,28.347060385598724,1.923628117463237,0.445274583291316,B,292.4238330015214,Correct
18,10,294,B,48.130948154760056,17.82171257258929,2.4065474077380027,0.27994280646217684,A,332.8479170013452,Incorrect
18,10,295,A,57.703406987918825,70.62331052483565,2.885170349395941,1.109348367585072,A,386.32966699879034,Correct
18,10,296,A,66.57173325311243,86.21281203023632,3.3285866626556215,1.354227684597541,A,378.09133299742825,Correct
18,10,297,A,39.625262097243855,48.282136470476765,1.9812631048621927,0.758414026176348,B,480.3151660016738,Incorrect
18,10,298,B,37.82547883583296,14.557310360366092,1.8912739417916482,0.22866569642076348,A,251.52579199857428,Incorrect
18,10,299,B,61.29645540742484,28.733673632882326,3.064822770371242,0.4513474899785493,A,276.8279159972735,Incorrect
