subject,day,trial,cat,x,y,xt,yt,resp,rt,fb,resp_key
18,23,0,B,68.74569594806898,47.44191708417842,3.4372847974034495,0.7452158909193553,B,1362.6009590079775,Correct,d
18,23,1,B,44.24092711945576,23.01330707269315,2.212046355972788,0.3614921821718941,B,564.3428750045132,Correct,d
18,23,2,B,52.01732520702832,41.98917643976814,2.600866260351416,0.6595644411673061,B,496.9423330039717,Correct,d
18,23,3,B,73.12137889187017,54.408604583486536,3.656068944593508,0.8546483622577662,B,938.1220420036698,Correct,d
18,23,4,B,39.76420860800049,21.02521986721309,1.9882104304000245,0.33026338137473404,A,601.6782499937108,Incorrect,k
18,23,5,B,35.73691149566808,21.045726784154553,1.7868455747834042,0.33058550327278946,B,699.0474999911385,Correct,d
18,23,6,A,47.468949068367706,68.46026883566704,2.373447453418385,1.0753713881845692,B,471.9832499977201,Incorrect,d
18,23,7,B,60.663357627227434,33.278479838614835,3.0331678813613716,0.522737138918142,B,520.0987499993062,Correct,d
18,23,8,A,41.518811079948705,62.055869341785396,2.075940553997435,0.9747713161814053,A,975.3379999892786,Correct,k
18,23,9,B,38.15940177992539,24.062499823320103,1.9079700889962694,0.3779728633597406,B,332.98308300436474,Correct,d
18,23,10,A,57.1915754429979,78.11773513466477,2.8595787721498946,1.2270705140706806,B,458.9740410010563,Incorrect,d
18,23,11,A,60.437057982753814,76.75232262580316,3.0218528991376905,1.205622664535884,A,291.9848750025267,Correct,k
18,23,12,B,52.97684092086439,30.019005543143514,2.6488420460432196,0.4715374364120547,B,485.3194169991184,Correct,d
18,23,13,B,40.346546729547285,31.365473634204626,2.0173273364773645,0.49268770772790804,B,353.97279099561274,Correct,d
18,23,14,A,60.984897133206736,76.03675829980703,3.0492448566603367,1.1943826063872827,A,570.9942919929745,Correct,k
18,23,15,B,47.133838054565814,31.058541774867166,2.356691902728291,0.4878664333556719,B,354.0471250016708,Correct,d
18,23,16,A,25.993098619785762,36.04446536889981,1.2996549309892882,0.5661851380275367,A,271.933291995083,Correct,k
18,23,17,B,74.79133317978958,55.38166998905126,3.739566658989479,0.8699332379056889,B,836.364875009167,Correct,d
18,23,18,A,65.91084732507977,83.05157956907735,3.2955423662539887,1.3045711612162076,B,361.48529199999757,Incorrect,d
18,23,19,B,58.71599603345352,44.1427920766852,2.935799801672676,0.6933933564852797,A,420.4520829953253,Incorrect,k
18,23,20,B,40.807645848807866,24.494917289150454,2.040382292440393,0.3847652610294234,B,953.6920420068782,Correct,d
18,23,21,B,88.38989125302376,68.34484787769247,4.419494562651188,1.0735583600163534,B,1013.5721249971539,Correct,d
18,23,22,B,60.76116007968323,43.844036977726944,3.0380580039841614,0.6887005223647311,B,901.2687500071479,Correct,d
18,23,23,A,48.34088843551403,63.87390366924982,2.4170444217757017,1.0033289326170869,B,1438.2702910079388,Incorrect,d
18,23,24,A,26.940625171010808,49.899119503459666,1.3470312585505406,0.7838135362633403,B,970.8717920002528,Incorrect,d
18,23,25,A,44.490372248675875,63.92165136076944,2.2245186124337937,1.0040789516016062,B,1308.5667920095148,Incorrect,d
18,23,26,B,84.77592022665137,60.050537883572936,4.2387960113325684,0.9432716432957415,B,1213.6328750057146,Correct,d
18,23,27,A,37.167125534886345,57.2938798137189,1.8583562767443171,0.8999701595921792,B,978.3363750029821,Incorrect,d
18,23,28,B,37.42745614635716,24.38174690399447,1.8713728073178577,0.38298758477637357,A,710.6529999873601,Incorrect,k
18,23,29,B,87.84789242645888,66.59355550104445,4.392394621322945,1.046049123692527,B,1176.097250005114,Correct,d
18,23,30,B,88.94539388307746,64.50064502426785,4.447269694153873,1.0131737628002144,B,1417.7297090063803,Correct,d
18,23,31,A,40.19463733297979,71.36045126955945,2.0097318666489894,1.120927347326502,B,1807.4626669986174,Incorrect,d
18,23,32,A,56.758359514596876,82.44633777711402,2.8379179757298436,1.2950640453798203,A,1180.5350840004394,Correct,k
18,23,33,B,51.28805370446208,26.283366395034864,2.5644026852231043,0.4128581538912519,B,1185.3521660086699,Correct,d
18,23,34,B,60.8637985903724,32.87657571413963,3.04318992951862,0.5164240436936485,B,1549.3586249940563,Correct,d
18,23,35,B,36.01627000342674,18.24139936539474,1.800813500171337,0.28653523118760815,A,1225.38041700318,Incorrect,k
18,23,36,A,61.09389459117733,84.18105548576358,3.0546947295588667,1.322312927427548,B,1377.9674169927603,Incorrect,d
18,23,37,B,53.60122546448251,29.056027267930556,2.680061273224126,0.4564110090371767,A,1455.5066250031814,Incorrect,k
18,23,38,B,42.7289932168926,24.94309312545828,2.13644966084463,0.391805190603729,B,638.5178330092458,Correct,d
18,23,39,B,72.87431794313345,57.38380329141218,3.6437158971566728,0.9013826742767115,B,990.0516249908833,Correct,d
18,23,40,A,31.102691847089684,43.72798748379238,1.5551345923544841,0.6868776211767429,A,1577.643333002925,Correct,k
18,23,41,B,69.83869193918383,56.502446424654664,3.4919345969591915,0.8875383529877299,B,898.6073749983916,Correct,d
18,23,42,A,40.491980956733386,55.392037797339846,2.024599047836669,0.8700960950574551,B,898.9820419956231,Incorrect,d
18,23,43,B,47.68101696034792,24.759193992004217,2.3840508480173956,0.38891650977042497,A,969.0061659930507,Incorrect,k
18,23,44,A,16.385626403851056,46.32124936183711,0.8192813201925528,0.7276124835012416,A,1131.6287920053583,Correct,k
18,23,45,B,42.01782740629841,18.467925938052886,2.1008913703149203,0.2900935022701367,B,719.7875420097262,Correct,d
18,23,46,A,53.19946941209088,61.8306571588149,2.6599734706045437,0.9712336914838103,B,893.4276250074618,Incorrect,d
18,23,47,B,72.4089975461992,45.456905977801284,3.62044987730996,0.7140354093739124,A,1234.368583012838,Incorrect,k
18,23,48,B,33.83829766213814,16.038408224791972,1.6919148831069069,0.25193072727140287,A,1316.9577080116142,Incorrect,k
18,23,49,B,73.59041280305992,60.45605969947114,3.6795206401529956,0.9496415650842224,B,774.1596669948194,Correct,d
18,23,50,B,78.69379427777882,54.77350505175269,3.934689713888941,0.8603802054097484,B,1236.8005829921458,Correct,d
18,23,51,A,64.07768158201843,84.05235162999092,3.2038840791009218,1.3202912519886278,B,864.4927919958718,Incorrect,d
18,23,52,A,57.46327418759479,82.93784644160829,2.8731637093797393,1.3027846454275749,A,792.4504170077853,Correct,k
18,23,53,B,77.33572530366695,46.57629198719349,3.8667862651833476,0.731618683692101,B,1075.846250008908,Correct,d
18,23,54,A,34.17409970423189,47.808078066716796,1.7087049852115945,0.7509675341832239,A,1527.7396669989685,Correct,k
18,23,55,B,64.42537745468567,52.837790966890324,3.2212688727342833,0.8299740796674789,B,1063.7272079911781,Correct,d
18,23,56,A,37.237919018320845,62.00341523637107,1.8618959509160422,0.9739473690203039,B,650.3695830033394,Incorrect,d
18,23,57,A,63.45336245579786,80.33194027514718,3.1726681227898927,1.261851167085082,A,687.4255830043694,Correct,k
18,23,58,B,39.017473039787546,22.307982170855787,1.9508736519893772,0.35041296452186316,B,1153.8323339918861,Correct,d
18,23,59,A,35.25111427731841,50.5837861895716,1.7625557138659205,0.7945682554195748,A,516.2074580002809,Correct,k
18,23,60,B,80.60683153507617,58.09393941262164,4.030341576753808,0.9125374663839133,B,982.261125012883,Correct,d
18,23,61,B,46.346174544597105,17.07166036168652,2.317308727229855,0.2681610138842722,A,914.1854579938808,Incorrect,k
18,23,62,B,37.68231927839007,13.828697575184183,1.8841159639195035,0.21722067355456812,B,1043.4083750005811,Correct,d
18,23,63,B,60.559613569692715,47.150657200809924,3.027980678484636,0.7406407913699758,A,1174.2457499931334,Incorrect,k
18,23,64,A,34.69901477904562,64.4327745541691,1.7349507389522811,1.012107655948925,B,896.8224590062164,Incorrect,d
18,23,65,B,71.8369709942881,39.945226133605146,3.591848549714405,0.6274581448365847,A,649.2270420130808,Incorrect,k
18,23,66,B,55.67860966559734,39.81069019101732,2.783930483279867,0.6253448591921963,B,1003.038833005121,Correct,d
18,23,67,B,81.74573152102599,57.948889161361066,4.087286576051299,0.9102590223651057,B,1213.0986249976559,Correct,d
18,23,68,B,42.24541358500627,13.794482975960172,2.1122706792503134,0.21668323188672972,B,855.7249580044299,Correct,d
18,23,69,B,33.09564062271715,17.946769693190213,1.6547820311358574,0.28190719911897155,B,1548.9437079959316,Correct,d
18,23,70,A,28.062465170453695,38.93447051857649,1.403123258522685,0.6115812327628414,B,1923.7943339976482,Incorrect,d
18,23,71,A,58.5336098731596,81.4777134493584,2.9266804936579796,1.279848930018993,A,2145.9112919983454,Correct,k
18,23,72,B,71.72385136489392,60.51535423266313,3.586192568244696,0.9505729614335924,B,1472.8677500097547,Correct,d
18,23,73,B,88.04177352955656,63.744231875198466,4.402088676477828,1.001292052839239,B,1233.5837090067798,Correct,d
18,23,74,A,22.745474248698073,47.18027104482438,1.1372737124349037,0.7411059645439775,A,1869.5307080051862,Correct,k
18,23,75,A,18.029697944343102,34.02115525199144,0.9014848972171551,0.5344030570314705,A,1550.0396669958718,Correct,k
18,23,76,B,67.62691801412008,52.472342784094685,3.3813459007060036,0.8242336330357863,B,991.7743749974761,Correct,d
18,23,77,A,24.799082296438613,39.95740029877176,1.2399541148219306,0.6276493761758398,A,1477.1947080007521,Correct,k
18,23,78,A,18.671654454961118,41.54550960077556,0.9335827227480559,0.6525953387572035,A,1991.6154590027872,Correct,k
18,23,79,A,46.65882304101389,77.4054973800532,2.332941152050694,1.2158827095831957,A,1555.2171250019455,Correct,k
18,23,80,A,25.706443665993273,38.59923316844927,1.2853221832996635,0.6063153367809985,B,2522.6230830012355,Incorrect,d
18,23,81,B,60.92537580432196,29.853007873348304,3.046268790216098,0.4689299511123465,A,1196.5772080002353,Incorrect,k
18,23,82,B,38.83145511784324,29.502194847991408,1.941572755892162,0.4634193929961223,B,871.9884169986472,Correct,d
18,23,83,B,45.29169114709697,33.64787969556774,2.2645845573548486,0.528539658302344,A,4597.724166000262,Incorrect,k
18,23,84,B,52.39765312804966,34.69538364751654,2.619882656402483,0.5449938119025871,B,385.871959006181,Correct,d
18,23,85,B,41.50093162805962,15.959857443026156,2.075046581402981,0.25069685447675677,A,684.9297910084715,Incorrect,k
18,23,86,A,26.806578819901276,52.83787258342862,1.3403289409950638,0.8299753616970647,B,535.9526249958435,Incorrect,d
18,23,87,B,70.39809952346673,58.08335366162895,3.5199049761733363,0.9123711857961565,A,668.6980840022443,Incorrect,k
18,23,88,A,31.85826787052961,54.69610303955313,1.5929133935264803,0.8591643774452523,B,617.5149999908172,Incorrect,d
18,23,89,A,21.21989170637259,44.63138478903282,1.0609945853186296,0.7010681528638238,B,523.1449580023764,Incorrect,d
18,23,90,B,60.36106023127589,45.10249239886339,3.018053011563795,0.7084682938942937,B,554.2093750118511,Correct,d
18,23,91,B,45.05568729959187,15.494225364664608,2.2527843649795933,0.24338272289347482,B,424.43758399167564,Correct,d
18,23,92,B,78.65967649510762,56.15711774886003,3.932983824755381,0.8821139428329782,B,688.747209002031,Correct,d
18,23,93,A,67.16625556646011,89.83592090653389,3.3583127783230053,1.4111393457422028,B,442.6309999980731,Incorrect,d
18,23,94,B,68.73306804350582,56.115378411824594,3.436653402175291,0.881458302859997,A,339.32833300787024,Incorrect,k
18,23,95,B,87.22178231371072,62.32060375471583,4.361089115685536,0.9789297546154786,B,605.5964589904761,Correct,d
18,23,96,A,31.186965877844372,41.28691501813516,1.5593482938922187,0.6485333445517977,B,695.741542003816,Incorrect,d
18,23,97,A,59.121034751871036,81.2031559779806,2.956051737593552,1.2755361913436498,B,818.1342089956161,Incorrect,d
18,23,98,A,11.56496213873653,34.58164416011675,0.5782481069368265,0.5432071962123959,B,991.1399169941433,Incorrect,d
18,23,99,A,27.42404711415265,43.838248482245575,1.3712023557076325,0.6886095968903331,B,2922.617292002542,Incorrect,d
18,23,100,B,53.96779862700013,43.56675996359917,2.698389931350006,0.6843450652117653,A,521.1932499951217,Incorrect,k
18,23,101,B,61.85694283336625,40.734373127889036,3.0928471416683125,0.6398540368358084,A,832.3054169886746,Incorrect,k
18,23,102,A,26.097103803085776,42.593643170871225,1.3048551901542889,0.6690593823761706,B,556.8810840049991,Incorrect,d
18,23,103,A,12.070242146898842,33.2459797950453,0.6035121073449421,0.5222266294275452,A,814.0100830059964,Correct,k
18,23,104,B,57.773790129506246,41.516469706526216,2.888689506475312,0.6521391811650298,B,498.4392500045942,Correct,d
18,23,105,B,45.36917572665984,21.20827221208676,2.268458786332992,0.33313876088412153,A,441.94816700473893,Incorrect,k
18,23,106,A,23.757089085182795,53.166081379598786,1.1878544542591398,0.8351308534115232,B,480.16066699346993,Incorrect,d
18,23,107,A,43.93187667374234,53.99513584387436,2.196593833687117,0.8481536104834931,A,663.5995830001775,Correct,k
18,23,108,A,48.79143155935414,56.571077631950715,2.4395715779677065,0.888616409470971,A,556.9642920017941,Correct,k
18,23,109,B,45.185635541471896,32.202941108294254,2.259281777073595,0.5058426160490099,A,1395.4405419935938,Incorrect,k
18,23,110,B,50.3341467513864,32.529307377665766,2.5167073375693203,0.5109691654201951,A,408.29475001373794,Incorrect,k
18,23,111,B,52.00108705623117,34.09209870260736,2.6000543528115587,0.535517434147847,B,736.2618750048568,Correct,d
18,23,112,B,32.71313757483954,14.205919695968486,1.6356568787419772,0.22314606477170576,A,484.2535830102861,Incorrect,k
18,23,113,A,38.99484152479922,54.10252160511929,1.949742076239961,0.8498404220766291,B,555.7482080039335,Incorrect,d
18,23,114,B,51.29483165177475,21.452049487561247,2.5647415825887374,0.3369680053728355,B,311.85808300506324,Correct,d
18,23,115,B,81.5172413311544,55.715289280130364,4.07586206655772,0.8751737174754385,B,943.5952910134802,Correct,d
18,23,116,B,72.73835859055586,60.23400048082996,3.6369179295277934,0.9461534670344974,B,678.0037080025068,Correct,d
18,23,117,B,37.779445061166186,15.892412278268853,1.8889722530583095,0.24963742830614827,A,461.72970900079235,Incorrect,k
18,23,118,B,38.22261069187854,13.213438764297354,1.9111305345939271,0.20755621075287584,B,416.93091599154286,Correct,d
18,23,119,A,36.14696254776536,64.88404669743365,1.807348127388268,1.0191962221991733,B,620.4485839989502,Incorrect,d
18,23,120,B,38.99726281713929,14.820264497558249,1.9498631408569644,0.23279617034893313,B,2394.896083002095,Correct,d
18,23,121,B,75.46160547087294,47.560516719822246,3.773080273543647,0.7470788496396404,B,1033.7518330052262,Correct,d
18,23,122,A,33.44914512355854,62.705472446401785,1.672457256177927,0.9849752578874652,B,564.6163750061532,Incorrect,d
18,23,123,A,58.93368363346179,69.30884142608832,2.9466841816730898,1.088700735265095,B,485.58420900371857,Incorrect,d
18,23,124,A,57.1084804695884,73.60953911869763,2.8554240234794204,1.1562559366471548,A,677.8901249927003,Correct,k
18,23,125,A,27.368011246833028,52.00584445401784,1.3684005623416513,0.8169058944023797,B,1580.289499994251,Incorrect,d
18,23,126,A,28.724215278144378,37.95396230623152,1.436210763907219,0.5961794457794042,B,570.2845409978181,Incorrect,d
18,23,127,B,82.55810115931243,65.41166249412423,4.127905057965621,1.0274839917531784,A,530.8634999964852,Incorrect,k
18,23,128,A,26.969702453196383,56.185841415522034,1.3484851226598193,0.8825651331338259,B,496.9432079960825,Incorrect,d
18,23,129,B,55.50701916985864,26.998598585439343,2.7753509584929317,0.42409299486618013,A,271.95687500352506,Incorrect,k
18,23,130,A,43.16513954349012,72.21619384018177,2.158256977174506,1.1343693201926577,B,717.2617080068449,Incorrect,d
18,23,131,A,38.476637860093334,62.93264665962636,1.9238318930046665,0.9885437020842219,A,447.95724999858066,Correct,k
18,23,132,A,62.17920207870894,78.89589605182252,3.108960103935447,1.239293837173948,A,801.5340000129072,Correct,k
18,23,133,B,64.7862776969412,44.01760588344364,3.2393138848470597,0.691426936360187,A,616.897792002419,Incorrect,k
18,23,134,A,40.27532692344049,61.9860648489001,2.0137663461720248,0.9736748297712253,B,843.7514169927454,Incorrect,d
18,23,135,A,16.724785533207122,38.43870676836,0.8362392766603561,0.6037937939848602,A,293.9520420040935,Correct,k
18,23,136,A,22.144663857484762,54.124228598680546,1.107233192874238,0.850181394734147,A,381.7516249982873,Correct,k
18,23,137,B,45.509116678320844,36.74856041070589,2.2754558339160424,0.5772450370813716,A,962.2532909997972,Incorrect,k
18,23,138,B,69.22013899601355,56.5791354311509,3.461006949800677,0.8887429810848283,B,656.4735840074718,Correct,d
18,23,139,B,39.81372127020485,12.407597446753076,1.9906860635102424,0.1948980849370947,A,668.6744159960654,Incorrect,k
18,23,140,B,40.34532890726669,32.04333984358067,2.0172664453633344,0.5033356052453707,B,760.8933330047876,Correct,d
18,23,141,B,65.35263895338535,50.2480488153322,3.2676319476692672,0.7892945050773447,A,913.611708994722,Incorrect,k
18,23,142,A,52.85920141929867,77.13455888153926,2.6429600709649335,1.2116268176006653,B,260.18208399182186,Incorrect,d
18,23,143,B,66.52473954375918,35.40892313378263,3.326236977187959,0.5562020639430858,A,332.6036669895984,Incorrect,k
18,23,144,B,73.57374776467537,40.953901734920144,3.6786873882337687,0.6433023841313171,B,285.167583002476,Correct,d
18,23,145,A,41.176284193057654,72.0300247710876,2.0588142096528825,1.131444983293698,B,919.3140840070555,Incorrect,d
18,23,146,A,40.49665727952114,70.5026566065908,2.024832863976057,1.1074531402691477,A,420.5752090056194,Correct,k
18,23,147,A,17.661428103691335,39.37843794697734,0.8830714051845667,0.6185550568203279,B,549.9035420070868,Incorrect,d
18,23,148,B,76.01728592721474,59.89147952369201,3.800864296360737,0.9407731604212717,A,391.3764579920098,Incorrect,k
18,23,149,B,33.34461025623385,21.13648858386025,1.6672305128116927,0.3320111862886994,B,326.22345798881724,Correct,d
18,23,150,A,34.14710227927264,53.81000494826992,1.707355113963632,0.8452455811755759,B,405.3607920068316,Incorrect,d
18,23,151,B,56.4270465417837,39.727753649008285,2.821352327089185,0.6240420950367477,A,289.63333400315605,Incorrect,k
18,23,152,A,44.419820440339706,56.93818828595324,2.2209910220169853,0.8943829701393156,A,582.3212079994846,Correct,k
18,23,153,A,37.02394688020607,46.710179049941104,1.8511973440103033,0.7337217767557942,A,485.67116699996404,Correct,k
18,23,154,A,36.38843896152122,59.19706941824513,1.819421948076061,0.9298653919920196,A,444.20758400519844,Correct,k
18,23,155,A,37.6750186675049,56.23526968368606,1.8837509333752451,0.8833415505545448,A,305.1785420102533,Correct,k
18,23,156,B,44.23710888324314,23.883929091089218,2.2118554441621567,0.3751678808571271,A,497.4629999924218,Incorrect,k
18,23,157,B,55.74316308768134,47.40845514981835,2.787158154384067,0.7446902720835525,B,196.58899999922141,Correct,d
18,23,158,A,30.820189369170535,59.45831522153118,1.5410094684585267,0.9339690314739427,B,409.24179200374056,Incorrect,d
18,23,159,B,66.21336176799944,54.381332821946906,3.3106680883999724,0.8542199784292493,A,850.2589590061689,Incorrect,k
18,23,160,A,20.262539543701443,47.969128369530715,1.0131269771850722,0.7534973064241172,B,480.70633299357723,Incorrect,d
18,23,161,A,22.71827394395607,40.00900032820451,1.1359136971978034,0.6284599075427945,A,566.3581250119023,Correct,k
18,23,162,A,57.67884439717414,68.29622097497958,2.8839422198587066,1.072794530414705,A,987.3253749974538,Correct,k
18,23,163,A,60.3637539112706,83.63639417165027,3.01818769556353,1.3137574075119833,A,625.2062919957098,Correct,k
18,23,164,B,79.25916668035916,56.68961919300263,3.9629583340179577,0.8904784559576999,A,463.3684589935001,Incorrect,k
18,23,165,B,63.54193936429293,47.411453348775524,3.177096968214647,0.7447373676826419,B,345.4928329883842,Correct,d
18,23,166,A,22.65503833606555,45.4205015937092,1.1327519168032776,0.7134635706458015,B,484.307999999146,Incorrect,d
18,23,167,A,45.579142937540446,72.69602295116218,2.278957146877022,1.1419064582428304,A,964.0258330036886,Correct,k
18,23,168,B,46.528752458263874,32.11778182366471,2.326437622913194,0.5045049371341241,B,412.1933749993332,Correct,d
18,23,169,A,48.85823419326504,61.5270299187251,2.442911709663252,0.966464325949331,A,829.2784999939613,Correct,k
18,23,170,B,71.51458688711863,51.37537237605554,3.5757293443559313,0.8070024621602803,A,528.7959999986924,Incorrect,k
18,23,171,A,39.46719342540542,67.35128473960488,1.9733596712702708,1.0579515067388852,B,459.30495799984783,Incorrect,d
18,23,172,A,30.69759861899262,62.03389717777668,1.5348799309496313,0.9744261782362389,A,557.9735829960555,Correct,k
18,23,173,B,73.17689352459979,63.102212938120715,3.6588446762299895,0.9912072429582943,A,672.2821250004927,Incorrect,k
18,23,174,B,83.79651838407001,64.62434753915856,4.189825919203501,1.0151168773602708,B,581.7712910065893,Correct,d
18,23,175,B,30.010689663409376,13.158069047676118,1.5005344831704688,0.20668646527803272,A,1520.894582994515,Incorrect,k
18,23,176,A,34.1344996000804,43.40035408398096,1.70672498000402,0.6817311677671517,B,1161.6588750039227,Incorrect,d
18,23,177,A,42.09674151882112,73.10771777772024,2.104837075941056,1.148373345456009,A,362.87199999787845,Correct,k
18,23,178,B,55.24701345494487,47.608714986662086,2.7623506727472438,0.7478359462447396,A,276.43508299661335,Incorrect,k
18,23,179,A,60.48989334001776,72.34348908604748,3.024494667000888,1.1363688692389007,B,571.6091670037713,Incorrect,d
18,23,180,B,43.6013830139662,25.431890526330506,2.18006915069831,0.3994832022220989,A,407.5063750060508,Incorrect,k
18,23,181,B,41.20381572277141,30.329895028088483,2.0601907861385707,0.47642087702196184,B,334.3305419984972,Correct,d
18,23,182,B,38.32612732576725,13.77946433949187,1.9163063662883628,0.21644731969675096,A,1185.3935830004048,Incorrect,k
18,23,183,B,54.113628165480414,24.52766685486375,2.705681408274021,0.38527969000468915,B,292.3864170006709,Correct,d
18,23,184,A,46.23419684532303,77.7287958337635,2.3117098422661515,1.2209610698186617,A,757.6418750104494,Correct,k
18,23,185,A,68.43121701320634,87.43483840870115,3.421560850660317,1.373423230062931,B,252.4960419978015,Incorrect,d
18,23,186,A,43.365503789923196,75.23877361635269,2.1682751894961596,1.1818478922911957,A,476.95275000296533,Correct,k
18,23,187,B,59.730358407305964,51.47918959871026,2.986517920365298,0.8086332192803212,A,1741.2732080119895,Incorrect,k
18,23,188,A,57.249877293766914,80.81460322464955,2.862493864688346,1.2694328189666653,B,3208.136832996388,Incorrect,d
18,23,189,B,64.12331148927683,39.69064410005382,3.2061655744638413,0.6234591796048807,A,369.2442079918692,Incorrect,k
18,23,190,B,65.96552756187349,45.252395197153525,3.2982763780936746,0.7108229615435977,B,514.5702500012703,Correct,d
18,23,191,A,62.190084211394385,87.63695480705461,3.1095042105697193,1.3765980670241171,B,655.2769580011955,Incorrect,d
18,23,192,B,53.92847411814709,45.80785838552209,2.696423705907355,0.719548156903189,A,385.0348749983823,Incorrect,k
18,23,193,A,14.166592206062539,40.170768577584354,0.708329610303127,0.6310009572619736,A,767.6959580130642,Correct,k
18,23,194,B,36.99904838139541,22.166188790921137,1.8499524190697707,0.3481856793182113,A,489.54704200150445,Incorrect,k
18,23,195,A,44.957313889831354,70.55056382655715,2.247865694491568,1.1082056651206487,B,477.98066699760966,Incorrect,d
18,23,196,A,39.55070370701083,59.69984677511915,1.9775351853505416,0.9377630002457532,A,431.80649999703746,Correct,k
18,23,197,A,37.650842498944336,67.45581252499886,1.882542124947217,1.0595934253523338,A,471.2770839978475,Correct,k
18,23,198,A,16.222022023928364,37.27039108887755,0.8111011011964182,0.5854419342061811,A,396.5758749982342,Correct,k
18,23,199,B,77.5840950670415,47.52199388704295,3.8792047533520755,0.7464737343973661,A,392.20287499483675,Incorrect,k
18,23,200,B,63.61610780202697,32.4177400372501,3.1808053901013484,0.509216669735043,B,1943.4947910049232,Correct,d
18,23,201,B,67.48705285371999,34.35410246771723,3.3743526426859995,0.5396329796662572,B,659.489042009227,Correct,d
18,23,202,B,77.71358374918847,58.58563994538608,3.885679187459424,0.920261080291408,B,1566.1388329899637,Correct,d
18,23,203,B,55.04238390313123,38.9170004597085,2.7521191951565616,0.6113068137198541,B,540.2343329915311,Correct,d
18,23,204,A,32.98978503304721,44.88827326742266,1.6494892516523607,0.7051033476463306,A,1914.9732499936363,Correct,k
18,23,205,B,54.651685267436086,31.886095914999334,2.732584263371804,0.5008656233911071,A,602.5860000081593,Incorrect,k
18,23,206,B,74.24141128574287,42.490178377392326,3.7120705642871434,0.6674341612006781,B,334.4547500018962,Correct,d
18,23,207,B,47.551556965251564,24.80830411736635,2.377577848262578,0.3896879298156977,B,354.45258299296256,Correct,d
18,23,208,B,44.01039449409746,27.56174931300183,2.200519724704873,0.4329389458090504,B,565.5616659933003,Correct,d
18,23,209,A,42.59888715319886,55.80703629606965,2.129944357659943,0.8766148762317568,B,475.7630829990376,Incorrect,d
18,23,210,A,56.966588164675585,79.62737331216438,2.8483294082337793,1.2507838551107378,A,485.06820799957495,Correct,k
18,23,211,A,39.6174597357896,54.348271728972826,1.98087298678948,0.8537006559952144,A,498.71166599041317,Correct,k
18,23,212,A,34.82658133222238,62.764849881433406,1.7413290666111192,0.9859079564558868,A,331.30845898995176,Correct,k
18,23,213,A,35.525701485795906,67.27202067368171,1.7762850742897953,1.0567064297028956,B,430.94270800065715,Incorrect,d
18,23,214,A,46.54205716853226,56.40847585529984,2.327102858426613,0.886062266736036,B,980.4744160064729,Incorrect,d
18,23,215,A,53.36530826093962,82.96610403862064,2.668265413046981,1.3032285147234854,A,330.84641699679196,Correct,k
18,23,216,A,50.44000301343753,78.36484708549011,2.522000150671877,1.2309521395173162,A,355.47941700497176,Correct,k
18,23,217,B,34.54189913682107,20.959519389503594,1.7270949568410539,0.32923136068418657,B,718.6013339960482,Correct,d
18,23,218,B,34.95383161222976,23.717830667271464,1.747691580611488,0.3725588129169337,B,921.5559160074918,Correct,d
18,23,219,B,38.82595633581133,14.86776651233204,1.9412978167905663,0.23354233025215337,B,605.8150000026217,Correct,d
18,23,220,B,45.35611998192054,15.749960534948329,2.267805999096027,0.2473998015546142,A,1478.165499996976,Incorrect,k
18,23,221,A,33.851341798725386,67.11129920601306,1.6925670899362695,1.0541818227923856,B,361.69933300698176,Incorrect,d
18,23,222,A,37.10382097075015,62.81427441687627,1.8551910485375074,0.9866843152431589,A,481.75541700038593,Correct,k
18,23,223,B,76.91249406427258,60.14757749008911,3.8456247032136286,0.9447959378704338,B,1074.1385000001173,Correct,d
18,23,224,B,60.8418544021537,40.37150929610958,3.042092720107685,0.6341541850949495,B,537.2813750000205,Correct,d
18,23,225,B,55.524473417167194,23.92415274794042,2.7762236708583594,0.37579971258144845,B,316.33220899675507,Correct,d
18,23,226,A,53.23330276536106,72.01391128133432,2.6616651382680527,1.131191873188535,B,337.716541995178,Incorrect,d
18,23,227,A,61.83815652020584,82.55906732388804,3.0919078260102926,1.2968347969597591,A,436.5482089924626,Correct,k
18,23,228,B,77.76382403589712,54.085248054899665,3.888191201794856,0.849569089784272,B,621.7482919892063,Correct,d
18,23,229,B,45.30267081407132,25.492159406446312,2.265133540703566,0.4004299035771584,B,730.7239170040702,Correct,d
18,23,230,B,64.93189704001716,48.24203453460254,3.246594852000858,0.7577841064406621,A,604.2290420009522,Incorrect,k
18,23,231,A,33.70881971681151,46.231255520748675,1.6854409858405757,0.7261988635510831,B,287.0354589977069,Incorrect,d
18,23,232,B,67.42660422647046,47.1565450955529,3.3713302113235226,0.740733278204324,A,339.8424999904819,Incorrect,k
18,23,233,A,23.573548054681474,42.45334919457646,1.1786774027340738,0.6668556497498178,B,527.5648749957327,Incorrect,d
18,23,234,B,67.49029520645325,47.965326662865635,3.3745147603226626,0.7534375893554665,A,436.0015419952106,Incorrect,k
18,23,235,A,44.32040081543228,71.5404652258245,2.216020040771614,1.1237549999392318,A,354.18945900164545,Correct,k
18,23,236,B,49.796834114667845,25.78394055521712,2.489841705733392,0.40501319114433026,A,323.74783299746923,Incorrect,k
18,23,237,B,76.82706316056391,45.22928707128506,3.8413531580281957,0.7104599799512646,B,755.483250002726,Correct,d
18,23,238,B,56.00964838793301,33.923984749763115,2.8004824193966504,0.5328767063517399,B,467.7547089959262,Correct,d
18,23,239,B,55.349679827130316,40.33550554722081,2.767483991356516,0.6335886395298962,B,322.66395799524616,Correct,d
18,23,240,B,55.872544694790236,32.70816001767578,2.7936272347395117,0.5137785761198482,B,533.0254589935066,Correct,d
18,23,241,A,53.55297929844747,62.97658634064969,2.677648964922373,0.9892339049797418,B,500.00466698838864,Incorrect,d
18,23,242,A,57.445292335506295,85.30883054089236,2.8722646167753147,1.3400279765680203,A,450.7389579957817,Correct,k
18,23,243,B,36.18145216693959,13.833985105111307,1.8090726083469797,0.2173037298804415,A,276.65420800622087,Incorrect,k
18,23,244,A,53.12155277630569,62.28574877758111,2.6560776388152845,0.9783822539149412,B,219.25187499437016,Incorrect,d
18,23,245,B,43.374617467086715,25.596842305875242,2.168730873354336,0.40207425871617036,A,2871.2547499890206,Incorrect,k
18,23,246,A,42.75815174549879,64.95525490204656,2.1379075872749396,1.0203147580616094,A,595.7329160009976,Correct,k
18,23,247,A,58.99297910464088,84.17624460719368,2.949648955232044,1.3222373583236855,A,364.74429100053385,Correct,k
18,23,248,B,65.61277096083175,44.970825443643086,3.280638548041588,0.7064000741980903,A,475.01804199418984,Incorrect,k
18,23,249,A,27.648853391556944,49.181939389614456,1.3824426695778473,0.7725480973785562,A,686.416915996233,Correct,k
18,23,250,A,23.732927000751395,37.97389839397775,1.18664635003757,0.5964926011134287,B,866.8969579885015,Incorrect,d
18,23,251,A,47.66727618305963,55.00472128087644,2.3833638091529816,0.8640121414437778,A,1020.8594159921631,Correct,k
18,23,252,A,51.65136355503702,77.76042144397454,2.582568177751851,1.2214578437421832,B,729.5558339974377,Incorrect,d
18,23,253,A,56.06659098625707,78.2479952990911,2.8033295493128536,1.2291166359487664,B,487.35779100388754,Incorrect,d
18,23,254,A,66.44742261490167,88.17503830473403,3.322371130745083,1.3850502628407553,A,575.4794999957085,Correct,k
18,23,255,A,47.14722166558875,65.4451249399229,2.3573610832794376,1.02800961862264,A,887.2288749989821,Correct,k
18,23,256,B,44.15918071277506,34.60610955497782,2.207959035638753,0.5435914977362093,A,413.355540993507,Incorrect,k
18,23,257,B,56.381875710512475,41.472531142314885,2.8190937855256237,0.6514489958123518,B,397.9099169955589,Correct,d
18,23,258,A,57.94892612199063,69.20206535875352,2.8974463060995315,1.0870235007215037,B,285.7949580065906,Incorrect,d
18,23,259,A,25.41306420498219,45.94209185037625,1.2706532102491095,0.7216566912384478,A,324.339124999824,Correct,k
18,23,260,B,77.48831972403399,53.412402960483604,3.8744159862016994,0.8390000637561651,B,628.2955829956336,Correct,d
18,23,261,A,64.32976023959382,83.81602271778658,3.2164880119796915,1.3165790061165674,B,526.4973330049543,Incorrect,d
18,23,262,B,62.87367195412711,38.94647308985248,3.1436835977063553,0.6117697687115656,A,292.6646669948241,Incorrect,k
18,23,263,B,55.15740827983795,36.21118636894856,2.7578704139918977,0.5688039853722983,B,372.60962500295136,Correct,d
18,23,264,A,42.95428660692134,64.67289799185043,2.1477143303460675,1.015879506087797,B,342.10287500172853,Incorrect,d
18,23,265,A,13.825156539044464,32.50261422305354,0.6912578269522232,0.5105498703280406,A,3136.577582990867,Correct,k
18,23,266,B,50.05818824646757,38.969942302551594,2.502909412323379,0.612138422242571,B,341.811249993043,Correct,d
18,23,267,A,18.873273415898225,50.023653773378996,0.9436636707949113,0.7857697160008339,B,392.60020898655057,Incorrect,d
18,23,268,A,64.73394083068219,83.24651416380952,3.236697041534109,1.3076331866699131,B,3402.8082079894375,Incorrect,d
18,23,269,B,67.7893778605824,38.33864201440869,3.3894688930291204,0.6022219805053767,A,447.8813750029076,Incorrect,k
18,23,270,B,55.03452710321926,25.023199986892003,2.751726355160963,0.39306350624064057,B,284.90262500417884,Correct,d
18,23,271,A,18.195674555766566,37.361142949558854,0.9097837277883284,0.586867461100261,B,396.99083400773816,Incorrect,d
18,23,272,A,16.71352758714558,45.783115821459674,0.835676379357279,0.7191595016157417,A,493.2688330009114,Correct,k
18,23,273,B,41.20398889854118,23.338021221836417,2.060199444927059,0.3665927800992198,A,609.109291995992,Incorrect,k
18,23,274,A,29.961509296500147,48.980093057368876,1.4980754648250072,0.7693775026058725,B,321.65066699963063,Incorrect,d
18,23,275,A,15.11829093648712,43.41214947532673,0.755914546824356,0.6819164493411423,A,478.7039590009954,Correct,k
18,23,276,A,51.412348185380466,59.1700161047355,2.570617409269023,0.929440439537134,B,438.75258399930317,Incorrect,d
18,23,277,B,32.72285508112876,20.443644824986382,1.6361427540564382,0.321128021973881,A,424.97387500770856,Incorrect,k
18,23,278,A,49.529601808176395,66.37643480307327,2.4764800904088196,1.0426385997440841,B,314.3080410081893,Incorrect,d
18,23,279,B,70.80371297643671,61.169288766566915,3.5401856488218355,0.9608449410717963,A,130.1874589989893,Incorrect,k
18,23,280,A,49.6163050580414,75.07499094827553,2.48081525290207,1.1792752001571132,B,255.3031660063425,Incorrect,d
18,23,281,B,76.2415693397858,43.79975726197767,3.8120784669892895,0.6880049782162262,B,296.867042008671,Correct,d
18,23,282,A,54.76099720787927,63.54656168515543,2.7380498603939634,0.9981870567548747,B,276.22949999931734,Incorrect,d
18,23,283,A,39.19084574547111,59.42191296418985,1.9595422872735555,0.9333972261527546,B,1495.5150419991696,Incorrect,d
18,23,284,A,23.152614824708728,40.45743611069314,1.1576307412354365,0.6355039203421599,A,425.4332919954322,Correct,k
18,23,285,A,52.479994536184805,82.34150449105596,2.62399972680924,1.293417327973162,A,578.5799589939415,Correct,k
18,23,286,A,55.8855956262465,77.39348963978196,2.794279781312325,1.2156940924400839,A,356.295958001283,Correct,k
18,23,287,B,81.7078948428732,68.53558618986987,4.08539474214366,1.0765544704178263,B,413.1739580043359,Correct,d
18,23,288,A,46.877811372026024,68.97054314109974,2.343890568601301,1.0833867582308843,B,1461.4920409949264,Incorrect,d
18,23,289,A,46.620982371133934,73.88672617864441,2.331049118556697,1.1606099808031496,A,261.15500000014435,Correct,k
18,23,290,A,10.93019565257023,35.791922383425025,0.5465097826285116,0.5622182020881207,B,289.9208750022808,Incorrect,d
18,23,291,A,25.47246404501246,48.2087418774915,1.273623202250623,0.7572611466056696,A,461.30225001252256,Correct,k
18,23,292,A,16.34069746213574,34.38830525724449,0.8170348731067869,0.5401702358278128,A,363.8856250036042,Correct,k
18,23,293,A,47.39641691601149,58.254420528149765,2.3698208458005747,0.9150582978518287,A,489.25475000578444,Correct,k
18,23,294,B,41.509695443313674,23.322963892086833,2.0754847721656837,0.3663562601166,A,414.58466699987184,Incorrect,k
18,23,295,B,64.47792919705338,55.80854506360183,3.2238964598526696,0.8766385758967319,B,291.51862500293646,Correct,d
18,23,296,A,34.87142546688137,42.51430478645946,1.7435712733440685,0.6678131379480922,B,300.83641700912267,Incorrect,d
18,23,297,A,50.98214488722195,61.15301450268658,2.5491072443610974,0.9605893055325511,A,398.7155830109259,Correct,k
18,23,298,A,44.79260431033937,63.711145365601155,2.2396302155169683,1.00077233116182,A,347.5239999970654,Correct,k
18,23,299,B,67.46919165673533,44.15438615856074,3.373459582836767,0.6935754758975062,A,505.81820801016875,Incorrect,k
18,23,300,B,48.873591452693,38.1404012048022,2.44367957263465,0.5991080211498695,B,311.39666700619273,Correct,d
18,23,301,B,88.29328845358748,61.856504973812804,4.414664422679374,0.9716397080123541,B,399.5383750007022,Correct,d
18,23,302,B,42.3946266057426,33.510645437867815,2.11973133028713,0.5263839876232892,B,419.34533399762586,Correct,d
18,23,303,B,65.83845404617651,54.53797980698014,3.2919227023088253,0.8566805835161865,A,388.54558300226927,Incorrect,k
18,23,304,A,43.173127720328615,64.67103345921936,2.1586563860164305,1.015850218077716,A,527.3482909979066,Correct,k
18,23,305,B,52.84807746199076,27.867755542695278,2.642403873099538,0.4377456804248387,B,220.8020419930108,Correct,d
18,23,306,A,34.36176099322842,61.00740117241307,1.718088049661421,0.958302016689291,B,297.330041998066,Incorrect,d
18,23,307,B,67.49329063984749,51.676651627590324,3.3746645319923743,0.8117349455767839,A,300.43170899443794,Incorrect,k
18,23,308,B,80.12195822003214,50.268522516713254,4.006097911001607,0.7896161052265973,B,476.92037500382867,Correct,d
18,23,309,B,72.57526061832837,51.962115890681545,3.6287630309164185,0.816219007735733,B,385.54566699895076,Correct,d
18,23,310,B,67.84309903282956,57.98222110709048,3.392154951641478,0.9107825993442724,B,330.12924999638926,Correct,d
18,23,311,B,87.01048870242062,59.59777902170366,4.350524435121031,0.9361597237242606,B,442.08170799538493,Correct,d
18,23,312,A,21.098762698227503,50.40176669984274,1.0549381349113751,0.791709099960863,B,496.8179580027936,Incorrect,d
18,23,313,B,59.73982369309771,51.89624799463602,2.9869911846548853,0.8151843572441126,A,490.5343749996973,Incorrect,k
18,23,314,A,17.636452270215855,42.010521420511104,0.8818226135107927,0.6598997273407716,A,616.2191660114331,Correct,k
18,23,315,A,48.35329600046953,57.683913318751564,2.417664800023476,0.9060967915625019,A,468.05458300514147,Correct,k
18,23,316,A,66.18819849259862,84.63639024210086,3.309409924629931,1.3294653090547146,B,245.1692920003552,Incorrect,d
18,23,317,A,34.04494570991703,46.8211153361598,1.7022472854958517,0.7354643598648001,A,160.9161249944009,Correct,k
18,23,318,A,46.67620186755858,63.331097746010556,2.333810093377929,0.9948025571132193,A,343.42916699824855,Correct,k
18,23,319,B,60.57033855389962,31.826731025385605,3.0285169276949806,0.49993312188564887,A,334.88358299655374,Incorrect,k
18,23,320,A,22.013341480139015,43.3169562269625,1.1006670740069509,0.6804211572924802,B,242.63462499948218,Incorrect,d
18,23,321,A,41.746221262922056,65.75183204107147,2.0873110631461027,1.0328273625015005,A,440.0138749915641,Correct,k
18,23,322,B,39.01801572025343,20.935380992833068,1.9509007860126715,0.32885219563593876,A,579.0861249988666,Incorrect,k
18,23,323,B,60.596739979841644,41.66969222749875,3.029836998992082,0.6545459948962888,A,205.20012499764562,Incorrect,k
18,23,324,B,52.27207408766846,30.060340883041484,2.6136037043834226,0.4721867304128402,B,293.7754159938777,Correct,d
18,23,325,B,44.47064546719446,19.89134309565022,2.223532273359723,0.31245248669664394,A,402.1378330071457,Incorrect,k
18,23,326,B,69.71294906726092,55.878553701261495,3.485647453363046,0.8777382690055292,B,290.8205830026418,Correct,d
18,23,327,B,46.938206772430284,24.26292704765194,2.346910338621514,0.3811211668374421,B,510.3006249992177,Correct,d
18,23,328,A,26.30984352348262,51.11562346177483,1.315492176174131,0.8029223357558695,B,297.115000008489,Incorrect,d
18,23,329,A,69.77208831574686,87.7873507306411,3.4886044157873424,1.378960480667463,A,346.7689579993021,Correct,k
18,23,330,A,36.21353776590434,67.39957948420387,1.810676888295217,1.058710118813081,B,420.7165830011945,Incorrect,d
18,23,331,A,34.268466142337346,50.79923957180294,1.7134233071168672,0.7979525892336201,B,617.9535000119358,Incorrect,d
18,23,332,B,79.94745967860891,57.50360410761496,3.997372983930445,0.9032645010970951,A,296.95716699643526,Incorrect,k
18,23,333,A,55.73146686449954,78.48557959486192,2.786573343224977,1.2328486013397757,B,368.56895800156053,Incorrect,d
18,23,334,A,30.052519033687673,42.84261851117178,1.5026259516843836,0.6729702778762368,A,1494.3395830050576,Correct,k
18,23,335,B,66.78217754085146,48.759209761441724,3.339108877042573,0.7659078759069453,B,983.1333330075722,Correct,d
18,23,336,A,27.729199344505872,50.09538458720996,1.3864599672252935,0.7868964609896709,B,835.748166005942,Incorrect,d
18,23,337,B,56.588104268894526,36.237170218961985,2.8294052134447263,0.5692121387338691,A,851.2097080092644,Incorrect,k
18,23,338,B,51.489002760148665,20.8417222279662,2.574450138007433,0.32738100719768853,B,1430.5719580006553,Correct,d
18,23,339,B,61.7946487349274,52.31047455570762,3.08973243674637,0.8216910128500343,B,1463.2224999950267,Correct,d
18,23,340,B,82.66069449963395,62.13298421128759,4.133034724981697,0.9759826337189585,B,3201.4939580112696,Correct,d
18,23,341,A,50.47667289120499,73.23865006339362,2.52383364456025,1.150430024989955,A,1977.760333000333,Correct,k
18,23,342,B,60.21127584398249,32.739371477226435,3.0105637921991244,0.5142688445800089,A,858.458458998939,Incorrect,k
18,23,343,B,43.68376342073442,19.665177257854396,2.184188171036721,0.3088998820240822,A,827.9563749965746,Incorrect,k
18,23,344,B,78.71135823416665,60.0240298427895,3.9355679117083326,0.94285525596481,B,2472.8935419989284,Correct,d
18,23,345,A,30.206759634675134,58.54320689505103,1.5103379817337566,0.919594543495398,A,1526.2253340042662,Correct,k
18,23,346,A,40.61774092706346,65.14430919867738,2.030887046353173,1.023284416008734,B,763.3621669956483,Incorrect,d
18,23,347,B,56.464665738569835,47.67895184855128,2.8232332869284913,0.7489392242913508,A,263.7684579967754,Incorrect,k
18,23,348,A,45.57046320639226,63.84011216628494,2.2785231603196134,1.0027981369297456,B,364.9392090010224,Incorrect,d
18,23,349,B,48.5804138864053,35.4358887944522,2.4290206943202652,0.5566256395503795,A,128.2347079977626,Incorrect,k
18,23,350,A,38.563328473047925,49.30849779749841,1.9281664236523963,0.7745360722008475,A,457.2827500087442,Correct,k
18,23,351,A,40.60518452111903,57.51466023040002,2.0302592260559518,0.9034381702676888,A,3541.0764170082984,Correct,k
18,23,352,B,42.27210816306504,16.977299600048745,2.1136054081532523,0.26667879850653037,A,295.08037499908824,Incorrect,k
18,23,353,B,57.22605341564469,46.822234754576236,2.861302670782235,0.735481943648167,B,243.1053750042338,Correct,d
18,23,354,A,28.76444360971637,55.409204060821864,1.4382221804858184,0.8703657420936785,B,344.0121660096338,Incorrect,d
18,23,355,A,45.77766731086065,70.95629408215586,2.2888833655430325,1.114578861072289,A,410.6831249955576,Correct,k
18,23,356,B,40.49186854471807,30.39244636784612,2.024593427235904,0.4774034311692358,A,395.9210000029998,Incorrect,k
18,23,357,B,42.87967378540504,33.90924532524968,2.143983689270252,0.5326451800128921,B,258.2092500088038,Correct,d
18,23,358,A,43.495976069539275,52.088857420208065,2.1747988034769636,0.8182098590260592,A,885.5462499923306,Correct,k
18,23,359,A,52.36964429108715,68.38525468112786,2.6184822145543576,1.0741930686004915,A,339.76237499155104,Correct,k
18,23,360,B,66.85738781013907,45.65167170288515,3.3428693905069538,0.7170947822293852,B,640.4231659980724,Correct,d
18,23,361,B,70.26730974700169,58.94616971139456,3.5133654873500846,0.9259242686128717,B,576.7840420012362,Correct,d
18,23,362,A,38.911255989772144,69.4085070376669,1.945562799488607,1.0902662790308488,A,734.0492910007015,Correct,k
18,23,363,B,72.98458471865037,60.868842956155135,3.649229235932518,0.956125549317839,B,300.81970800529234,Correct,d
18,23,364,A,53.5230871646845,66.6729200564012,2.676154358234225,1.0472957792128479,B,226.3031670008786,Incorrect,d
18,23,365,B,36.00297197980099,17.401576109680253,1.8001485989900494,0.2733433183352757,A,216.91270801238716,Incorrect,k
18,23,366,A,16.47478667774,44.59388129247162,0.8237393338869999,0.7004790493174209,B,266.280874988297,Incorrect,d
18,23,367,B,60.9105191095045,40.78632106120468,3.045525955475225,0.6406700330641765,A,248.06479200196918,Incorrect,k
18,23,368,A,56.72397655743997,82.8103258188411,2.8361988278719985,1.300781556169242,B,287.2884999960661,Incorrect,d
18,23,369,A,40.65362383689236,57.607681178810786,2.032681191844618,0.9048993399084749,A,257.20241699309554,Correct,k
18,23,370,A,51.04627012449009,79.6802296471565,2.552313506224505,1.2516141204792726,B,251.06466699799057,Incorrect,d
18,23,371,A,44.258983773897185,72.02918157886255,2.212949188694859,1.1314317384611992,A,239.01379099697806,Correct,k
18,23,372,A,63.85557129523962,88.88732777826822,3.1927785647619813,1.396238879727177,A,300.0937500037253,Correct,k
18,23,373,B,63.16824668895945,45.09469217053124,3.158412334447972,0.7083457681941705,B,253.5723750042962,Correct,d
18,23,374,B,46.34318277185727,33.529823563152874,2.3171591385928636,0.5266852369108149,A,274.9529580032686,Incorrect,k
18,23,375,B,58.76434805689548,29.22623692155649,2.9382174028447743,0.4590846560241833,B,288.4980839880882,Correct,d
18,23,376,A,34.97148907254952,52.27879818905664,1.7485744536274757,0.8211934416462185,B,294.0593329985859,Incorrect,d
18,23,377,B,81.60298693009133,62.897490955531865,4.080149346504567,0.9879914775756469,A,288.24237499793526,Incorrect,k
18,23,378,A,57.42010644040617,82.55615148420982,2.871005322020309,1.2967889950571982,B,348.2158749975497,Incorrect,d
18,23,379,B,53.335065123468354,26.645370246597025,2.6667532561734175,0.41854449709444635,B,483.5451669932809,Correct,d
18,23,380,B,62.40561066990832,29.361999674210395,3.120280533495416,0.4612172123560264,B,409.1917920013657,Correct,d
18,23,381,B,76.96228388856227,57.90397053657793,3.848114194428114,0.9095534422569653,B,75.73420899279881,Correct,d
18,23,382,B,70.09308009457837,56.65219465709719,3.504654004728918,0.8898905927223774,B,478.3428329974413,Correct,d
18,23,383,B,54.498226301832005,30.042811763095237,2.7249113150916004,0.47191138364060514,B,361.49495899735484,Correct,d
18,23,384,B,53.61607183291413,32.30528705384114,2.6808035916457067,0.5074502624022839,B,429.43179099529516,Correct,d
18,23,385,A,27.62071079038674,58.584626210590926,1.3810355395193372,0.9202451565824826,B,688.0368330021156,Incorrect,d
18,23,386,B,67.26725713228235,41.93615935271699,3.3633628566141174,0.658731650711333,A,364.1704170004232,Incorrect,k
18,23,387,B,73.06414970958124,60.21725981403833,3.653207485479062,0.9458905052554533,B,333.8012080057524,Correct,d
18,23,388,B,62.391697108526486,49.304385932672204,3.1195848554263246,0.7744714831791947,B,359.27975000231527,Correct,d
18,23,389,A,53.64714825386076,66.74267699209598,2.6823574126930385,1.048391518596426,B,455.33820800483227,Incorrect,d
18,23,390,A,17.29765069204878,41.32588746306746,0.8648825346024389,0.6491455222852563,A,497.4614160018973,Correct,k
18,23,391,A,44.76781778797106,65.62394089319375,2.2383908893985534,1.0308184530483415,A,496.52816700108815,Correct,k
18,23,392,B,55.83731683476069,28.288489027728073,2.7918658417380344,0.44435454655333,B,524.5982500055106,Correct,d
18,23,393,B,38.33688568271843,17.978502153110135,1.9168442841359217,0.2824056514337953,A,420.236959005706,Incorrect,k
18,23,394,B,62.11454522767208,38.06736898082752,3.105727261383604,0.5979608336582984,B,426.31845800497103,Correct,d
18,23,395,A,35.11494437525981,63.81482467231175,1.7557472187629906,1.0024009219032766,B,457.62087499315385,Incorrect,d
18,23,396,A,43.16068613507175,70.27917714220527,2.1580343067535877,1.1039427330514389,A,338.1166250037495,Correct,k
18,23,397,A,44.036381817867216,56.99199918785657,2.201819090893361,0.8952282298098282,B,228.38025000237394,Incorrect,d
18,23,398,B,62.39743031569229,36.260954448991185,3.119871515784615,0.5695857405455242,A,271.2100409989944,Incorrect,k
18,23,399,B,65.37485787866868,48.482735869649666,3.2687428939334335,0.7615650341701288,B,243.7795829901006,Correct,d
18,23,400,B,71.25680527275466,57.15225579519465,3.562840263637733,0.897745534711341,B,332.9954170039855,Correct,d
18,23,401,B,66.22810608367038,33.07260844597124,3.311405304183519,0.5195033186445749,B,374.3197500007227,Correct,d
18,23,402,A,12.423872882694525,33.641442591829744,0.6211936441347262,0.5284385445132754,B,263.2807089976268,Incorrect,d
18,23,403,B,72.71602557986581,48.25276246443038,3.6358012789932905,0.7579526203683391,A,455.6427920033457,Incorrect,k
18,23,404,B,46.96232753745353,20.676585627230907,2.3481163768726763,0.3247870475391446,B,515.2333750011167,Correct,d
18,23,405,B,62.46822326263498,43.13247471527137,3.123411163131749,0.6775233284832203,A,232.96245899109636,Incorrect,k
18,23,406,B,85.87701736969898,63.73751464390459,4.293850868484949,1.0011865388168124,B,317.30316700122785,Correct,d
18,23,407,A,47.285129266547095,57.8390586157691,2.364256463327355,0.9085338081892481,B,337.645916006295,Incorrect,d
18,23,408,B,78.72068277477888,50.05855391074743,3.936034138738944,0.7863179260766636,B,671.2241670029471,Correct,d
18,23,409,B,48.6445913066773,20.070890872404,2.4322295653338646,0.31527281657873424,B,536.9491250021383,Correct,d
18,23,410,A,39.09500450076335,58.9849566000972,1.9547502250381676,0.9265335316358908,B,367.4882499908563,Incorrect,d
18,23,411,A,42.669703383018955,57.09037211913425,2.1334851691509478,0.8967734682008985,A,482.76674999215174,Correct,k
18,23,412,A,14.830585475879374,40.27446447109499,0.7415292737939687,0.6326298085482758,B,523.0291249899892,Incorrect,d
18,23,413,B,72.98861264676711,55.85958216989387,3.6494306323383556,0.8774402648876699,A,440.725416992791,Incorrect,k
18,23,414,B,57.24021713506234,39.96473410266758,2.8620108567531166,0.6277645752980496,A,585.9660830028588,Incorrect,k
18,23,415,B,62.22996495936814,46.935166281226,3.111498247968407,0.737255867920575,A,562.2334579966264,Incorrect,k
18,23,416,B,75.53210515034768,56.81722223149883,3.7766052575173834,0.8924828397992769,B,386.0589170071762,Correct,d
18,23,417,B,80.54218941615207,54.09565974742411,4.027109470807603,0.8497326362680032,B,419.4330419995822,Correct,d
18,23,418,A,65.08512895970283,80.25786503779088,3.2542564479851417,1.2606875959776247,B,642.3789580003358,Incorrect,d
18,23,419,A,66.50278754559858,86.46084365747632,3.325139377279929,1.3581237562875164,A,339.6093339979416,Correct,k
18,23,420,A,62.14773657295186,81.51699072047779,3.107386828647593,1.2804658959510018,A,281.3705000007758,Correct,k
18,23,421,B,47.638423427756464,39.67299313988792,2.381921171387823,0.6231819189709508,B,330.98975000029895,Correct,d
18,23,422,A,31.31793353603196,44.28614350169726,1.5658966768015978,0.6956451154037773,A,496.8084159918362,Correct,k
18,23,423,B,34.262142222801494,10.128693161631311,1.7131071111400746,0.1591011401352305,B,870.6541249994189,Correct,d
18,23,424,B,60.894923173951895,33.78974688464454,3.0447461586975946,0.5307681028972895,A,458.27245801046956,Incorrect,k
18,23,425,B,45.46780551240673,21.06109910130544,2.2733902756203364,0.3308269710659389,B,175.7554999931017,Correct,d
18,23,426,B,76.43175817652646,56.0393441957859,3.8215879088263227,0.880263960187354,B,670.692333005718,Correct,d
18,23,427,B,30.748060402015433,16.438877179251467,1.5374030201007716,0.25822127889800656,B,350.3329160012072,Correct,d
18,23,428,A,48.834378028034024,56.200555310703024,2.441718901401701,0.8827962584588571,A,421.0145420074696,Correct,k
18,23,429,B,54.026240021198646,31.634755168288322,2.7013120010599323,0.49691757217403165,B,274.74429199355654,Correct,d
18,23,430,B,87.16932288653814,63.62682447930377,4.358466144326907,0.9994478217771398,B,296.02525000518654,Correct,d
18,23,431,B,54.24205993404169,41.62304863198449,2.712102996702084,0.6538133190112659,A,433.9173329935875,Incorrect,k
18,23,432,A,29.911186127427488,61.07827265130204,1.4955593063713744,0.9594152632764245,B,281.12062500440516,Incorrect,d
18,23,433,A,49.23948335841166,67.35581430009381,2.461974167920583,1.0580226569086653,A,288.1132080074167,Correct,k
18,23,434,B,57.94059577698605,46.804564710766805,2.8970297888493026,0.7352043832490653,B,266.6379590082215,Correct,d
18,23,435,A,59.51292959888663,69.09967118545221,2.975646479944331,1.0854150968084348,A,280.80058298655786,Correct,k
18,23,436,A,28.094758615745988,52.34959584996524,1.4047379307872996,0.8223055287032275,B,385.95504200202413,Incorrect,d
18,23,437,B,78.51924370942486,63.5555380007002,3.925962185471243,0.9983280563897333,B,591.9554160063853,Correct,d
18,23,438,A,55.78106013238826,76.69702887290336,2.789053006619413,1.2047541122963872,B,324.97408300696407,Incorrect,d
18,23,439,A,20.585082814362707,33.274989558786714,1.0292541407181353,0.5226823137308071,A,362.78120800852776,Correct,k
18,23,440,A,26.194527154454004,56.96671079812198,1.3097263577227003,0.8948310007127718,A,814.2661669990048,Correct,k
18,23,441,A,60.26988304628915,86.85788458551113,3.013494152314457,1.3643604606009594,B,449.3774580041645,Incorrect,d
18,23,442,A,20.55957353678986,36.912487798566325,1.027978676839493,0.5798200024684943,B,524.5842919975985,Incorrect,d
18,23,443,A,48.51516971983412,76.08119733082876,2.425758485991706,1.195080653054235,A,553.9575000002515,Correct,k
18,23,444,A,37.13818191756661,70.07207403238608,1.8569090958783305,1.100689565009721,A,769.4669580087066,Correct,k
18,23,445,A,53.993886500689854,83.39139431545593,2.699694325034493,1.30990895877023,A,2087.4168750015087,Correct,k
18,23,446,B,54.07183962115585,45.839512996273704,2.7035919810577926,0.7200453863661366,A,785.0006250082515,Incorrect,k
18,23,447,A,44.34758471561361,58.66725244352247,2.2173792357806805,0.9215430464143402,A,728.7192079966189,Correct,k
18,23,448,A,40.38955707160676,53.94314066780713,2.019477853580338,0.8473368721677184,B,237.614959012717,Incorrect,d
18,23,449,A,67.39431515134072,86.72431532009652,3.369715757567036,1.3622623594860999,A,1206.4567909983452,Correct,k
18,23,450,A,30.86790035336336,41.4546646603397,1.543395017668168,0.6511683497697581,A,1129.820040994673,Correct,k
18,23,451,A,58.71113328482947,75.21539117895576,2.935556664241474,1.1814806018234496,A,428.34308299643453,Correct,k
18,23,452,A,26.15344446923153,52.25347123962676,1.3076722234615767,0.8207956068548848,A,1625.714624999091,Correct,k
18,23,453,B,54.45173853418547,47.359974949888944,2.7225869267092735,0.7439287468838387,B,940.8554999972694,Correct,d
18,23,454,A,34.675619603376106,56.21104746631536,1.7337809801688053,0.8829610688538174,A,603.3448339876486,Correct,k
18,23,455,B,49.99702722119887,33.781911387085806,2.4998513610599433,0.5306450231894507,A,2299.8712090047775,Incorrect,k
18,23,456,B,74.77751205362466,55.87726432754688,3.738875602681233,0.8777180155705815,A,1342.154957994353,Incorrect,k
18,23,457,A,25.4615471460555,43.859140630298995,1.273077357302775,0.6889377699845446,A,1255.8047500060638,Correct,k
18,23,458,A,17.050084356238358,45.5114528198537,0.8525042178119179,0.7148922291652542,A,856.3620420027291,Correct,k
18,23,459,A,29.451390407553696,61.961096740505454,1.472569520377685,0.973282631641692,A,603.5385410068557,Correct,k
18,23,460,B,60.995938964288754,41.67464437023107,3.049796948214438,0.6546237829724258,A,778.2962500059512,Incorrect,k
18,23,461,A,52.80281090082107,80.345461451993,2.6401405450410538,1.2620635572343157,A,933.6170419992413,Correct,k
18,23,462,A,20.860978514058658,44.46052738219647,1.043048925702933,0.6983843309931812,A,669.2801659955876,Correct,k
18,23,463,A,12.169565361878483,34.14010328099556,0.6084782680939241,0.5362714883018622,A,900.5239160032943,Correct,k
18,23,464,A,36.21207022013511,52.261208188527675,1.8106035110067555,0.8209171385640265,A,2025.6143339938717,Correct,k
18,23,465,A,38.51236545869746,56.69331332216646,1.9256182729348728,0.8905364832029125,A,552.8319169970928,Correct,k
18,23,466,B,41.06447160557141,28.044269486092734,2.0532235802785705,0.44051835496400665,A,413.0023329926189,Incorrect,k
18,23,467,A,35.17480827849906,48.38710727301962,1.758740413924953,0.7600629036868983,B,700.7404169999063,Incorrect,d
18,23,468,B,84.40845201702416,57.47147594450519,4.220422600851208,0.9027598330911,B,1497.5915000104578,Correct,d
18,23,469,A,69.05675200566269,86.129735366554,3.4528376002831345,1.3529227194159952,B,2257.051707987557,Incorrect,d
18,23,470,A,66.03759425981376,80.46717426060906,3.3018797129906883,1.2639754175612954,A,1125.9796670055948,Correct,k
18,23,471,A,40.74849024171293,68.26316381586695,2.0374245120856465,1.072275269773621,A,961.9577090052189,Correct,k
18,23,472,B,81.0941443752467,64.98729193582,4.054707218762335,1.0208179946113367,A,691.4650420076214,Incorrect,k
18,23,473,B,70.03868309866161,49.985198015811335,3.5019341549330805,0.7851656543735199,B,1062.192999990657,Correct,d
18,23,474,B,48.37792522805442,20.065570930794642,2.4188962614027214,0.31518925113134677,A,882.5556249939837,Incorrect,k
18,23,475,B,42.207164270079446,33.97775337960047,2.110358213503972,0.533721302014193,A,504.25362499663606,Incorrect,k
18,23,476,A,45.10230469965268,57.73583307449721,2.2551152349826338,0.9069123451786352,B,1824.2217500082916,Incorrect,d
18,23,477,B,46.696247060586266,28.95044349170844,2.3348123530293132,0.45475250295858843,A,367.6900830032537,Incorrect,k
18,23,478,A,62.421354179263425,83.30202443498344,3.1210677089631713,1.3085051399705072,A,1111.3783750042785,Correct,k
18,23,479,B,82.81256898470828,66.76560957595703,4.140628449235414,1.0487517427813549,A,483.7041659920942,Incorrect,k
18,23,480,B,87.94633553934662,66.9157639852245,4.3973167769673305,1.051110362726649,A,963.1979580008192,Incorrect,k
18,23,481,A,15.722282230692674,33.61145308523301,0.7861141115346336,0.5279674704452301,A,1459.1686250059865,Correct,k
18,23,482,A,23.58624595270509,43.10671739128341,1.1793122976352546,0.6771187333841368,A,873.7322500091977,Correct,k
18,23,483,A,38.84933707252742,59.44601941714751,1.942466853626371,0.9337758894303341,A,694.4776250020368,Correct,k
18,23,484,A,36.822316575920716,61.1769518544423,1.8411158287960359,0.960965312574662,A,1574.0788330003852,Correct,k
18,23,485,B,56.125967248133655,31.591650380630753,2.806298362406683,0.49624048375283386,A,729.2517919995589,Incorrect,k
18,23,486,B,32.92300890602991,15.669971893748063,1.6461504453014952,0.24614334291678727,A,1195.1120000012452,Incorrect,k
18,23,487,B,49.60437918270378,23.933289018970612,2.480218959135189,0.3759432247911967,A,1653.8150410051458,Incorrect,k
18,23,488,B,40.49585786683577,15.441733311852499,2.0247928933417882,0.24255817965604298,A,524.2062080069445,Incorrect,k
18,23,489,A,41.1817898506647,59.1749449261081,2.059089492533235,0.929517861282209,B,1669.6460830135038,Incorrect,d
18,23,490,B,77.54312491436465,46.65787541168231,3.8771562457182323,0.7329001931272449,B,1211.5556669887155,Correct,d
18,23,491,A,14.537713863757055,38.253121523765685,0.7268856931878528,0.6008786277796994,A,938.5097079939442,Correct,k
18,23,492,A,44.71323502791144,72.48372191047291,2.235661751395572,1.1385716412939362,A,437.92370799928904,Correct,k
18,23,493,A,48.9811373547066,74.34708805797992,2.44905686773533,1.1678413282937157,A,501.03233401023317,Correct,k
18,23,494,B,58.50366889461208,34.40781304135529,2.9251834447306044,0.5404766633840643,A,1514.384334004717,Incorrect,k
18,23,495,A,63.673774323390255,82.27741951011987,3.1836887161695127,1.2924106834465905,B,2267.9904160031583,Incorrect,d
18,23,496,B,71.29294537028215,55.2923069443066,3.5646472685141077,0.8685295264813275,B,2068.1622499978403,Correct,d
18,23,497,B,51.37384789820667,43.47274719432679,2.5686923949103333,0.6828683160853166,B,530.3319169906899,Correct,d
18,23,498,A,44.60628884208137,75.55838087465142,2.2303144421040684,1.186868271364722,B,1042.3907910007983,Incorrect,d
18,23,499,A,40.970921444415104,60.30014077029797,2.048546072220755,0.9471923962719924,A,861.616750000394,Correct,k
18,23,500,A,21.057174376410387,43.26657100250093,1.0528587188205194,0.6796297080373905,B,512.5250419951044,Incorrect,d
18,23,501,A,28.65162154642139,42.83218233419196,1.4325810773210694,0.6728063467915799,A,999.4471249956405,Correct,k
18,23,502,A,40.61409945797406,58.456932374079074,2.0307049728987034,0.9182393464890108,B,629.7740419977345,Incorrect,d
18,23,503,A,56.51856784321106,68.67864312712906,2.8259283921605527,1.078801603533519,A,2766.1643750034273,Correct,k
18,23,504,B,41.02182885220559,29.34318757522866,2.0510914426102795,0.46092171259622833,B,1499.4574169977568,Correct,d
18,23,505,A,24.351139836889782,52.77642095336898,1.217556991844489,0.8290100817493321,A,1636.8109160102904,Correct,k
18,23,506,B,88.3152411313495,67.80358799536808,4.415762056567474,1.0650562696663872,B,5305.125875005615,Correct,d
18,23,507,B,67.42985801995349,53.74259015186478,3.371492900997674,0.8441866320299278,B,567.2456250031246,Correct,d
18,23,508,A,44.91120160233424,76.7317297088826,2.245560080116712,1.2052991917533162,B,319.3856670113746,Incorrect,d
18,23,509,B,48.76093760433875,29.841140251395196,2.4380468802169375,0.4687435349426291,A,282.49358299945015,Incorrect,k
18,23,510,A,34.41293218146093,65.85488808067134,1.7206466090730463,1.0344461629860755,B,386.39066700125113,Incorrect,d
18,23,511,A,47.52183678872301,57.60985201282073,2.3760918394361505,0.9049334392893638,B,634.9111669987906,Incorrect,d
18,23,512,A,20.318781290979842,35.59803695982616,1.015939064548992,0.559172656976039,A,308.899041992845,Correct,k
18,23,513,A,36.2976181225492,60.46575155133752,1.8148809061274602,0.949793804337338,A,410.0363330071559,Correct,k
18,23,514,A,49.72847180033809,76.23271340185889,2.4864235900169045,1.1974606619324801,A,21.18341700406745,Correct,k
18,23,515,B,52.79063648814582,24.207462413423578,2.639531824407291,0.38024993040031274,A,544.6084159921156,Incorrect,k
18,23,516,A,62.80527280347741,77.85044301753716,3.1402636401738704,1.2228718993130279,A,1759.6744159964146,Correct,k
18,23,517,A,39.46856727395404,48.59222806260571,1.9734283636977017,0.7632849335152094,A,1814.3545420025475,Correct,k
18,23,518,A,53.55584463533787,71.12027264529861,2.6777922317668934,1.1171546303188662,B,951.0439169971505,Incorrect,d
18,23,519,B,45.461937896723015,28.393552431471843,2.2730968948361507,0.4460048786401428,A,368.59166699287016,Incorrect,k
18,23,520,A,43.626089770173856,69.0551846550373,2.1813044885086925,1.0847163040227588,A,468.14987499965355,Correct,k
18,23,521,B,60.79695453607239,34.7270421335823,3.03984772680362,0.5454911022388269,A,308.6619170062477,Incorrect,k
18,23,522,B,78.47060679618518,60.576392444118476,3.923530339809259,0.9515317474170741,A,317.39533400104847,Incorrect,k
18,23,523,B,42.01601264425763,16.169022700782158,2.100800632212881,0.25398241466251914,B,877.2778749989811,Correct,d
18,23,524,A,46.49705860952581,71.09471104971597,2.3248529304762906,1.116753109714384,A,930.5253339989576,Correct,k
18,23,525,B,57.25236308166595,39.07469451114333,2.8626181540832976,0.6137838660873665,A,566.4092500082916,Incorrect,k
18,23,526,B,57.0398286297162,43.12188426839667,2.85199143148581,0.6773569741327212,A,443.71599999431055,Incorrect,k
18,23,527,B,66.72609028404283,58.71099744616198,3.336304514202141,0.9222301913089581,A,308.4125839959597,Incorrect,k
18,23,528,A,60.532887188195104,76.18385558382522,3.0266443594097554,1.1966932051214554,A,381.91420800285414,Correct,k
18,23,529,B,51.63479735966747,29.81575672452723,2.5817398679833734,0.4683448114349761,A,1531.6776660038158,Incorrect,k
18,23,530,A,29.326594094489128,58.281369252519625,1.4663297047244563,0.9154816074243486,A,1011.0614579898538,Correct,k
18,23,531,B,61.26322861014074,40.429744845372255,3.063161430507037,0.6350689469636565,A,994.8144170048181,Incorrect,k
18,23,532,B,73.30693603655945,51.587585701109894,3.665346801827973,0.8103359012752035,B,1068.3182920038234,Correct,d
18,23,533,B,73.5938856413737,55.00311915780771,3.6796942820686853,0.8639869753534636,B,1090.2967909933068,Correct,d
18,23,534,A,65.13207657411091,78.15328355637918,3.256603828705545,1.227628907373204,B,958.4836249996442,Incorrect,d
18,23,535,A,15.223051129734692,36.90031628148505,0.7611525564867346,0.5796288127252662,A,1673.9449169981526,Correct,k
18,23,536,A,10.298109659318783,32.40231957141955,0.5149054829659392,0.5089744456242021,A,1484.8576669901377,Correct,k
18,23,537,B,58.77527871511838,38.14088232243527,2.938763935755919,0.5991155785279771,B,1833.8524169957964,Correct,d
18,23,538,B,45.9388548054784,36.46629715349574,2.29694274027392,0.5728112562052231,A,987.3575829988113,Incorrect,k
18,23,539,A,42.24624754099638,51.62523235415571,2.1123123770498187,0.8109272535184086,B,1194.2296250053914,Incorrect,d
18,23,540,B,56.870104727411245,31.34271043440706,2.843505236370562,0.49233014422162685,A,756.2881670019124,Incorrect,k
18,23,541,A,52.14501727863657,77.64801924657706,2.607250863931829,1.219692234154227,A,1041.468082999927,Correct,k
18,23,542,A,44.654394920027414,66.60534095321032,2.232719746001371,1.0462342491422447,A,872.909833007725,Correct,k
18,23,543,B,88.72463599686353,66.97027264674395,4.436231799843176,1.0519665827795812,B,1303.9891670050565,Correct,d
18,23,544,B,67.59397229153117,46.73963685471102,3.3796986145765584,0.7341844988710744,B,1247.823875004542,Correct,d
18,23,545,B,73.13331604173021,41.81365082852816,3.6566658020865104,0.6568072913133642,A,1035.3730830101995,Incorrect,k
18,23,546,A,21.148061008201537,39.67644544293104,1.0574030504100769,0.623236147620342,A,2103.5385410068557,Correct,k
18,23,547,B,87.49077759419839,65.14890374546381,4.374538879709919,1.0233565869808883,B,1281.2145420029992,Correct,d
18,23,548,A,39.11491990752327,49.33892192793252,1.9557459953761636,0.7750139733241658,A,1062.4326660035877,Correct,k
18,23,549,A,28.425717761644503,54.37271403141598,1.421285888082225,0.8540845947841756,A,917.3880840098718,Correct,k
18,23,550,A,27.70121713351421,57.0727500213907,1.3850608566757105,0.8964966609368388,A,901.708375007729,Correct,k
18,23,551,A,47.60849633411658,61.73387762795954,2.380424816705829,0.9697134821680449,A,842.8273750032531,Correct,k
18,23,552,A,42.514351554616056,52.73263824844583,2.1257175777308026,0.8283223446286277,A,1097.5528749986552,Correct,k
18,23,553,B,41.02129281430165,30.02134729425351,2.0510646407150825,0.4715742205524732,A,741.6453329933574,Incorrect,k
18,23,554,A,22.846798776748216,36.25223481610739,1.1423399388374107,0.5694487728724755,A,612.085417000344,Correct,k
18,23,555,B,41.65507751546393,13.467412282089214,2.0827538757731965,0.21154561744138212,A,484.5860839996021,Incorrect,k
18,23,556,B,64.53191698530483,34.75239561434606,3.226595849265242,0.5458893537833786,A,475.02845800772775,Incorrect,k
18,23,557,B,47.4019229112741,22.99310199766941,2.370096145563705,0.361174801595595,B,1146.7387909942772,Correct,d
18,23,558,A,48.48421780984407,57.54916990127508,2.4242108904922035,0.9039802469101831,A,852.5386249966687,Correct,k
18,23,559,A,62.06523697347138,73.18934396111968,3.103261848673569,1.1496555265465502,A,410.92795800068416,Correct,k
18,23,560,A,37.09719240467902,49.396631442819455,1.8548596202339511,0.775920472264221,A,327.32933400257025,Correct,k
18,23,561,B,65.57357002703021,55.499510279656064,3.2786785013515107,0.8717842688619936,A,392.16212499013636,Incorrect,k
18,23,562,A,54.16534432696529,71.33682208505954,2.708267216348265,1.1205561809643259,A,369.78720799379516,Correct,k
18,23,563,B,39.530627511188044,13.55133193507362,1.9765313755594023,0.2128638242679202,B,1104.0325419889996,Correct,d
18,23,564,B,46.19421709593236,35.635057244825475,2.309710854796618,0.5597541702529772,A,266.1151670035906,Incorrect,k
18,23,565,A,13.778252487443012,37.54632937807567,0.6889126243721506,0.5897763627171257,A,1215.7655000046361,Correct,k
18,23,566,B,42.817992521033915,19.55406835347675,2.140899626051696,0.30715458743537616,A,391.4157499966677,Incorrect,k
18,23,567,B,63.627123357955746,41.9567686407896,3.1813561678977873,0.659055380651356,B,853.1918329972541,Correct,d
18,23,568,B,66.75661808428843,54.869075659393054,3.337830904214422,0.8618814250040587,B,1029.0026660077274,Correct,d
18,23,569,B,71.07984969041708,59.30253091638909,3.5539924845208537,0.9315219773310477,B,769.8860829987098,Correct,d
18,23,570,A,54.05384526934971,71.02124449756012,2.7026922634674855,1.115599099811697,B,756.1247080011526,Incorrect,d
18,23,571,A,28.420225956695496,54.12465869337777,1.4210112978347749,0.8501881506458526,A,449.0927919978276,Correct,k
18,23,572,A,20.002253111661986,44.12316571451858,1.0001126555830993,0.693085066309283,A,583.0518750008196,Correct,k
18,23,573,A,39.352355629652806,56.48281220524515,1.9676177814826403,0.8872299393904505,A,742.0118750014808,Correct,k
18,23,574,A,39.86051922978301,61.56754805508409,1.9930259614891503,0.9671007833469436,A,991.5775840054266,Correct,k
18,23,575,A,44.05028425778709,51.29718683005731,2.2025142128893545,0.8057743264756557,A,646.1809999891557,Correct,k
18,23,576,A,57.12035676465406,72.30703845375105,2.856017838232703,1.1357963040456949,A,311.2780829978874,Correct,k
18,23,577,B,41.66872905017248,24.491527585931042,2.083436452508624,0.38471201569576363,B,635.5000839976128,Correct,d
18,23,578,B,66.94249170657815,34.738600630605575,3.3471245853289076,0.5456726626855012,A,288.54445900651626,Incorrect,k
18,23,579,B,41.419315900323575,30.892905659259824,2.070965795016179,0.48526462733586606,A,250.56579201191198,Incorrect,k
18,23,580,A,12.266971876866428,37.79179400338374,0.6133485938433214,0.5936321120350457,B,428.29487498966046,Incorrect,d
18,23,581,B,85.65152557656488,61.9456810226271,4.282576278828244,0.9730404821115096,B,673.3529579942115,Correct,d
18,23,582,A,66.9821573020759,85.89951122308518,3.3491078651037953,1.349306367026992,B,380.40983300015796,Incorrect,d
18,23,583,A,29.814115908342373,46.795565901568686,1.4907057954171188,0.735063030284726,B,1030.201000001398,Incorrect,d
18,23,584,B,81.19206110831558,64.09768977232743,4.059603055415779,1.0068441565041075,B,681.189541995991,Correct,d
18,23,585,B,52.39684339053412,23.39435127983151,2.6198421695267062,0.36747761058108824,B,1202.4912499909988,Correct,d
18,23,586,B,60.576849860740715,33.347251658934454,3.028842493037036,0.5238174041455926,B,1315.418124999269,Correct,d
18,23,587,B,57.15686013237669,44.21303851557632,2.8578430066188343,0.6944967849670858,B,550.4180840071058,Correct,d
18,23,588,A,17.805960216570835,44.837825755666024,0.8902980108285418,0.7043109199846979,B,1198.8498339924263,Incorrect,d
18,23,589,A,14.705471832625502,34.16518242139107,0.7352735916312751,0.5366654305179867,A,2069.9535840103636,Correct,k
18,23,590,A,35.92798703789182,66.63478517658189,1.7963993518945909,1.0466967579214184,A,463.26250000856817,Correct,k
18,23,591,B,76.00480810002223,49.09335769225028,3.8002404050011114,0.7711566593301471,A,577.4047500017332,Incorrect,k
18,23,592,A,53.095941649375675,79.45564866410055,2.6547970824687837,1.2480864106467497,A,445.47000000602566,Correct,k
18,23,593,A,37.73442290195055,45.358246048338245,1.8867211450975276,0.7124856628258885,A,399.9110419972567,Correct,k
18,23,594,A,61.47109142999031,82.61953925696595,3.073554571499516,1.2977846878632888,A,478.47166600695346,Correct,k
18,23,595,B,58.52517562885551,32.719868173784086,2.926258781442775,0.5139624874059329,A,1454.2841670045163,Incorrect,k
18,23,596,B,72.88251367297607,49.020089206173765,3.6441256836488036,0.770005760642159,B,1459.1839579952648,Correct,d
18,23,597,A,49.56999838150706,69.91984982553839,2.478499919075353,1.0982984327600651,B,1144.0301669936161,Incorrect,d
18,23,598,A,58.93499675842969,67.4288991402326,2.9467498379214847,1.0591706708930093,A,567.475916002877,Correct,k
18,23,599,B,56.64197570889104,33.80730779885115,2.832098785444552,0.5310439490925984,A,1020.6732920050854,Incorrect,k
