subject,day,trial,cat,x,y,xt,yt,resp,rt,fb
18,12,0,A,51.16047055842494,66.21720076273412,2.558023527921247,1.04013735728743,B,1119.6890830033226,Incorrect
18,12,1,A,29.874488766999576,60.854168591035176,1.4937244383499788,0.9558950449295541,A,679.6589580044383,Correct
18,12,2,B,42.43794536006496,18.28337303194445,2.1218972680032477,0.2871945519999921,A,409.46950000943616,Incorrect
18,12,3,A,63.756913349582994,75.46314152754327,3.18784566747915,1.185372255198684,A,507.6799590024166,Correct
18,12,4,A,34.76505385154262,54.15505608406288,1.738252692577131,0.8506656317421758,B,457.7351249899948,Incorrect
18,12,5,B,79.21265382072033,47.73563896060727,3.960632691036017,0.7498296633652926,B,601.5367090003565,Correct
18,12,6,A,48.67125705625327,60.93270993689243,2.4335628528126634,0.9571287695052951,A,537.1803329908289,Correct
18,12,7,A,39.52552575045491,63.01284098477183,1.9762762875227455,0.989803391597905,A,1226.3095840025926,Correct
18,12,8,B,70.22768660786559,52.53598554470766,3.51138433039328,0.8252333311817657,B,842.7573749941075,Correct
18,12,9,B,43.87309182935727,21.541695771062233,2.1936545914678636,0.33837616590117714,A,922.1224999928381,Incorrect
18,12,10,B,57.47347310042296,33.23834348085107,2.873673655021148,0.5221066784846796,B,853.3825830090791,Correct
18,12,11,A,13.783930115024464,33.07811618864117,0.6891965057512232,0.5195898340641235,A,1095.9075840073638,Correct
18,12,12,A,69.38347215845792,84.21774751068031,3.469173607922896,1.3228892844071667,B,426.478916007909,Incorrect
18,12,13,A,42.64629587340055,71.01133906679641,2.1323147936700275,1.1154435056691074,A,424.2942499986384,Correct
18,12,14,B,70.44401016753721,39.69794103346891,3.522200508376861,0.6235737995669336,B,495.1128749962663,Correct
18,12,15,A,37.832528719030115,59.49355316375302,1.8916264359515056,0.9345225477760013,A,507.24525000259746,Correct
18,12,16,B,74.06556149302881,55.778337281098345,3.70327807465144,0.8761640731587612,B,463.73324999876786,Correct
18,12,17,A,52.83589039814816,77.12005515413617,2.641794519907408,1.211398993583369,A,580.3989580017515,Correct
18,12,18,A,25.215534066222,42.790760895534916,1.2607767033111,0.6721557003546494,A,508.3432499959599,Correct
18,12,19,A,45.6084322393057,66.03110332269407,2.280421611965285,1.0372141455350212,B,403.0438339977991,Incorrect
18,12,20,A,32.72155490783924,46.39209092526472,1.6360777453919622,0.7287252601774068,A,383.9210840087617,Correct
18,12,21,A,25.503410597602855,57.03312810757456,1.2751705298801428,0.8958742813700089,B,509.6378750022268,Incorrect
18,12,22,A,38.63879498774196,62.13842893220231,1.931939749387098,0.9760681591950912,A,404.7497079882305,Correct
18,12,23,B,62.77681498008662,37.57543280207968,3.138840749004331,0.5902335182323523,B,483.6267499922542,Correct
18,12,24,B,33.68462587064242,19.958704972730487,1.684231293532121,0.31351060458748087,A,352.18816698761657,Incorrect
18,12,25,A,42.964485620054056,71.0064605934163,2.148224281002703,1.115366874788449,B,244.67408300552052,Incorrect
18,12,26,B,36.28467211787944,22.070434863738765,1.8142336058939719,0.34668158014726874,A,198.04849999491125,Incorrect
18,12,27,A,24.66321225661863,35.856515943302526,1.2331606128309316,0.5632328353540226,B,213.93491700291634,Incorrect
18,12,28,B,49.86021861320818,23.477716874727992,2.493010930660409,0.36878711428353284,B,320.1294579921523,Correct
18,12,29,B,67.39216969428209,56.22490857159362,3.3696084847141043,0.8831787985863815,B,442.2701250005048,Correct
18,12,30,B,87.65806754118469,69.28938478387208,4.382903377059234,1.0883951110438448,B,454.8547500016866,Correct
18,12,31,A,53.295792336505926,62.351148461717294,2.6647896168252965,0.979409549751088,A,510.13891700131353,Correct
18,12,32,B,75.97186531071885,60.982282578868315,3.7985932655359425,0.9579074547445475,B,508.98400000005495,Correct
18,12,33,A,49.08423175385144,74.45693486288512,2.454211587692572,1.1695667978702684,A,450.60266701329965,Correct
18,12,34,A,53.26997175048913,67.57172502977949,2.6634985875244563,1.0614141747197239,A,471.4205829950515,Correct
18,12,35,A,24.559932165089855,42.273786616833256,1.2279966082544929,0.6640350873743294,A,524.0437500033295,Correct
18,12,36,A,47.1194547022332,58.131799853267125,2.35597273511166,0.9131321767948811,B,461.27075000549667,Incorrect
18,12,37,A,55.181923123405724,64.50149433240959,2.7590961561702865,1.0131871037013083,A,531.0929160041269,Correct
18,12,38,B,42.97961309885791,32.76672511717912,2.1489806549428954,0.5146985145516304,A,329.1878330055624,Incorrect
18,12,39,B,69.03266073101206,57.72072677433585,3.451633036550603,0.9066750559705861,B,393.5864590021083,Correct
18,12,40,A,15.474762042090148,31.343359770884316,0.7737381021045074,0.4923403439751602,A,450.42562499293126,Correct
18,12,41,B,78.42016035405213,63.63108287858846,3.9210080177026065,0.9995147125566837,B,560.1483329955954,Correct
18,12,42,B,78.26880662080245,61.85080877098553,3.913440331040123,0.9715502322675765,B,463.4899999946356,Correct
18,12,43,A,12.658776397367156,40.75443714149887,0.6329388198683578,0.6401692016245993,A,442.6410419982858,Correct
18,12,44,B,82.95837399207562,62.40563527974962,4.147918699603781,0.9802654266873271,B,503.8968750013737,Correct
18,12,45,A,54.917289719272304,77.19227565220763,2.7458644859636148,1.2125334305142688,A,568.7242089916253,Correct
18,12,46,B,63.04242182088941,30.702013453020236,3.1521210910444704,0.4822660995721168,B,443.4517500048969,Correct
18,12,47,A,29.59751640137621,46.16776747210859,1.4798758200688105,0.7252015956150909,A,391.18537500326056,Correct
18,12,48,B,70.20428120787908,49.11618505477621,3.5102140603939542,0.7715152307022086,B,505.67841601150576,Correct
18,12,49,B,38.01001331201296,26.270403331499153,1.900500665600648,0.41265453056539286,A,324.1267919947859,Incorrect
18,12,50,B,50.22001306206234,24.851972248368636,2.511000653103117,0.3903738672134616,B,363.01858400111087,Correct
18,12,51,A,39.83980001639337,53.1517059664779,1.9919900008196685,0.8349050449502587,A,314.6401660051197,Correct
18,12,52,A,67.92531890131457,84.11155319766483,3.396265945065728,1.3212211880390545,B,423.7741660035681,Incorrect
18,12,53,B,46.470740881692905,30.959864830063964,2.3235370440846452,0.4863164195313097,A,553.3807080064435,Incorrect
18,12,54,B,75.80664372439766,43.87124289408708,3.790332186219883,0.6891278718995869,B,228.71354199014604,Correct
18,12,55,A,43.87643531115012,60.8535233222471,2.193821765557506,0.9558849090711332,A,314.14545798907056,Correct
18,12,56,B,71.43481261287423,49.82821101841776,3.571740630643711,0.7826997083849161,B,444.1032080067089,Correct
18,12,57,B,68.00978251356783,45.122066740640626,3.400489125678391,0.7087757669359246,A,230.77870800625533,Incorrect
18,12,58,B,58.99726751357313,30.186636406586956,2.9498633756786563,0.4741705758575989,B,454.7375410038512,Correct
18,12,59,B,72.29762641097489,40.14799288108079,3.6148813205487444,0.6306431974578935,B,446.9715000013821,Correct
18,12,60,A,37.21355361350989,67.23006404149953,1.8606776806754943,1.0560473764657312,A,431.6984579927521,Correct
18,12,61,B,65.0419610392643,54.93328146643091,3.2520980519632143,0.8628899674625984,B,478.2260419888189,Correct
18,12,62,B,84.47454534221109,57.66745727247692,4.223727267110554,0.905838300592084,A,330.6486249930458,Incorrect
18,12,63,B,74.46016788726081,53.72155379862501,3.7230083943630405,0.8438561937659459,A,457.0874999917578,Incorrect
18,12,64,B,64.13867272651116,36.357166046201826,3.2069336363255583,0.5710970287804596,B,363.8004579988774,Correct
18,12,65,B,76.85871266656402,47.464437577507,3.842935633328201,0.7455696420013366,B,438.0343329976313,Correct
18,12,66,A,16.565956215746688,45.976792469504446,0.8282978107873344,0.7222017672890884,A,556.0727909905836,Correct
18,12,67,A,50.44988753685122,78.00326480723788,2.522494376842561,1.225272418372189,B,616.2963749957271,Incorrect
18,12,68,B,53.93607520672882,25.171833357093625,2.696803760336441,0.39539823376015915,A,343.0357499892125,Incorrect
18,12,69,B,89.76428783381382,67.88278612129,4.488214391690691,1.066300310919259,B,347.15995799342636,Correct
18,12,70,A,32.80041053642668,54.11657969556646,1.6400205268213341,0.8500612460449907,A,297.12387500330806,Correct
18,12,71,A,29.18079365269352,58.53616474000128,1.4590396826346759,0.9194839255825497,B,364.9029999942286,Incorrect
18,12,72,A,39.85132193287484,71.92686625503559,1.992566096643742,1.129824573112777,A,465.64116700028535,Correct
18,12,73,B,46.22642778425523,31.781917881505677,2.3113213892127615,0.4992291986676615,A,463.4358329931274,Incorrect
18,12,74,A,60.744731330020215,80.77413696486735,3.0372365665010106,1.2687971764444153,B,3319.2461669968907,Incorrect
18,12,75,A,39.4301561730345,47.50306447218845,1.971507808651725,0.7461763918441477,A,298.31754199403804,Correct
18,12,76,B,44.55357340647263,25.677046684505022,2.2276786703236313,0.4033341061496156,B,436.4448749984149,Correct
18,12,77,B,68.56033531510505,45.835320322744046,3.428016765755252,0.7199795280043382,A,423.1120420008665,Incorrect
18,12,78,B,42.46960934143972,19.888209548456498,2.123480467071986,0.31240326505242655,B,312.9049160052091,Correct
18,12,79,B,64.59027841527862,53.97785119238348,3.2295139207639307,0.847882103812775,B,490.77466600283515,Correct
18,12,80,B,44.22489648976864,23.50630107143755,2.211244824488432,0.36923611379549043,A,328.622874993016,Incorrect
18,12,81,B,50.40226582343817,26.690139307814285,2.5201132911719086,0.41924772786358755,B,343.54583399544936,Correct
18,12,82,B,42.54299585080379,23.322741184107883,2.127149792540189,0.36635276182784715,B,433.6810829991009,Correct
18,12,83,A,43.84908725755939,60.96624137680106,2.1924543628779696,0.9576554801317014,A,351.10850000637583,Correct
18,12,84,A,55.53950335844112,63.65270550308832,2.776975167922056,0.9998543599480842,B,517.9456670011859,Incorrect
18,12,85,A,39.52036748901196,46.96313557811226,1.976018374450598,0.7376952086086946,A,262.7175410016207,Correct
18,12,86,A,52.45325156031163,63.284661222058304,2.6226625780155812,0.9940731339006861,A,345.9172500006389,Correct
18,12,87,B,37.071611941244385,16.121173663380162,1.8535805970622192,0.2532308037406018,B,376.0760409932118,Correct
18,12,88,B,40.68062156528732,14.889659439932064,2.034031078264366,0.23388622355472244,A,309.36112500785384,Incorrect
18,12,89,A,31.57675080822963,44.31313223617259,1.5788375404114814,0.6960690534535643,B,408.54654100257903,Incorrect
18,12,90,B,64.19070299252274,48.001796780202156,3.209535149626137,0.7540104606189664,A,411.19087499100715,Incorrect
18,12,91,B,74.66469638023594,51.35042792619945,3.7332348190117965,0.8066106356582016,A,359.66770800587256,Incorrect
18,12,92,A,61.763468501140636,81.37918037297337,3.088173425057032,1.2783011760744591,B,351.4732909970917,Incorrect
18,12,93,A,53.07898775023331,81.40665416306331,2.6539493875116653,1.2787327333600231,A,312.6340419985354,Correct
18,12,94,B,36.65645358567749,19.643160835122956,1.8328226792838747,0.3085540488645251,A,356.1052910081344,Incorrect
18,12,95,A,51.02023858242398,76.70313913469924,2.551011929121199,1.2048500920642344,B,102.37537500506733,Incorrect
18,12,96,A,41.34594118316673,73.29942086942617,2.0672970591583364,1.1513846105788783,A,402.05150000110734,Correct
18,12,97,A,18.18897512733194,31.849339378686395,0.909448756366597,0.5002882530688465,A,328.24070799688343,Correct
18,12,98,A,50.0500804981636,80.68519269551217,2.50250402490818,1.2674000431284893,A,346.86245799821336,Correct
18,12,99,B,85.7640160324482,66.67141448179657,4.28820080162241,1.0472721297022614,B,326.3253339973744,Correct
18,12,100,A,46.96788803869885,59.13490944959988,2.3483944019349425,0.9288889854878033,B,258.3642499957932,Incorrect
18,12,101,B,70.67498774753031,52.17253862729537,3.533749387376515,0.8195243203532042,B,264.9140840076143,Correct
18,12,102,A,19.792538380856183,46.325757974841416,0.9896269190428092,0.7276833046287029,A,579.8493749898626,Correct
18,12,103,B,84.10954769532297,53.94930580541683,4.205477384766149,0.8474337139228335,B,344.8034160101088,Correct
18,12,104,B,57.560102702515145,39.17974456971454,2.878005135125757,0.615433988548699,B,461.1795829987386,Correct
18,12,105,B,87.0971632642359,66.66919140293084,4.354858163211795,1.0472372096610965,B,597.9043750121491,Correct
18,12,106,A,26.642474870522605,45.982090849898626,1.3321237435261304,0.7222849940536998,A,447.60070799384266,Correct
18,12,107,A,49.49903163812226,78.81233475194192,2.474951581906113,1.2379812593448014,B,747.390374992392,Incorrect
18,12,108,A,45.872810198659835,71.09091508945443,2.2936405099329917,1.116693482910029,A,342.89587500097696,Correct
18,12,109,A,56.815282173753786,72.03015742523817,2.840764108687689,1.1314470670202226,B,378.18679100018926,Incorrect
18,12,110,B,45.85426808426526,27.410967132997435,2.292713404213263,0.43057046486408007,A,387.5285420072032,Incorrect
18,12,111,B,64.70916061472687,40.80335919456788,3.2354580307363436,0.6409376674372,B,343.85362500324845,Correct
18,12,112,B,47.43436988437618,26.357855496868588,2.371718494218809,0.4140282259667185,A,321.5189580078004,Incorrect
18,12,113,A,26.130436497279682,49.83942553694348,1.306521824863984,0.7828758656299859,B,361.4322499925038,Incorrect
18,12,114,B,62.73903400289383,31.18080863024919,3.136951700144692,0.4897869966289004,B,612.3071660113055,Correct
18,12,115,A,31.606092784018163,57.0107995409318,1.5803046392009081,0.8955235450653585,A,405.5133750080131,Correct
18,12,116,A,31.351182394462068,50.56016422503572,1.5675591197231034,0.7941972024683286,A,789.2609999980778,Correct
18,12,117,A,59.38387402905508,80.73902399038622,2.969193701452754,1.268245623131037,A,432.3763330030488,Correct
18,12,118,A,30.750542060667293,52.535456759619855,1.5375271030333648,0.8252250250450298,A,474.76354100217577,Correct
18,12,119,B,45.47405413190578,22.63126016074569,2.273702706595289,0.3554910033123901,A,390.0358749961015,Incorrect
18,12,120,A,33.00912195281029,62.61421248890167,1.6504560976405145,0.9835417498272186,B,347.94270900601987,Incorrect
18,12,121,B,33.79136109942927,19.849741548315322,1.6895680549714631,0.3117990111192175,A,359.5375419972697,Incorrect
18,12,122,B,44.835095287420316,24.88450558851894,2.2417547643710156,0.3908848997255263,B,530.5065840075258,Correct
18,12,123,A,42.19874227638381,67.3615533526372,2.109937113819191,1.0581128057352096,A,354.23899999295827,Correct
18,12,124,B,63.324591030221875,30.30930769536957,3.1662295515110936,0.4760974919558282,B,680.135667003924,Correct
18,12,125,A,36.75144723970184,62.1633157000626,1.8375723619850919,0.9764590796304985,A,377.65541700355243,Correct
18,12,126,A,21.80401789469436,53.09454147176153,1.0902008947347182,0.8340071071670232,B,326.49545899766963,Incorrect
18,12,127,A,28.144084439739636,54.02146028026002,1.4072042219869818,0.8485671137632884,A,374.4527500093682,Correct
18,12,128,A,56.81782243987483,77.54943940539695,2.8408911219937414,1.2181437456300093,B,583.6204590013949,Incorrect
18,12,129,A,15.935725220242968,41.53352159783411,0.7967862610121484,0.6524070316473433,A,206.65520899638068,Correct
18,12,130,A,41.37079203145707,59.614274296302106,2.0685396015728537,0.9364188308917477,A,337.0399580016965,Correct
18,12,131,A,29.829925900528977,43.501049688370664,1.4914962950264488,0.6833128906221492,A,386.9502500019735,Correct
18,12,132,B,41.408792701972686,18.471777804024526,2.0704396350986345,0.2901540072393323,A,389.8305829934543,Incorrect
18,12,133,A,55.08631100206715,78.36032682189406,2.754315550103357,1.230881135382788,A,256.96054099535104,Correct
18,12,134,A,14.704643643747538,39.56438358076488,0.735232182187377,0.621475884005698,A,544.2807079962222,Correct
18,12,135,A,31.443909723656425,56.6103498133482,1.5721954861828211,0.8892332954538151,A,421.5385419956874,Correct
18,12,136,B,55.9038817352836,26.909095179619918,2.79519408676418,0.42268707865521227,B,359.03845900611486,Correct
18,12,137,B,62.37800585413153,44.26135401279067,3.1189002927065763,0.6952557230226013,A,346.9305420003366,Incorrect
18,12,138,B,64.85953080976573,55.181650910621556,3.242976540488286,0.866791345568826,B,316.3056250050431,Correct
18,12,139,B,75.64006261567202,45.51212564953694,3.7820031307836013,0.7149027979492042,B,460.5273329943884,Correct
18,12,140,B,37.314457981549296,19.87483390164584,1.865722899077465,0.3121931608836397,B,376.9481670024106,Correct
18,12,141,A,38.96965202745689,52.97184014801053,1.9484826013728445,0.8320797192806136,B,417.0288749883184,Incorrect
18,12,142,A,25.297120716548534,50.11697722035445,1.2648560358274268,0.7872356372779629,A,408.4251669992227,Correct
18,12,143,B,81.30585136786874,52.685228917013326,4.065292568393437,0.827577640591928,B,554.5231669966597,Correct
18,12,144,A,47.62367616031588,73.91037512867338,2.381183808015794,1.16098145764153,A,369.9275000108173,Correct
18,12,145,B,46.52269868981013,30.81554601298788,2.326134934490506,0.48404946485380484,A,406.4620410063071,Incorrect
18,12,146,A,26.320312366555576,36.37652897031513,1.316015618327779,0.5714011808811914,B,304.03454099723604,Incorrect
18,12,147,B,37.66205115138172,22.315063277553293,1.8831025575690858,0.3505241942857639,A,348.16170900012366,Incorrect
18,12,148,B,83.03098153302173,67.94919499614755,4.1515490766510865,1.0673434590861874,B,1383.0967500107363,Correct
18,12,149,A,30.536701505763137,58.47812701477658,1.5268350752881568,0.9185722711265647,A,1122.5197080057114,Correct
18,12,150,B,51.36755699093163,41.073567990093515,2.5683778495465814,0.6451820972719933,B,701.3986249949085,Correct
18,12,151,B,36.27862100336492,22.86999894007396,1.813931050168246,0.3592411032887135,A,373.70941700646654,Incorrect
18,12,152,B,60.02887423364073,49.266389434258414,3.0014437116820365,0.7738746355778003,B,274.703708011657,Correct
18,12,153,A,30.966622244233093,59.57651708279177,1.5483311122116548,0.9358257419688271,A,305.6455409969203,Correct
18,12,154,B,71.1862778698389,57.21298025758378,3.5593138934919453,0.8986993923360154,B,435.1114170131041,Correct
18,12,155,A,54.741118281324546,65.17856628465634,2.737055914066227,1.0238225250569588,A,262.45954100158997,Correct
18,12,156,A,40.79773604481937,61.503220916291546,2.039886802240969,0.966090335013658,B,337.73291700345,Incorrect
18,12,157,B,53.89092444517454,32.37192049145741,2.694546222258727,0.5084969379927773,A,278.52100000018254,Incorrect
18,12,158,A,45.81595196951232,71.60193534994406,2.290797598475616,1.124720570390978,B,258.65829100075644,Incorrect
18,12,159,B,82.50890324212563,63.95642703414313,4.125445162106281,1.0046252066015786,B,378.7559579941444,Correct
18,12,160,A,39.177104841816025,62.380420979447955,1.9588552420908014,0.9798693613843614,A,326.6170410061022,Correct
18,12,161,A,25.439293647315623,51.10816058291016,1.271964682365781,0.80280510912879,A,409.43075000541285,Correct
18,12,162,B,65.24268121254798,39.614473637622545,3.2621340606273987,0.6222626967789077,A,359.06850000901613,Incorrect
18,12,163,A,38.05392500952847,69.46732103133805,1.9026962504764235,1.0911901270830766,B,532.4871659977362,Incorrect
18,12,164,B,51.39661404171693,39.06056418096736,2.5698307020858464,0.6135619073799984,A,424.3696670018835,Incorrect
18,12,165,B,61.61229026184426,47.07901012148467,3.080614513092213,0.7395153616796787,A,311.65974999021273,Incorrect
18,12,166,A,21.165929004088216,44.97846555504887,1.0582964502044108,0.7065200847874155,B,407.1921669965377,Incorrect
18,12,167,B,42.39208675788662,22.82215019564707,2.1196043378943306,0.3584894969688385,A,369.5135419984581,Incorrect
18,12,168,A,41.6372324705381,59.007932173142706,2.081861623526905,0.9268944310933495,B,517.5069580000127,Incorrect
18,12,169,B,79.74253676988582,57.48147274256782,3.987126838494291,0.902916862427865,B,482.1394169994164,Correct
18,12,170,A,32.99953862814863,54.11319249477446,1.6499769314074313,0.8500080400193688,A,338.23841701087076,Correct
18,12,171,B,82.59100454431069,56.445397633636404,4.129550227215534,0.8866422326739342,B,415.6661669985624,Correct
18,12,172,B,38.7383529069561,17.0764311953554,1.936917645347805,0.2682359539643005,A,391.89808400988113,Incorrect
18,12,173,B,54.39209505134173,26.399371287400214,2.719604752567086,0.41468035447942914,B,398.8629170053173,Correct
18,12,174,A,33.50243490102611,51.53021212622846,1.6751217450513056,0.8094346792684151,B,626.0245000012219,Incorrect
18,12,175,B,85.91507427081456,59.60929713317822,4.295753713540728,0.9363406497962191,B,537.9171250096988,Correct
18,12,176,B,45.33949961944859,17.820796179209513,2.2669749809724293,0.27992841178862826,A,404.06866700504906,Incorrect
18,12,177,A,50.47426649202124,81.29118784643624,2.523713324601062,1.27691899269976,B,772.974334002356,Incorrect
18,12,178,A,50.395113190750465,80.8665637972122,2.5197556595375232,1.2702490137318607,B,420.88895798951853,Incorrect
18,12,179,A,22.539857461060155,36.52864290478759,1.1269928730530077,0.573790580976428,A,368.7473749887431,Correct
18,12,180,A,56.51954205179051,82.79673296385826,2.8259771025895253,1.300568040102465,A,343.21312500105705,Correct
18,12,181,B,50.92126620824406,37.745411616397746,2.546063310412203,0.59290353920399,A,372.8621659975033,Incorrect
18,12,182,A,39.05421535097006,66.59546015073487,1.952710767548503,1.0460790418599022,B,394.1977500071516,Incorrect
18,12,183,B,63.943413950894104,32.464849290992774,3.197170697544705,0.5099566601624136,A,352.51620900817215,Incorrect
18,12,184,B,83.14553021412145,60.89927243820779,4.1572765107060725,0.9566035345041848,B,297.51495900563896,Correct
18,12,185,A,57.27754537394436,75.43984170356856,2.863877268697218,1.1850062624195392,B,300.74970799614675,Incorrect
18,12,186,A,53.35360161800356,65.70963456713888,2.667680080900178,1.0321645261309673,A,263.19866700214334,Correct
18,12,187,A,33.515436484638336,54.09624766478357,1.6757718242319168,0.8497418712522904,A,314.64641701313667,Correct
18,12,188,B,60.06122482569446,51.99527106231602,3.0030612412847226,0.8167398079539098,A,382.0513750106329,Incorrect
18,12,189,A,47.13264384019952,63.66100423115726,2.356632192009976,0.999984716063762,B,423.5321669984842,Incorrect
18,12,190,A,44.44388691101071,67.53222872083009,2.2221943455505353,1.0607937681495272,B,245.12791700544767,Incorrect
18,12,191,B,65.9080893079309,37.81273174953055,3.2954044653965444,0.5939610013824336,B,505.1145839970559,Correct
18,12,192,B,54.02552884257655,38.494386265136896,2.7012764421288273,0.6046684054750096,A,465.0828750018263,Incorrect
18,12,193,B,41.967098259676696,24.087729436084754,2.098354912983835,0.3783691691903123,A,526.3028339977609,Incorrect
18,12,194,A,55.268567910081416,77.89206082536555,2.7634283955040706,1.2235256303096886,B,458.33962499455083,Incorrect
18,12,195,B,49.12289486789791,31.63041509655823,2.4561447433948955,0.4968493984867151,A,485.2167909994023,Incorrect
18,12,196,A,32.22435388703185,60.29676352005267,1.6112176943515926,0.9471393465491925,A,512.3027499939781,Correct
18,12,197,B,68.15059735895622,40.5787454631516,3.407529867947811,0.637409443194636,A,359.671124999295,Incorrect
18,12,198,B,52.11538478670649,24.319980053729815,2.6057692393353244,0.3820173533612395,B,269.03787499759346,Correct
18,12,199,B,83.03944678289841,54.819925253043685,4.15197233914492,0.8611093722265182,B,267.9113330086693,Correct
18,12,200,B,43.69920267505216,34.7876492545622,2.1849601337526083,0.5464431166689552,B,396.9185419991845,Correct
18,12,201,B,81.72531944799734,55.64195852167318,4.086265972399866,0.8740218406151823,B,459.78304199525155,Correct
18,12,202,B,62.626922176318445,43.2693617326594,3.1313461088159222,0.6796735447242104,B,405.61516700836364,Correct
18,12,203,A,20.98127203366961,38.41272505291022,1.0490636016834807,0.6033856741529366,A,437.13999999454245,Correct
18,12,204,B,65.61281283043205,54.19352552119696,3.2806406415216025,0.8512699082476167,A,351.95058399403933,Incorrect
18,12,205,B,57.84749454611438,31.59555497175054,2.8923747273057194,0.4963018169267199,A,400.75645899923984,Incorrect
18,12,206,A,46.41962957029273,70.42279959774483,2.3209814785146365,1.106198749307507,B,500.02220801252406,Incorrect
18,12,207,B,53.35477329442116,40.363896384563496,2.667738664721058,0.6340346017600215,A,489.40883298928384,Incorrect
18,12,208,B,31.23452589614215,14.728109379300179,1.5617262948071076,0.23134860113638184,B,397.42987499630544,Correct
18,12,209,A,38.208722680269474,65.97254292235048,1.910436134013474,1.0362942809174678,A,322.3429999925429,Correct
18,12,210,B,67.34083720518525,38.92407523239035,3.367041860259263,0.6114179439892697,B,303.5485000000335,Correct
18,12,211,B,64.46354702127269,47.444888582006136,3.2231773510636343,0.7452625670980837,B,524.1082499996992,Correct
18,12,212,B,40.844975860286,22.658784406267024,2.0422487930143003,0.35592335315001733,B,357.19399999652524,Correct
18,12,213,A,32.47494207503085,62.64687103624848,1.6237471037515427,0.984054749089327,B,280.47187499760184,Incorrect
18,12,214,B,88.37190248423867,68.62253094121374,4.418595124211934,1.0779201953782769,A,352.5674999982584,Incorrect
18,12,215,B,80.80522740090304,50.368458949852766,4.040261370045152,0.7911859030474825,B,229.03991599741857,Correct
18,12,216,B,63.663090703311404,55.1339914088276,3.18315453516557,0.8660427118652777,B,300.53995799971744,Correct
18,12,217,B,41.54807592233193,15.891641963918715,2.0774037961165965,0.24962532823663153,B,306.09187499794643,Correct
18,12,218,A,67.07778850402553,79.14730493873135,3.3538894252012765,1.2432429587347478,A,346.7069170001196,Correct
18,12,219,A,40.26968486644159,65.05395814785442,2.0134842433220794,1.0218651850211866,A,224.47158400609624,Correct
18,12,220,A,34.035359877570855,53.91452055885164,1.7017679938785426,0.8468873085475209,A,292.6395419926848,Correct
18,12,221,A,58.28586597307995,77.38047288323129,2.9142932986539973,1.2154896257063181,B,323.67474999045953,Incorrect
18,12,222,B,50.50658041580563,23.8206150199697,2.525329020790281,0.37417334575363753,A,3.6237500025890768,Incorrect
18,12,223,B,66.87850204965304,50.48939182618179,3.3439251024826517,0.7930855122267463,B,205.55991599394474,Correct
18,12,224,B,36.603972121186374,18.243768228318483,1.8301986060593185,0.2865724411994011,B,288.20233400620054,Correct
18,12,225,A,55.0313327944971,67.19102128122437,2.751566639724855,1.0554340942214497,A,270.7162089936901,Correct
18,12,226,B,41.872535210248344,30.435128202940046,2.093626760512417,0.4780738758670999,B,300.641750000068,Correct
18,12,227,A,42.87902640999447,59.932910691049685,2.1439513204997236,0.9414239596762742,A,158.52945799997542,Correct
18,12,228,A,14.729165892348508,30.5600291679864,0.7364582946174254,0.4800358156381793,B,112.25516701233573,Incorrect
18,12,229,A,17.330817345160618,36.595458407776334,0.8665408672580309,0.5748401164431048,A,367.5597499968717,Correct
18,12,230,B,67.66898794677786,42.781979047368566,3.383449397338893,0.6720177554062278,A,399.08166699751746,Incorrect
18,12,231,B,55.14068575646974,44.12459620946559,2.7570342878234873,0.6931075364713657,B,88.79608300048858,Correct
18,12,232,B,47.99476715176717,37.58867303948329,2.3997383575883586,0.5904414953951471,B,174.93233300046995,Correct
18,12,233,B,82.85661237981373,53.49122532696899,4.142830618990686,0.8402382025936102,B,375.66958299430553,Correct
18,12,234,A,63.14800845974219,88.7810903243011,3.1574004229871093,1.394570105702581,B,182.34204199688975,Incorrect
18,12,235,A,51.06619505493897,60.00873500299097,2.553309752746949,0.9426150051830654,A,310.22462499095127,Correct
18,12,236,B,50.4538798995948,25.31969362403446,2.5226939949797402,0.39772081740205495,A,191.3970000023255,Incorrect
18,12,237,A,30.802180313572244,63.868264670262164,1.5401090156786124,1.0032403554281208,B,80.87516699742991,Incorrect
18,12,238,A,37.35570534025218,66.26327744066185,1.867785267012609,1.0408611280518276,A,321.5735839912668,Correct
18,12,239,A,57.10015929341742,73.90824729045319,2.855007964670871,1.1609480336369273,A,129.54308399639558,Correct
18,12,240,B,79.48287879159422,67.31594445410795,3.9741439395797107,1.0573963828324204,A,2976.3557499973103,Incorrect
18,12,241,A,29.863843806162766,42.229907940730484,1.4931921903081382,0.6633458427418607,A,362.6014170004055,Correct
18,12,242,B,52.03378421212688,32.41436369364021,2.6016892106063443,0.509163634253639,A,269.4987499999115,Incorrect
18,12,243,A,58.487891264091516,82.6970407807953,2.924394563204576,1.2990020789528103,B,3357.323792006355,Incorrect
18,12,244,B,38.720759853738656,18.95020116824972,1.9360379926869329,0.29766906387111014,B,229.5021669997368,Correct
18,12,245,B,76.65079507873813,52.996735663061635,3.832539753936907,0.8324707771165732,A,386.4831250102725,Incorrect
18,12,246,A,59.74367832530277,84.13459729523575,2.9871839162651384,1.3215831638772417,B,333.9811659971019,Incorrect
18,12,247,B,76.29370090083498,56.71529482658695,3.8146850450417493,0.8908817678669237,A,297.8576250025071,Incorrect
18,12,248,A,49.07529197068837,70.3104564859983,2.4537645985344185,1.1044340678347855,B,300.43566699896473,Incorrect
18,12,249,A,68.58187505007788,83.26822594034408,3.4290937525038943,1.3079742344582,B,355.35325000819284,Incorrect
18,12,250,A,62.1374674301162,72.01859829093065,3.1068733715058103,1.1312654965631108,B,302.75545800395776,Incorrect
18,12,251,B,86.11186591537574,67.46914790981283,4.305593295768787,1.0598028970871556,B,377.1165830112295,Correct
18,12,252,B,75.39929757614803,44.74375065030562,3.7699648788074014,0.7028331916852685,B,417.68250000313856,Correct
18,12,253,B,69.71759995143015,40.601776828222796,3.4858799975715073,0.637771219031185,B,390.1363330078311,Correct
18,12,254,B,57.3066775505995,29.63863970900988,2.865333877529975,0.4655626638611008,B,340.9139589930419,Correct
18,12,255,A,60.014594833739054,81.69745288798259,3.000729741686953,1.2833005890494218,B,350.6986249994952,Incorrect
18,12,256,A,21.439347862577776,46.404917351576884,1.071967393128889,0.7289267372107773,A,286.8205419945298,Correct
18,12,257,A,29.727328519693987,62.74712621219863,1.4863664259846994,0.9856295537105738,A,312.8540420002537,Correct
18,12,258,B,60.43077709461585,46.10884459651217,3.0215388547307924,0.7242760372495802,A,302.88533300335985,Incorrect
18,12,259,A,50.017793972932395,71.0235694556757,2.5008896986466196,1.115635620168376,A,327.5242500094464,Correct
18,12,260,A,53.06304625412573,73.39850151956158,2.6531523127062866,1.1529409657917697,B,439.66170799103566,Incorrect
18,12,261,A,27.69347591324123,37.47008769734198,1.3846737956620614,0.5885787611966743,A,204.82770798844285,Correct
18,12,262,B,84.46020046191089,63.60589792805433,4.223010023095544,0.9991191082787887,A,431.214166994323,Incorrect
18,12,263,A,46.86385819541905,54.354222368877316,2.3431929097709525,0.8537941284282549,B,153.03895898978226,Incorrect
18,12,264,A,66.08023528714978,77.64460247408458,3.304011764357489,1.2196385636174196,B,272.04791699477937,Incorrect
18,12,265,A,17.13704555278352,45.75905822780017,0.8568522776391759,0.7187816058182229,A,268.2050830044318,Correct
18,12,266,A,32.67607454455015,65.42659114054777,1.6338037272275074,1.0277184903828396,A,338.4875000047032,Correct
18,12,267,A,61.904169081520195,74.98679719201232,3.0952084540760096,1.177889855873268,A,295.5645000038203,Correct
18,12,268,B,36.376971696107944,14.172847032094772,1.8188485848053972,0.22262656058240415,B,203.68299999972805,Correct
18,12,269,B,70.10427349474728,48.069603770142265,3.505213674737364,0.7550755703262557,A,239.03683299431577,Incorrect
18,12,270,B,45.241531900231685,20.22817441087462,2.262076595011584,0.31774342062368377,B,230.96520800027065,Correct
18,12,271,B,63.409914059073174,50.147066392388076,3.1704957029536587,0.7877082768870299,B,222.56708399800118,Correct
18,12,272,B,51.691607282028286,40.70962439899269,2.5845803641014142,0.6394652847113761,B,348.2427499984624,Correct
18,12,273,A,45.509851872378896,63.77519438543455,2.275492593618945,1.001778410812711,A,441.71866700344253,Correct
18,12,274,A,25.375548652900708,49.7863110814398,1.2687774326450354,0.7820415457139369,A,545.0830000045244,Correct
18,12,275,A,67.22145152426313,82.95622588839757,3.3610725762131564,1.3030733491026263,B,458.5837499907939,Incorrect
18,12,276,A,45.357360209494246,74.18842088679146,2.267868010474712,1.1653489901968581,A,279.0954590018373,Correct
18,12,277,B,72.53551236815362,54.54247031258918,3.626775618407681,0.8567511202133479,B,614.9872919922927,Correct
18,12,278,A,28.155280995902206,42.31888625083223,1.4077640497951103,0.6647435107685832,A,268.3055410016095,Correct
18,12,279,A,41.21637863381155,63.49623801920459,2.060818931690578,0.9973965744586104,B,342.5925829942571,Incorrect
18,12,280,B,54.13572576128079,21.934995463482743,2.7067862880640394,0.3445541030230141,A,135.4535830032546,Incorrect
18,12,281,B,72.16272644557473,54.735550320110995,3.6081363222787366,0.8597840138792757,B,296.57945899816696,Correct
18,12,282,A,41.6088799622333,71.43941938328219,2.080443998111665,1.122167775556198,A,239.83845800103154,Correct
18,12,283,A,66.4169691594864,88.11437360408426,3.3208484579743196,1.3840973439512876,B,223.00766699481755,Incorrect
18,12,284,A,34.90974680899819,48.717064773835986,1.7454873404499096,0.7652458639897061,A,216.10220799630042,Correct
18,12,285,B,85.63494471137975,57.62106083488905,4.281747235568987,0.90510950705469,A,334.10699998785276,Incorrect
18,12,286,A,59.26133947592452,77.92095778906483,2.9630669737962263,1.223979542754032,B,280.6594579888042,Incorrect
18,12,287,B,52.45211538809052,35.25803179458643,2.622605769404526,0.5538318683295405,B,176.86670800321735,Correct
18,12,288,A,38.534443345784894,54.602970773300434,1.9267221672892447,0.8577014592278941,B,446.8978750082897,Incorrect
18,12,289,B,75.64514944786323,54.50885977635089,3.7822574723931615,0.8562231671447006,A,338.98737499839626,Incorrect
18,12,290,B,73.66608678150692,56.83332684047136,3.683304339075346,0.892735810405462,B,1808.779125000001,Correct
18,12,291,B,44.315362229272615,27.215020231545687,2.2157681114636305,0.4274925381336076,A,540.5209580057999,Incorrect
18,12,292,B,84.68804037544784,63.77072176714042,4.234402018772392,1.0017081550888352,B,390.0449170032516,Correct
18,12,293,B,51.0012781947805,30.721832713994296,2.5500639097390247,0.48257741979549523,A,322.70829199114814,Incorrect
18,12,294,B,34.6661461919211,12.059110144830356,1.733307309596055,0.18942405919914596,B,297.8055830026278,Correct
18,12,295,A,14.664336481599427,31.209321219983885,0.7332168240799715,0.49023487134112703,A,349.49500000220723,Correct
18,12,296,A,12.656835749682266,35.33962603521965,0.6328417874841132,0.5551135476642831,A,476.37237500748597,Correct
18,12,297,B,55.237132054120664,31.261762244844125,2.761856602706033,0.4910586130333653,A,271.8437500006985,Incorrect
18,12,298,A,59.71294204184301,70.79358347890593,2.9856471020921505,1.112023008893133,B,297.7657500014175,Incorrect
18,12,299,A,57.87347020353556,73.9778169683949,2.8936735101767783,1.162040831582599,A,313.92300000879914,Correct
