subject,day,trial,cat,x,y,xt,yt,resp,rt,fb,resp_key
18,24,0,B,69.06643265580583,40.14327745656888,3.4533216327902916,0.6305691277428678,B,1083.5132920037722,Correct,d
18,24,1,A,30.270805467879008,53.90697777074411,1.5135402733939503,0.8467688267089901,A,1333.6292919993866,Correct,k
18,24,2,A,17.36009165438871,33.56449706386586,0.8680045827194356,0.5272298869863858,A,775.6497079972178,Correct,k
18,24,3,A,30.610636442970538,49.988766058303234,1.530531822148527,0.7852217010539211,A,564.2265420028707,Correct,k
18,24,4,A,62.09673817073883,78.62557662015163,3.1048369085369414,1.235047669470649,B,1259.0711250086315,Incorrect,d
18,24,5,B,59.67642708468769,51.07215671715191,2.9838213542343848,0.8022395617279552,B,1019.8539580014767,Correct,d
18,24,6,B,35.14986985256452,22.488794931094276,1.757493492628226,0.3532531647180658,A,864.4105000130367,Incorrect,k
18,24,7,A,49.471639016034835,64.80790229041997,2.4735819508017416,1.0180001486507424,A,669.712916991557,Correct,k
18,24,8,B,34.946354787885014,14.82216452127009,1.7473177393942507,0.23282601585160695,A,567.7989160030847,Incorrect,k
18,24,9,B,56.74512189895484,29.619647810545786,2.837256094947742,0.46526433981763826,B,1235.4346670035738,Correct,d
18,24,10,A,61.86019767881406,75.60274397852939,3.093009883940703,1.1875651253708894,A,671.5409159951378,Correct,k
18,24,11,A,21.850851337949848,49.90809423135492,1.0925425668974924,0.7839545109594588,A,686.1082910036203,Correct,k
18,24,12,B,78.73447314833233,50.966171817796635,3.936723657416616,0.8005747548219253,B,1218.8858750014333,Correct,d
18,24,13,B,65.604879050864,53.200891112124964,3.2802439525432,0.8356776434114115,A,1771.4113330002874,Incorrect,k
18,24,14,B,59.66532639857851,35.6371004726874,2.9832663199289255,0.5597862652011804,B,1151.6479589918163,Correct,d
18,24,15,A,30.285080231162475,43.183728860592325,1.5142540115581238,0.6783284267152518,A,850.5673329927959,Correct,k
18,24,16,B,37.169776429662846,20.71585989964543,1.8584888214831423,0.3254039663676073,A,521.8297090032138,Incorrect,k
18,24,17,A,30.812748667499044,50.745580644694485,1.5406374333749522,0.7971097167776029,A,658.4134170116158,Correct,k
18,24,18,A,47.50649690917092,72.02334239711571,2.375324845458546,1.131340016808805,A,420.06979099824093,Correct,k
18,24,19,B,33.07623284447131,11.22572589953463,1.6538116422235658,0.17633329008595333,B,996.3137080048909,Correct,d
18,24,20,A,49.284437888320895,79.58229178051934,2.4642218944160446,1.2500757160675948,A,746.0015839897096,Correct,k
18,24,21,A,42.080005118459134,74.86574577140517,2.1040002559229567,1.175988384604838,A,520.0305830076104,Correct,k
18,24,22,B,76.87740609939982,60.4250295698507,3.843870304969991,0.949154144947945,B,1572.8175410040421,Correct,d
18,24,23,B,74.31358222505453,46.89943534024719,3.7156791112527263,0.7366946076121503,B,1115.0726250052685,Correct,d
18,24,24,A,54.59929865398671,81.33291834172618,2.7299649326993354,1.2775744937869276,A,658.0842499970458,Correct,k
18,24,25,B,73.10687603581435,57.21065793602034,3.6553438017907176,0.8986629133942005,B,1195.851708005648,Correct,d
18,24,26,B,38.30032241985451,18.18782860910722,1.9150161209927257,0.2856937437156075,A,950.5246670014458,Incorrect,k
18,24,27,B,63.957784327954954,48.46700936135176,3.197889216397748,0.761318002755452,B,1038.3688750007423,Correct,d
18,24,28,A,49.34659581268096,71.04786879033145,2.467329790634048,1.116017313224584,A,824.9079170054756,Correct,k
18,24,29,B,54.325841804775635,40.81787861893706,2.7162920902387815,0.6411657380218627,A,931.3342920067953,Incorrect,k
18,24,30,A,32.35340221880523,43.52065398928556,1.6176701109402614,0.6836208342608143,A,622.6389590010513,Correct,k
18,24,31,B,62.377961149900344,36.08531417119432,3.118898057495017,0.5668267895135186,B,1114.4557909865398,Correct,d
18,24,32,B,35.000316376989254,11.338560945161934,1.7500158188494626,0.17810569883800437,A,1462.28200000769,Incorrect,k
18,24,33,B,73.27606412194045,46.90223116003202,3.6638032060970227,0.7367385242466342,A,772.6709580019815,Incorrect,k
18,24,34,B,81.63922538897093,62.1195499341962,4.081961269448547,0.9757716085878755,A,739.9722910049604,Incorrect,k
18,24,35,A,49.67219223281108,77.97610211915881,2.483609611640554,1.224845747865584,A,957.7092499966966,Correct,k
18,24,36,B,62.31721888745232,45.75302901067167,3.1158609443726157,0.7186868990970339,A,479.9849999981234,Incorrect,k
18,24,37,B,75.18225730995076,55.62149565736493,3.7591128654975376,0.8737004106942712,B,1027.2790830058511,Correct,d
18,24,38,A,56.104648444006216,65.26631525014689,2.805232422200311,1.025200882583685,B,1415.403624996543,Incorrect,d
18,24,39,A,24.13506733535321,38.2251225750976,1.2067533667676604,0.6004388213224799,A,1043.1525830063038,Correct,k
18,24,40,A,35.83036992531054,52.83924405707971,1.7915184962655273,0.8299969047547988,A,641.2458749982761,Correct,k
18,24,41,A,43.9681181808624,69.16879245400042,2.19840590904312,1.0865008511558243,A,452.7149160130648,Correct,k
18,24,42,B,37.538902793088944,27.57150359481193,1.8769451396544472,0.43309216570942866,A,457.9772500001127,Incorrect,k
18,24,43,A,28.685037618413013,49.260024327895856,1.4342518809206508,0.7737746527208604,A,1168.1862089899369,Correct,k
18,24,44,B,81.82259909615361,60.00096239083689,4.0911299548076805,0.9424929132768531,B,1396.4417499955744,Correct,d
18,24,45,A,51.10634049673441,62.376699514593994,2.5553170248367207,0.9798109047511325,B,957.6557500113267,Incorrect,d
18,24,46,B,48.139304725038734,30.198432022597093,2.4069652362519367,0.4743558609606089,A,965.7444580079755,Incorrect,k
18,24,47,B,31.941885992697443,12.366888979019055,1.5970942996348723,0.19425863782123423,A,642.1478749980452,Incorrect,k
18,24,48,B,76.02264031025742,54.49865446721373,3.801132015512871,0.8560628625236361,B,988.6639169999398,Correct,d
18,24,49,B,53.67416619557317,31.33732687805809,2.6837083097786585,0.49224557951624626,B,999.0693750005448,Correct,d
18,24,50,A,19.300809210590415,48.693844159464376,0.9650404605295207,0.7648811154320977,A,1916.5969169989694,Correct,k
18,24,51,B,86.3934534740551,65.78468908406211,4.319672673702755,1.033343479725891,B,1039.6524170064367,Correct,d
18,24,52,A,52.03899101735564,67.38385818464683,2.6019495508677823,1.0584631692171145,A,1349.2843749991152,Correct,k
18,24,53,B,70.2978940347507,48.81750966964906,3.5148947017375347,0.766823648723591,A,922.4883749993751,Incorrect,k
18,24,54,A,17.30687987650195,47.17422916800148,0.8653439938250975,0.741011058964774,A,622.1787499962375,Correct,k
18,24,55,B,43.97095807549856,33.127373504733086,2.1985479037749283,0.5203635661759732,A,452.06658299139235,Incorrect,k
18,24,56,B,86.23888642291885,61.27709261867875,4.311944321145943,0.9625383200209126,A,900.1915420085425,Incorrect,k
18,24,57,B,64.2388299238849,37.12166150992076,3.2119414961942447,0.5831056954430703,B,1059.7227499965811,Correct,d
18,24,58,B,49.219243128910634,25.141876244353853,2.460962156445532,0.394927668533629,A,1401.1136659974,Incorrect,k
18,24,59,A,61.48017343968545,81.13713363982619,3.0740086719842723,1.2744991148810563,A,413.62175000540446,Correct,k
18,24,60,B,76.64943163689298,64.85619823294236,3.8324715818446493,1.018758779541875,A,717.7353750012117,Incorrect,k
18,24,61,A,60.19219906076547,82.69961019192198,3.0096099530382734,1.2990424391684083,A,565.1233749958919,Correct,k
18,24,62,B,80.67803817004979,53.4499939052551,4.033901908502489,0.8395905409358433,A,862.5398750009481,Incorrect,k
18,24,63,B,45.227583663373956,22.881300497396293,2.261379183168698,0.3594186277360033,A,630.9967919951305,Incorrect,k
18,24,64,B,50.45974959867254,29.92260576562379,2.522987479933627,0.4700231922477364,B,965.1057080045575,Correct,d
18,24,65,A,29.199864698217063,46.64178259952698,1.459993234910853,0.7326474078250311,A,873.3895420009503,Correct,k
18,24,66,B,40.50447951248718,17.345533279677177,2.025223975624359,0.27246299962015547,A,516.7167089966824,Incorrect,k
18,24,67,A,50.33636809209923,74.90871028472556,2.5168184046049613,1.1766632696019,B,1074.9864999961574,Incorrect,d
18,24,68,A,47.50046157769478,55.563663143949455,2.375023078884739,0.8727919796978477,A,854.1495420067804,Correct,k
18,24,69,B,64.87865880349031,44.15842627037991,3.2439329401745156,0.6936389378255603,A,820.9244590107119,Incorrect,k
18,24,70,B,38.72677663917894,20.02926328367909,1.9363388319589467,0.31461893194411,B,960.8170420106035,Correct,d
18,24,71,A,63.05629818734916,77.25932390910708,3.152814909367458,1.2135866220708256,A,831.8276249920018,Correct,k
18,24,72,B,58.28960059879267,28.34377410514109,2.914480029939633,0.4452229625185993,A,2241.0366669937503,Incorrect,k
18,24,73,A,37.79249693743594,66.75434431599874,1.889624846871797,1.048574788491726,B,906.6117920010583,Incorrect,d
18,24,74,B,76.31366524556296,56.7242510923084,3.815683262278148,0.8910224525598944,A,729.3009580025682,Incorrect,k
18,24,75,B,69.36878050710142,55.133978095028176,3.468439025355071,0.8660425027326054,A,416.65312500845175,Incorrect,k
18,24,76,A,35.073012179234226,59.200449351289215,1.7536506089617114,0.9299184838561241,B,426.3787499949103,Incorrect,d
18,24,77,B,65.46529817970787,54.78036021039905,3.273264908985394,0.8604878859899615,A,743.1747500086203,Incorrect,k
18,24,78,B,46.86643797052302,31.732042811502847,2.343321898526151,0.49844576290007075,B,898.5470829939004,Correct,d
18,24,79,A,53.74971882255485,73.62194653643496,2.6874859411277425,1.156450831909223,A,484.5689580106409,Correct,k
18,24,80,A,36.930995899027025,54.872487984492906,1.8465497949513514,0.8619350256813857,A,442.97516699589323,Correct,k
18,24,81,B,62.743608592106824,40.33230680509974,3.1371804296053414,0.6335383938061548,A,538.4207499882905,Incorrect,k
18,24,82,A,34.070725966308615,52.3173121708743,1.7035362983154305,0.821798417857913,B,781.594000000041,Incorrect,d
18,24,83,A,49.0114447403181,76.91460752033403,2.450572237015905,1.2081718296981185,A,782.4776669876883,Correct,k
18,24,84,B,78.4838400912242,62.051620761918514,3.9241920045612098,0.9747045796449155,B,901.0546659992542,Correct,d
18,24,85,B,54.40523920140384,27.12342128700995,2.7202619600701916,0.4260537052774574,B,760.4467089986429,Correct,d
18,24,86,A,17.60063319059601,32.226117958738236,0.8800316595298006,0.5062066771644508,B,1616.1497920111287,Incorrect,d
18,24,87,B,61.63279700913991,32.31315279841291,3.081639850456995,0.5075738172290922,A,655.3425419988343,Incorrect,k
18,24,88,B,63.886299524279,43.09517429219062,3.19431497621395,0.6769374148075887,B,912.907042002189,Correct,d
18,24,89,A,54.52762854576844,71.46101892168986,2.726381427288422,1.1225070603121103,A,1045.8622090081917,Correct,k
18,24,90,B,37.582545987684895,22.488903355358893,1.879127299384245,0.3532548678424317,B,699.4066659972304,Correct,d
18,24,91,B,68.002528990353,56.652801165885336,3.4001264495176495,0.8899001197401433,A,313.10374999884516,Incorrect,k
18,24,92,A,30.37187987305688,47.21214950217553,1.5185939936528439,0.7416067101810881,A,743.0410410015611,Correct,k
18,24,93,B,67.17082613144396,45.5140252424722,3.358541306572198,0.7149326366852553,A,625.881334010046,Incorrect,k
18,24,94,B,69.06255624106527,50.35468748213055,3.4531278120532636,0.7909695813383563,B,1111.5320420067292,Correct,d
18,24,95,B,67.22593346049706,34.14054233315552,3.361296673024853,0.5362783849170637,B,1207.6429579901742,Correct,d
18,24,96,A,23.422169769676472,50.98938848922588,1.1711084884838237,0.80093944144394,A,1490.0603749993024,Correct,k
18,24,97,B,35.684791918018135,16.426147878349546,1.7842395959009067,0.25802132750701245,A,1258.140915990225,Incorrect,k
18,24,98,A,52.60473310694506,68.294753567011,2.630236655347253,1.0727714804242354,B,927.4378750124015,Incorrect,d
18,24,99,B,33.89620784907703,12.055405276575947,1.6948103924538516,0.1893658632646931,B,1103.0878340097843,Correct,d
18,24,100,B,59.497897623433346,47.49867367629847,2.974894881171667,0.746107421383591,A,702.0072079903912,Incorrect,k
18,24,101,B,62.268385545428615,46.29489807122302,3.1134192772714306,0.7271985583962125,B,1460.7223749917466,Correct,d
18,24,102,B,59.44213329269115,29.444700361815414,2.9721066646345577,0.4625162717191602,A,1314.734707993921,Incorrect,k
18,24,103,A,27.125797352584772,50.51792956678753,1.3562898676292385,0.7935337820079315,B,1127.0748329989146,Incorrect,d
18,24,104,A,31.980830502666006,54.542619629310806,1.5990415251333001,0.8567534656749263,A,379.81383300211746,Correct,k
18,24,105,B,85.02890779034166,69.09270533916467,4.251445389517084,1.0853056775508199,B,1189.6015829988755,Correct,d
18,24,106,B,42.28324257585632,29.153792696315644,2.114162128792816,0.457946704795125,A,919.473542002379,Incorrect,k
18,24,107,A,22.054241050466345,39.281201305546155,1.1027120525233172,0.617027667228428,A,1455.2615840075305,Correct,k
18,24,108,A,42.92646519862735,56.69981199848552,2.1463232599313673,0.8906385641718226,A,415.7570410025073,Correct,k
18,24,109,A,14.627662715166778,40.00285178990442,0.7313831357583389,0.6283633265290253,A,728.5274999885587,Correct,k
18,24,110,B,49.548966585625315,27.859761816225465,2.4774483292812657,0.4376201152630767,A,411.9176249951124,Incorrect,k
18,24,111,B,40.933648612214654,31.85624628615738,2.0466824306107325,0.5003967465176957,B,995.2341669995803,Correct,d
18,24,112,A,37.890683042872865,45.254767490701795,1.8945341521436432,0.7108602254435148,B,1261.0992919944692,Incorrect,d
18,24,113,A,42.512121834828164,61.88606263000101,2.1256060917414086,0.972103998590045,A,1317.2208339965437,Correct,k
18,24,114,B,83.35850109637667,65.64026922701288,4.167925054818834,1.0310749379161992,B,1501.151332995505,Correct,d
18,24,115,A,32.620286104100856,57.025522628074846,1.6310143052050428,0.8957548147773924,A,1066.6108340083156,Correct,k
18,24,116,B,63.90572228120317,43.859427066842514,3.1952861140601585,0.688942269319249,A,1354.0703750040848,Incorrect,k
18,24,117,A,51.437654138387195,64.79199291555368,2.57188270691936,1.0177502447747269,B,1159.591082992847,Incorrect,d
18,24,118,B,70.23963210700269,38.96758730827585,3.511981605350135,0.6121014300789914,B,960.0448749988573,Correct,d
18,24,119,B,62.58465495429828,35.700313653018114,3.129232747714914,0.5607792155158655,A,820.1177500013728,Incorrect,k
18,24,120,B,47.23479561509274,30.33495634621946,2.361739780754637,0.47650038002125067,B,1021.2763750023441,Correct,d
18,24,121,A,52.5030986870461,79.68863314244115,2.625154934352305,1.251746122274526,A,1021.2402920005843,Correct,k
18,24,122,B,81.35198745408135,64.93847314333755,4.067599372704068,1.0200511508122365,B,1567.7929579978809,Correct,d
18,24,123,B,50.92304380491557,36.1365722627811,2.546152190245779,0.567631949733349,A,694.8376669897698,Incorrect,k
18,24,124,A,45.421845047648425,71.28954463257946,2.271092252382421,1.1198135484773664,B,975.0754580018111,Incorrect,d
18,24,125,B,85.03834720379004,55.485386566386815,4.251917360189502,0.8715624140927531,B,1199.9843750090804,Correct,d
18,24,126,B,70.40177058909688,44.88410318225532,3.5200885294548443,0.7050378441016979,B,1603.9266669977224,Correct,d
18,24,127,B,68.00417799115532,54.29951127815575,3.4002088995577657,0.8529347286248512,B,964.123459008988,Correct,d
18,24,128,A,55.66629384299492,70.71019271913151,2.7833146921497463,1.1107131099017102,A,1270.9715420060093,Correct,k
18,24,129,A,43.990862162910595,72.1636990998815,2.1995431081455297,1.13354473474026,A,1194.2890000063926,Correct,k
18,24,130,B,82.12444507455407,66.5362239234027,4.1062222537277036,1.0451485613768368,B,1561.3832079980057,Correct,d
18,24,131,B,68.98866814132157,41.005221416984924,3.4494334070660786,0.6441085118121135,A,1947.3779170075431,Incorrect,k
18,24,132,B,38.788758392594545,18.924686393763963,1.9394379196297273,0.2972682787306979,B,1345.7671659998596,Correct,d
18,24,133,A,46.58943076310128,73.25391732606545,2.329471538155064,1.1506698425912065,B,1174.9450420029461,Incorrect,d
18,24,134,A,41.81927056172013,71.2965933681901,2.090963528086007,1.119924269757424,A,838.0157499923371,Correct,k
18,24,135,A,35.62817598826971,65.08631200887147,1.7814087994134855,1.0223733982816188,A,495.8207500021672,Correct,k
18,24,136,A,52.735780628771415,66.30606262967625,2.636789031438571,1.041533196229278,A,683.6064590024762,Correct,k
18,24,137,B,78.94970783318504,51.3994900770207,3.947485391659252,0.8073813021211484,A,729.7562500025379,Incorrect,k
18,24,138,B,54.19558449204493,36.41056718821827,2.7097792246022463,0.5719358519577205,B,949.862708002911,Correct,d
18,24,139,B,35.872219885250985,20.286866959461786,1.7936109942625493,0.31866536102099324,A,4305.491124992841,Incorrect,k
18,24,140,B,70.18406121713035,52.54846279165631,3.5092030608565175,0.8254293233185203,B,1478.157542005647,Correct,d
18,24,141,B,66.5717147164857,41.35278843046401,3.328585735824285,0.6495680816929936,B,1422.5733749917708,Correct,d
18,24,142,B,81.51924032456395,53.318509746732786,4.075962016228198,0.8375251926034575,A,1534.923750004964,Incorrect,k
18,24,143,A,62.37162931256669,72.10226562281963,3.1185814656283344,1.1325797399391502,B,1449.4030409987317,Incorrect,d
18,24,144,A,50.51419655855675,71.22201078269761,2.5257098279278374,1.118752729244079,A,1069.5049999922048,Correct,k
18,24,145,A,27.916424895546776,54.86770388581454,1.3958212447773388,0.8618598772350755,B,1495.075500002713,Incorrect,d
18,24,146,A,51.717432105203166,73.59617169955706,2.5858716052601585,1.1560459617183074,A,721.1669170064852,Correct,k
18,24,147,B,65.86650223465256,57.22287480962352,3.293325111732628,0.8988548155960084,B,1128.0915410025045,Correct,d
18,24,148,B,81.32725757589505,63.71976645703006,4.066362878794752,1.0009077509493147,B,1067.8008340037195,Correct,d
18,24,149,A,39.67808932893705,54.778251973328544,1.9839044664468526,0.8604547698794979,A,967.0751660014503,Correct,k
18,24,150,B,57.09617179587258,39.719710553993586,2.854808589793629,0.6239157543956961,B,1338.5882080037845,Correct,d
18,24,151,A,27.221696019096925,38.763634630028875,1.3610848009548462,0.608897748900688,A,1728.5213750001276,Correct,k
18,24,152,A,51.89302155286225,64.30236280420739,2.5946510776431126,1.0100591529708176,B,1444.539457996143,Incorrect,d
18,24,153,B,50.9456854644248,44.116942072284324,2.5472842732212397,0.6929873055656744,A,510.0910839973949,Incorrect,k
18,24,154,B,41.67559570819581,28.943886188168143,2.0837797854097904,0.45464950107544055,B,1278.5195830074372,Correct,d
18,24,155,A,39.8862289721077,55.536701391709165,1.994311448605385,0.8723684654840178,B,900.2550829900429,Incorrect,d
18,24,156,B,76.20490238264993,47.30561220418737,3.810245119132497,0.7430748188712134,B,1450.4115840099985,Correct,d
18,24,157,B,49.059691265962236,30.848597090854994,2.452984563298112,0.48456862997090766,A,813.0661249888362,Incorrect,k
18,24,158,A,56.65838443467575,67.31958965315123,2.8329192217337877,1.0574536414850966,A,851.9376250042114,Correct,k
18,24,159,A,24.889186224492722,38.95946012767606,1.244459311224636,0.6119737686246578,A,1303.528708012891,Correct,k
18,24,160,A,13.852234355453398,40.55804014332735,0.6926117177726698,0.6370842047913855,A,1054.0609169984236,Correct,k
18,24,161,A,44.9451108507276,62.02373205991853,2.24725554253638,0.9742665049383089,A,713.7372080032947,Correct,k
18,24,162,A,21.432239107118924,47.88000591246037,1.0716119553559462,0.7520973741421068,A,1139.6190410014242,Correct,k
18,24,163,A,55.035398796573304,78.01742719703705,2.751769939828665,1.2254948806709405,A,797.2034999984317,Correct,k
18,24,164,A,22.445040249325093,49.02301221443803,1.1222520124662545,0.770051675148606,A,858.3214590034913,Correct,k
18,24,165,A,51.102345210279495,69.25370339779249,2.555117260513975,1.087834629141957,B,1699.0985830052523,Incorrect,d
18,24,166,A,44.91882886608528,56.84201213389867,2.2459414433042637,0.8928722386755896,A,1035.0928749976447,Correct,k
18,24,167,B,62.60655091951327,48.84191095174093,3.130327545975663,0.7672069431663808,B,1486.0139999946114,Correct,d
18,24,168,B,83.803981457042,60.13546729800991,4.1901990728521,0.9446057114180858,B,1258.229790997575,Correct,d
18,24,169,B,45.90584248970056,18.8574493528484,2.295292124485028,0.2962121217617506,A,1024.8679169890238,Incorrect,k
18,24,170,B,47.86351613605116,36.695432519143054,2.393175806802558,0.576410506112199,B,1332.6745419908548,Correct,d
18,24,171,A,63.69376802598747,75.87410146206787,3.1846884012993737,1.191827598754795,B,1261.7789170035394,Incorrect,d
18,24,172,A,51.69804345497823,77.87722883302091,2.5849021727489117,1.2232926499187484,A,945.1544579933397,Correct,k
18,24,173,A,52.00185376616696,67.8849434033813,2.600092688308348,1.066334197427108,B,914.5582499913871,Incorrect,d
18,24,174,A,18.142545064662198,46.90061661080122,0.9071272532331099,0.7367131629666228,A,1423.8187500013737,Correct,k
18,24,175,A,54.42338346240394,81.16382744320723,2.721169173120197,1.2749184201640476,A,2358.5435839922866,Correct,k
18,24,176,B,82.85401172185418,57.555128988970814,4.142700586092709,0.9040738520408181,B,1145.236666998244,Correct,d
18,24,177,A,48.60416280698728,66.23492730537464,2.430208140349364,1.040415805168095,A,1459.0992090088548,Correct,k
18,24,178,A,40.00049820122713,51.490988395262264,2.0000249100613563,0.8088185543431661,A,1413.335792007274,Correct,k
18,24,179,B,37.24618936342327,21.649407071102925,1.8623094681711634,0.34006809104575936,B,1666.467333008768,Correct,d
18,24,180,A,21.42274207838122,33.43892707841522,1.071137103919061,0.5252574382673703,B,1554.2695000040112,Incorrect,d
18,24,181,B,71.50958392439229,59.487253419638314,3.5754791962196144,0.9344235916268502,B,1084.9992080038646,Correct,d
18,24,182,B,57.600726305011406,29.82371168879209,2.88003631525057,0.46846976772144644,A,770.1186250051251,Incorrect,k
18,24,183,A,26.997327410033673,56.95769838389574,1.3498663705016836,0.8946894340411504,A,920.1080000057118,Correct,k
18,24,184,A,42.38024581853584,69.15986162172604,2.119012290926792,1.086360565970506,B,1537.9506250028498,Incorrect,d
18,24,185,B,57.396515733718566,46.34383484317989,2.8698257866859285,0.7279672554125631,B,1574.833166989265,Correct,d
18,24,186,B,39.685604148625735,16.688911125799674,1.9842802074312869,0.2621488029461261,A,1291.8183330039028,Incorrect,k
18,24,187,A,32.1865802242049,63.88402298197907,1.6093290112102452,1.0034878864097347,A,1554.4378329941537,Correct,k
18,24,188,B,53.94220654719407,24.25763070361424,2.6971103273597032,0.3810379720598434,B,1301.5070000110427,Correct,d
18,24,189,B,46.47608862585642,30.277001825909277,2.323804431292821,0.4755900325450067,A,1184.2612089967588,Incorrect,k
18,24,190,B,60.24780395069451,51.277855438357285,3.012390197534726,0.8054706696849133,B,1663.4552079922287,Correct,d
18,24,191,A,31.41372285517819,58.70202796626792,1.5706861427589096,0.9220892990482492,B,1191.4967500051716,Incorrect,d
18,24,192,A,57.681083556630554,70.54342372329731,2.8840541778315276,1.1080935086409138,A,1589.2586249974556,Correct,k
18,24,193,B,81.73918930894224,53.415466824051215,4.086959465447112,0.8390481908125431,B,1599.7420420026174,Correct,d
18,24,194,A,58.33983138679604,66.90181830425853,2.916991569339802,1.0508913044822887,A,1118.3287080057198,Correct,k
18,24,195,A,51.41313449760409,77.64707452916207,2.570656724880205,1.2196773945677737,B,1232.7590829954715,Incorrect,d
18,24,196,A,41.26088723570432,63.38878375925295,2.063044361785216,0.9957086868903053,A,1705.173249996733,Correct,k
18,24,197,A,52.82517196755001,65.70692031332871,2.6412585983775005,1.032121890731817,A,1297.7230830001645,Correct,k
18,24,198,B,70.80687638679387,59.72549481831853,3.540343819339694,0.9381658787662237,A,1061.415207994287,Incorrect,k
18,24,199,A,13.53159660013079,37.11020349104834,0.6765798300065395,0.5829257133034987,A,931.5531659958651,Correct,k
18,24,200,B,64.27612312886822,31.06913974430637,3.213806156443411,0.48803290587033776,B,950.925583994831,Correct,d
18,24,201,A,37.768240145608154,51.19345347280184,1.8884120072804078,0.8041448867102258,A,2217.82937500393,Correct,k
18,24,202,B,80.76688675901902,62.340693649140015,4.038344337950951,0.9792453259391506,B,1532.08162500232,Correct,d
18,24,203,A,58.331518658338624,75.7173405600114,2.916575932916931,1.1893652042634415,A,1329.793917000643,Correct,k
18,24,204,A,41.07423944994649,57.067142761353644,2.0537119724973247,0.8964085823021427,B,2298.5014580044663,Incorrect,d
18,24,205,A,38.78728263497017,53.374125579081316,1.9393641317485082,0.8383988040551046,A,1360.9520419995533,Correct,k
18,24,206,B,68.59341063445454,44.44003062772916,3.429670531722727,0.6980623687268966,B,2325.99458299228,Correct,d
18,24,207,B,70.5151737288277,48.58051917000858,3.525758686441385,0.7631010106603853,A,2041.9057919934858,Incorrect,k
18,24,208,B,55.83137162494592,44.91678536703147,2.7915685812472963,0.705551214659678,B,1218.9881250087637,Correct,d
18,24,209,A,67.4496578907152,87.31313344808353,3.3724828945357603,1.3715114930120222,B,1523.7682500010123,Incorrect,d
18,24,210,B,75.02227767735161,50.77904485274362,3.7511138838675806,0.7976353713284297,A,1105.5478750058683,Incorrect,k
18,24,211,B,65.37825258992551,55.45857456346819,3.268912629496276,0.8711412521357673,B,1639.5119579974562,Correct,d
18,24,212,A,24.084549146951392,37.217549254328674,1.2042274573475695,0.5846118966100763,A,1086.4069999952335,Correct,k
18,24,213,A,24.120884239169044,34.840913591189775,1.2060442119584522,0.5472797909121929,A,1471.6694590024417,Correct,k
18,24,214,A,28.313513508830024,51.03092138667719,1.4156756754415012,0.8015918386715166,A,1393.7049999949522,Correct,k
18,24,215,A,57.735141691121854,73.02641196795095,2.8867570845560926,1.1470961967826823,B,1545.510625001043,Incorrect,d
18,24,216,A,30.235527154371045,57.68670624087926,1.5117763577185521,0.9061406626806937,A,3776.475082995603,Correct,k
18,24,217,B,46.418606961569424,38.98496178174818,2.320930348078471,0.6123743476700947,A,1473.3499580033822,Incorrect,k
18,24,218,A,20.428815706888784,42.40933998796859,1.0214407853444392,0.6661643547489698,A,1594.655499997316,Correct,k
18,24,219,B,65.14881368700037,39.10449771454829,3.2574406843500183,0.6142520137117188,B,1330.807749996893,Correct,d
18,24,220,B,79.53036130960817,52.240393344483216,3.976518065480408,0.8205901797583479,B,1511.215666992939,Correct,d
18,24,221,A,38.5836336719879,68.89997654307453,1.929181683599395,1.08227830070116,B,938.1680420046905,Incorrect,d
18,24,222,A,29.691887792846003,57.4164343167493,1.4845943896423,0.9018952412241025,B,1547.6418749894947,Incorrect,d
18,24,223,B,45.628958040261615,29.758938771992327,2.2814479020130807,0.46745231712359775,B,1247.7759999892442,Correct,d
18,24,224,A,23.887430762024174,37.66344345790756,1.1943715381012086,0.5916159863812848,A,1305.2737499965588,Correct,k
18,24,225,A,27.586877245997364,38.39054065912525,1.3793438622998682,0.6030372025102408,B,1803.8556250103284,Incorrect,d
18,24,226,B,31.316672096503584,11.424248317176424,1.565833604825179,0.179451672930135,A,1591.8519590049982,Incorrect,k
18,24,227,A,44.186963923670746,63.468042508834024,2.2093481961835373,0.9969536804173883,B,1446.0992499953136,Incorrect,d
18,24,228,A,56.45610155183832,75.27516405633402,2.8228050775919162,1.182419511985727,A,1400.0018749939045,Correct,k
18,24,229,B,50.93977202185666,19.547490897344318,2.546988601092833,0.3070512689960513,B,2160.1492920017336,Correct,d
18,24,230,B,71.90460100867449,51.039333245627944,3.5952300504337247,0.8017239718429301,A,1570.6542920088395,Incorrect,k
18,24,231,B,62.59512848312246,29.985019866734692,3.129756424156123,0.47100359065538855,A,1433.004083999549,Incorrect,k
18,24,232,A,63.449898230323825,78.39489827202345,3.172494911516191,1.2314241824515404,A,2648.8804999971762,Correct,k
18,24,233,B,59.06681908632778,35.249167160479274,2.953340954316389,0.5536926229826014,B,1397.7507910021814,Correct,d
18,24,234,A,61.66900699916033,72.57801691487398,3.0834503499580164,1.1400528237594192,A,2777.3502089985413,Correct,k
18,24,235,B,67.72193474508668,52.478310491799796,3.3860967372543342,0.824327373569212,A,1325.7573329901788,Incorrect,k
18,24,236,A,31.65924741604927,46.52401689251773,1.5829623708024634,0.7307975484251057,A,789.1783339873655,Correct,k
18,24,237,B,74.7893371719723,51.43323860457933,3.7394668585986155,0.8079114227523868,B,1566.273332995479,Correct,d
18,24,238,A,30.241117462078392,46.665607975406,1.5120558731039195,0.7330216559541836,A,1075.2174580120482,Correct,k
18,24,239,B,53.39281031540834,41.95132236451386,2.669640515770417,0.6589698307436697,B,1673.4276249917457,Correct,d
18,24,240,A,59.754605088320496,72.89562797645372,2.987730254416025,1.145041846648208,A,952.9834999993909,Correct,k
18,24,241,A,26.17344787731079,41.983540041843256,1.3086723938655394,0.6594759048357385,A,1133.4856249886798,Correct,k
18,24,242,A,28.22169477154372,46.27580427137919,1.4110847385771859,0.72689863368962,A,905.1891249982873,Correct,k
18,24,243,A,31.66660024082549,62.02447184530925,1.5833300120412743,0.9742781254600525,A,1093.5299580014544,Correct,k
18,24,244,A,38.18060458367741,59.865657120793244,1.9090302291838703,0.9403675430650478,B,1172.9399169998942,Incorrect,d
18,24,245,A,43.19164826917704,67.34792789555321,2.159582413458852,1.0578987775558253,B,1294.09174999455,Incorrect,d
18,24,246,A,15.985189116312288,31.9582605234908,0.7992594558156143,0.501999182410537,B,1151.3827080052579,Incorrect,d
18,24,247,A,44.54662613069238,57.85549881097386,2.227331306534619,0.9087920501716426,A,887.4242500023684,Correct,k
18,24,248,A,53.96035516119899,78.47914585344844,2.6980177580599496,1.2327475403659776,B,1141.1425830010558,Incorrect,d
18,24,249,B,78.49125811088014,48.35385393197656,3.924562905544007,0.7595405614272575,B,1161.4309580036206,Correct,d
18,24,250,A,17.710485071940795,47.910398384466376,0.8855242535970398,0.7525747779759993,A,1578.6555420054356,Correct,k
18,24,251,B,75.44399307412642,45.979494867282035,3.772199653706321,0.7222442164541142,B,1088.1032920005964,Correct,d
18,24,252,B,58.33734721052866,41.297465577378446,2.916867360526433,0.6486990723488474,A,1209.6056660084287,Incorrect,k
18,24,253,A,53.49036273309382,65.73599435142803,2.674518136654691,1.0325785846543323,B,1546.605499999714,Incorrect,d
18,24,254,A,19.661942353059505,50.773076108729455,0.9830971176529752,0.7975416145166994,A,1061.636707992875,Correct,k
18,24,255,B,61.781924279964976,43.31379020692878,3.0890962139982485,0.6803714255660849,A,1343.4397500095656,Incorrect,k
18,24,256,B,52.09184549496732,35.05011690999241,2.604592274748366,0.5505659489594777,A,1259.1297079925425,Incorrect,k
18,24,257,B,81.2381360112693,50.08911447493404,4.061906800563466,0.7867979702963548,B,1541.7551249993267,Correct,d
18,24,258,A,33.17219471259642,59.80547210140908,1.658609735629821,0.9394221589912805,A,899.4094159861561,Correct,k
18,24,259,B,53.930945516530294,36.49343487882428,2.6965472758265143,0.5732375345978594,B,2056.188458998804,Correct,d
18,24,260,A,57.578069583078346,65.49682768787083,2.878903479153917,1.0288217634882577,A,698.0828750092769,Correct,k
18,24,261,B,47.25568875251103,20.728401258363583,2.3627844376255513,0.3256009655696823,A,1643.738625003607,Incorrect,k
18,24,262,B,37.86803324733875,16.464467437380225,1.8934016623669376,0.2586232497327104,B,1299.4307920016581,Correct,d
18,24,263,B,60.238590331436875,46.697990882536104,3.011929516571844,0.7335303254698928,A,897.9460830014432,Incorrect,k
18,24,264,A,21.733936890724944,44.74057219358908,1.0866968445362473,0.702783264603916,A,1677.8847079986008,Correct,k
18,24,265,A,17.582049367493447,39.88098637195266,0.8791024683746724,0.6264490690202057,A,907.2829590004403,Correct,k
18,24,266,A,20.749039630301894,47.30874968074855,1.0374519815150947,0.7431241022377906,A,997.7892910101218,Correct,k
18,24,267,B,48.82924362315998,33.94193147944813,2.4414621811579993,0.5331586129224118,A,680.8552500006044,Incorrect,k
18,24,268,A,17.172071225501238,37.309412741949124,0.858603561275062,0.5860548848992839,A,1653.1214580027154,Correct,k
18,24,269,A,18.50510196743989,37.94791246921055,0.9252550983719945,0.5960844151617019,A,624.6164589974796,Correct,k
18,24,270,A,50.49969209642211,75.30485035024812,2.5249846048211055,1.1828858232000914,B,1293.14512500423,Incorrect,d
18,24,271,B,80.98523605943173,58.52396266297881,4.0492618029715866,0.9192922558048879,B,1878.0496660037898,Correct,d
18,24,272,A,33.154732240958175,62.12147824991156,1.6577366120479087,0.9758018985003015,B,1072.3820419952972,Incorrect,d
18,24,273,B,57.094016268958846,27.810925940340354,2.854700813447942,0.4368530031185154,A,888.1201670010341,Incorrect,k
18,24,274,A,46.42589280753363,71.29924972764562,2.3212946403766814,1.1199659957541777,A,750.1872499997262,Correct,k
18,24,275,A,61.59992581405788,80.36852372504356,3.079996290702894,1.2624258185722692,B,1007.162708992837,Incorrect,d
18,24,276,A,57.743504778630026,73.9877116348745,2.8871752389315013,1.1621962566402089,A,824.5998750062427,Correct,k
18,24,277,B,67.93606562894992,39.153185365567715,3.3968032814474958,0.6150167975455347,B,994.931875000475,Correct,d
18,24,278,A,38.35894053651951,48.11205350940512,1.9179470268259757,0.755742369271331,A,780.7042089989409,Correct,k
18,24,279,A,29.594001380241696,61.512289120204336,1.4797000690120847,0.9662327780276265,A,1264.9039999960223,Correct,k
18,24,280,B,32.24027739493779,12.533417341357115,1.6120138697468895,0.19687445921991215,A,1404.4436250114813,Incorrect,k
18,24,281,A,28.426606880676445,56.06688716495107,1.4213303440338223,0.8806966041352906,A,1006.1122080078349,Correct,k
18,24,282,B,69.12938706712973,41.29511648789308,3.4564693533564865,0.6486621729374983,B,1431.7985840025358,Correct,d
18,24,283,A,50.831572302187126,77.07800873234635,2.5415786151093562,1.210738529934346,A,1001.5201669884846,Correct,k
18,24,284,B,57.16952664701005,26.41122117399766,2.8584763323505022,0.41486649206283116,A,1111.3018339965492,Incorrect,k
18,24,285,A,41.50670135541545,60.7210772515282,2.0753350677707725,0.9538044510572964,A,1199.051250005141,Correct,k
18,24,286,A,24.96726490148268,43.43885756181,1.248363245074134,0.6823359789825787,B,1406.5644999936922,Incorrect,d
18,24,287,B,87.72120492665907,67.18117512163084,4.386060246332954,1.0552794311082243,B,1551.2503330101026,Correct,d
18,24,288,A,54.7479949751149,81.27908361811994,2.737399748755745,1.2767288599259803,B,1398.517042005551,Incorrect,d
18,24,289,B,80.59961793504965,62.277592356236966,4.029980896752482,0.9782541331480694,A,1964.2796670086682,Incorrect,k
18,24,290,B,42.817255964283795,33.74325088148554,2.1408627982141897,0.5300377453875614,A,1100.1907079917146,Incorrect,k
18,24,291,A,16.426618482078904,41.255687284947804,0.8213309241039453,0.6480428204659492,A,969.4396659906488,Correct,k
18,24,292,B,56.221588242673384,28.57158780242635,2.8110794121336693,0.4488014517074919,B,1043.9362920005806,Correct,d
18,24,293,B,83.57681128638626,68.62006378071136,4.178840564319313,1.0778814413117292,A,1351.3390839943895,Incorrect,k
18,24,294,A,30.273579085516026,40.185207762013775,1.5136789542758011,0.63122776744061,B,1018.9815829944564,Incorrect,d
18,24,295,A,66.2978875164426,80.62283713945214,3.3148943758221296,1.266420564344346,B,1144.7884579974925,Incorrect,d
18,24,296,A,51.00318548002208,76.96772753242679,2.550159274001104,1.2090062368968642,A,829.3396669905633,Correct,k
18,24,297,B,49.8339464740729,38.54846470812139,2.491697323703645,0.6055178676709978,B,1625.137333991006,Correct,d
18,24,298,B,68.59797292463658,35.99714871682113,3.4298986462318286,0.5654418897947227,A,1462.820583008579,Incorrect,k
18,24,299,A,42.516445775558395,49.93930864431806,2.1258222887779197,0.7844448258117145,B,1066.9929590076208,Incorrect,d
18,24,300,B,79.85208212557228,55.84832226743053,3.992604106278614,0.877263394753375,B,1329.3996249994962,Correct,d
18,24,301,A,68.00858541346679,80.9457301893896,3.4004292706733397,1.2714925565122392,A,1049.1382909967797,Correct,k
18,24,302,A,31.237917059586923,61.90462866117299,1.5618958529793463,0.9723956331257262,A,1417.2188750089845,Correct,k
18,24,303,A,62.908549890548166,84.89260572946901,3.1454274945274086,1.333489932518973,B,1186.811834006221,Incorrect,d
18,24,304,B,48.91592480074627,35.01977761760455,2.445796240037313,0.5500893804690735,A,834.8369580053259,Incorrect,k
18,24,305,A,30.04840956667756,38.8804449033384,1.502420478333878,0.6107326003831532,A,1774.741625005845,Correct,k
18,24,306,A,30.216907889721302,54.79050242051486,1.5108453944860651,0.8606471994539163,A,710.6708339997567,Correct,k
18,24,307,B,42.51596559183824,34.01323000282583,2.125798279591912,0.5342785675086877,A,807.677666991367,Incorrect,k
18,24,308,A,35.44289789755168,57.54872983166251,1.7721448948775842,0.9039733343128735,B,1319.8109170043608,Incorrect,d
18,24,309,B,78.07467226217648,53.797456388423186,3.903733613108824,0.8450484688584378,B,1387.8317909984617,Correct,d
18,24,310,B,56.1949127479442,47.34691282539448,2.80974563739721,0.7437235675120782,A,1475.6403750070604,Incorrect,k
18,24,311,B,55.21906948607988,43.71912480859152,2.760953474303994,0.686738406600232,B,1242.7837919967715,Correct,d
18,24,312,B,51.148421239461484,42.39391736337397,2.557421061973074,0.6659220967283422,A,2494.8026670026593,Incorrect,k
18,24,313,A,39.383590955654874,63.7181758198092,1.9691795477827438,1.000882765278277,A,588.0995420011459,Correct,k
18,24,314,A,26.976413774112935,43.62669609265137,1.3488206887056466,0.6852865397253404,A,482.78087499784306,Correct,k
18,24,315,A,29.760352032938002,44.63409136798067,1.4880176016469,0.7011106677065183,A,724.6803750022082,Correct,k
18,24,316,A,13.835615290076902,35.08703173775298,0.6917807645038451,0.5511458057179834,A,953.1797919917153,Correct,k
18,24,317,B,52.067797687596304,35.95706818153534,2.603389884379815,0.5648123062186936,A,598.810333001893,Incorrect,k
18,24,318,B,70.61379910265889,47.510840512770194,3.5306899551329445,0.7462985376039757,B,1077.258958001039,Correct,d
18,24,319,A,60.12790382229592,72.1461183380983,3.0063951911147964,1.1332685767799475,B,398.11500000359956,Incorrect,d
18,24,320,A,52.190989020962974,64.88114179652001,2.609549451048149,1.0191505921223247,A,1537.8679999994347,Correct,k
18,24,321,A,37.59738881097329,65.79512781894637,1.8798694405486644,1.0335074509900166,A,816.1663750070147,Correct,k
18,24,322,B,57.62427973087614,35.88873904097958,2.881213986543807,0.5637389945887132,A,1081.7819160001818,Incorrect,k
18,24,323,A,22.09253596402251,50.104188358523174,1.1046267982011255,0.7870347503060782,A,716.722708006273,Correct,k
18,24,324,B,84.3854801573702,55.02825464138872,4.21927400786851,0.8643818026062764,A,1554.732165997848,Incorrect,k
18,24,325,A,45.539032848631074,57.152893434821266,2.2769516424315537,0.897755550731174,A,942.9638750007143,Correct,k
18,24,326,B,59.55623205202257,42.900582337199474,2.9778116026011285,0.6738807715263495,A,718.1175419973442,Incorrect,k
18,24,327,B,45.15696157610824,31.677394960739058,2.257848078805412,0.4975873564676008,B,906.8069999921136,Correct,d
18,24,328,B,64.7638592434284,52.73574349284141,3.2381929621714196,0.8283711216935317,B,943.6829579935875,Correct,d
18,24,329,B,79.9152499985336,66.51207879957781,3.9957624999266796,1.0447692906586954,B,4170.464000009815,Correct,d
18,24,330,A,29.460091564167957,60.445216026367255,1.473004578208398,0.949471233065417,A,1010.4316250071861,Correct,k
18,24,331,B,80.32048687491302,67.57341487938791,4.01602434374565,1.0614407188153012,B,1210.876165991067,Correct,d
18,24,332,B,58.39581151257503,35.53323219196807,2.919790575628751,0.5581547060629362,B,1292.7515000046697,Correct,d
18,24,333,A,25.43600462878434,56.31378636959275,1.271800231439217,0.884574887772688,A,1316.0642080038087,Correct,k
18,24,334,A,34.29649607787575,44.67899098774555,1.7148248038937877,0.7018159492845301,A,1954.1627909929957,Correct,k
18,24,335,A,29.554583569532138,59.72947660133552,1.477729178476607,0.9382284244675957,A,957.758709002519,Correct,k
18,24,336,B,31.90954632699455,13.970558396850244,1.5954773163497276,0.21944901813045964,B,1652.6127079996513,Correct,d
18,24,337,A,17.04710443246767,31.42896227304571,0.8523552216233835,0.4936849849347558,B,1213.397541010636,Incorrect,d
18,24,338,A,51.20371803924601,61.003596442093155,2.560185901962301,0.9582422521251814,A,1121.5857920033159,Correct,k
18,24,339,A,30.788400194067545,59.25850489024624,1.5394200097033772,0.930830418129562,A,685.7267090090318,Correct,k
18,24,340,A,55.823907948700295,74.01049671782641,2.7911953974350148,1.1625541638862746,A,715.7659579970641,Correct,k
18,24,341,B,48.432954652812356,38.89022973910428,2.4216477326406176,0.6108863002239464,A,777.0097090105992,Incorrect,k
18,24,342,A,30.46641372785908,63.230829950966566,1.523320686392954,0.99322755427171,A,924.1470000124536,Correct,k
18,24,343,B,59.73763085617098,34.87710357160553,2.986881542808549,0.5478482617952314,B,1636.5458340005716,Correct,d
18,24,344,B,56.23381784461421,24.444095026742055,2.8116908922307107,0.3839669467983182,A,1106.0089590027928,Incorrect,k
18,24,345,B,80.53964545708136,53.34831382430396,4.026982272854068,0.8379933539591806,B,1326.960374994087,Correct,d
18,24,346,A,20.243166380661506,47.58688341035647,1.0121583190330754,0.7474930166460496,A,1809.0449169976637,Correct,k
18,24,347,B,76.01404840389611,62.3688718219066,3.800702420194806,0.979687947641926,B,1604.339625002467,Correct,d
18,24,348,B,49.72695017235769,29.371214825905952,2.4863475086178846,0.4613619636203688,A,1083.0024580063764,Incorrect,k
18,24,349,A,45.36240556791185,73.24022235091567,2.2681202783955925,1.150454722424598,A,1130.4547079926124,Correct,k
18,24,350,A,47.79500112626559,75.85392681433109,2.3897500563132796,1.191510696129202,B,1028.5324169963133,Incorrect,d
18,24,351,B,75.46749909070103,59.04194053262769,3.7733749545350515,0.9274286331549431,B,1371.7167080030777,Correct,d
18,24,352,A,32.087979211213806,44.6215668365262,1.60439896056069,0.7009139328264832,A,1046.569250000175,Correct,k
18,24,353,B,69.75091547480005,49.76525065269222,3.487545773740003,0.7817107292727625,B,1816.276375000598,Correct,d
18,24,354,B,46.11485555929379,35.9343556677934,2.3057427779646895,0.5644555388871123,A,1495.8094580069883,Incorrect,k
18,24,355,B,60.49788924730367,34.02902519304114,3.0248944623651837,0.5345266777764002,B,3044.2108749994077,Correct,d
18,24,356,A,50.38656973711785,61.447649128410795,2.5193284868558923,0.9652174154108929,A,1326.1231669894187,Correct,k
18,24,357,B,63.52431381721978,31.678369289071817,3.176215690860989,0.4976026611812627,A,465.4255000059493,Incorrect,k
18,24,358,A,67.21281954969858,89.76275993359906,3.3606409774849286,1.409990135866695,B,1589.7635000001173,Incorrect,d
18,24,359,B,76.21998129470946,51.22473764775926,3.810999064735473,0.804636297381325,A,1202.7945000008913,Incorrect,k
18,24,360,B,65.34846742324547,48.564134838009224,3.267423371162273,0.7628436461751694,A,741.6682500042953,Incorrect,k
18,24,361,A,52.1989941109979,67.89628462385639,2.609949705549895,1.0665123449017442,B,1035.1971250056522,Incorrect,d
18,24,362,A,40.32560946357816,47.88445887523389,2.016280473178908,0.7521673211177868,A,1044.6602080046432,Correct,k
18,24,363,A,15.936168808513713,33.904271197364125,0.7968084404256857,0.5325670465947757,A,737.3590420029359,Correct,k
18,24,364,B,49.80786630306467,28.20085786533579,2.4903933151532334,0.44297803947334424,A,427.9356250044657,Incorrect,k
18,24,365,B,72.55119342975672,47.590280176004555,3.627559671487836,0.7475463729160794,B,1325.7830829970771,Correct,d
18,24,366,B,39.028599404204016,18.447650845622004,1.9514299702102007,0.2897750218629781,B,759.7054170037154,Correct,d
18,24,367,A,19.84178006183914,45.36032249872539,0.9920890030919568,0.7125182796322974,B,449.91158301127143,Incorrect,d
18,24,368,B,34.90586646786014,21.32175927157746,1.745293323393007,0.334921411445989,B,331.66437500040047,Correct,d
18,24,369,B,64.52701763238655,40.56489919899692,3.2263508816193274,0.6371919465858961,B,1852.9116669960786,Correct,d
18,24,370,A,33.764827335557165,66.4639174775009,1.6882413667778582,1.0440127743805754,A,1218.0614999961108,Correct,k
18,24,371,B,37.91946466545248,24.545170361075115,1.8959732332726242,0.3855546344373175,B,345.884082998964,Correct,d
18,24,372,B,47.28998803825522,19.984139261969386,2.3644994019127608,0.31391012546859187,B,531.2905000027968,Correct,d
18,24,373,A,32.22373356917479,49.585288357528334,1.6111866784587394,0.7788838881507126,B,526.9002089917194,Incorrect,d
18,24,374,A,21.640643138953827,46.32469935405236,1.0820321569476914,0.7276666758522338,B,969.8142080014804,Incorrect,d
18,24,375,A,65.71389501074492,82.31894380553938,3.285694750537246,1.2930629455537677,B,771.3659169967286,Incorrect,d
18,24,376,B,38.06581144487393,20.437753904042978,1.9032905722436966,0.3210354876040877,A,617.9057080007624,Incorrect,k
18,24,377,B,69.12721829583015,44.342459507032764,3.4563609147915075,0.696529725146985,B,523.0362090078415,Correct,d
18,24,378,B,59.77549513463926,30.299065191036053,2.9887747567319627,0.47593660307398533,A,859.3611669930397,Incorrect,k
18,24,379,A,28.363416173516896,56.823973687937524,1.4181708086758449,0.8925888914290211,A,1916.5162919962313,Correct,k
18,24,380,B,62.15153755662883,33.394204213310374,3.1075768778314417,0.524554933145066,B,797.0260830043117,Correct,d
18,24,381,A,40.798904459679456,68.34528751124913,2.0399452229839725,1.0735652657641124,A,1522.8604580042884,Correct,k
18,24,382,B,57.22421010300261,36.4774645605863,2.8612105051501304,0.5729866734255998,B,931.5833340078825,Correct,d
18,24,383,A,12.37903452187927,37.701156005567796,0.6189517260939634,0.5922083736946725,A,998.8627920101862,Correct,k
18,24,384,B,72.21703742878002,51.26940486980486,3.610851871439001,0.8053379284644985,B,855.0768329878338,Correct,d
18,24,385,A,59.77472077760352,75.40675013093517,2.9887360388801762,1.1844864612121353,A,1048.3438749943161,Correct,k
18,24,386,B,63.79877174036613,41.54953186096091,3.189938587018306,0.6526585202724492,B,1512.780290999217,Correct,d
18,24,387,A,26.03864831676964,44.795106754540555,1.301932415838482,0.7036398914841756,A,1417.1066250128206,Correct,k
18,24,388,A,23.934419955215205,42.115038789777074,1.1967209977607602,0.6615414823380641,A,1146.7037499969592,Correct,k
18,24,389,B,30.165967894584302,12.918428239093906,1.5082983947292152,0.2029221962593217,B,3064.83095799922,Correct,d
18,24,390,A,65.5008856681782,79.75197946371317,3.2750442834089095,1.2527411639622266,A,1717.74095800356,Correct,k
18,24,391,A,34.87766112483871,56.208510380748834,1.7438830562419354,0.8829212164069309,B,677.1874580008443,Incorrect,d
18,24,392,A,56.724782792036294,81.38839755135834,2.836239139601815,1.2784459591739643,A,1211.1053749977145,Correct,k
18,24,393,A,11.881587481411465,33.091419979701236,0.5940793740705732,0.5197988095254196,B,1196.146417001728,Incorrect,d
18,24,394,B,88.06063949962923,68.64513970429026,4.403031974981462,1.0782753329982167,B,1328.349666990107,Correct,d
18,24,395,B,67.47206452971488,48.0057172037062,3.373603226485744,0.7540720424873628,A,836.4852920058183,Incorrect,k
18,24,396,B,75.85490540037699,58.061064154636355,3.7927452700188495,0.9120210630390563,B,983.0557079985738,Correct,d
18,24,397,B,45.827251279795284,19.28769151762358,2.291362563989764,0.302970349882362,A,967.8092499962077,Incorrect,k
18,24,398,A,27.894589535498646,56.39585888365498,1.3947294767749323,0.8858640798088858,B,540.6559999973979,Incorrect,d
18,24,399,A,12.269415580796082,38.7123718663052,0.6134707790398041,0.6080925152911031,A,1102.467999997316,Correct,k
18,24,400,B,54.94738350516958,25.08363761724017,2.747369175258479,0.39401285831815147,B,1032.2623329993803,Correct,d
18,24,401,B,40.78582695514691,18.787517709340936,2.0392913477573456,0.2951136380742681,A,1419.0130420029163,Incorrect,k
18,24,402,A,13.29918926623197,40.96637613838301,0.6649594633115984,0.6434983316027013,A,1278.420874994481,Correct,k
18,24,403,A,14.174332819460126,40.63783049427998,0.7087166409730062,0.6383375486932863,A,1228.0111660074908,Correct,k
18,24,404,B,39.75090460058331,19.011235868328736,1.9875452300291656,0.29862779469802164,B,1192.646874987986,Correct,d
18,24,405,B,41.21397067113632,28.330509328731164,2.0606985335568164,0.44501459989799463,A,1062.7512079954613,Incorrect,k
18,24,406,A,20.38534699236615,48.57366687682371,1.0192673496183076,0.7629933750907362,A,1576.6230410081334,Correct,k
18,24,407,B,51.30050624102249,24.994819266856766,2.565025312051125,0.39261770293280923,B,1148.360541992588,Correct,d
18,24,408,B,79.91180740793195,60.76975622131377,3.9955903703965974,0.95456909852661,A,3198.2897499983665,Incorrect,k
18,24,409,A,48.55552891447752,74.92135444317107,2.427776445723876,1.176861883578316,B,1084.1489169979468,Incorrect,d
18,24,410,A,69.40472533470337,84.43747885725291,3.4702362667351685,1.3263408163279462,A,1045.1774169923738,Correct,k
18,24,411,A,41.177919075588704,49.29546062357278,2.058895953779435,0.7743312847517059,A,1206.507375012734,Correct,k
18,24,412,B,79.8909197217106,66.62884636107955,3.99454598608553,1.0466034712256527,B,1252.4375409993809,Correct,d
18,24,413,A,31.70634480327946,58.514382804810964,1.585317240163973,0.9191417757446751,A,1391.1872500029858,Correct,k
18,24,414,B,75.6188384512847,51.38061725434335,3.780941922564235,0.8070848485157701,A,963.762166997185,Incorrect,k
18,24,415,A,28.937134164609954,42.20808865736218,1.4468567082304977,0.6630031062401786,A,1288.8907919987105,Correct,k
18,24,416,B,86.57074857388639,69.67563083164384,4.328537428694319,1.0944622497746341,B,2585.3569169994444,Correct,d
18,24,417,B,85.6739388138594,69.73882557844442,4.28369694069297,1.0954549105361047,B,3106.2012089969357,Correct,d
18,24,418,B,56.25061906499544,30.741478408523328,2.812530953249772,0.4828860136435307,A,1869.1015829972457,Incorrect,k
18,24,419,A,53.68195311329928,67.7451371760033,2.684097655664964,1.0641381263428238,B,992.0510840020142,Incorrect,d
18,24,420,A,59.997395316995615,71.40231792106165,2.999869765849781,1.1215849871504506,A,631.8931249988964,Correct,k
18,24,421,B,73.6742878720765,43.08573130865941,3.6837143936038252,0.6767890847691409,B,1016.1544169968693,Correct,d
18,24,422,A,53.04797529916087,61.38547499061269,2.652398764958043,0.964240786338144,A,1740.8072919934057,Correct,k
18,24,423,B,64.28058719249293,41.7473508247473,3.2140293596246465,0.6557658532893095,B,1212.8328329999931,Correct,d
18,24,424,B,44.0925359702243,16.071663810403454,2.204626798511215,0.2524531047886422,A,1439.9411250051344,Incorrect,k
18,24,425,A,48.86797606449194,62.04952193966205,2.443398803224597,0.974671611422005,B,1769.2368749994785,Incorrect,d
18,24,426,A,45.74617743239621,59.05853299042709,2.2873088716198104,0.927689266872581,A,736.2123339989921,Correct,k
18,24,427,A,27.787501045520344,60.47946498544052,1.389375052276017,0.9500092144565053,A,3560.6104579928797,Correct,k
18,24,428,B,34.403075583397914,18.712382096082035,1.7201537791698955,0.2939334106210824,B,1920.7527079997817,Correct,d
18,24,429,B,67.663783335297,47.90830718477418,3.38318916676485,0.7525419294880483,B,1210.0367079983698,Correct,d
18,24,430,B,88.03239724289335,61.07531643258621,4.401619862144668,0.9593688271014241,A,1047.2287500015227,Incorrect,k
18,24,431,B,75.7953843650363,57.69442406151304,3.7897692182518146,0.9062618939237178,B,1700.893957997323,Correct,d
18,24,432,A,65.18304812084624,81.89958205047961,3.259152406042312,1.2864756265093062,A,2247.2707919951063,Correct,k
18,24,433,A,25.945391146300047,37.72670075710458,1.2972695573150022,0.5926096297135012,B,1215.3149579971796,Incorrect,d
18,24,434,B,80.43401132633929,57.11942092324887,4.021700566316964,0.8972297657489089,B,863.631667001755,Correct,d
18,24,435,A,32.48489344499272,43.817967445546444,1.6242446722496362,0.688291023110827,A,1158.716292004101,Correct,k
18,24,436,B,67.0591978963594,44.27714373541449,3.3529598948179693,0.6955037474055875,B,1978.3928329998162,Correct,d
18,24,437,A,63.11817383336877,83.9443482616124,3.1559086916684382,1.3185947390453232,A,1545.5338329920778,Correct,k
18,24,438,A,26.46686130887346,49.03258478648592,1.323343065443673,0.770202040758714,A,2159.0286669961642,Correct,k
18,24,439,B,61.60396986038725,29.414983603612974,3.0801984930193624,0.46204948197287365,B,882.3486660112394,Correct,d
18,24,440,B,45.68793919157131,29.924314519133528,2.2843969595785656,0.47005003328510137,A,1069.1311669943389,Incorrect,k
18,24,441,B,80.08937684337576,63.914988236241,4.004468842168788,1.0039742874862638,B,1219.1493330028607,Correct,d
18,24,442,A,65.43916950001841,79.37687650831971,3.2719584750009205,1.2468490605172073,A,1268.8478339987341,Correct,k
18,24,443,B,57.11910270352142,31.454608599459903,2.855955135176071,0.49408783648802773,B,1168.924124998739,Correct,d
18,24,444,B,41.471396418672185,26.74273183078083,2.073569820933609,0.42007384928251484,A,1124.9945829913486,Incorrect,k
18,24,445,A,25.522638675481396,49.657677826449955,1.27613193377407,0.7800209792695196,B,1529.7815419908147,Incorrect,d
18,24,446,A,33.81946968718772,51.624817617061645,1.6909734843593862,0.8109207388433688,A,1203.1074169935891,Correct,k
18,24,447,B,48.94119132768402,35.79806726061089,2.4470595663842007,0.5623147255932424,B,1355.8128330041654,Correct,d
18,24,448,A,52.650858974557636,74.8680801810638,2.632542948727882,1.1760250534260082,A,2118.3637080102926,Correct,k
18,24,449,A,43.117429984852535,68.08404699812084,2.155871499242627,1.0694617093797931,A,1593.0553750076797,Correct,k
18,24,450,B,59.535256289058644,27.617701087911165,2.976762814452932,0.4338178342341028,B,1897.4113330041291,Correct,d
18,24,451,B,64.85333176840645,38.40400595794982,3.2426665884203225,0.603248714929569,A,1140.4288750054548,Incorrect,k
18,24,452,A,27.69446062062281,54.984549823471326,1.3847230310311405,0.8636952889317974,A,1295.2468330040574,Correct,k
18,24,453,B,50.362274925172315,41.030902525121476,2.5181137462586154,0.6445119097154026,B,992.1657499944558,Correct,d
18,24,454,A,59.933257327436635,82.99920074901954,2.9966628663718318,1.303748396634721,A,1160.7650840014685,Correct,k
18,24,455,B,54.94142796326171,43.415815135278095,2.747071398163085,0.6819740293930111,B,802.1020000014687,Correct,d
18,24,456,B,69.43803263982079,58.68473900213855,3.4719016319910394,0.9218177246347643,A,686.5634999994654,Incorrect,k
18,24,457,A,21.143502993847214,33.97050080011911,1.0571751496923607,0.5336073787621021,A,942.357499996433,Correct,k
18,24,458,B,48.71609123442328,20.791287723939966,2.4358045617211643,0.32658878386100726,B,782.3755840072408,Correct,d
18,24,459,B,31.270868489084656,11.96739412524094,1.5635434244542328,0.18798338733235292,A,1368.7954580091173,Incorrect,k
18,24,460,A,36.24146552127955,65.90470385309824,1.8120732760639777,1.035228667309522,B,2014.576332992874,Incorrect,d
18,24,461,A,58.094368962742934,76.27911561503036,2.9047184481371464,1.1981895461925292,A,788.7304579926422,Correct,k
18,24,462,A,17.50189488156269,39.04629393670932,0.8750947440781346,0.6133377509073684,A,1036.5220840030815,Correct,k
18,24,463,A,31.90269185233021,56.041451781655425,1.5951345926165106,0.8802970660687764,A,1216.7557499924442,Correct,k
18,24,464,A,42.93945520931881,50.391368782957876,2.1469727604659403,0.7915457698643724,A,844.4219999946654,Correct,k
18,24,465,B,78.17253714580156,54.57669373298444,3.908626857290078,0.8572887004438201,B,1101.9726669910597,Correct,d
18,24,466,B,78.19755254538077,57.34873789227372,3.9098776272690383,0.9008318682750686,B,416.97591700358316,Correct,d
18,24,467,B,44.05180352593638,26.607288883517068,2.2025901762968187,0.4179463164419929,B,351.6119999985676,Correct,d
18,24,468,A,27.456917712347668,52.89639509853049,1.3728458856173833,0.8308946312146328,A,737.1947079955135,Correct,k
18,24,469,A,17.247615408196832,44.77598271665013,0.8623807704098416,0.7033394917994579,A,2001.2710419978248,Correct,k
18,24,470,A,57.9802503093765,85.41482995720928,2.8990125154688253,1.3416930115059504,B,1257.8377499885391,Incorrect,d
18,24,471,A,34.03100004323553,49.03608581096006,1.7015500021617767,0.7702570347225541,A,1737.3965000006137,Correct,k
18,24,472,A,46.729565682537064,57.339595249090706,2.336478284126853,0.9006882559717779,B,1160.3181660029804,Incorrect,d
18,24,473,B,49.21800154406024,34.948230636202645,2.4609000772030125,0.5489655231132798,A,1198.0947089905385,Incorrect,k
18,24,474,B,48.332825113805754,24.268298832932317,2.416641255690288,0.3812055466433095,A,1146.4680830104044,Incorrect,k
18,24,475,A,43.71643444725568,59.77507839615896,2.1858217223627836,0.9389447357856349,B,813.4469159995206,Incorrect,d
18,24,476,A,63.78687862915571,76.17345812511621,3.189343931457785,1.1965298822219743,A,1177.3050420015352,Correct,k
18,24,477,A,17.969941173272865,43.32114108141046,0.8984970586636433,0.6804868928324305,B,1011.3659159978852,Incorrect,d
18,24,478,B,82.32026546954178,67.8951813233839,4.116013273477089,1.0664950142984488,B,1273.9245419943472,Correct,d
18,24,479,B,71.21757243790493,50.99922146879423,3.560878621895247,0.8010938975258141,A,934.6786670066649,Incorrect,k
18,24,480,A,41.55385066914551,74.34453628546518,2.0776925334572756,1.1678012451447861,A,1513.9793749985984,Correct,k
18,24,481,B,68.42250526443273,41.02330333202026,3.4211252632216365,0.6443925418693027,B,1137.4262079916662,Correct,d
18,24,482,A,33.39743960143585,63.317409109267814,1.6698719800717925,0.9945875365100761,A,876.7736250010785,Correct,k
18,24,483,B,52.814896373134715,37.834573477332995,2.640744818656736,0.5943040904404628,A,1170.5650829972,Incorrect,k
18,24,484,A,41.610845960162415,50.16914160805769,2.0805422980081207,0.7880550335639004,B,1181.8797919986537,Incorrect,d
18,24,485,B,68.37573041618101,46.31164091983227,3.4187865208090504,0.7274615544471675,A,873.402791999979,Incorrect,k
18,24,486,A,26.298600691967195,50.83550085330105,1.3149300345983597,0.7985221801114413,A,1895.6182920082938,Correct,k
18,24,487,A,39.43107065419116,52.25693421689235,1.971553532709558,0.8208500031745704,A,1579.8304999916581,Correct,k
18,24,488,B,86.29754134085232,66.09335275098402,4.314877067042616,1.038191957268051,B,1346.7184999899473,Correct,d
18,24,489,B,51.04941874839263,30.603460419860465,2.5524709374196317,0.4807180321472982,A,879.0305409929715,Incorrect,k
18,24,490,A,43.50949618381949,56.18310952956044,2.1754748091909746,0.8825222207694889,B,1358.5810829972615,Incorrect,d
18,24,491,A,43.390022811139794,58.512998892199384,2.16950114055699,0.9191200372962064,A,1363.0523749889107,Correct,k
18,24,492,B,80.31474220374326,52.51690354592585,4.015737110187163,0.824933591845822,A,1245.908083001268,Incorrect,k
18,24,493,A,44.81538650539497,59.180607063282956,2.2407693252697483,0.9296068019249699,B,1230.0321249931585,Incorrect,d
18,24,494,B,51.62225992261942,24.406399284694814,2.581112996130971,0.383374823466882,A,987.4111249955604,Incorrect,k
18,24,495,B,82.95520412903113,53.35941529194627,4.147760206451556,0.8381677354051265,B,1430.4230410052696,Correct,d
18,24,496,B,57.42745531771648,49.45831005973301,2.8713727658858237,0.7768893177131168,B,861.4220830058912,Correct,d
18,24,497,B,54.27648762341219,34.59387549938719,2.713824381170609,0.5433993256403736,B,853.4745409997413,Correct,d
18,24,498,B,76.95524890556045,53.54810707596747,3.8477624452780224,0.8411316990174953,A,1037.0278330083238,Incorrect,k
18,24,499,B,56.94890293387393,48.05626123800479,2.8474451466936967,0.7548659863215388,A,1048.384374997113,Incorrect,k
18,24,500,B,62.66477596786852,46.355697313811845,3.1332387983934264,0.728153590665517,B,747.4212919914862,Correct,d
18,24,501,A,47.34438131810763,60.73435403445348,2.3672190659053816,0.9540130022758033,A,986.6690000053495,Correct,k
18,24,502,A,25.500861215887042,38.20015437548286,1.2750430607943521,0.6000466217600647,B,2406.867500001681,Incorrect,d
18,24,503,A,19.287766476969686,45.889120665515144,0.9643883238484844,0.7208246218123896,A,1100.3584580030292,Correct,k
18,24,504,A,58.94331626562794,85.40301253988237,2.947165813281397,1.341507383948657,B,1123.4073750092648,Incorrect,d
18,24,505,B,32.95324756138491,20.910436582703824,1.6476623780692454,0.32846036975788795,B,1122.211541995057,Correct,d
18,24,506,A,25.753043328765003,40.188300556002616,1.28765216643825,0.6312763489349821,A,2689.456957989023,Correct,k
18,24,507,B,46.18491589258972,27.397566326687922,2.309245794629486,0.4303599654908093,B,965.231665992178,Correct,d
18,24,508,B,36.06251697650921,18.645401885694238,1.8031258488254605,0.2928812879366315,A,925.3943749936298,Incorrect,k
18,24,509,B,59.59287400559772,41.87870447712108,2.979643700279886,0.6578291516359078,A,1067.7110839897068,Incorrect,k
18,24,510,B,78.39677181452386,55.15442533058351,3.919838590726193,0.8663636871576398,B,256.86258399218787,Correct,d
18,24,511,B,75.64672752591248,44.49469212228036,3.782336376295624,0.6989209894754781,B,754.7828329988988,Correct,d
18,24,512,B,49.46568662894493,27.806825760849655,2.4732843314472466,0.4367885976496835,B,729.7281670034863,Correct,d
18,24,513,A,40.736650896775075,50.46378937837761,2.0368325448387536,0.7926833499170687,A,954.8542919947067,Correct,k
18,24,514,B,48.16746601519176,30.71956556790967,2.408373300759588,0.48254180754807496,A,1067.2417919995496,Incorrect,k
18,24,515,A,16.370788169789364,32.43040335964713,0.8185394084894682,0.5094155847381059,A,1131.3153749943012,Correct,k
18,24,516,A,22.370087151682434,37.019786611360615,1.1185043575841218,0.5815054482785614,A,1063.1176669994602,Correct,k
18,24,517,B,66.34593156185072,50.0546716927792,3.317296578092536,0.7862569443394207,A,1286.961167003028,Incorrect,k
18,24,518,B,84.43821601816731,68.13442911631007,4.221910800908365,1.0702531098416712,B,1920.7212920009624,Correct,d
18,24,519,A,27.704755952426165,46.21037412916821,1.3852377976213084,0.7258708594191533,B,621.73799998709,Incorrect,d
18,24,520,A,33.023133887897515,52.970547015763735,1.651156694394876,0.8320594068067806,A,850.111374995322,Correct,k
18,24,521,A,46.20304797108286,69.97365142216526,2.310152398554143,1.0991435462636368,A,2621.8599999992875,Correct,k
18,24,522,A,32.38095242095408,60.93936218449035,1.619047621047704,0.9572332627662126,A,790.6530420004856,Correct,k
18,24,523,B,49.528534060730266,32.43449001598832,2.4764267030365135,0.5094797777858019,B,1121.0969170060707,Correct,d
18,24,524,A,25.840900930176034,50.12844487320363,1.2920450465088016,0.7874157707476872,B,734.4477079896023,Incorrect,d
18,24,525,A,27.80736365984867,54.84800621536546,1.3903681829924335,0.8615504669511972,A,1120.0704160000896,Correct,k
18,24,526,A,40.21458164904927,47.80699518598491,2.0107290824524635,0.7509505243324641,B,1028.7760829960462,Incorrect,d
18,24,527,B,54.00095487074138,39.50234069592032,2.7000477435370693,0.6205013166495219,B,1415.4823330027284,Correct,d
18,24,528,A,65.25288832265448,84.2027246859419,3.262644416132724,1.322653306427995,A,1025.183334000758,Correct,k
18,24,529,A,61.30179159007865,83.81100321696088,3.065089579503933,1.316500159981974,B,959.401957996306,Incorrect,d
18,24,530,B,78.84243082077265,49.02042265612384,3.9421215410386323,0.7700109984617266,B,1312.0400000043446,Correct,d
18,24,531,B,71.51669617346852,44.24838441365702,3.575834808673426,0.69505199703581,A,1270.243249993655,Incorrect,k
18,24,532,B,51.64388520999023,41.422835458686905,2.5821942604995116,0.6506683778393477,B,983.5691250045784,Correct,d
18,24,533,A,27.201005798224127,39.65124127440978,1.3600502899112064,0.6228402414670107,A,915.9761250048177,Correct,k
18,24,534,B,67.01747169650409,40.69673060104736,3.3508735848252047,0.6392627494068667,B,970.316915991134,Correct,d
18,24,535,A,47.39567749900526,67.57509670528363,2.3697838749502633,1.0614671368746944,A,1371.4771669910988,Correct,k
18,24,536,B,41.13285321932361,24.13387741732246,2.0566426609661805,0.37909405998448426,B,1577.3143750120653,Correct,d
18,24,537,A,50.72820753288492,79.11817711717612,2.5364103766442465,1.2427854199836827,B,1916.7827920027776,Incorrect,d
18,24,538,B,86.97617610331605,62.236335217858006,4.3488088051658025,0.9776060675338721,B,1071.6610829986166,Correct,d
18,24,539,B,54.151466984200574,32.40433352523106,2.707573349210029,0.5090060807366967,A,2058.734000005643,Incorrect,k
18,24,540,A,35.837762478418,54.98256704259525,1.7918881239209,0.8636641434826275,A,1412.7997500036145,Correct,k
18,24,541,A,48.96608108316124,65.12089311770745,2.4483040541580623,1.022916597068979,A,1054.4537500099977,Correct,k
18,24,542,A,19.82506056790337,49.28007409358638,0.9912530283951685,0.7740895937038582,A,1997.298916001455,Correct,k
18,24,543,B,76.94366080819582,59.887318648933004,3.847183040409791,0.9407078015533947,B,1059.1983339982107,Correct,d
18,24,544,A,45.13377139513072,61.738250875708445,2.256688569756536,0.9697821769830463,A,883.3202910027467,Correct,k
18,24,545,A,14.911583451748903,41.429522141414765,0.7455791725874451,0.6507734120060216,A,1614.9460839951644,Correct,k
18,24,546,A,28.135676681959424,53.128674075261685,1.406783834097971,0.834543260849043,A,1304.0229579928564,Correct,k
18,24,547,A,54.84058407826011,72.57575254917032,2.7420292039130056,1.140017255186121,A,1414.342582997051,Correct,k
18,24,548,A,15.888443658097128,39.24137654892469,0.7944221829048564,0.616402101414263,A,1153.4249579999596,Correct,k
18,24,549,A,46.78196346785809,65.45917039032511,2.3390981733929044,1.0282302440416393,A,441.6987090080511,Correct,k
18,24,550,B,84.05525029438719,60.92419122189781,4.2027625147193595,0.9569949578430694,A,791.5337919985177,Incorrect,k
18,24,551,A,16.096632650525663,40.24269633746974,0.8048316325262832,0.632130795872199,A,862.558833003277,Correct,k
18,24,552,B,61.847064990554834,51.95940359989493,3.0923532495277417,0.8161764031716847,B,1509.5917500002543,Correct,d
18,24,553,B,48.80817466646293,36.836458412242415,2.440408733323147,0.5786257356608335,B,1009.6030419954332,Correct,d
18,24,554,B,49.0781159406538,40.82090938857344,2.45390579703269,0.6412133452399846,B,415.1103750045877,Correct,d
18,24,555,A,23.101736278928612,52.92430741383582,1.1550868139464305,0.8313330768381721,B,708.3241250074934,Incorrect,d
18,24,556,B,42.20695370616633,33.1086127471147,2.1103476853083167,0.5200688728844245,A,959.5530000078725,Incorrect,k
18,24,557,B,51.213579061814364,41.51036884941785,2.5606789530907186,0.6520433491256685,B,1283.1574580050074,Correct,d
18,24,558,A,12.34023199697317,32.46714861629884,0.6170115998486585,0.5099927778798623,A,1339.6772919950308,Correct,k
18,24,559,A,29.140894514759214,41.086675857841215,1.4570447257379606,0.6453879951770953,B,931.1659999948461,Incorrect,d
18,24,560,B,45.287001695262525,29.853960944473123,2.264350084763126,0.4689449219185668,A,1331.6492909943918,Incorrect,k
18,24,561,B,66.51400165669598,33.99976155630915,3.3257000828347993,0.5340670056455276,B,730.8833749993937,Correct,d
18,24,562,A,56.19242020851452,74.92339632443252,2.809621010425726,1.1768939573741684,A,858.2700830011163,Correct,k
18,24,563,B,33.84316445335572,22.65372577734521,1.6921582226677858,0.3558438923927272,A,1194.4659580040025,Incorrect,k
18,24,564,A,33.22893198913118,43.78787563858606,1.6614465994565593,0.6878183421124271,B,828.5960829962278,Incorrect,d
18,24,565,B,52.85543728206926,45.05576366521204,2.642771864103463,0.7077342806625404,A,1122.0931250136346,Incorrect,k
18,24,566,A,60.994753107192906,75.88933217238602,3.049737655359645,1.1920668421930172,A,1937.5384169979952,Correct,k
18,24,567,A,56.05483264204365,70.72187615639972,2.8027416321021827,1.1108966329051624,A,991.2056250032037,Correct,k
18,24,568,A,67.70213245084648,88.48058984796691,3.385106622542324,1.3898498552583223,A,1056.1062090127962,Correct,k
18,24,569,B,74.81219464405268,42.21665262206804,3.740609732202634,0.6631376286832061,B,1359.9347080016742,Correct,d
18,24,570,A,33.69778312662071,66.84011552292996,1.6848891563310358,1.0499220794596493,B,1249.3219579919241,Incorrect,d
18,24,571,B,69.01214326151373,49.135592176550986,3.4506071630756865,0.7718200770581833,A,1275.6000420049531,Incorrect,k
18,24,572,B,53.40944691881219,41.54604861169204,2.6704723459406097,0.6526038055208807,B,1043.6082919914043,Correct,d
18,24,573,B,63.18689794596395,39.856840199619846,3.1593448972981975,0.6260697818321402,B,702.0660000125645,Correct,d
18,24,574,A,52.977263201139735,75.59189855184489,2.6488631600569867,1.1873947658069042,B,328.7987919902662,Incorrect,d
18,24,575,A,18.227207048815174,37.19298669304569,0.9113603524407587,0.5842260687996763,A,1087.1469590056222,Correct,k
18,24,576,B,54.32672914909277,47.359227241921666,2.7163364574546387,0.7439170019145536,B,992.0390830084216,Correct,d
18,24,577,A,55.160929184546255,73.06979980103966,2.7580464592273124,1.1477777312711157,B,573.8174589932896,Incorrect,d
18,24,578,B,74.21743783331353,58.36777503128141,3.710871891665676,0.916838866223277,B,1429.6419160091318,Correct,d
18,24,579,B,79.36162132088289,58.74666754184584,3.968081066044144,0.9227904958617241,B,348.5787499957951,Correct,d
18,24,580,A,48.636651964356744,71.85945680435087,2.4318325982178375,1.1287657079375089,B,491.29604100016877,Incorrect,d
18,24,581,B,76.58389465632413,45.23393677762958,3.8291947328162066,0.7105330173677312,B,716.6190410061972,Correct,d
18,24,582,B,48.994938375321986,20.472054904712596,2.4497469187660994,0.3215742864626599,B,732.8891669894801,Correct,d
18,24,583,B,72.49241717323216,52.30586909553116,3.624620858661608,0.8216186704507504,B,623.9291249949019,Correct,d
18,24,584,B,63.6595336404801,49.93991425057802,3.182976682024005,0.7844543386526006,B,398.01883400650695,Correct,d
18,24,585,B,58.95213872031227,27.774046337211928,2.9476069360156134,0.43627369966723756,B,389.38095899356995,Correct,d
18,24,586,B,35.77140882359415,22.25657501069302,1.7885704411797076,0.34960546273831683,B,457.6860409870278,Correct,d
18,24,587,B,47.38279707595517,25.0755072938631,2.3691398537977584,0.39388514749718795,B,489.0392920060549,Correct,d
18,24,588,A,27.48890861023246,41.95247771732534,1.374445430511623,0.6589879789831938,B,407.84133299894165,Incorrect,d
18,24,589,A,37.281563232683695,53.78700804881895,1.8640781616341848,0.8448843467237235,A,1028.8189590064576,Correct,k
18,24,590,B,69.90828675862653,55.997874283161366,3.4954143379313267,0.8796125523231229,B,1730.0655830040341,Correct,d
18,24,591,A,57.309182211579405,78.60459947579143,2.86545911057897,1.2347181612575722,B,802.8139579982962,Incorrect,d
18,24,592,A,30.548683997406272,56.03521611326369,1.5274341998703136,0.880199116418728,A,1308.565291998093,Correct,k
18,24,593,B,67.71034651771677,58.365074127825245,3.3855173258858384,0.9167964405309976,A,1268.2468330021948,Incorrect,k
18,24,594,A,18.479899990916437,36.19035311226541,0.9239949995458219,0.5684767373415677,A,1236.016082999413,Correct,k
18,24,595,A,41.01935234107938,72.20336039796575,2.0509676170539692,1.134167732953727,A,925.3107080003247,Correct,k
18,24,596,B,67.4351277123492,46.773612174793584,3.3717563856174597,0.7347181819509482,A,955.7082079991233,Incorrect,k
18,24,597,A,35.75399751516148,60.57968169549775,1.787699875758074,0.951583414856919,B,705.3006250062026,Incorrect,d
18,24,598,A,37.04898459964665,57.62234157813498,1.8524492299823325,0.9051296249225527,B,393.00316700246185,Incorrect,d
18,24,599,B,33.59741011203651,19.132142444895653,1.6798705056018257,0.30052699076158823,A,1498.3713750116294,Incorrect,k
