subject,day,trial,cat,x,y,xt,yt,resp,rt,fb
6,8,0,B,61.310604182965555,47.67022303255881,3.0655302091482777,0.7488021123703684,A,1431.9452000199817,Incorrect
6,8,1,B,52.417035500826714,26.846375105323634,2.620851775041336,0.4217018740320032,A,1206.7393999896012,Incorrect
6,8,2,A,31.601216278630226,42.97179598276105,1.5800608139315113,0.6749993928550075,A,734.8274000105448,Correct
6,8,3,B,65.15403189782135,55.168036355964354,3.257701594891068,0.8665774886443611,B,797.4752000300214,Correct
6,8,4,A,47.130111713000474,66.39831536347623,2.356505585650024,1.042982298783176,A,1066.273500036914,Correct
6,8,5,B,57.84484560428046,49.451142091603295,2.8922422802140226,0.7767767235330295,B,750.3679000074044,Correct
6,8,6,B,68.66634250878809,38.53258753636101,3.4333171254394044,0.6052684696401869,B,1033.5536999627948,Correct
6,8,7,A,27.0780146543802,53.37986618713106,1.35390073271901,0.8384889773154857,A,705.693700001575,Correct
6,8,8,B,47.72012394074788,17.382150566585644,2.3860061970373945,0.27303818261788565,B,1502.3042999673635,Correct
6,8,9,A,48.00071738739543,71.4665689842695,2.4000358693697716,1.1225942404912461,A,1536.3459999789484,Correct
6,8,10,B,38.39581801675415,24.357699516626194,1.9197909008377076,0.38260984929890257,B,2205.300999979954,Correct
6,8,11,A,32.62558638930555,60.35544305585335,1.6312793194652777,0.9480610825421297,A,892.5841000163928,Correct
6,8,12,B,70.83891295592169,40.406743310333546,3.541945647796084,0.6347076396961618,B,1194.6908999816515,Correct
6,8,13,A,50.19896738428807,69.47564995739326,2.5099483692144036,1.0913209575476135,A,1010.9595999820158,Correct
6,8,14,A,40.64894164686296,60.10472124890772,2.032447082343148,0.9441227536081543,A,2737.775999994483,Correct
6,8,15,A,19.901287542373122,34.48155647279664,0.9950643771186561,0.5416350224963975,A,1247.7911000023596,Correct
6,8,16,B,50.824159643092976,21.740726078017165,2.5412079821546487,0.34150252665203384,B,1201.6079000313766,Correct
6,8,17,A,57.95122273975967,76.96119805968131,2.8975611369879832,1.2089036721788193,B,1462.1057999902405,Incorrect
6,8,18,B,60.25205069001441,37.655104350370664,3.0126025345007204,0.5914849959864077,B,1532.2580999927595,Correct
6,8,19,B,68.88236078611558,44.345262872402266,3.444118039305779,0.6965737603072358,B,1340.4967000242323,Correct
6,8,20,B,34.98055217136496,22.70304662481701,1.7490276085682481,0.3566186224531583,A,801.1841000407003,Incorrect
6,8,21,B,48.207204284517886,18.491454957765153,2.4103602142258946,0.29046309524750785,B,1110.5125999893062,Correct
6,8,22,B,40.26301134782675,26.60992115409826,2.0131505673913375,0.41798766405159365,B,842.5695999758318,Correct
6,8,23,A,30.73411539525818,48.89785606143996,1.536705769762909,0.7680857268945546,A,820.0350999832153,Correct
6,8,24,B,56.509794915415675,47.35517496418353,2.8254897457707835,0.7438533488846915,B,1901.9865000154823,Correct
6,8,25,A,18.200583260950488,42.85931712671635,0.9100291630475243,0.6732325791158364,B,1663.4807999944314,Incorrect
6,8,26,A,61.913289741042774,74.74461464274056,3.095664487052139,1.174085661285169,B,580.7177000096999,Incorrect
6,8,27,B,49.65185228567853,30.48066441294046,2.4825926142839263,0.478789156981148,B,826.7868999973871,Correct
6,8,28,A,48.584023069685315,64.89693233645484,2.4292011534842657,1.019398629343602,B,949.7193999704905,Incorrect
6,8,29,B,43.31215094065125,16.593749009879982,2.1656075470325624,0.26065399992475924,B,818.6620000051335,Correct
6,8,30,B,38.422324783697235,24.396522487389493,1.9211162391848617,0.3832196790976051,B,791.1423000041395,Correct
6,8,31,B,73.35311632900121,52.50633106233312,3.6676558164500603,0.8247675196618963,B,683.9746999903582,Correct
6,8,32,A,63.98053841214556,87.5055154909974,3.1990269206072783,1.3745334230755264,A,811.750499997288,Correct
6,8,33,B,63.25299855754878,31.323785896897007,3.162649927877439,0.492032878281556,B,1102.3464999743737,Correct
6,8,34,A,35.84907110361132,52.207279629200826,1.792453555180566,0.8200700307350269,A,1380.3278999985196,Correct
6,8,35,B,53.55494816735878,36.21317443365342,2.677747408367939,0.5688352138196565,B,1335.1360999513417,Correct
6,8,36,A,12.054347289558532,35.693989557997824,0.6027173644779267,0.5606798768635838,A,902.6359999552369,Correct
6,8,37,B,59.87422835248643,31.572687769854504,2.9937114176243216,0.4959426197592961,B,701.2595999985933,Correct
6,8,38,B,59.92942043893344,28.362988809660763,2.9964710219466717,0.44552478639139886,B,620.3507000464015,Correct
6,8,39,B,75.49317155892595,48.14317416611573,3.7746585779462976,0.7562312114038154,B,1985.6951999827288,Correct
6,8,40,A,28.49583412816738,58.95351930989945,1.424791706408369,0.9260397158362205,A,710.8680999954231,Correct
6,8,41,A,11.412643070073152,34.06542772051973,0.5706321535036576,0.5350984873408944,A,577.9141000239179,Correct
6,8,42,B,58.964411303453346,48.48142708408686,2.9482205651726674,0.7615444758145825,B,570.4180000466295,Correct
6,8,43,B,66.319772844939,56.23111960258095,3.31598864224695,0.8832763612329866,B,844.7469000238925,Correct
6,8,44,B,73.96025623214919,42.19073493794324,3.6980128116074593,0.6627305146529834,B,1180.8065999648534,Correct
6,8,45,A,60.326850556109605,75.83659919271015,3.01634252780548,1.1912385144852593,A,842.0132000464946,Correct
6,8,46,A,29.61035832161326,48.69836886845424,1.4805179160806627,0.7649521893947084,A,1068.1501000071876,Correct
6,8,47,A,11.803210275430047,33.11697127749586,0.5901605137715024,0.5202001683726258,A,539.036699978169,Correct
6,8,48,A,47.97491907288314,63.716144990390866,2.3987459536441573,1.0008508650843702,A,915.8960999920964,Correct
6,8,49,A,13.258600965360944,41.6221737813689,0.6629300482680471,0.6537995768899312,A,583.2033000187948,Correct
6,8,50,A,56.218603286316295,80.03997092356978,2.8109301643158147,1.2572649232351374,B,880.2353999926709,Incorrect
6,8,51,B,81.06417056672075,67.98636210556167,4.053208528336038,1.0679272786756402,B,949.9912000028417,Correct
6,8,52,A,50.90577470995951,64.97313410367252,2.545288735497975,1.02059560390401,B,1019.3656999617815,Incorrect
6,8,53,B,46.52049986882702,18.926212744786437,2.326024993441351,0.29729225459649294,B,659.7055000020191,Correct
6,8,54,A,61.83993008866061,82.33478262908615,3.0919965044330304,1.293311741212248,A,923.179000033997,Correct
6,8,55,A,41.19200689231222,50.086554903483574,2.0596003446156113,0.7867577646420292,A,925.6435999996029,Correct
6,8,56,B,57.92914338097391,31.012660506117925,2.8964571690486958,0.487145732071472,B,737.2973000165075,Correct
6,8,57,B,46.35058097260183,34.1308814040414,2.317529048630092,0.5361266313974048,B,587.9040000145324,Correct
6,8,58,A,52.56725409708329,80.88809716092484,2.6283627048541645,1.2705872590180944,A,539.1613999963738,Correct
6,8,59,B,52.29585360511073,33.11363394122641,2.614792680255537,0.5201477456170925,B,538.5390999726951,Correct
6,8,60,B,41.08415691142575,18.847606365278725,2.0542078455712875,0.29605750847455936,B,745.1203999808058,Correct
6,8,61,A,41.00960252732539,53.70546828522924,2.0504801263662698,0.8436035231123792,B,921.6953000286594,Incorrect
6,8,62,A,29.771134499884084,42.21195969062174,1.4885567249942042,0.6630639122884286,A,922.9204999865033,Correct
6,8,63,B,51.58868169797789,28.955462409596294,2.5794340848988946,0.4548313399364156,B,779.0019999956712,Correct
6,8,64,B,39.03301247734942,21.241566549885498,1.9516506238674711,0.33366174711929486,B,775.5217999801971,Correct
6,8,65,B,37.419764485410106,27.1121807811953,1.8709882242705052,0.4258771398250077,B,662.6429000170901,Correct
6,8,66,B,56.8895693658643,49.028159858741134,2.8444784682932145,0.7701325341562358,B,753.0902000144124,Correct
6,8,67,A,51.71021244207624,74.50352134810582,2.5855106221038118,1.1702985766688978,B,544.3205999908969,Incorrect
6,8,68,B,81.11341383558135,64.79719136381016,4.055670691779068,1.0178319018089899,B,722.3989000194706,Correct
6,8,69,A,25.93788359092588,53.433493010008974,1.2968941795462938,0.8393313454794289,A,632.8820000053383,Correct
6,8,70,A,48.054696375183354,57.33553963300096,2.4027348187591677,0.900624550503211,B,778.7793999887072,Incorrect
6,8,71,B,31.823174189151715,17.506761940516895,1.5911587094575856,0.27499557350236636,B,1174.2371000000276,Correct
6,8,72,B,74.26862505449186,64.14251275400679,3.713431252724593,1.0075482342538866,B,768.841799988877,Correct
6,8,73,A,21.862360958230123,40.50182607485321,1.0931180479115061,0.6362011962686519,A,596.4701999910176,Correct
6,8,74,A,26.18393964259266,42.10607664376388,1.3091969821296328,0.6614007052776868,A,815.1384000084363,Correct
6,8,75,B,88.56470353630735,63.329462172669395,4.428235176815367,0.9947768655872544,B,596.473400015384,Correct
6,8,76,B,67.34493906138265,54.32413046409641,3.3672469530691327,0.8533214458932938,B,671.7359000467695,Correct
6,8,77,A,52.375395496769784,63.71014623750615,2.6187697748384893,1.0007566368944036,B,696.3267000392079,Incorrect
6,8,78,A,11.357512106819364,35.79750859157476,0.5678756053409681,0.5623059500405438,A,636.7075999733061,Correct
6,8,79,A,25.013769400062163,51.71065548042739,1.250688470003108,0.8122690768481173,A,682.5943000148982,Correct
6,8,80,A,44.85926849774624,63.901805427683456,2.2429634248873125,1.0037672124136736,B,2099.3777999537997,Incorrect
6,8,81,A,20.9132290167394,43.00150945225816,1.04566145083697,0.6754661309424315,A,542.2916999668814,Correct
6,8,82,B,57.88091231112227,42.117805408602614,2.894045615556114,0.6615849402849522,B,581.5939999883994,Correct
6,8,83,B,88.88173747150222,65.72648158618637,4.444086873575111,1.0324291584873395,B,568.7083999509923,Correct
6,8,84,A,51.680632158581645,67.19346137855237,2.5840316079290826,1.0554724231806483,A,925.7791999843903,Correct
6,8,85,A,43.27812986213082,54.126076357212405,2.163906493106541,0.8502104192572933,A,977.0169000257738,Correct
6,8,86,B,68.5815218450045,54.913822411241554,3.429076092250225,0.8625843053384551,B,1015.835199970752,Correct
6,8,87,B,54.43607399179673,36.002461678699774,2.7218036995898363,0.5655253456047563,B,618.2392999762669,Correct
6,8,88,A,47.808564610479074,77.81702564315685,2.3904282305239537,1.2223469804237503,A,1049.5212000096217,Correct
6,8,89,B,67.19473252328123,39.02311764982404,3.3597366261640618,0.612973698644287,B,994.9233999941498,Correct
6,8,90,B,83.56763193576813,57.50181353686463,4.178381596788407,0.9032363748775203,B,645.3159000375308,Correct
6,8,91,B,66.0633841874199,56.28793732504148,3.303169209370995,0.8841688519303653,B,1649.7899999958463,Correct
6,8,92,B,43.80482577166477,18.413301881394116,2.190241288583238,0.28923546959459434,B,1065.557499998249,Correct
6,8,93,A,49.17405026087076,69.75409257769904,2.458702513043538,1.095694723999608,B,1000.9780999971554,Incorrect
6,8,94,B,76.57136819508764,56.0858569506527,3.828568409754382,0.8809945808322929,B,693.574900040403,Correct
6,8,95,A,38.956149433827434,58.21738434537133,1.9478074716913716,0.9144765348531598,A,673.0412999750115,Correct
6,8,96,B,67.03555712194928,56.565954460265615,3.3517778560974643,0.8885359348783262,B,616.5257999673486,Correct
6,8,97,B,58.320531800312644,32.553501818387176,2.916026590015632,0.5113492108063357,B,704.4428999652155,Correct
6,8,98,A,41.17197478774903,52.785811972986764,2.0585987393874516,0.8291575955405368,A,1405.2471999893896,Correct
6,8,99,A,56.61471376582412,85.04345497459997,2.8307356882912065,1.3358594669204882,B,29.235400026664138,Incorrect
6,8,100,B,44.62883573185371,29.393087179563896,2.2314417865926854,0.4617055337482114,B,867.9383000126109,Correct
6,8,101,B,77.40779369048558,58.765548632455165,3.8703896845242785,0.9230870793394743,B,1596.765099966433,Correct
6,8,102,B,76.21367096838597,51.55354849848886,3.810683548419298,0.8098012461466886,B,568.5829000431113,Correct
6,8,103,B,87.74937611704148,61.12783613394889,4.387468805852074,0.9601938046412727,B,697.0933000557125,Correct
6,8,104,A,24.666628958308827,37.2156024526617,1.2333314479154414,0.5845813163210014,A,564.1405000351369,Correct
6,8,105,A,65.0621205538643,87.41978037257577,3.253106027693215,1.3731866989845862,A,642.3550000181422,Correct
6,8,106,B,34.98173098398818,14.829473739870927,1.7490865491994088,0.23294082878890632,A,808.3808000083081,Incorrect
6,8,107,B,56.07395566459486,26.446018723280396,2.803697783229743,0.4154130906887791,B,789.5770999602973,Correct
6,8,108,A,39.39750303653453,49.26735879821066,1.9698751518267266,0.7738898623111552,A,2800.4726000363007,Correct
6,8,109,B,56.39112865951699,43.28294713724574,2.8195564329758493,0.679886943760433,B,810.1263000280596,Correct
6,8,110,A,43.92515491410545,65.01377575102306,2.1962577457052728,1.0212340014077415,A,1044.7404000442475,Correct
6,8,111,B,73.98598567840097,49.71124609329104,3.6992992839200487,0.7808624276373872,B,1517.5850999657996,Correct
6,8,112,A,45.938469922772285,56.90911114446679,2.2969234961386142,0.8939262274689095,B,962.1152000036091,Incorrect
6,8,113,A,33.96944967445946,46.702193006635895,1.6984724837229732,0.7335963322808996,A,786.935199983418,Correct
6,8,114,A,17.471610883984454,46.36087863628671,0.8735805441992227,0.7282349786886314,A,701.7732000094838,Correct
6,8,115,A,46.25773578265402,54.04605669694484,2.3128867891327007,0.8489534733730966,A,939.5148000330664,Correct
6,8,116,B,73.00461987448942,49.6230461849829,3.6502309937244712,0.7794769867174463,B,629.9884999752976,Correct
6,8,117,A,38.98530738421845,48.41940074136513,1.9492653692109227,0.7605701683014644,B,737.6837999909185,Incorrect
6,8,118,B,45.09696323415417,22.151716989997396,2.2548481617077085,0.3479583568008801,B,1051.9732999964617,Correct
6,8,119,A,28.736201397111856,50.42934233368894,1.436810069855593,0.7921422570044095,A,787.1368000051007,Correct
6,8,120,B,51.792727418485114,38.65935981664999,2.589636370924256,0.6072598039623602,B,1534.505799994804,Correct
6,8,121,A,21.440344934459464,36.496968539987506,1.0720172467229732,0.5732930412176126,A,1272.973400016781,Correct
6,8,122,B,46.296071808174325,24.547713742202212,2.3148035904087165,0.38559458577463834,B,1512.338800006546,Correct
6,8,123,B,30.719752820020563,11.201631062141988,1.535987641001028,0.1759548092652425,A,811.9378999690525,Incorrect
6,8,124,B,43.6780715083803,25.716456009725775,2.183903575419015,0.4039531463825979,B,900.3726000082679,Correct
6,8,125,A,43.276777469719505,69.6219617880236,2.1638388734859753,1.0936192184088211,A,657.0861000218429,Correct
6,8,126,B,69.97347327778729,59.26793291241318,3.498673663889365,0.9309785131554498,B,1281.4311999827623,Correct
6,8,127,B,67.22321776533234,40.386865658173335,3.3611608882666166,0.6343954022661762,B,1137.2806000290439,Correct
6,8,128,A,29.449653097470687,49.22139225622123,1.4724826548735341,0.7731678215580308,A,1447.4014000152238,Correct
6,8,129,B,56.57869360581171,32.284760217667014,2.8289346802905855,0.5071278276136535,B,1924.2299000034109,Correct
6,8,130,A,29.363973544844754,51.93303794874746,1.4681986772422377,0.8157622524919249,A,1426.188400015235,Correct
6,8,131,B,72.75757043079489,47.741636328000936,3.6378785215397444,0.7499238697920165,B,571.1419000290334,Correct
6,8,132,A,20.342641701267056,45.597344705913855,1.0171320850633527,0.7162414157565021,A,1044.1456999978982,Correct
6,8,133,A,26.593113904428584,58.699815507519716,1.3296556952214291,0.9220545458275008,A,1453.0158000416122,Correct
6,8,134,A,41.88758947972293,58.86243694930995,2.0943794739861463,0.9246089974617226,A,1688.1950999959372,Correct
6,8,135,A,13.94605324852363,32.41478799330012,0.6973026624261814,0.5091702991371115,A,1669.4506999920122,Correct
6,8,136,A,51.68456994014626,73.40272817985236,2.584228497007313,1.1530073580163633,A,1636.7319999844767,Correct
6,8,137,A,13.994584610540826,30.58415339933002,0.6997292305270413,0.48041475817799245,A,1236.071500054095,Correct
6,8,138,B,84.22927896003529,66.76370846459004,4.211463948001764,1.0487218801938336,B,1191.8580000055954,Correct
6,8,139,B,53.30532819839286,24.667821893852075,2.665266409919643,0.38748124020893565,B,559.199700015597,Correct
6,8,140,A,62.394720893199654,83.92967838029907,3.119736044659983,1.3183643050885083,A,2057.130999979563,Correct
6,8,141,B,44.328996679243446,36.87534108666398,2.2164498339621725,0.5792365032824071,B,1062.6522999955341,Correct
6,8,142,B,40.938917071842106,26.303955183926576,2.046945853592105,0.4131815618308944,B,827.4146000039764,Correct
6,8,143,A,29.856696794684588,55.633004793545865,1.4928348397342293,0.8738811957826472,A,1260.8547999989241,Correct
6,8,144,A,38.16784849576416,54.12174371055292,1.908392424788208,0.8501423622027131,A,1856.0930999810807,Correct
6,8,145,B,73.49000944950421,45.05345182715183,3.6745004724752106,0.7076979663952092,B,872.3699999973178,Correct
6,8,146,B,69.2302646204259,58.41642391940463,3.4615132310212946,0.9176030411709434,B,1126.362800016068,Correct
6,8,147,A,43.19265239228204,50.441266350882636,2.159632619614102,0.7923295590284947,A,1034.6400000271387,Correct
6,8,148,B,37.614301959032574,27.448214036461415,1.8807150979516285,0.4311555378555372,B,1286.043600004632,Correct
6,8,149,B,46.792907671893715,39.31424058851256,2.3396453835946858,0.6175466470716636,B,727.4213000200689,Correct
6,8,150,A,49.49359520243965,66.83044187961018,2.4746797601219823,1.0497701262257149,A,823.1516999658197,Correct
6,8,151,B,84.23938865201157,57.801370611156095,4.211969432600579,0.9079418063971447,B,1587.6701999804936,Correct
6,8,152,A,43.172147338168784,56.22356312084946,2.158607366908439,0.8831576642955136,A,1907.7993999817409,Correct
6,8,153,A,41.58273734609749,65.25850813693887,2.0791368673048742,1.0250782487361845,B,861.7252999683842,Incorrect
6,8,154,A,55.98565721106645,78.21538271336958,2.7992828605533226,1.2286043586501796,A,1311.8549000355415,Correct
6,8,155,A,34.184417893869835,55.836060962144096,1.7092208946934917,0.8770707946203187,A,605.8716999832541,Correct
6,8,156,B,42.16819310542522,27.31021368982321,2.108409655271261,0.42898783347958,A,943.8769000116736,Incorrect
6,8,157,A,50.278365346507,71.93514443473394,2.51391826732535,1.1299546064554042,A,749.1452000103891,Correct
6,8,158,A,45.694647342075946,70.39492875055166,2.284732367103797,1.1057609550635499,B,832.1381999994628,Incorrect
6,8,159,A,31.667218237705306,51.11133712286178,1.5833609118852652,0.802855006101669,A,715.6101000146009,Correct
6,8,160,B,41.62413149521295,30.23527855751073,2.081206574760648,0.47493464497758353,B,715.3665000223555,Correct
6,8,161,A,60.62687080800941,71.93389799623546,3.0313435404004703,1.1299350274452542,B,1650.6392000010237,Incorrect
6,8,162,B,87.06331186628698,69.44729514747691,4.353165593314349,1.0908755612349776,B,627.0118000102229,Correct
6,8,163,A,14.234920206903464,31.296347493547398,0.7117460103451733,0.4916018768496092,A,871.9173999852501,Correct
6,8,164,A,37.4081339043266,63.94360624879064,1.8704066952163299,1.0044238181761953,A,1066.7728999978863,Correct
6,8,165,B,53.51820679803861,40.31862420826969,2.6759103399019306,0.6333234680777383,B,636.0965000349097,Correct
6,8,166,A,56.669070901547855,68.38494006987989,2.8334535450773926,1.0741881266985647,B,892.3765000072308,Incorrect
6,8,167,B,84.99362215378257,65.9988546928669,4.2496811076891285,1.0367075852422545,B,808.3134000189602,Correct
6,8,168,A,56.66603461796937,68.78892370382482,2.833301730898469,1.0805338867814243,B,732.7529999893159,Incorrect
6,8,169,A,53.17124270394394,73.51609245008801,2.658562135197197,1.1547880798091226,B,1017.040700011421,Incorrect
6,8,170,A,40.79466823343095,52.96192513251344,2.039733411671547,0.8319239745813845,B,1252.3616999969818,Incorrect
6,8,171,A,41.964118978465095,68.5870877723457,2.0982059489232547,1.0773634553835978,A,571.0011999472044,Correct
6,8,172,B,60.967074120015106,38.75826305103959,3.0483537060007553,0.6088133723352336,B,1170.01679999521,Correct
6,8,173,A,24.89999255816138,55.5592965825106,1.244999627908069,0.8727233899111589,A,773.2674999861047,Correct
6,8,174,B,41.810662592674355,16.65716266573517,2.0905331296337177,0.2616500993016189,B,1355.0391000462696,Correct
6,8,175,A,50.595916815251556,65.76736542148062,2.529795840762578,1.0330713602703945,A,1114.775100024417,Correct
6,8,176,B,78.33619312140202,56.45280528771384,3.9168096560701007,0.8867585918320843,B,989.5773999742232,Correct
6,8,177,A,62.55664973130365,77.53789524986517,3.1278324865651825,1.2179624104589568,A,1032.5918999733403,Correct
6,8,178,B,81.04097004123085,53.564961957753425,4.052048502061542,0.8413964548814746,B,610.1352000259794,Correct
6,8,179,B,57.04196099082885,49.04036827010454,2.8520980495414427,0.7703243034334921,A,1177.2186000016518,Incorrect
6,8,180,A,40.55562237291808,56.09491846143572,2.0277811186459043,0.8811369187108244,A,753.7300999974832,Correct
6,8,181,B,84.79796339585202,66.06590217844773,4.2398981697926015,1.0377607646829665,B,704.5925999991596,Correct
6,8,182,A,68.27524591157476,88.3399343169481,3.4137622955787377,1.3876404433436451,A,687.2484000050463,Correct
6,8,183,A,59.889634929513605,85.05101238669937,2.99448174647568,1.335978178472146,A,947.2609999938868,Correct
6,8,184,A,24.783814677639548,53.09305236945653,1.2391907338819774,0.8339837164027141,A,548.9595999824814,Correct
6,8,185,B,49.41875660601563,36.29742927447865,2.470937830300781,0.5701586857644861,B,1581.40160003677,Correct
6,8,186,A,53.05374856025804,73.18741536711126,2.6526874280129022,1.1496252322627072,A,660.4992999928072,Correct
6,8,187,A,30.70045410135362,45.83231906160214,1.535022705067681,0.7199323843045636,A,552.9058999964036,Correct
6,8,188,A,42.79007334162816,56.66501415640307,2.139503667081408,0.8900919609465875,B,676.75500002224,Incorrect
6,8,189,A,52.75958711657025,66.24901459055138,2.6379793558285125,1.0406370877261961,B,621.8579999986105,Incorrect
6,8,190,B,68.40714774329606,45.853264048555474,3.420357387164803,0.7202613873902742,B,1234.277099953033,Correct
6,8,191,B,78.83690817677774,51.12039702462323,3.941845408838887,0.8029973187057493,B,1019.1707999911159,Correct
6,8,192,B,44.85482110228,20.509648938684943,2.242741055114,0.32216481216739157,A,1432.8130999929272,Incorrect
6,8,193,A,46.525213826751745,76.8985809261249,2.326260691337587,1.2079200845449707,A,1166.2129999604076,Correct
6,8,194,A,51.97091849127136,79.4728342460043,2.5985459245635685,1.2483563611360322,A,585.0774000282399,Correct
6,8,195,A,32.57825274827786,44.4493653090485,1.6289126374138931,0.6982089975581789,A,648.1880999635905,Correct
6,8,196,A,39.470131611561456,52.6501963439438,1.9735065805780727,0.82702735022097,A,823.2925999909639,Correct
6,8,197,A,31.28697694816033,41.93842958129589,1.5643488474080163,0.6587673113784601,A,572.8312999708578,Correct
6,8,198,A,37.32018701181065,45.61612306436467,1.8660093505905326,0.7165363855212799,A,604.5203999965452,Correct
6,8,199,B,74.28186541029302,57.272772847260214,3.7140932705146508,0.8996386121383482,B,885.1163999643177,Correct
6,8,200,B,61.61774501314767,28.647627067827578,3.0808872506573834,0.44999587369533617,B,913.0975999869406,Correct
6,8,201,A,44.121777085305496,58.176651873957525,2.206088854265275,0.9138367106883792,A,1309.0625000186265,Correct
6,8,202,A,51.53584474667819,71.88887219154255,2.576792237333909,1.1292277637590282,A,758.014400023967,Correct
6,8,203,A,51.793458151868684,65.09031960990492,2.5896729075934344,1.0224363495314448,A,1610.8943999861367,Correct
6,8,204,B,58.206796680856066,26.59739955715071,2.9103398340428033,0.4177909752666855,B,661.9972999906167,Correct
6,8,205,A,31.723157548455426,56.68381333429948,1.5861578774227711,0.8903872577424521,A,617.7264000289142,Correct
6,8,206,B,56.89547829259989,40.3624792654373,2.8447739146299944,0.6340123417048409,B,647.9553999961354,Correct
6,8,207,A,27.175124360859932,42.083539275472056,1.3587562180429966,0.6610466891244027,A,834.9982000072487,Correct
6,8,208,A,17.07527206132748,38.48935963291209,0.8537636030663741,0.6045894473206608,A,573.420399974566,Correct
6,8,209,B,79.566537746525,61.12743004048082,3.97832688732625,0.9601874257399927,B,544.2569999722764,Correct
6,8,210,B,63.766018657459874,46.510178871908145,3.1883009328729934,0.730580181305669,B,625.7777000428177,Correct
6,8,211,A,27.720813264981146,38.50902520967428,1.3860406632490572,0.6048983534780842,A,538.9627999975346,Correct
6,8,212,B,83.72807771286055,68.16476848155747,4.186403885643028,1.07072967947655,B,585.8072999981232,Correct
6,8,213,B,48.0339682558764,17.38273566962887,2.40169841279382,0.2730473733949966,B,1206.5181999932975,Correct
6,8,214,A,27.25671669087501,46.85181912462018,1.3628358345437506,0.7359466538461226,A,617.5660000299104,Correct
6,8,215,B,36.491551668071395,17.76045308975871,1.8245775834035698,0.2789805447560605,B,1660.483399988152,Correct
6,8,216,A,13.464632780229522,39.4666285038043,0.6732316390114761,0.6199403508475455,A,558.816900011152,Correct
6,8,217,A,48.299664471105885,61.75065249302273,2.414983223555294,0.9699769811322823,A,1002.4184999638237,Correct
6,8,218,A,15.4554007537797,41.32265584289139,0.772770037688985,0.6490947601142347,A,565.6892999541014,Correct
6,8,219,B,60.70435053352987,35.58747984155412,3.035217526676494,0.5590068261500063,B,709.2003999860026,Correct
6,8,220,B,53.50834538356427,29.280929584399317,2.6754172691782134,0.4599437663631446,B,629.7138000372797,Correct
6,8,221,B,72.2542365002246,46.67636163364338,3.6127118250112296,0.7331905740227725,B,1059.5536000328138,Correct
6,8,222,B,52.01990927680271,30.856235931988863,2.6009954638401354,0.48468862060684814,B,601.2163000414148,Correct
6,8,223,A,47.10934677402582,71.21108047665996,2.355467338701291,1.1185810363983324,A,954.094700049609,Correct
6,8,224,B,42.47624265992275,14.306048113524632,2.1238121329961372,0.22471887827675552,B,718.3204000466503,Correct
6,8,225,B,48.28832566505355,39.26562476571233,2.4144162832526774,0.6167829915128765,B,683.0191999906674,Correct
6,8,226,B,61.88547639114414,31.930912953717307,3.0942738195572073,0.5015696077890672,B,685.5064000119455,Correct
6,8,227,A,53.62063397323675,74.8001517681072,2.6810316986618377,1.1749580364104355,A,718.3735000435263,Correct
6,8,228,A,35.53958880486755,47.519874215388455,1.7769794402433774,0.746440438672877,A,712.6310000312515,Correct
6,8,229,B,71.56532082165073,52.772516345227174,3.5782660410825367,0.8289487483080649,B,644.0053000114858,Correct
6,8,230,A,39.59313038403505,64.20397142774071,1.9796565192017526,1.0085136248433961,A,581.0547000146471,Correct
6,8,231,A,26.61780560290913,53.73826783888415,1.3308902801454565,0.8441187372963954,A,598.1903999927454,Correct
6,8,232,B,64.62652891709241,49.154856896779584,3.2313264458546205,0.7721226865759016,B,530.4057000321336,Correct
6,8,233,A,66.87193916851554,86.19554842803942,3.343596958425777,1.3539565085683594,A,942.3601999878883,Correct
6,8,234,B,38.27884620902669,15.898072065229798,1.9139423104513344,0.24972633203183522,B,852.6933999964967,Correct
6,8,235,A,20.19354596491326,36.88391809338097,1.009677298245663,0.5793712305888664,A,715.4645000118762,Correct
6,8,236,B,33.75098236004021,18.518588432319238,1.6875491180020106,0.2908893068691352,B,789.3958000349812,Correct
6,8,237,A,54.91905609018449,64.61757420890211,2.7459528045092245,1.0150104821374006,B,1246.2710999534465,Incorrect
6,8,238,A,40.65284542603946,68.80209406144535,2.032642271301973,1.0807407662751531,A,1350.316700001713,Correct
6,8,239,A,31.431362604076128,50.90354925621496,1.5715681302038065,0.7995910819248555,A,1016.839699994307,Correct
6,8,240,B,58.63838504758852,29.23815463503728,2.931919252379426,0.45927185902977735,B,638.3741000317968,Correct
6,8,241,A,26.562564488674795,37.46956540389457,1.3281282244337398,0.5885705570303873,A,841.1444999510422,Correct
6,8,242,A,12.466059967508212,37.184512864400986,0.6233029983754106,0.5840929622105864,A,677.4080999894068,Correct
6,8,243,B,79.78673656519703,60.760890481459825,3.9893368282598516,0.9544298358106409,B,679.251599998679,Correct
6,8,244,A,52.67011764385839,59.72660401413336,2.633505882192919,0.93818330197334,B,651.8744000350125,Incorrect
6,8,245,A,25.778397686487843,41.93328174451519,1.288919884324392,0.6586864493473995,A,531.6527999821119,Correct
6,8,246,A,59.31275175963331,68.94752467690498,2.965637587981665,1.0830251850408283,A,786.0942999832332,Correct
6,8,247,A,52.058962391728464,80.53965604561552,2.602948119586423,1.2651139587777724,A,713.9814000111073,Correct
6,8,248,A,48.39165400115996,65.70474149392669,2.419582700057998,1.0320876659166827,B,907.1116999839433,Incorrect
6,8,249,B,65.01392177743621,42.89441029989437,3.250696088871811,0.6737838213910726,B,605.0833000335842,Correct
6,8,250,A,37.656814345832125,66.47636194864143,1.8828407172916062,1.0442082516761397,A,1199.0537999663502,Correct
6,8,251,B,59.599868132541886,48.166460590649336,2.979993406627094,0.7565969937050313,B,1088.0120999645442,Correct
6,8,252,B,33.76761081370155,10.651569646683068,1.6883805406850774,0.16731446475609776,A,667.9510999820195,Incorrect
6,8,253,B,59.72384834082411,31.039418672104073,2.9861924170412055,0.4875660483599,B,527.8475999948569,Correct
6,8,254,B,70.82333566433658,59.23813197310838,3.541166783216829,0.9305104010954997,B,546.6212999890558,Correct
6,8,255,A,27.31546842281096,38.059492404374076,1.3657734211405481,0.5978371086846906,A,824.7110000229441,Correct
6,8,256,B,40.98374972748604,25.918550342038415,2.049187486374302,0.4071276367312256,B,721.0174000356346,Correct
6,8,257,A,28.296201578199906,39.64228916938258,1.4148100789099953,0.6226996221300727,B,1285.6666999869049,Incorrect
6,8,258,B,68.80372042049083,40.40249012031711,3.440186021024542,0.6346408307436121,B,774.2083999910392,Correct
6,8,259,A,48.72419396516709,67.69290297604432,2.4362096982583545,1.0633176334485375,B,1086.8096000049263,Incorrect
6,8,260,B,51.65033816363541,39.35559407425233,2.5825169081817707,0.6181962261066656,B,636.5738000022247,Correct
6,8,261,B,50.13731917970446,20.46153964767403,2.506865958985223,0.3214091131913451,B,702.4536000099033,Correct
6,8,262,A,18.48115304281153,39.36300938718972,0.9240576521405766,0.6183127055699065,A,916.3247999968007,Correct
6,8,263,A,39.312153757467286,57.449793441392,1.9656076878733644,0.9024192451286409,B,968.7660000054166,Incorrect
6,8,264,B,54.36808436963027,32.88816974456593,2.7184042184815134,0.5166061622977121,B,642.4850000184961,Correct
6,8,265,A,19.94116466620068,36.71927201505716,0.997058233310034,0.5767849760383442,A,826.4399999752641,Correct
6,8,266,B,57.414886364909734,25.699549448656114,2.870744318245487,0.40368757874232836,B,823.920700000599,Correct
6,8,267,A,66.39893506236453,82.73491792316813,3.3199467531182267,1.2995970517138973,A,1163.291200005915,Correct
6,8,268,B,31.152745206380995,14.957652143358164,1.5576372603190498,0.23495425044262816,B,887.0599999791011,Correct
6,8,269,B,44.93929726199362,34.306081026183946,2.2469648630996812,0.5388786606265784,B,1233.1656000460498,Correct
6,8,270,A,29.6561875994936,56.212166697621015,1.4828093799746798,0.8829786496980551,A,614.0334999654442,Correct
6,8,271,B,41.730877599125634,33.60817728305678,2.0865438799562814,0.5279160142649728,B,836.9812999735586,Correct
6,8,272,B,47.364609942648904,20.59898026980889,2.3682304971324455,0.32356802543536356,B,637.5378000084311,Correct
6,8,273,B,63.34412270737704,32.88980267897562,3.167206135368852,0.5166318123714385,B,617.9403999703936,Correct
6,8,274,B,70.57741788793439,44.446991846261476,3.5288708943967197,0.6981717152919025,B,532.9263000166975,Correct
6,8,275,B,38.83600559576965,24.874468200475306,1.9418002797884824,0.3907272328028308,B,566.8408999918029,Correct
6,8,276,A,60.8941717900512,83.43902089384513,3.04470858950256,1.3106570753141455,A,767.0663999742828,Correct
6,8,277,B,68.09054883635874,38.33993198901042,3.4045274418179368,0.6022422433790372,B,1189.7407000069506,Correct
6,8,278,B,74.800907061109,56.314255073733435,3.74004535305545,0.8845822501601134,B,635.4392999783158,Correct
6,8,279,B,52.270179732979294,28.56520323913245,2.6135089866489647,0.4487011632217894,B,634.4464999856427,Correct
6,8,280,A,58.10067026440667,67.77394426043325,2.9050335132203338,1.064590626966906,B,805.5114999879152,Incorrect
6,8,281,B,45.62566035006929,26.122987923318284,2.2812830175034646,0.4103389347485581,B,1022.3046999890357,Correct
6,8,282,A,43.042841306573294,57.916025797705814,2.1521420653286647,0.9097428058559477,B,2454.56759998342,Incorrect
6,8,283,B,46.15903794976464,37.69071363082479,2.307951897488232,0.5920443452557791,B,676.6700000152923,Correct
6,8,284,B,77.32537385909424,54.25434564389154,3.8662686929547125,0.8522252685008553,B,593.7341000535525,Correct
6,8,285,B,69.01517632343088,39.49904111610726,3.4507588161715437,0.6204494869710188,B,531.4007999841124,Correct
6,8,286,A,40.42814807570141,68.07437685333495,2.0214074037850707,1.0693098111007007,B,535.4126999736764,Incorrect
6,8,287,A,45.77438028079631,53.289947197152436,2.2887190140398155,0.8370765331238104,B,1195.4795000492595,Incorrect
6,8,288,B,73.61194160980068,52.28224357929626,3.680597080490034,0.8212475617095464,B,734.6543000312522,Correct
6,8,289,B,49.98117325961265,18.94899162960164,2.499058662980633,0.29765006448245496,B,601.207899977453,Correct
6,8,290,A,54.46794496126928,84.39338973989848,2.723397248063464,1.3256482660920266,A,722.0770999556407,Correct
6,8,291,A,22.59278893664549,49.94090606547053,1.1296394468322746,0.7844699180445006,A,1189.7458999883384,Correct
6,8,292,B,67.97333588174105,43.36404100708856,3.3986667940870525,0.6811607632891797,B,922.992300009355,Correct
6,8,293,A,25.620814570285397,52.92567388403936,1.28104072851427,0.8313545413019363,A,751.0136000346392,Correct
6,8,294,A,44.98204752285609,70.85328099607548,2.2491023761428046,1.1129607353000202,B,1709.896500047762,Incorrect
6,8,295,B,43.3092269251277,28.18573471030622,2.165461346256385,0.44274048550964423,B,1950.537299970165,Correct
6,8,296,B,61.87733694618058,49.380093727125704,3.0938668473090285,0.7756606984335678,B,719.0543999895453,Correct
6,8,297,B,55.22212651051629,25.19703144762952,2.7611063255258146,0.3957940444407194,B,767.3630000208504,Correct
6,8,298,B,62.148430208046506,31.11413495231566,3.1074215104023257,0.4887396889449814,B,642.842200002633,Correct
6,8,299,B,79.08147799363712,56.776329970719964,3.9540738996818563,0.8918405056690192,B,869.9714000103995,Correct
