subject,day,trial,cat,x,y,xt,yt,resp,rt,fb
8,15,0,A,36.13088631905214,58.125222562698134,1.806544315952607,0.9130288609562208,A,555.3862499073148,Correct
8,15,1,B,50.64408794308345,39.667529893966574,2.5322043971541723,0.6230961025046944,B,717.4992077052593,Correct
8,15,2,B,76.14830362251912,64.87715709791826,3.807415181125956,1.0190880006230547,B,480.4666666314006,Correct
8,15,3,B,42.839977616317924,18.975533300964766,2.1419988808158963,0.2980669800812969,B,483.11737459152937,Correct
8,15,4,A,58.94546699460607,76.40935674075818,2.9472733497303034,1.2002353690114382,A,909.8003329709172,Correct
8,15,5,A,57.750868129108156,69.98466777250626,2.8875434064554075,1.09931659069014,A,679.5132923871279,Correct
8,15,6,B,62.44764814784521,40.067685005238026,3.1223824073922604,0.6293817242940285,B,913.3865414187312,Correct
8,15,7,B,47.16455233379244,23.623890288287882,2.3582276166896223,0.3710832008944823,B,783.7187917903066,Correct
8,15,8,A,28.974310401410715,46.51392790548329,1.4487155200705357,0.7306390709873579,A,977.6135422289371,Correct
8,15,9,B,53.09201652969576,29.252010241009987,2.654600826484788,0.4594895023794518,B,747.3237495869398,Correct
8,15,10,A,18.30823548616347,47.68033332425756,0.9154117743081734,0.7489609244610008,A,1470.4975001513958,Correct
8,15,11,A,19.489930791421095,44.87905908723555,0.9744965395710549,0.7049586116424073,A,3595.0520001351833,Correct
8,15,12,A,17.838194949023613,33.66340174610957,0.8919097474511807,0.5287834781020982,A,649.0692906081676,Correct
8,15,13,A,44.05413917991983,56.60195413896477,2.2027069589959916,0.8891014165089905,A,2051.9375829026103,Correct
8,15,14,A,48.462840410139314,56.87799582776918,2.423142020506966,0.893437469217153,A,1268.745499663055,Correct
8,15,15,B,62.093655693656395,33.67070593627517,3.10468278468282,0.5288982120529215,B,865.060499869287,Correct
8,15,16,B,74.09885537748579,63.23520507873819,3.7049427688742895,0.9932962786180394,B,625.316665507853,Correct
8,15,17,A,50.39188116526269,72.68737728227337,2.5195940582631344,1.1417706523934983,A,620.9534583613276,Correct
8,15,18,B,53.180893879680426,36.263463378993436,2.659044693984021,0.5696251507258414,B,1018.8287077471614,Correct
8,15,19,B,52.89324384905271,27.23755996219075,2.644662192452636,0.4278465913946497,B,598.1819164007902,Correct
8,15,20,A,54.967260093549825,73.00438948823732,2.7483630046774916,1.1467502684802715,A,992.0417908579111,Correct
8,15,21,A,29.4657531361869,49.7090314129356,1.4732876568093451,0.7808276395197139,A,996.2728330865502,Correct
8,15,22,B,33.29299043469284,12.150974415714266,1.6646495217346422,0.1908670597918273,B,792.5862912088633,Correct
8,15,23,B,64.07913167529767,45.829344035017954,3.203956583764884,0.7198856526962581,B,1218.6004994437099,Correct
8,15,24,A,41.42027016755974,61.214123670534455,2.071013508377987,0.9615492060964406,B,680.2308335900307,Incorrect
8,15,25,A,30.702376706505458,58.41348329249135,1.535118835325273,0.9175568499114046,A,666.5486237034202,Correct
8,15,26,B,42.030782500094816,20.448309485812747,2.1015391250047406,0.32120129429479904,B,684.1227086260915,Correct
8,15,27,B,40.43783357040961,12.8403267291405,2.021891678520481,0.20169538060980227,B,974.6082071214914,Correct
8,15,28,B,68.14850949958094,40.93709070275129,3.407425474979047,0.6430383170555123,B,789.442041888833,Correct
8,15,29,A,38.63034690611387,49.04253554831915,1.9315173453056935,0.7703583469600785,A,793.7442492693663,Correct
8,15,30,B,84.65815983051372,60.676968968251,4.232907991525686,0.953111599763766,B,912.3445404693484,Correct
8,15,31,B,55.33165207731857,32.32602982720693,2.766582603865929,0.5077760891243892,B,701.6781251877546,Correct
8,15,32,B,55.7202960991783,23.910918767917526,2.7860148049589153,0.37559183370936,B,606.8262085318565,Correct
8,15,33,B,65.10199255019003,39.120915493586686,3.255099627509502,0.6145099035817952,B,682.7840004116297,Correct
8,15,34,A,24.128505880518983,50.54048969032253,1.2064252940259492,0.7938881555997396,A,724.3060003966093,Correct
8,15,35,B,78.8101712816591,49.711435292447845,3.940508564082955,0.7808653995707927,B,1017.9183753207326,Correct
8,15,36,A,54.420816475247435,70.2337971208614,2.7210408237623716,1.1032299053430707,A,802.7715412899852,Correct
8,15,37,B,48.978361282163604,35.93618479918171,2.44891806410818,0.5644842708157722,B,704.4242490082979,Correct
8,15,38,B,85.08100349120127,61.50187807651042,4.254050174560064,0.9660692417357015,B,642.2477085143328,Correct
8,15,39,A,45.69642158896504,64.70021796677428,2.284821079448252,1.0163086472503822,A,686.070166528225,Correct
8,15,40,A,39.02808849705582,58.15804747397296,1.9514044248527909,0.9135444734567995,A,738.8519160449505,Correct
8,15,41,B,48.097114128212574,33.07427707749843,2.4048557064106286,0.5195295294473118,B,648.777374997735,Correct
8,15,42,A,67.0224304210718,87.44870426340393,3.3511215210535905,1.3736410343992809,A,754.4257482513785,Correct
8,15,43,B,67.82379789793646,47.08216252687798,3.391189894896823,0.7395648795478026,B,546.8431236222386,Correct
8,15,44,A,23.1468768832505,34.51621663031569,1.157343844162525,0.542179462977568,A,1036.7386247962713,Correct
8,15,45,B,42.417060210848874,26.364363247549818,2.1208530105424437,0.4141304494753762,B,716.6977915912867,Correct
8,15,46,B,49.87109656013722,35.01955160248856,2.493554828006861,0.5500858302319337,B,680.9685407206416,Correct
8,15,47,A,46.75055021046682,71.63543374611984,2.337527510523341,1.1252467619676425,A,748.3387086540461,Correct
8,15,48,A,42.44894803397798,50.43267408228086,2.122447401698899,0.7921945919889096,B,1514.233666472137,Incorrect
8,15,49,B,74.95547065376974,49.42582646546259,3.7477735326884867,0.7763790666075062,B,646.6746246442199,Correct
8,15,50,A,28.971534536754227,40.314953767163686,1.4485767268377114,0.6332658129236679,A,1074.6264988556504,Correct
8,15,51,A,25.974890490644064,38.32432404506153,1.2987445245322033,0.6019970743687999,A,830.9090407565236,Correct
8,15,52,B,45.26521015337627,31.51900722711595,2.2632605076688135,0.49509940776575534,B,563.1722500547767,Correct
8,15,53,A,36.236228181788185,57.405016311306404,1.8118114090894093,0.9017158876140121,A,893.6442080885172,Correct
8,15,54,B,51.29604329717039,28.009453069975304,2.5648021648585195,0.43997145997851245,B,708.4593325853348,Correct
8,15,55,A,49.83871476110063,74.69471321482513,2.4919357380550315,1.1733018114884552,A,857.9773753881454,Correct
8,15,56,B,74.95845526645785,42.48290563846055,3.7479227633228924,0.6673199212846803,B,657.502917572856,Correct
8,15,57,B,83.88495694592825,66.77622863298423,4.194247847296412,1.0489185465390785,B,934.9716240540147,Correct
8,15,58,B,86.55724978661326,69.3018810144581,4.327862489330663,1.0885914013748776,B,653.0389580875635,Correct
8,15,59,B,44.400201445468774,30.878338664193656,2.2200100722734386,0.48503580951244235,B,612.5384578481317,Correct
8,15,60,B,42.04582747621538,16.856843341065314,2.102291373810769,0.2647866760150241,B,1894.3245830014348,Correct
8,15,61,A,52.398294211453305,63.463612742478354,2.619914710572665,0.9968840978101877,A,930.5449584499002,Correct
8,15,62,B,73.7885530039749,62.415349772100136,3.6894276501987453,0.9804180215763357,B,1251.4529153704643,Correct
8,15,63,B,67.37510691839425,53.82240426824008,3.3687553459197126,0.8454403492382148,B,610.0208749994636,Correct
8,15,64,A,47.93960588707817,77.64153445821916,2.396980294353909,1.2195903713369003,A,836.2149177119136,Correct
8,15,65,B,83.46575803460733,68.68006031953021,4.173287901730367,1.0788238647397,B,1004.9205832183361,Correct
8,15,66,B,55.59905056594007,34.153987255961106,2.7799525282970037,0.5364895772706342,B,669.9336664751172,Correct
8,15,67,A,59.81836082076329,87.2337017925556,2.9909180410381646,1.3702637834846776,A,845.6659577786922,Correct
8,15,68,B,61.70223381418503,38.57766036707002,3.085111690709251,0.6059764720093465,B,732.98704251647,Correct
8,15,69,A,60.68106949104637,74.33467242115195,3.034053474552319,1.1676463039264737,A,949.4452904909849,Correct
8,15,70,A,50.948216668781896,77.00959765915346,2.547410833439095,1.2096639313095112,A,712.6489579677582,Correct
8,15,71,A,29.93992764605352,48.677321275541615,1.496996382302676,0.7646215745783583,A,2336.630373261869,Correct
8,15,72,A,40.00581815492045,67.60353472831584,2.0002909077460225,1.0619138402958974,A,874.5556669309735,Correct
8,15,73,A,43.30230978463876,53.03796321353266,2.165115489231938,0.8331183779649997,A,992.2230830416083,Correct
8,15,74,B,75.8166055727988,65.27309873776376,3.7908302786399406,1.025307437357999,B,627.1225837990642,Correct
8,15,75,B,62.990595056223675,44.62631191526568,3.149529752811184,0.7009884683490265,B,858.5762912407517,Correct
8,15,76,A,52.642851971489264,82.2040515096861,2.6321425985744633,1.291258221590734,A,727.9755836352706,Correct
8,15,77,B,80.56325852578082,55.3974792136426,4.028162926289041,0.8701815686248643,B,599.0320416167378,Correct
8,15,78,B,40.543173238406396,18.692909870429872,2.0271586619203195,0.2936275416157931,B,1455.3307928144932,Correct
8,15,79,A,20.85918589078057,34.08046421794579,1.0429592945390285,0.5353346800901415,A,622.6290827617049,Correct
8,15,80,A,43.10607665914709,73.96950960731603,2.1553038329573546,1.1619103398599182,A,839.7801676765084,Correct
8,15,81,B,41.91578242070433,31.956962434123483,2.0957891210352164,0.5019787920704367,B,1220.5524994060397,Correct
8,15,82,B,66.76830609762526,57.72738491384484,3.338415304881263,0.906779641781426,B,878.6166673526168,Correct
8,15,83,A,46.928304051237156,64.48351950550004,2.346415202561858,1.0129047557804653,A,968.6088748276234,Correct
8,15,84,B,40.71135211030551,21.86774764925028,2.0355676055152756,0.34349777682720073,B,1475.1938749104738,Correct
8,15,85,A,49.73278679938377,65.1853074928263,2.4866393399691886,1.023928415707274,A,2117.6949171349406,Correct
8,15,86,B,67.02486908512412,43.68736175866001,3.351243454256206,0.6862394737786298,B,1186.2550424411893,Correct
8,15,87,A,25.977687667099353,47.17461702083651,1.2988843833549677,0.7410171513428598,A,898.1275409460068,Correct
8,15,88,B,38.35409077071674,19.64795535620701,1.9177045385358369,0.30862936102560085,B,1288.6563334614038,Correct
8,15,89,A,56.39656820387247,70.90000850635077,2.8198284101936237,1.1136947293150272,A,2967.2902496531606,Correct
8,15,90,A,30.709313697168206,52.73132033117623,1.5354656848584103,0.8283016428325667,A,864.3727079033852,Correct
8,15,91,B,58.08537387744975,36.181311358703375,2.9042686938724875,0.5683347098087373,B,731.772500090301,Correct
8,15,92,A,54.80804030727545,66.8905142127546,2.7404020153637725,1.0507137402281674,A,1509.9720004945993,Correct
8,15,93,B,82.78401759725574,58.207457205804246,4.139200879862787,0.9143205997094843,B,715.4807914048433,Correct
8,15,94,A,62.49412083732528,71.7316847870822,3.124706041866264,1.1267586697835807,A,2141.2975005805492,Correct
8,15,95,B,41.84586773763421,19.76202742246506,2.0922933868817104,0.3104212008522813,B,1082.0787083357573,Correct
8,15,96,B,75.43319444393134,45.8724825113757,3.7716597221965675,0.7205632702983208,B,1558.0219998955727,Correct
8,15,97,B,74.88599447423435,59.43166797229181,3.7442997237117175,0.9335504574616987,A,2437.0222920551896,Incorrect
8,15,98,B,35.734043812336836,16.30684527271289,1.7867021906168419,0.2561473265599013,B,832.1239156648517,Correct
8,15,99,A,43.92043368443369,52.810369711082295,2.1960216842216846,0.8295433475884852,A,923.8969581201673,Correct
8,15,100,B,33.7345342845368,14.861054327717806,1.68672671422684,0.23343689550278532,B,636.6777075454593,Correct
8,15,101,A,38.20179283765172,51.48241282099424,1.9100896418825863,0.8086838495375624,A,1204.293791204691,Correct
8,15,102,A,47.72958497851989,56.19252699002479,2.3864792489259945,0.8826701498925402,A,2234.8579997196794,Correct
8,15,103,B,35.420875987031366,12.21866799519374,1.7710437993515682,0.1919303880517669,B,644.2814162001014,Correct
8,15,104,A,58.225273946586185,68.5768347357273,2.9112636973293093,1.0772024010610113,A,2250.9775403887033,Correct
8,15,105,B,42.07869637525799,22.53184612258597,2.1039348187629,0.3539294112526588,B,780.0089158117771,Correct
8,15,106,A,30.750551484479622,47.47439803524584,1.5375275742239811,0.7457261005056302,A,914.15458265692,Correct
8,15,107,A,58.3500739883776,81.08308844100415,2.9175036994188805,1.2736501748831506,A,885.7484171167016,Correct
8,15,108,A,26.40371432100809,53.071494481294046,1.3201857160504045,0.8336450858873232,A,824.0568330511451,Correct
8,15,109,B,40.3427294169308,27.215597557866676,2.0171364708465402,0.4275016067542514,B,582.3034169152379,Correct
8,15,110,A,61.403027788704165,70.47035958595943,3.070151389435208,1.1069458198554059,A,853.7433333694935,Correct
8,15,111,B,44.931606423299925,35.43207597998192,2.246580321164996,0.5565657480007329,B,877.3566242307425,Correct
8,15,112,B,44.04743243322537,33.93309874589072,2.2023716216612685,0.5330198686681364,A,3553.448791615665,Incorrect
8,15,113,A,61.48611187869988,72.38184552412078,3.074305593934994,1.1369713707592455,A,641.0822905600071,Correct
8,15,114,A,55.675471142692075,82.16882123530766,2.7837735571346034,1.2907048257348777,A,701.6310002654791,Correct
8,15,115,A,54.43894069298716,83.68376795072098,2.721947034649358,1.31450155309349,A,832.7554985880852,Correct
8,15,116,A,22.92261776517304,41.29670252506717,1.146130888258652,0.6486870863511703,A,935.2337503805757,Correct
8,15,117,B,86.21721521273619,61.47142251935965,4.3108607606368095,0.9655908469626722,B,919.958165846765,Correct
8,15,118,B,60.975242563893346,31.45531038431499,3.0487621281946673,0.49409886009875364,B,976.8565827980638,Correct
8,15,119,A,52.21884387021086,75.57148451578554,2.6109421935105432,1.1870741028783334,A,784.1647490859032,Correct
8,15,120,A,40.29241002607407,48.081602661746935,2.0146205013037037,0.7552640484748381,A,1106.606749817729,Correct
8,15,121,A,62.445322295332716,74.4753266712923,3.122266114766636,1.169855695721159,A,1574.406124651432,Correct
8,15,122,B,66.31626308671144,50.48826022422669,3.315813154335572,0.7930677370648017,B,1832.7799988910556,Correct
8,15,123,B,75.59805146237487,56.14752974018141,3.7799025731187434,0.8819633347448417,B,683.0974984914064,Correct
8,15,124,A,34.66860679710183,45.87638851172009,1.7334303398550914,0.7206246256082551,A,792.8355420008302,Correct
8,15,125,B,38.302839839945776,12.62561163552881,1.9151419919972887,0.19832264380627557,B,1136.5599995478988,Correct
8,15,126,A,55.64037048733465,64.00845164926194,2.782018524366732,1.005442407344894,A,702.9929161071777,Correct
8,15,127,B,47.19881593242444,31.03519608402742,2.3599407966212222,0.4874997201014963,B,768.2462502270937,Correct
8,15,128,A,44.16539570126281,53.528845661035355,2.2082697850631403,0.8408291414192527,A,787.1237499639392,Correct
8,15,129,B,48.41869787375782,21.96417787604396,2.420934893687891,0.3450124992875958,B,1345.7643752917647,Correct
8,15,130,A,42.983948703095336,69.0891821666573,2.149197435154767,1.0852503356864875,A,742.9285403341055,Correct
8,15,131,B,81.50218031797185,65.49958774669739,4.075109015898593,1.0288651183909228,B,629.9111247062683,Correct
8,15,132,A,54.32209647060121,72.63462394950747,2.71610482353006,1.1409420049801495,A,798.0607505887747,Correct
8,15,133,A,34.06599866451998,61.148910595801134,1.703299933225999,0.9605248415139395,A,1937.7352083101869,Correct
8,15,134,A,67.76864604792056,82.30556191447145,3.388432302396028,1.2928527433004169,A,733.3626244217157,Correct
8,15,135,A,44.40810778797578,58.92803530138343,2.220405389398789,0.9256394139665308,A,858.5452912375331,Correct
8,15,136,B,71.23570353459911,45.28434398625279,3.5617851767299555,0.7113248119492245,B,892.0308332890272,Correct
8,15,137,A,45.777279610892606,76.93070624307238,2.2888639805446305,1.208424707843553,A,768.206749111414,Correct
8,15,138,A,48.15117365320914,79.23353342197707,2.407558682660457,1.2445974325822227,A,807.6658742502332,Correct
8,15,139,B,81.41814634283456,50.18250521075278,4.070907317141728,0.7882649485441622,B,947.609999217093,Correct
8,15,140,B,62.4004488537279,40.78375346568558,3.120022442686395,0.6406297013680754,B,687.7158740535378,Correct
8,15,141,A,36.172999831476176,53.22774448426384,1.8086499915738088,0.8360994551945895,A,743.2840410619974,Correct
8,15,142,B,51.729476788508144,40.18178360932408,2.586473839425407,0.6311739809759365,B,733.4340829402208,Correct
8,15,143,B,79.22303088620448,66.63551113589011,3.961151544310224,1.046708161263566,B,700.0468745827675,Correct
8,15,144,B,55.13620635005934,35.710873946652946,2.7568103175029672,0.5609450962203801,B,606.1899997293949,Correct
8,15,145,B,38.51635378281881,17.04080209129821,1.9258176891409406,0.2676762933065002,B,662.8787079825997,Correct
8,15,146,A,43.0725654680772,75.05007246828522,2.15362827340386,1.178883781588732,A,771.6364581137896,Correct
8,15,147,A,18.216577295631655,33.194123293603695,0.9108288647815828,0.521412069407696,A,624.7777920216322,Correct
8,15,148,A,53.71096997501676,78.25543871579873,2.685548498750838,1.229233556864998,A,929.9063747748733,Correct
8,15,149,B,61.07695378687536,36.31664839926405,3.0538476893437676,0.5704605790706573,B,846.0105834528804,Correct
8,15,150,B,60.83949247976567,32.82875031991356,3.0419746239882834,0.5156728041578701,B,770.4172916710377,Correct
8,15,151,B,65.08110249302086,39.457956294820825,3.2540551246510434,0.6198041281073812,B,1290.917874313891,Correct
8,15,152,A,54.798958513061244,69.08899541252532,2.739947925653062,1.0852474021594425,A,666.8567080050707,Correct
8,15,153,A,20.90823079207582,52.173871014365155,1.0454115396037909,0.8195452494403551,A,829.4482920318842,Correct
8,15,154,B,46.33466058502931,21.012312883491234,2.316733029251466,0.33006063894853105,B,667.0019580051303,Correct
8,15,155,A,59.63957671803769,87.23559094926622,2.9819788359018844,1.370293458288895,A,659.6268750727177,Correct
8,15,156,A,58.94244757116394,71.4113633915149,2.947122378558197,1.1217270730680715,A,1400.6948750466108,Correct
8,15,157,A,31.243609714466956,56.91318219055648,1.562180485723348,0.8939901753113484,A,809.4341661781073,Correct
8,15,158,A,43.215228517743434,71.05808739056492,2.1607614258871717,1.1161778266217013,A,1507.8677078709006,Correct
8,15,159,B,73.41107630279906,47.20741342254284,3.6705538151399533,0.741532316016184,B,647.1572490409017,Correct
8,15,160,A,65.47649348858508,83.81913042685362,3.273824674429254,1.31662782189644,A,767.0113332569599,Correct
8,15,161,B,86.61688124772326,61.168630728531994,4.330844062386163,0.9608346046345149,B,872.1026666462421,Correct
8,15,162,A,42.50648640233112,64.73051184053683,2.125324320116556,1.0167845023066882,A,1086.9343327358365,Correct
8,15,163,B,83.52546843858644,57.654092071801614,4.176273421929323,0.9056283605108075,B,853.6199582740664,Correct
8,15,164,A,53.91734609054355,64.76452831711777,2.6958673045271775,1.0173188318713264,A,744.7490831837058,Correct
8,15,165,A,28.77142218625311,61.36479083789311,1.4385711093126554,0.9639158804269962,A,591.2774158641696,Correct
8,15,166,A,23.00664368255258,45.75952641918588,1.1503321841276288,0.718788960151312,A,776.2655410915613,Correct
8,15,167,B,41.178080604436346,17.6007319730289,2.058904030221817,0.2764716513213529,B,740.4105411842465,Correct
8,15,168,B,43.23387887904988,15.80574811484178,2.161693943952494,0.24827611081038825,B,559.9188329651952,Correct
8,15,169,A,40.86711140090266,58.02410941532713,2.043355570045133,0.9114405793514103,A,679.0871247649193,Correct
8,15,170,A,50.24674138525175,61.681675856867486,2.5123370692625877,0.9688934986652089,A,804.9097079783678,Correct
8,15,171,A,17.32928840101554,32.420534112302335,0.8664644200507768,0.5092605589633316,A,1027.9510403051972,Correct
8,15,172,B,54.40558929009539,33.123972421483025,2.72027946450477,0.5203101420852099,B,797.9920832440257,Correct
8,15,173,B,60.792408109870586,39.70888673762129,3.039620405493529,0.6237457342857011,B,939.2538331449032,Correct
8,15,174,A,22.404497036918908,45.625894820516024,1.1202248518459454,0.7166898799079687,A,1302.1186655387282,Correct
8,15,175,B,67.75893014246842,47.841894083142485,3.387946507123421,0.7514987149271071,B,1492.997583001852,Correct
8,15,176,A,31.2456788148231,63.38836056292379,1.562283940741155,0.9957020393379117,A,2125.960082747042,Correct
8,15,177,B,72.75977754094122,48.42347478024855,3.6379888770470608,0.7606341631545973,B,843.9039997756481,Correct
8,15,178,B,55.48781050112291,47.70408575739545,2.7743905250561456,0.7493340268082551,B,782.6964994892478,Correct
8,15,179,A,57.407486933251256,70.71085279108807,2.8703743466625626,1.110723478287758,B,1127.715582959354,Incorrect
8,15,180,A,51.569207619998295,71.08118760341917,2.5784603809999145,1.1165406839166976,A,921.3196253404021,Correct
8,15,181,B,59.99130533903423,33.79040771944562,2.9995652669517114,0.5307784832660709,B,751.4046663418412,Correct
8,15,182,A,55.89586693000495,70.19418339245637,2.7947933465002475,1.102607654352378,A,715.3349574655294,Correct
8,15,183,A,37.294203635995295,49.106586051826795,1.8647101817997649,0.7713644499164705,A,666.8912079185247,Correct
8,15,184,A,30.624342492212207,63.4585207465411,1.5312171246106103,0.9968041129250449,A,654.5165004208684,Correct
8,15,185,B,84.69706845294583,60.46135800512475,4.234853422647292,0.9497247906748116,B,891.3619574159384,Correct
8,15,186,A,17.940588123878825,48.91984981343011,0.8970294061939412,0.7684312039429402,A,815.6809573993087,Correct
8,15,187,A,36.476983389989755,56.44718167575602,1.8238491694994878,0.8866702563420175,A,1081.2009163200855,Correct
8,15,188,B,82.59459837695671,68.0175976797202,4.129729918847835,1.0684179259271755,B,797.2250822931528,Correct
8,15,189,B,62.37256630321248,42.32121826196779,3.118628315160624,0.664780141913841,A,613.7249581515789,Incorrect
8,15,190,B,47.51232633560212,37.01568563490808,2.375616316780106,0.5814410302910823,A,733.0975001677871,Incorrect
8,15,191,B,61.11184518299997,28.852875276234087,3.055592259149998,0.45321990501379783,B,913.6094581335783,Correct
8,15,192,A,16.70048995620206,47.08112138120949,0.835024497810103,0.7395485252698853,A,812.5762483105063,Correct
8,15,193,B,74.50049569378349,64.32690159504574,3.7250247846891744,1.0104446073959463,B,1132.0153744891286,Correct
8,15,194,A,50.39286776580874,62.31745604045639,2.519643388290437,0.9788803104355135,A,1012.8959584981203,Correct
8,15,195,A,40.663100531287405,48.52334504864254,2.03315502656437,0.7622029216620904,A,810.8579581603408,Correct
8,15,196,A,61.815509561415524,78.85564222516112,3.090775478070776,1.2386615315433565,A,743.3899575844407,Correct
8,15,197,A,62.68411420070812,73.16839607525685,3.134205710035406,1.149326477924876,A,578.7444580346346,Correct
8,15,198,B,79.05640592382738,48.411871876463955,3.9528202961913688,0.7604519051681475,B,645.3762901946902,Correct
8,15,199,B,68.20979392410845,46.62663092990739,3.4104896962054227,0.7324094059551984,B,587.4733328819275,Correct
8,15,200,B,37.546025641000064,21.679701494412807,1.877301282050003,0.3405439547343347,B,635.8260000124574,Correct
8,15,201,B,56.137367007546366,34.522271263047365,2.8068683503773184,0.5422745689261181,B,694.8297917842865,Correct
8,15,202,A,55.49750883651649,76.33220646578089,2.7748754418258246,1.1990234953259828,A,791.4140829816461,Correct
8,15,203,A,19.157292529954915,45.931797717988466,0.9578646264977457,0.7214949913850249,A,1204.685208387673,Correct
8,15,204,B,49.894633501505936,30.2733007371634,2.494731675075297,0.475531895978935,B,830.4132902994752,Correct
8,15,205,B,61.113558943224,51.004577457800664,3.0556779471612,0.8011780292043907,B,662.0378335937858,Correct
8,15,206,A,22.853493268320406,44.7446872313204,1.1426746634160203,0.7028479034654459,A,911.9780836626887,Correct
8,15,207,B,40.52219009797171,15.267706158511782,2.0261095048985855,0.23982456752374132,B,799.1547482088208,Correct
8,15,208,B,59.80408109495501,41.63611785540797,2.99020405474775,0.6540186098927424,B,574.98374953866,Correct
8,15,209,A,12.66587566353644,37.11879181021877,0.633293783176822,0.5830606183055612,A,710.5087907984853,Correct
8,15,210,B,66.43750173960751,55.573516029141246,3.3218750869803757,0.8729467484565236,B,2052.8613328933716,Correct
8,15,211,B,36.51000544525121,21.15043542047146,1.8255002722625604,0.3322302626858924,B,687.5765826553106,Correct
8,15,212,B,56.56951597341271,49.206812080414146,2.828475798670636,0.7729387966920129,A,1044.4225408136845,Incorrect
8,15,213,B,33.81627215068595,19.781961003162504,1.6908136075342974,0.3107343168056755,B,639.341083355248,Correct
8,15,214,B,67.56530731313616,58.73237089762053,3.378265365656808,0.9225659246993779,B,828.0969578772783,Correct
8,15,215,B,60.9478164677231,37.678865163282296,3.047390823386155,0.5918582299628403,B,1006.9639990106225,Correct
8,15,216,B,51.9853770828372,21.8084641828273,2.5992688541418603,0.3425665543142319,B,1052.6715004816651,Correct
8,15,217,B,59.78331551944475,30.38606721322045,2.9891657759722374,0.4773032276426952,B,1039.8740414530039,Correct
8,15,218,A,48.20279816815207,77.76351963813929,2.4101399084076034,1.2215065100623197,A,927.1276658400893,Correct
8,15,219,B,63.16977465730559,37.69722117218001,3.1584887328652793,0.5921465654763516,B,781.9539159536362,Correct
8,15,220,B,64.40663139058022,50.80030091885736,3.220331569529011,0.7979692608341655,B,4967.472583055496,Correct
8,15,221,A,44.19033523161566,74.88323824209536,2.209516761580783,1.176263155691905,A,1569.7589991614223,Correct
8,15,222,A,34.2547779295392,47.66201727161561,1.7127388964769603,0.7486732165788873,A,738.5393334552646,Correct
8,15,223,B,70.6932536430557,47.208373052907234,3.534662682152785,0.7415473898546986,B,1069.2164171487093,Correct
8,15,224,A,51.95004720321633,81.35504105524923,2.5975023601608167,1.2779219965583348,A,2003.632916137576,Correct
8,15,225,B,75.1409678980059,62.40127895637839,3.757048394900295,0.9801969977198285,B,2995.1652493327856,Correct
8,15,226,B,77.76930873901028,64.5055101053535,3.888465436950514,1.0132501833152037,B,1263.448833487928,Correct
8,15,227,A,40.11522371425804,50.29631180974097,2.005761185712902,0.7900526184207188,A,3649.677333422005,Correct
8,15,228,B,48.87621776552395,34.17525436354481,2.4438108882761975,0.5368236402153745,B,2241.2630831822753,Correct
8,15,229,B,73.7895031304812,41.019184859589146,3.6894751565240598,0.6443278490556347,B,1885.5845415964723,Correct
8,15,230,A,27.762786818802084,58.5854403580568,1.3881393409401042,0.9202579451809711,A,1259.3180416151881,Correct
8,15,231,A,41.30125896545468,58.11446075557075,2.065062948272734,0.912859814885167,A,797.2068749368191,Correct
8,15,232,A,48.04236153613994,57.38130283000892,2.402118076806997,0.9013433971208362,A,1505.1310826092958,Correct
8,15,233,A,54.2296859155449,63.467693545686515,2.711484295777245,0.9969481989170854,A,3350.0868752598763,Correct
8,15,234,B,41.309681551904134,16.078601583225314,2.065484077595207,0.25256208306928934,B,2415.357207879424,Correct
8,15,235,B,65.93251363569603,53.739833376496904,3.296625681784801,0.8441433287037112,B,2088.7630004435778,Correct
8,15,236,A,47.550374160229815,62.926856530786175,2.3775187080114906,0.9884527509530836,A,1191.1393338814378,Correct
8,15,237,A,35.661941184271285,64.21486481484129,1.7830970592135642,1.0086847377678354,A,1208.6647907271981,Correct
8,15,238,B,65.15512294106465,37.62690683570455,3.2577561470532324,0.5910420704617849,B,1475.194207392633,Correct
8,15,239,B,34.59955832951661,21.863760976672495,1.7299779164758307,0.34343515432078753,B,649.0137912333012,Correct
8,15,240,A,41.642069549589664,62.34649252229283,2.0821034774794835,0.9793364144256306,A,1755.990999750793,Correct
8,15,241,B,65.10035127258496,45.27511018725376,3.2550175636292478,0.711179767773724,B,1196.8555822968483,Correct
8,15,242,B,38.77610501057883,25.693520226283887,1.9388052505289415,0.40359287193877114,B,1131.1357924714684,Correct
8,15,243,A,40.363562516349305,53.86506006256826,2.018178125817465,0.846110384888687,A,700.1516250893474,Correct
8,15,244,B,38.756428847726255,15.436431609120667,1.9378214423863127,0.24247490070427377,B,2127.945125102997,Correct
8,15,245,B,45.5808586765584,27.353920471997164,2.27904293382792,0.42967437800852865,B,626.9704578444362,Correct
8,15,246,A,49.58272409986186,74.80818773488717,2.479136204993093,1.175084265081438,A,1235.843458212912,Correct
8,15,247,A,35.885831838247604,52.9998506606331,1.7942915919123803,0.8325197073840056,A,823.553248308599,Correct
8,15,248,B,33.044795255944834,15.647422829389736,1.6522397627972418,0.24578914304212007,B,830.84995765239,Correct
8,15,249,A,46.62153112157052,72.48026671841936,2.331076556078526,1.1385173672640754,A,839.5843738690019,Correct
8,15,250,A,43.03364994685233,58.264612569623935,2.1516824973426165,0.9152183940649304,A,1370.6775410100818,Correct
8,15,251,A,46.18799870497948,76.36305260301386,2.309399935248974,1.1995080253165964,A,898.2258327305317,Correct
8,15,252,A,27.295617516081617,48.69133923522356,1.3647808758040807,0.7648417681741339,A,570.3024584800005,Correct
8,15,253,B,40.8207842941831,15.773246595881883,2.041039214709155,0.24776557814441366,B,953.9779582992196,Correct
8,15,254,A,22.178551842087046,39.83964166448841,1.1089275921043522,0.6257996278740331,A,876.8558334559202,Correct
8,15,255,B,56.504628490376525,49.338952533102365,2.8252314245188264,0.7750144540690495,B,703.9286252111197,Correct
8,15,256,B,54.82460145797984,41.63018206345122,2.741230072898992,0.6539253706907198,B,774.4566248729825,Correct
8,15,257,B,57.80815241608078,31.262063971770015,2.890407620804039,0.49106335254883415,B,1394.026250578463,Correct
8,15,258,A,43.24203820571039,55.59475955996445,2.1621019102855197,0.8732804410583763,A,1525.5665825679898,Correct
8,15,259,B,85.23068649906516,64.3712729977524,4.261534324953257,1.0111415917598097,B,862.5647909939289,Correct
8,15,260,B,68.45217250601718,41.03474728067202,3.422608625300859,0.6445723029943647,B,909.9975004792213,Correct
8,15,261,A,28.56502297718469,46.57327744562813,1.4282511488592347,0.7315713313839228,A,729.7489987686276,Correct
8,15,262,A,48.93690984515101,75.97965988592196,2.4468454922575504,1.1934857065993176,A,838.4693330153823,Correct
8,15,263,B,49.978558721065696,21.101978561870848,2.498927936053285,0.3314691041309138,B,827.0836658775806,Correct
8,15,264,A,34.90237722939648,55.04534436786292,1.7451188614698239,0.8646502474019923,A,962.6072905957699,Correct
8,15,265,A,33.18069026104895,59.51693049378174,1.6590345130524475,0.9348897580173953,A,681.4342504367232,Correct
8,15,266,B,43.069100164082435,28.12231654696602,2.153455008204122,0.4417443153293756,B,878.9747906848788,Correct
8,15,267,A,36.82084618583575,56.45311694327414,1.8410423092917876,0.8867634873061775,A,623.6125407740474,Correct
8,15,268,A,44.26671771408029,73.16866553527248,2.213335885704015,1.1493307105929036,A,893.0603750050068,Correct
8,15,269,B,44.86924134021338,18.125126736034765,2.2434620670106686,0.28470882499655387,B,605.6588748469949,Correct
8,15,270,A,36.22377686432012,64.72284205611845,1.811188843216006,1.0166640256147712,A,753.5996660590172,Correct
8,15,271,A,49.51967379438461,66.95904103011591,2.4759836897192304,1.0517901569581485,A,780.3642498329282,Correct
8,15,272,A,46.368572662685445,69.56828146409194,2.318428633134272,1.092776009852291,A,685.9962083399296,Correct
8,15,273,A,19.05089399332145,36.365119198955774,0.9525446996660725,0.571221956611783,A,849.0759581327438,Correct
8,15,274,A,64.38176001716002,79.08150661191152,3.2190880008580005,1.2422094010339693,A,746.2688749656081,Correct
8,15,275,A,46.649215492460584,58.04208455064158,2.3324607746230295,0.911722932116666,A,644.8309170082211,Correct
8,15,276,A,41.58257382736285,66.76087571720247,2.0791286913681426,1.0486773835019223,A,767.0397087931633,Correct
8,15,277,B,66.27459542658328,56.78628931994142,3.313729771329164,0.8919969467607622,B,2152.38600037992,Correct
8,15,278,A,43.58133464051999,50.57934191066147,2.1790667320259995,0.794498444849702,A,740.4005406424403,Correct
8,15,279,A,17.520908711312526,39.346680057517716,0.8760454355656263,0.6180562050592284,A,827.603374607861,Correct
8,15,280,A,62.35140068728731,76.974082222577,3.1175700343643653,1.2091060561363232,A,703.9559166878462,Correct
8,15,281,B,78.62555706092888,55.94236235359951,3.9312778530464443,0.8787405729726323,B,603.930207900703,Correct
8,15,282,A,67.89425217902041,83.34159332294217,3.394712608951021,1.3091266866091165,A,1158.5654160007834,Correct
8,15,283,A,43.75620476542866,50.425831321272746,2.187810238271433,0.7920871061503427,A,766.6200418025255,Correct
8,15,284,B,64.31754893981122,34.44993515562472,3.215877446990561,0.5411383160077768,B,772.7319579571486,Correct
8,15,285,B,65.61362795283833,40.83889137254958,3.2806813976419162,0.6414958055837668,B,755.5450825020671,Correct
8,15,286,B,70.24002150849937,48.757742319112495,3.512001075424968,0.76588482537674,B,696.0898749530315,Correct
8,15,287,A,58.35947726427071,79.03409141994877,2.9179738632135352,1.2414646049402758,A,685.5927910655737,Correct
8,15,288,B,84.60013970518978,59.0789408768895,4.2300069852594895,0.9280098332035089,B,688.8129161670804,Correct
8,15,289,A,47.61790959313165,62.831832942939506,2.3808954796565827,0.9869601239255996,A,1153.3852079883218,Correct
8,15,290,A,24.84768026774146,57.39781757615437,1.242384013387073,0.9016028101466683,A,677.8605403378606,Correct
8,15,291,B,84.3268838596234,56.75882964739269,4.21634419298117,0.8915656112330171,B,748.266083188355,Correct
8,15,292,A,21.390351109980074,35.21475030478679,1.0695175554990037,0.5531520042775855,A,769.2538322880864,Correct
8,15,293,B,41.12383385792348,16.395178574306495,2.056191692896174,0.25753486281667026,B,1649.9669589102268,Correct
8,15,294,B,57.066165713687205,43.65739431089298,2.85330828568436,0.685768746209871,B,1744.3610411137342,Correct
8,15,295,B,50.202274677155096,35.729916116229724,2.5101137338577546,0.5612442099206342,B,744.9215827509761,Correct
8,15,296,A,19.092131906267394,43.64738713124838,0.9546065953133698,0.6856115537995979,A,767.303915694356,Correct
8,15,297,B,65.89471485020951,35.46154737668541,3.294735742510476,0.5570286836176064,B,712.8953747451305,Correct
8,15,298,B,73.74084016254713,49.430463704693054,3.687042008127356,0.776451908191003,B,598.2359172776341,Correct
8,15,299,B,58.75806220153005,50.08500663382627,2.9379031100765025,0.7867334444791234,A,1689.6174577996135,Incorrect
