subject,day,trial,cat,x,y,xt,yt,resp,rt,fb
8,21,0,B,84.53264289006613,68.42736909927484,4.226632144503307,1.0748546003337953,B,809.8211659998924,Correct
8,21,1,A,41.92476202882704,70.73821537828809,2.0962381014413523,1.1111532888024118,A,626.8097910015058,Correct
8,21,2,A,61.29564651132727,75.34171827421498,3.0647823255663633,1.1834649431955282,A,847.9130420000729,Correct
8,21,3,A,37.329087735139,44.82280647081175,1.86645438675695,0.7040749976098961,A,814.1918740002438,Correct
8,21,4,B,78.3019632925965,60.73442483659125,3.915098164629825,0.9540141144331826,B,1044.0570829996432,Correct
8,21,5,B,83.05150526524581,54.06682609310107,4.15257526326229,0.8492797182850162,B,557.7044159999787,Correct
8,21,6,A,47.340640780072036,55.40712958608476,2.3670320390036017,0.8703331563207077,A,1040.1200409996818,Correct
8,21,7,A,28.193821390384986,44.96180008926633,1.4096910695192495,0.70625830426306,A,1965.312874999654,Correct
8,21,8,B,50.082478108667324,32.664729411564714,2.504123905433366,0.5130963697543508,B,1723.0302919997484,Correct
8,21,9,A,63.376872748220855,80.00858683968264,3.1688436374110425,1.2567719431982398,A,748.3610409999528,Correct
8,21,10,B,60.442819076399736,29.422517401164193,3.022140953819987,0.4621678225880764,B,757.0642079990648,Correct
8,21,11,B,41.973987540464265,31.769117198697575,2.0986993770232134,0.4990281260123072,B,1638.5640829994372,Correct
8,21,12,B,70.42419208609651,49.78759352270342,3.5212096043048255,0.782061690254199,B,1235.1157079992845,Correct
8,21,13,A,54.56992303337683,81.56582297328384,2.7284961516688417,1.2812329511843705,A,2004.9479170011182,Correct
8,21,14,A,38.288978093010066,69.11687713073351,1.914448904650503,1.0856853671649038,A,2515.3797500006476,Correct
8,21,15,B,41.85344489047963,24.40721531089318,2.0926722445239814,0.3833876415764316,B,1243.8993329997174,Correct
8,21,16,A,24.614406752909538,38.17788406694453,1.2307203376454767,0.5996968005715787,A,730.5930000002263,Correct
8,21,17,B,32.9474476333648,16.442037614291422,1.64737238166824,0.2582709228955249,B,2778.613125001357,Correct
8,21,18,A,30.91473400453439,39.596607212520965,1.5457367002267197,0.6219820516296823,A,1225.4637499991077,Correct
8,21,19,B,44.4566783414709,16.1031984303025,2.222833917073545,0.2529484494396851,B,859.1788749999978,Correct
8,21,20,B,44.2415032519734,20.152880570282537,2.21207516259867,0.31656070774136047,B,1869.5421240008727,Correct
8,21,21,B,65.52296732182162,51.28795902775566,3.276148366091081,0.8056293764960575,B,1220.7448740009568,Correct
8,21,22,B,83.17771888535435,61.18940214975083,4.158885944267718,0.9611608813560436,B,1222.591707999527,Correct
8,21,23,A,61.43069708724519,86.71461221228384,3.07153485436226,1.3621099434249935,A,1690.1878330008913,Correct
8,21,24,B,61.071185337312635,41.88342480229741,3.0535592668656317,0.6579032983303904,B,828.0591660004575,Correct
8,21,25,B,51.66272281994582,43.89709270301064,2.583136140997291,0.6895339197486418,B,669.0357490006136,Correct
8,21,26,B,49.32082886326385,35.568422937170396,2.4660414431631925,0.558707480995946,B,665.5925830000342,Correct
8,21,27,A,66.17379238228676,80.31850091460944,3.3086896191143382,1.2616400621034105,A,727.604165998855,Correct
8,21,28,B,57.878528420769065,30.428657994575993,2.8939264210384534,0.4779722420717813,B,695.8031659996777,Correct
8,21,29,B,67.48567264110757,43.34957257123531,3.3742836320553784,0.6809334936302524,B,613.119417001144,Correct
8,21,30,B,41.6247183898154,19.878435189322843,2.08123591949077,0.3122497297781874,B,649.5408330010832,Correct
8,21,31,B,46.02017720960496,28.653899703181086,2.301008860480248,0.45009440402106227,B,663.4482079989539,Correct
8,21,32,A,37.92548085315835,52.7794252421262,1.8962740426579174,0.8290572730067767,A,870.9743330000492,Correct
8,21,33,B,42.838402538598956,16.67050981578607,2.1419201269299477,0.2618597558443503,B,710.6362079994142,Correct
8,21,34,A,48.904924458931596,58.740599573573874,2.44524622294658,0.9226951804389971,A,807.7090409988159,Correct
8,21,35,A,46.0868927293379,53.66877900624488,2.304344636466895,0.843027209265765,A,798.5848329990404,Correct
8,21,36,B,40.52229247286667,24.789581819790634,2.026114623643333,0.3893938406530867,B,588.5212079992925,Correct
8,21,37,A,38.982500930848715,49.258907219319525,1.9491250465424357,0.7737571052203772,A,4482.775332999154,Correct
8,21,38,A,20.51266946487845,39.94467748171205,1.0256334732439225,0.6274495266328011,A,1165.8218750017113,Correct
8,21,39,A,36.07214940694904,48.376829445774895,1.803607470347452,0.759901459954064,A,1980.3064169991558,Correct
8,21,40,B,53.280353014007105,35.886326185722986,2.6640176507003552,0.5637010935469717,B,3040.167500001189,Correct
8,21,41,B,52.37699560057972,40.40226281971206,2.6188497800289863,0.6346372603140571,B,2985.9016239988705,Correct
8,21,42,A,38.704376180271886,53.73741904034535,1.9352188090135942,0.8441054044001263,A,690.6224169997586,Correct
8,21,43,B,76.71338437308152,53.053437360987445,3.835669218654076,0.8333614453048221,B,656.7514170001232,Correct
8,21,44,A,63.49370736393841,78.46313268643127,3.1746853681969207,1.232496006126668,A,2708.84287500121,Correct
8,21,45,B,74.31298054818163,59.16258846141297,3.715649027409081,0.9293237663886562,B,6915.290457998708,Correct
8,21,46,B,65.67297411334873,52.04937682523946,3.283648705667437,0.8175896992904956,B,4079.241458000979,Correct
8,21,47,A,45.90647767711994,72.6282829005799,2.295323883855997,1.140842400016515,A,983.7244170012127,Correct
8,21,48,A,34.87125585074875,64.53332130679995,1.7435627925374377,1.013687040645962,A,713.3494160007103,Correct
8,21,49,A,40.724622722897166,72.46963614718811,2.036231136144858,1.1383503826416574,A,3346.458415999223,Correct
8,21,50,A,30.975067839591116,61.030022705101345,1.5487533919795557,0.9586573548938233,A,1834.5519160011463,Correct
8,21,51,B,34.27765209522352,20.36676212732071,1.7138826047611762,0.3199203513830078,B,998.3922910014371,Correct
8,21,52,A,32.133130755464904,59.25808481860609,1.6066565377732451,0.9308238196596688,A,2047.2233749987936,Correct
8,21,53,B,45.5130922848106,38.287762445442915,2.27565461424053,0.6014227661049732,B,2450.893208000707,Correct
8,21,54,A,67.87487761919917,84.9933141746784,3.3937438809599585,1.3350718570770945,A,705.4022079992137,Correct
8,21,55,B,33.895341579033875,10.282678484566024,1.6947670789516938,0.16151993593169223,B,711.5456659994379,Correct
8,21,56,B,72.74744045071611,61.44911420942444,3.6373720225358057,0.9652404288496398,B,892.6967499992315,Correct
8,21,57,B,75.84351928495269,45.07536923762804,3.7921759642476345,0.708042244273898,B,1593.1086250002409,Correct
8,21,58,A,54.05116309885749,74.92141767572102,2.7025581549428743,1.176862876832888,A,2021.4400000004389,Correct
8,21,59,A,51.56000223443304,64.52826334669169,2.578000111721652,1.0136075903943706,A,708.5496250001597,Correct
8,21,60,A,52.68865907259333,75.56184971341318,2.6344329536296662,1.1869227597565744,A,1786.7293330000393,Correct
8,21,61,B,78.1053838015633,60.58305942800891,3.9052691900781658,0.9516364721551333,B,685.0213750003604,Correct
8,21,62,A,17.60878588088659,38.45554824040487,0.8804392940443294,0.6040583392091193,A,1140.910874999463,Correct
8,21,63,A,39.37927679032775,61.250606321645,1.9689638395163878,0.9621222742400025,A,1244.5271250016958,Correct
8,21,64,B,45.67268578876945,30.300823538611994,2.2836342894384725,0.4759642231331206,B,2442.0761239998683,Correct
8,21,65,A,29.198191491027,46.733145236019794,1.45990957455135,0.7340825287631232,A,1925.4500000006374,Correct
8,21,66,A,10.752654333462797,32.87358836347994,0.5376327166731398,0.5163771184992174,A,1643.4542489987507,Correct
8,21,67,A,28.51242640459528,57.834456589097236,1.425621320229764,0.9084615197233284,A,670.2154579998023,Correct
8,21,68,A,59.05778346370401,84.05233037250561,2.9528891731852007,1.3202909180768294,A,1234.772542000428,Correct
8,21,69,A,31.63193914699322,55.695177787468126,1.5815969573496609,0.8748578068874366,A,4110.096041000361,Correct
8,21,70,A,13.194977838353115,34.252806185047056,0.6597488919176557,0.5380418213788942,A,2375.1109990007535,Correct
8,21,71,B,32.75197082081215,14.291989876767595,1.6375985410406073,0.22449805201016385,B,3618.844833001276,Correct
8,21,72,B,62.50462907111431,43.86746227206408,3.1252314535557155,0.6890684860277196,B,1466.67483300007,Correct
8,21,73,B,64.1205074612638,51.629859607177806,3.20602537306319,0.810999938238911,B,2615.5550409985153,Correct
8,21,74,A,26.853018952598248,54.370764641852084,1.3426509476299122,0.854053973844511,A,1788.4230420004315,Correct
8,21,75,A,38.83203343864386,46.564904127847754,1.9416016719321931,0.7314398036157976,A,6289.647166999202,Correct
8,21,76,B,78.56269051630336,49.36538647393985,3.928134525815168,0.7754296774407519,B,679.3020829991292,Correct
8,21,77,B,43.63689595560751,16.76987307224913,2.1818447977803754,0.2634205502270558,B,1859.3537079996167,Correct
8,21,78,A,47.448735024018966,73.56726334782098,2.372436751200948,1.1555918703911003,A,1881.7012920007983,Correct
8,21,79,B,45.5328630324975,17.414319777997264,2.2766431516248753,0.27354349540909817,B,752.1179989998927,Correct
8,21,80,A,54.383193702560945,80.766049966113,2.7191596851280475,1.2686701461650338,A,749.0584579991264,Correct
8,21,81,A,48.96888754753047,79.72792531368212,2.4484443773765237,1.2523633222570973,A,727.9881659997045,Correct
8,21,82,B,53.844369389069605,34.56646139217609,2.6922184694534805,0.5429687058512781,B,4989.028624999264,Correct
8,21,83,A,56.23396769890389,66.19386056702335,2.8116983849451946,1.0397707303505384,A,4266.372583000702,Correct
8,21,84,B,63.66946743653717,30.67338918158869,3.1834733718268584,0.4818164705678984,B,4421.624165999674,Correct
8,21,85,A,52.61164920775498,78.40996279360282,2.630582460387749,1.231660815403158,A,2108.40079099944,Correct
8,21,86,B,45.319029404897094,17.637701673325303,2.265951470244855,0.2770523700156359,B,856.7302499996003,Correct
8,21,87,B,40.85366297022298,32.354330730186696,2.042683148511149,0.508220638668845,B,608.8790000012523,Correct
8,21,88,A,47.85403913041466,73.70059425968788,2.392701956520733,1.1576862274571875,A,3300.8997079996334,Correct
8,21,89,B,45.597835166696726,19.362068264245938,2.279891758334836,0.3041386570862956,B,4178.866625001319,Correct
8,21,90,B,78.24167375228556,64.0424967491728,3.9120836876142784,1.0059771865237472,B,3935.8587919996353,Correct
8,21,91,B,58.28835850679435,47.26982032413039,2.9144179253397176,0.7425126013339878,B,2373.035415999766,Correct
8,21,92,B,71.03953124328696,46.14293413693926,3.5519765621643478,0.7248115144984303,B,4537.170499999775,Correct
8,21,93,B,55.88868581647684,31.865452978418936,2.7944342908238418,0.5005413649015596,B,2267.1785410002485,Correct
8,21,94,B,82.45973816360717,68.54081538691489,4.1229869081803585,1.0766366104529301,A,3922.258165999665,Incorrect
8,21,95,A,36.22530747668418,58.255752876224776,1.811265373834209,0.9150792263264511,A,783.1119580005179,Correct
8,21,96,B,79.6496157989348,53.96599345297684,3.9824807899467403,0.8476958428777345,B,751.7996250007855,Correct
8,21,97,B,36.796237395312275,17.40237031964574,1.8398118697656138,0.27335579375624064,A,1024.981624999782,Incorrect
8,21,98,B,47.509305881264766,28.427834312191372,2.3754652940632384,0.4465433771632414,B,1197.2141250007553,Correct
8,21,99,A,33.20811537817188,46.03865333933207,1.6604057689085943,0.7231734755600643,A,827.5307490002888,Correct
8,21,100,A,16.842489324029213,45.886946655187764,0.8421244662014606,0.7207904725380232,A,876.0666670004866,Correct
8,21,101,B,64.37964561157015,47.25005616718861,3.2189822805785075,0.7422021466827241,B,1321.6532490005193,Correct
8,21,102,B,46.030306594922436,16.594647368362303,2.3015153297461217,0.260668111306801,B,649.2979579998064,Correct
8,21,103,B,80.79157548466647,63.92170651802573,4.039578774233323,1.004079818009762,B,1140.5504160011333,Correct
8,21,104,A,56.488056237185646,78.40920037373144,2.8244028118592825,1.231648839339824,A,766.032333000112,Correct
8,21,105,A,20.860525629862675,36.45930706219803,1.0430262814931337,0.572701456107879,A,739.190124999368,Correct
8,21,106,B,50.83147988294747,43.07929368319662,2.5415739941473734,0.6766879627848383,B,734.2654160001985,Correct
8,21,107,A,63.893866897585184,88.94655250168528,3.1946933448792594,1.3971691795071666,A,1435.8693739995942,Correct
8,21,108,A,18.55894574357304,32.27506097718543,0.9279472871786522,0.5069754723004417,A,819.0630419994704,Correct
8,21,109,A,46.61198098894965,60.27627078489255,2.3305990494474824,0.9468174474180375,A,726.4744170006452,Correct
8,21,110,A,60.2652219541145,85.65513657553886,3.013261097705725,1.3454677390397165,A,816.5392080009042,Correct
8,21,111,A,45.328204831220724,56.21727952161955,2.266410241561036,0.8830589617496194,A,1024.1332080004213,Correct
8,21,112,A,23.14686948975176,47.30549114351058,1.1573434744875881,0.7430729172545493,A,977.6475830003619,Correct
8,21,113,A,32.3607354950047,55.83378898589114,1.6180367747502347,0.8770351065007915,A,537.4996240007022,Correct
8,21,114,A,33.66358163859624,58.30477878878348,1.683179081929812,0.915849323560101,A,3843.6823329993786,Correct
8,21,115,B,33.87828377976824,18.326044361581488,1.6939141889884122,0.2878648316785252,B,2764.6662079987436,Correct
8,21,116,A,27.1502677595964,52.13116053077749,1.3575133879798198,0.8188743547330036,A,11358.55708300005,Correct
8,21,117,A,41.17908233644749,53.112957010945365,2.058954116822375,0.8342963777800821,A,2165.5697080004757,Correct
8,21,118,B,58.37453412919268,37.25971576389313,2.9187267064596343,0.5852742465934523,B,2433.6169579983107,Correct
8,21,119,A,43.424228769167236,69.01452554364965,2.1712114384583616,1.0840776321945744,A,885.7239579992893,Correct
8,21,120,A,19.147840556108168,36.07496311752131,0.9573920278054083,0.5666641955426384,A,718.3364989996335,Correct
8,21,121,A,60.49786322361651,74.74457847943913,3.0248931611808256,1.1740850932333586,A,1296.196624998629,Correct
8,21,122,B,82.50000764336474,62.3792522036926,4.125000382168237,0.9798510022977281,B,1068.1579160009278,Correct
8,21,123,B,65.08291814466052,52.55239743932418,3.2541459072330263,0.8254911286195595,B,642.2081669988984,Correct
8,21,124,B,78.16849748306736,61.119572173212845,3.908424874153368,0.960063994649583,B,715.8856660007586,Correct
8,21,125,A,51.426142502123994,63.509378694529,2.5713071251061996,0.9976029877039221,A,1213.1829579993791,Correct
8,21,126,B,32.989578359032635,14.21253113731295,1.6494789179516318,0.2232499170494928,B,2778.761666000719,Correct
8,21,127,B,53.88062149962056,27.911810894033287,2.6940310749810283,0.4384377002654126,B,893.2202489995689,Correct
8,21,128,B,62.57381689468555,37.90493997658053,3.1286908447342774,0.5954094048259373,B,763.957166000182,Correct
8,21,129,B,56.53229794562641,36.31630779957586,2.8266148972813205,0.5704552289432662,B,660.1777910000237,Correct
8,21,130,B,41.43664388310397,23.104640936609727,2.0718321941551983,0.3629268511514156,B,809.4821239992598,Correct
8,21,131,B,72.30308389150302,60.097344534354065,3.615154194575151,0.9440068804469072,B,1854.4384580000042,Correct
8,21,132,A,57.66698415471561,84.1631600988764,2.88334920773578,1.3220318273476588,A,956.2102079999022,Correct
8,21,133,A,42.77753645953259,58.93067002900696,2.1388768229766297,0.9256808001712623,A,989.8035829992295,Correct
8,21,134,B,40.28048015990875,24.026954876791972,2.0140240079954372,0.3774145246453156,B,3963.2104160009476,Correct
8,21,135,B,38.403902320241585,17.410920809404594,1.9201951160120792,0.27349010453529565,B,1828.507999998692,Correct
8,21,136,B,56.123912012899815,40.424949474380355,2.806195600644991,0.6349936214522595,B,1112.8121660003671,Correct
8,21,137,A,42.81121836084901,68.15596238542068,2.1405609180424507,1.0705913536418994,A,1113.4922080000251,Correct
8,21,138,A,40.078011352859264,67.89386831145467,2.0039005676429635,1.0664743895552942,A,1882.3960829995485,Correct
8,21,139,A,42.81644740504735,58.66090969970425,2.1408223702523674,0.9214434148274255,A,3482.6632080003037,Correct
8,21,140,A,16.00816274400441,40.52084160275446,0.8004081372002204,0.6364998914824455,A,1049.1740829984337,Correct
8,21,141,B,44.28861054770553,15.146440692348584,2.2144305273852765,0.23791973403557906,B,911.4732910002203,Correct
8,21,142,A,34.53979145997026,48.925985776119475,1.7269895729985132,0.7685275874194782,A,995.6883750000998,Correct
8,21,143,B,57.36745201821949,48.987249946014,2.8683726009109747,0.7694899227498229,B,1212.0528329996887,Correct
8,21,144,B,43.33580504111231,23.060851690527898,2.1667902520556153,0.362239011282431,B,1331.6855409993877,Correct
8,21,145,B,65.55749157476939,57.784956232181074,3.2778745787384698,0.907683969935139,B,960.7488330002525,Correct
8,21,146,B,40.61578712062557,19.674211727393757,2.030789356031278,0.3090417951397519,B,1193.362915999387,Correct
8,21,147,A,31.16665403952807,46.343057320875985,1.5583327019764033,0.7279550421207733,A,777.2113329992862,Correct
8,21,148,A,39.07931394409802,61.11378082267143,1.953965697204901,0.9599730243280067,A,1076.2860409995483,Correct
8,21,149,B,65.46664106590427,49.74891577787192,3.273332053295213,0.7814541416590989,B,1321.8806660006521,Correct
8,21,150,A,50.38533698413349,70.82744109707825,2.5192668492066743,1.1125548431157242,A,1292.6439580005535,Correct
8,21,151,A,28.720487184137667,53.08209176793415,1.4360243592068833,0.8338115476766057,A,1166.5052080006717,Correct
8,21,152,B,37.459214474892086,16.557328635717983,1.8729607237446044,0.26008191002521763,B,1543.1567910000012,Correct
8,21,153,A,65.24511923908997,82.77759337480175,3.2622559619544984,1.3002673961406015,A,2911.334791000627,Correct
8,21,154,A,38.11314235240508,57.019183178001235,1.905657117620254,0.895655234928497,A,1104.746332999639,Correct
8,21,155,B,73.60574625878799,60.31227663836779,3.680287312939399,0.9473830260418578,B,819.5172920004552,Correct
8,21,156,B,50.91884543598276,28.05688249511409,2.545942271799138,0.4407164796464125,B,894.9923749987647,Correct
8,21,157,A,32.874696303581224,50.91029091561404,1.6437348151790614,0.7996969796630613,A,4726.647250001406,Correct
8,21,158,B,88.51823059518813,62.070029495599485,4.425911529759406,0.9749937433573856,B,6165.60329099957,Correct
8,21,159,A,47.67766007695296,77.11842886013454,2.3838830038476484,1.2113734478169287,A,12689.004040999862,Correct
8,21,160,B,43.33162945479848,21.357206803875183,2.166581472739924,0.3354782199812611,B,2693.670208000185,Correct
8,21,161,A,51.283924397222265,75.72133633646551,2.5641962198611132,1.1894279697732095,A,940.3455000010581,Correct
8,21,162,A,29.98471960224215,54.643470494455165,1.4992359801121073,0.8583376273601547,A,709.8935410012928,Correct
8,21,163,A,29.48933573638389,48.147324300498134,1.4744667868191945,0.7562964015622514,A,1226.6704579997167,Correct
8,21,164,B,68.54826379020166,44.22590567424336,3.427413189510083,0.6946989018227904,B,949.7027910001634,Correct
8,21,165,B,49.22033633674261,23.82759486035173,2.4610168168371307,0.3742829848299745,B,1449.6705420006037,Correct
8,21,166,B,54.15970720921325,46.83135259256779,2.7079853604606625,0.7356251663124214,B,598.1176240002242,Correct
8,21,167,A,22.06259965336444,34.827556406046035,1.1031299826682222,0.5470699767385919,A,2171.4997079998284,Correct
8,21,168,A,59.02929276984034,85.78112150621584,2.951464638492017,1.3474467057031054,A,2021.921541001575,Correct
8,21,169,B,72.40523743337994,46.18949239237031,3.620261871668997,0.7255428498645611,B,815.5873329997121,Correct
8,21,170,A,41.552951647211934,48.3945389924214,2.0776475823605964,0.7601796408622792,A,672.8367910000088,Correct
8,21,171,A,47.137613747202856,67.12488610849095,2.356880687360143,1.0543952453574337,A,804.0612079985294,Correct
8,21,172,B,44.53781009916132,17.469463942897754,2.226890504958066,0.2744096979257968,B,945.0135420011065,Correct
8,21,173,A,11.502252192122718,30.49732168109148,0.5751126096061359,0.4790508087374086,A,716.9759579992387,Correct
8,21,174,A,45.73503212404608,63.35884075487645,2.286751606202304,0.9952383432774271,A,678.1811660002859,Correct
8,21,175,B,61.91383975053662,38.533254348293994,3.0956919875268305,0.6052789438975368,B,639.0338740002335,Correct
8,21,176,A,25.14847403804138,51.54313427327782,1.2574237019020689,0.8096376598796096,A,684.6505409994279,Correct
8,21,177,B,60.04184182819518,38.03872632268506,3.002092091409759,0.5975109158363002,B,1639.8774579993187,Correct
8,21,178,B,50.085156318468755,20.643089387885894,2.5042578159234377,0.3242608898418987,B,783.5940409986506,Correct
8,21,179,B,36.97484560601718,21.203490195825374,1.8487422803008593,0.333063645148341,B,704.1229170008592,Correct
8,21,180,A,43.99720764821338,64.36620902071226,2.199860382410669,1.0110620469944736,A,2015.178998999545,Correct
8,21,181,A,55.78990616714388,75.55320645223095,2.7894953083571945,1.1867869917274088,A,837.9977490003512,Correct
8,21,182,B,52.07487044147764,34.58962681265969,2.603743522073882,0.543332587425321,B,626.1759159988287,Correct
8,21,183,B,57.59085201436018,28.573148459192495,2.879542600718009,0.4488259664466483,B,574.178998998832,Correct
8,21,184,A,60.67393443478854,71.44078491506106,3.0336967217394273,1.1221892252792216,A,984.7857500008104,Correct
8,21,185,A,42.38266438897051,49.17470873222745,2.1191332194485257,0.7724345184779182,A,692.6334580002731,Correct
8,21,186,B,72.55386371730592,53.40729550812051,3.627693185865296,0.8389198360820527,B,2420.780250000462,Correct
8,21,187,A,41.766455680498126,53.8438396163448,2.088322784024906,0.8457770548988793,A,827.2189580002305,Correct
8,21,188,A,52.46980534155985,78.75098975870227,2.623490267077992,1.2370176544443205,A,1058.8947500000359,Correct
8,21,189,A,47.543092366288526,56.112540115547645,2.3771546183144263,0.8814137190063351,A,827.3316659997363,Correct
8,21,190,B,77.85824340626944,62.54661212402626,3.8929121703134717,0.982479885778856,B,821.8190829993546,Correct
8,21,191,A,25.771274142508236,38.51721718621176,1.2885637071254117,0.605027032744627,A,650.9632500001317,Correct
8,21,192,B,48.69906770074553,17.782147733509454,2.4349533850372764,0.2793213234232085,B,863.3062079989031,Correct
8,21,193,A,56.425278639260355,73.36503374829284,2.8212639319630175,1.1524152552700204,A,691.2937920005788,Correct
8,21,194,A,42.40549739301301,56.43600594050525,2.1202748696506504,0.8864947083032061,A,808.2527080005093,Correct
8,21,195,B,55.56775930628021,42.24194744113703,2.7783879653140104,0.6635349587720113,B,974.6959160002007,Correct
8,21,196,B,63.06706967688454,42.93770000699186,3.1533534838442274,0.6744638145200402,B,652.3313329998928,Correct
8,21,197,A,55.78747593403025,71.3475998576226,2.7893737967015126,1.1207254778198568,A,722.0975830005045,Correct
8,21,198,B,47.67898497960845,26.833681201147684,2.383949248980423,0.4215024786514805,B,828.269708001244,Correct
8,21,199,A,45.80238567485945,57.29155566405944,2.290119283742973,0.8999336519346991,A,1028.2656660001521,Correct
8,21,200,B,45.3913712484551,19.555588584742797,2.269568562422755,0.30717846717226194,B,805.2075409996178,Correct
8,21,201,A,19.888351617505897,49.89596684254688,0.9944175808752947,0.783764014381526,A,767.8226250009175,Correct
8,21,202,B,66.87105139289842,40.10675033666906,3.3435525696449213,0.6299953610851974,B,628.4608330006449,Correct
8,21,203,A,51.08990999669844,72.04198887332363,2.554495499834922,1.1316329149721556,A,1156.6649579999648,Correct
8,21,204,A,29.10396247305841,57.675432071336736,1.4551981236529203,0.9059635684396431,A,649.538665998989,Correct
8,21,205,A,26.30017099895418,49.85643009254735,1.3150085499477089,0.7831429725647994,A,723.4105830011686,Correct
8,21,206,A,28.776131446625335,51.91751208962329,1.4388065723312666,0.8155183728670989,A,652.5939160001144,Correct
8,21,207,B,45.32030761311521,24.061198103468662,2.2660153806557606,0.37795241599212903,B,679.0442500005156,Correct
8,21,208,B,84.91655308272871,59.28081268592823,4.245827654136435,0.9311808281647237,B,1309.8837489997095,Correct
8,21,209,A,67.91987186440093,84.97435884146643,3.3959935932200467,1.3347741073992692,A,583.9264580008603,Correct
8,21,210,B,65.69471308422716,45.5228071105342,3.284735654211358,0.7150705819461974,B,935.3185410000151,Correct
8,21,211,B,44.82352553202937,19.025836877772218,2.2411762766014687,0.2988571468180349,B,1014.7240419992158,Correct
8,21,212,B,72.87865936514636,47.14830341676474,3.643932968257318,0.7406038182166532,B,857.7323330009676,Correct
8,21,213,B,37.342490020534086,26.98918375723732,1.8671245010267044,0.4239451070906086,B,2373.28745800005,Correct
8,21,214,A,29.287179618845883,51.74408756515304,1.464358980942294,0.8127942268069589,A,478.5977499996079,Correct
8,21,215,A,27.241681229939246,49.108743775256045,1.3620840614969623,0.7713983433568393,A,670.8099160005077,Correct
8,21,216,A,60.2972419710525,84.86929919704076,3.0148620985526247,1.3331238343636866,A,814.2085409999709,Correct
8,21,217,A,15.839020244216542,42.64489048180515,0.7919510122108271,0.6698643732539018,A,809.3741239990777,Correct
8,21,218,A,46.3741176804331,76.93453655174844,2.318705884021655,1.2084848741915415,A,684.7649160008586,Correct
8,21,219,A,37.80570546657106,47.36912886322134,1.8902852733285531,0.7440725362182219,A,998.2511250000243,Correct
8,21,220,B,80.4416465958091,53.54653736679856,4.0220823297904555,0.8411070420835286,B,654.0891250006098,Correct
8,21,221,B,47.30581012007268,22.817012889970833,2.365290506003634,0.35840880035997985,B,1469.376373999694,Correct
8,21,222,A,31.00646736949931,58.298263234251635,1.5503233684749653,0.9157469774688445,A,854.3260829992505,Correct
8,21,223,B,63.013538814275094,54.80013040360778,3.1506769407137547,0.8607984354586843,B,849.0104579996114,Correct
8,21,224,B,70.29617763982682,51.9827121651495,3.5148088819913412,0.8165425332585321,B,820.6513750010345,Correct
8,21,225,A,58.60633436970833,68.65323002475424,2.9303167184854164,1.0784024154548908,A,601.665457999843,Correct
8,21,226,A,26.894697099382782,52.52077450778398,1.344734854969139,0.8249943967725012,A,772.0859990004101,Correct
8,21,227,B,42.75924721881398,29.649807289383975,2.137962360940699,0.465738083803409,B,595.0337079993915,Correct
8,21,228,B,49.0580844743499,36.62791756940991,2.452904223717495,0.5753499837617534,B,625.0880410007085,Correct
8,21,229,B,40.09172602867626,29.625752973305012,2.004586301433813,0.46536023949000505,B,624.3700830000307,Correct
8,21,230,A,33.20136786788986,63.09919156680807,1.660068393394493,0.9911597833686963,A,822.8953750003711,Correct
8,21,231,B,79.91873826418644,51.00258487298974,3.9959369132093223,0.8011467297553725,B,704.7684999997728,Correct
8,21,232,A,19.53645861344704,45.61429025304183,0.9768229306723519,0.7165075957883436,A,789.9242919993412,Correct
8,21,233,B,57.147204832697355,45.676602131056434,2.8573602416348676,0.7174863884793539,B,671.2438739996287,Correct
8,21,234,A,62.310404871528675,79.92788750263739,3.115520243576434,1.2555043209761854,A,765.8877489993756,Correct
8,21,235,A,63.232251546858194,83.07779537751449,3.16161257734291,1.3049829581721781,A,717.7197909986717,Correct
8,21,236,A,18.287135965043184,48.91842439084629,0.9143567982521591,0.7684088134573523,A,1311.2112910002907,Correct
8,21,237,B,75.7590856171552,47.50855601920881,3.7879542808577593,0.7462626528630278,A,2128.8032909997128,Incorrect
8,21,238,B,34.681908599917534,16.66730617526259,1.7340954299958766,0.2618094331766837,B,1605.4607080004644,Correct
8,21,239,B,48.27211761919338,23.32064290686476,2.413605880959669,0.36631980216598625,B,681.1896670005808,Correct
8,21,240,A,61.86935811289308,87.72275621623076,3.0934679056446543,1.3779458324077944,A,590.923333000319,Correct
8,21,241,B,30.233640409716767,14.827231182187482,1.5116820204858383,0.23290560277518849,B,779.7310410005593,Correct
8,21,242,A,54.05818409023779,63.217644451176795,2.702909204511889,0.9930204369253428,A,922.84091700094,Correct
8,21,243,A,56.13388753527923,63.55820843919195,2.806694376763961,0.9983700035394713,A,977.1109159992193,Correct
8,21,244,B,51.65787866150925,36.5476231346507,2.5828939330754626,0.574088721729935,B,1332.3294159999932,Correct
8,21,245,B,42.733130793696304,23.925517825957193,2.1366565396848154,0.37582115517679376,B,716.1260419998143,Correct
8,21,246,B,42.087138181054215,33.988652180677555,2.104356909052711,0.5338924999811765,B,1137.62533299996,Correct
8,21,247,A,33.34999462359827,64.10520856154841,1.6674997311799133,1.0069622613690101,A,1091.7578739990859,Correct
8,21,248,A,50.34310855207562,64.93741288683489,2.517155427603781,1.0200344963420382,A,2378.6983329991926,Correct
8,21,249,A,27.557129751113685,43.0460816782697,1.3778564875556842,0.6761662698313914,A,2620.2963329997147,Correct
8,21,250,B,73.39976329428367,44.30629686868348,3.6699881647141837,0.6959616837521223,B,1178.360623998742,Correct
8,21,251,B,32.58885306797465,10.696312017663306,1.6294426533987323,0.1680172762759763,B,1667.2923329988407,Correct
8,21,252,A,38.84474680976096,55.24512757015933,1.9422373404880482,0.8677884346052175,A,1553.9925410012074,Correct
8,21,253,B,54.748801518080946,24.52532467812292,2.7374400759040474,0.3852428991784771,B,2573.9694999992935,Correct
8,21,254,A,37.70035572514096,44.90685704348387,1.8850177862570479,0.7053952609180799,A,1544.2773750000924,Correct
8,21,255,A,23.76225210342012,53.68740197874239,1.188112605171006,0.8433197382336961,A,1896.6536660009297,Correct
8,21,256,B,68.10696496849101,59.65247171101511,3.4053482484245508,0.9370188344789899,B,2826.893082999959,Correct
8,21,257,B,61.29037498711593,53.25781879900107,3.0645187493557966,0.8365718614257907,B,1139.1990829997667,Correct
8,21,258,A,38.96153383822819,52.77538825707005,1.9480766919114096,0.8289938601938016,A,1120.4686660003063,Correct
8,21,259,A,31.86663403606576,56.03498618287582,1.593331701803288,0.8801955046806411,A,2582.94533300068,Correct
8,21,260,B,72.25735364742641,62.7919620443854,3.6128676823713204,0.9863338333156515,B,2033.9569999996456,Correct
8,21,261,B,68.0387833852293,49.95992453694356,3.401939169261465,0.7847686594958116,B,746.0340409998025,Correct
8,21,262,A,54.14537785122572,70.27439013269355,2.707268892561286,1.1038675388818657,A,600.3418330001296,Correct
8,21,263,B,47.271679771965,26.174594181026052,2.36358398859825,0.41114956394902796,B,805.3240409990394,Correct
8,21,264,B,78.25882391681856,52.62859757254266,3.9129411958409275,0.8266880775131682,B,774.2393739990803,Correct
8,21,265,A,61.809376831359856,86.1118658221614,3.0904688415679926,1.3526420252690614,A,591.467415999432,Correct
8,21,266,B,60.6448288986283,46.15419641153294,3.032241444931415,0.7249884218940614,B,1149.8292919986852,Correct
8,21,267,A,29.75482555569309,46.05301889207367,1.4877412777846544,0.723399129134853,A,929.0741249988059,Correct
8,21,268,B,58.32321491207394,43.4707957479238,2.9161607456036966,0.6828376628368992,B,688.717124001414,Correct
8,21,269,B,42.27658111135593,26.919162111871636,2.1138290555677965,0.4228452096572431,B,3254.3191250006203,Correct
8,21,270,B,52.98450988571194,24.705750390679995,2.649225494285597,0.38807701964391716,B,1126.6303330012306,Correct
8,21,271,A,14.571986450245113,40.6542912083879,0.7285993225122556,0.6385961129858578,A,772.2112909996213,Correct
8,21,272,B,49.91711838739553,31.41470516124324,2.4958559193697765,0.49346103474625563,B,7021.861458000785,Correct
8,21,273,A,68.66562938042571,87.90330570455001,3.4332814690212854,1.3807818971383603,A,1065.7636659998388,Correct
8,21,274,A,49.00054376873393,65.42691322730279,2.4500271884366964,1.0277235497097565,A,745.6892910013266,Correct
8,21,275,B,68.65903436985644,38.54380651230515,3.432951718492822,0.6054446969022215,B,7300.271875001272,Correct
8,21,276,B,36.08571057625519,25.704971216707417,1.8042855288127595,0.4037727436757256,B,776.852166000026,Correct
8,21,277,B,46.98431681909157,33.80004954751293,2.3492158409545785,0.5309299367471881,B,785.3082080000604,Correct
8,21,278,B,38.47105419391865,13.380413106876826,1.9235527096959322,0.21017903759280404,B,804.136708000442,Correct
8,21,279,A,42.958867730721146,66.10772431321074,2.1479433865360575,1.038417705239611,A,777.0000830005301,Correct
8,21,280,B,61.935813196076296,40.00767286428252,3.096790659803815,0.6284390557882684,B,1419.787749000534,Correct
8,21,281,A,26.296392839593047,36.17984588723665,1.3148196419796523,0.5683116902367678,A,1693.493833001412,Correct
8,21,282,B,84.79406149424494,67.69542262873863,4.2397030747122475,1.0633572120605075,B,555.0289580005483,Correct
8,21,283,B,60.078647808883886,44.43652545066439,3.003932390444194,0.6980073095343156,B,698.423375000857,Correct
8,21,284,B,60.587872805857934,46.7748457862715,3.0293936402928967,0.7347375594747302,B,539.878375000626,Correct
8,21,285,B,63.344822077753115,53.08257882473204,3.1672411038876556,0.8338191983468964,B,854.2511659998127,Correct
8,21,286,B,53.27162382840078,22.464478339146023,2.6635811914200387,0.3528712005849409,B,996.4454580003803,Correct
8,21,287,A,14.032253945870309,42.03959462781589,0.7016126972935155,0.6603564082131966,A,1608.5115000005317,Correct
8,21,288,A,14.2563710416247,32.8557495793432,0.712818552081235,0.5160969075332527,A,696.3624990003154,Correct
8,21,289,A,67.30506202197533,80.6213794074925,3.3652531010987667,1.2663976663442693,A,1024.2197500010661,Correct
8,21,290,A,48.00160647597206,58.41090998687152,2.400080323798603,0.9175164285212513,A,2046.5040830004,Correct
8,21,291,A,38.004762824409504,52.4996359023931,1.9002381412204752,0.8246623523354856,A,884.3254580006032,Correct
8,21,292,A,57.9338076471291,71.04704315250525,2.8966903823564554,1.1160043441359375,A,1223.3652920003806,Correct
8,21,293,A,62.639003996487055,87.49083416631609,3.131950199824353,1.3743028093667076,A,811.6655419999006,Correct
8,21,294,A,19.723529055099686,47.192838470816355,0.9861764527549843,0.7413033732098321,A,753.055666000364,Correct
8,21,295,A,40.660529587593,70.38317100772335,2.0330264793796498,1.1055762648710887,A,704.0469580006175,Correct
8,21,296,A,29.79470230944795,57.10195696006187,1.4897351154723975,0.8969554424566547,A,798.4475829998701,Correct
8,21,297,B,37.23031195706332,23.765301114365652,1.8615155978531661,0.37330447695620234,B,797.7571250012261,Correct
8,21,298,B,45.7109053933585,21.222680351511897,2.2855452696679253,0.3333650834089711,B,765.1674989992898,Correct
8,21,299,B,50.21096757541649,24.013777291842693,2.5105483787708245,0.37720753162497206,B,680.1216250005382,Correct
