subject,day,trial,cat,x,y,xt,yt,resp,rt,fb,resp_key
8,24,0,A,31.97087463058235,53.81623214482367,1.5985437315291176,0.8453433977503045,A,1226.9250829995144,Correct,k
8,24,1,B,52.67317363708913,31.064877562313775,2.6336586818544565,0.4879659556721567,B,1004.2920830019284,Correct,d
8,24,2,A,47.248067093423884,75.38125025264938,2.3624033546711942,1.1840859100606853,A,911.3345410150941,Correct,k
8,24,3,B,71.72830206570394,61.329815486077216,3.586415103285197,0.9633664888853885,B,1269.931123999413,Correct,d
8,24,4,B,65.75573079646192,39.94528486136133,3.287786539823096,0.6274590673300217,B,610.7740820152685,Correct,d
8,24,5,A,23.591584962972316,50.76873548150356,1.1795792481486158,0.7974734321036752,A,773.7212909851223,Correct,k
8,24,6,A,18.673170765116293,45.78795490280139,0.9336585382558147,0.7192355137277079,A,908.1535829755012,Correct,k
8,24,7,B,55.735137401738925,31.47517137161467,2.7867568700869465,0.4944108357577221,B,884.7015830106102,Correct,d
8,24,8,B,42.781200111999524,22.640476734059853,2.139060005599976,0.35563577690746534,B,820.0807080138475,Correct,d
8,24,9,A,43.42063957052533,54.142284255971646,2.171031978526267,0.8504650123356542,A,886.8797909817658,Correct,k
8,24,10,A,36.03443014684958,56.782492257911635,1.801721507342479,0.8919373026498726,A,965.7865410263184,Correct,k
8,24,11,A,46.3885617362082,61.71615516019745,2.3194280868104102,0.9694350982954205,A,1655.1675819791853,Correct,k
8,24,12,B,51.90382939763143,41.41129378931396,2.5951914698815717,0.6504870817207867,B,866.9345409725793,Correct,d
8,24,13,A,45.52887345394866,69.56771826771177,2.2764436726974333,1.0927671631842386,A,1125.0368749897461,Correct,k
8,24,14,B,58.08925364397337,38.58021921175703,2.9044626821986683,0.6060166662476985,B,2585.2444159972947,Correct,d
8,24,15,A,26.348635727972884,38.96695003793336,1.3174317863986442,0.6120914198598598,A,705.2629160170909,Correct,k
8,24,16,A,17.098148267568074,46.883163924223005,0.8549074133784038,0.7364390168069251,A,1093.326623988105,Correct,k
8,24,17,B,58.40585874094872,48.966660162785786,2.9202929370474364,0.769166499191179,B,1037.9770410072524,Correct,d
8,24,18,B,74.77308350851564,58.21526217329357,3.738654175425782,0.9144431998521142,B,1002.5087489921134,Correct,d
8,24,19,B,64.88916546345727,47.74103938059239,3.2444582731728637,0.7499144929640503,B,1243.6389990034513,Correct,d
8,24,20,B,52.22474880739964,39.926764425924326,2.6112374403699823,0.6271681490104708,B,819.7937499789987,Correct,d
8,24,21,A,67.18530550212475,85.53066327408541,3.359265275106237,1.3435125169926452,A,734.4515410077292,Correct,k
8,24,22,B,60.13039012301938,36.79382359220214,3.006519506150969,0.5779560294737053,B,1480.2919999929145,Correct,d
8,24,23,A,42.62843614529601,57.75461845081501,2.1314218072648003,0.9072074251798098,A,849.9218740034848,Correct,k
8,24,24,B,40.09187198212811,20.37325136667684,2.0045935991064057,0.3200222841164509,B,899.4604990002699,Correct,d
8,24,25,B,73.62079782785501,61.30857633214961,3.681039891392751,0.9630328650356514,B,1698.7044159905054,Correct,d
8,24,26,B,82.89563054190346,68.22164789953611,4.144781527095173,1.071623139284861,B,697.7140410162974,Correct,d
8,24,27,A,25.91730610899624,37.958859260619164,1.295865305449812,0.5962563669590502,A,1626.2895830150228,Correct,k
8,24,28,A,27.270008898221445,39.78679718172127,1.3635004449110721,0.6249695486798131,A,680.0095000071451,Correct,k
8,24,29,A,58.165743831947076,69.91423776397146,2.908287191597354,1.098210278703114,A,2548.344957991503,Correct,k
8,24,30,A,45.34743299419965,56.45799655109759,2.2673716497099825,0.8868401360066303,A,586.2120410019998,Correct,k
8,24,31,A,19.995504279629497,35.50672356023777,0.9997752139814748,0.557738309449433,A,739.0379580028821,Correct,k
8,24,32,A,34.921954101607966,59.97037711771841,1.7460977050803985,0.9420124809301679,A,554.4557489920408,Correct,k
8,24,33,A,40.630225776247144,54.06951792875203,2.031511288812357,0.8493220015405447,A,1213.3897909952793,Correct,k
8,24,34,A,30.30052145905092,56.70709310693973,1.515026072952546,0.8907529355559712,A,755.2692910248879,Correct,k
8,24,35,A,17.87550199301891,38.96702727796033,0.8937750996509456,0.6120926331433663,A,1050.744083011523,Correct,k
8,24,36,B,48.96979892333232,38.87211259108291,2.448489946166616,0.6106017167283068,B,1762.4536240182351,Correct,d
8,24,37,B,57.88836400255164,28.599156995071624,2.8944182001275816,0.44923450757289074,B,1503.94712400157,Correct,d
8,24,38,B,61.3924335596945,51.761582144363274,3.0696216779847254,0.8130690310145814,B,2599.2420410038903,Correct,d
8,24,39,B,39.989434032727615,23.61224137247695,1.9994717016363808,0.3709002201528128,B,1129.7079990035854,Correct,d
8,24,40,B,59.599333489017056,39.60628064827823,2.9799666744508526,0.6221340016032323,B,1225.3253330127336,Correct,d
8,24,41,B,69.79271254340419,55.125038544856196,3.48963562717021,0.865902080606872,B,4554.415916005382,Correct,d
8,24,42,A,56.584064822882766,81.3077381023208,2.829203241144138,1.2771789635112696,A,739.8364579712506,Correct,k
8,24,43,B,51.22420151123252,36.10743111712049,2.5612100755616263,0.5671742016877263,B,1579.9534580146428,Correct,d
8,24,44,B,52.943065270966024,27.226697592765433,2.647153263548301,0.427675965694714,B,752.766125020571,Correct,d
8,24,45,A,27.555548967055717,43.33441898873524,1.3777774483527858,0.6806954617129632,A,1644.2025410069618,Correct,k
8,24,46,B,71.68515503569911,57.85478527913004,3.584257751784955,0.9087808420396493,B,955.1017910125665,Correct,d
8,24,47,B,86.06426786462215,61.346491256311154,4.303213393231108,0.963628431271688,B,821.3029580074362,Correct,d
8,24,48,B,83.21382166402451,60.768959580963745,4.160691083201225,0.9545565849292539,B,1378.6465830053203,Correct,d
8,24,49,B,64.66347161512427,55.35210152393065,3.233173580756213,0.8694687775416846,B,804.1828320128843,Correct,d
8,24,50,A,68.37025693200611,81.5790716880578,3.4185128466003056,1.2814410615093872,A,2546.064498979831,Correct,k
8,24,51,B,41.258227378066714,27.997910542067366,2.0629113689033356,0.4397901503741153,B,2022.8918740176596,Correct,d
8,24,52,A,68.43641393820499,88.57118023749695,3.4218206969102494,1.3912728457694894,A,1445.8917080191895,Correct,k
8,24,53,B,69.04734851705237,44.23052037790096,3.4523674258526182,0.6947713894183365,B,834.217165975133,Correct,d
8,24,54,B,43.766515223509465,28.85371493504112,2.188325761175473,0.4532330943434964,B,790.999124001246,Correct,d
8,24,55,A,55.76032951728126,78.26919932999996,2.7880164758640626,1.2294497080874152,A,1577.846000000136,Correct,k
8,24,56,B,58.948835684625884,37.02861594304052,2.947441784231294,0.5816441390962699,B,888.001333019929,Correct,d
8,24,57,A,29.999611308812753,62.85574170191744,1.4999805654406375,0.987335681833407,A,728.6445820063818,Correct,k
8,24,58,B,64.74661525667418,43.57845231474541,3.237330762833709,0.6845287282340865,B,1746.445708005922,Correct,d
8,24,59,A,42.92726198989789,63.61995073767064,2.1463630994948946,0.9993398492960531,A,684.4642070063855,Correct,k
8,24,60,A,40.159594496425456,70.09439600622525,2.007979724821273,1.101040197754855,A,633.443499013083,Correct,k
8,24,61,B,39.892889017567256,19.280935188426465,1.9946444508783627,0.30286422171150756,B,956.5906240022741,Correct,d
8,24,62,B,42.442418247397995,30.764621305690795,2.1221209123699,0.4832495414221511,B,1536.7827910231426,Correct,d
8,24,63,A,52.35686397743805,76.26244889394819,2.617843198871902,1.1979277459499735,A,1016.2667489785235,Correct,k
8,24,64,A,64.21782210623772,85.27930139693476,3.2108911053118856,1.3395641338594,A,670.1482909847982,Correct,k
8,24,65,B,76.33088020052865,48.89135999559546,3.816544010026433,0.7679836869308829,B,687.690124992514,Correct,d
8,24,66,B,65.63288468222446,52.92585567944743,3.281644234111223,0.8313573969375284,B,762.2137490252499,Correct,d
8,24,67,B,78.48006781198167,54.79369524774005,3.924003390599083,0.8606973522666904,B,1460.617373988498,Correct,d
8,24,68,B,52.3645989571488,24.479851431903,2.61822994785744,0.3845286070971802,B,773.7410409899894,Correct,d
8,24,69,A,29.409598236166623,41.551188386381924,1.4704799118083312,0.6526845409129151,A,740.7369570282754,Correct,k
8,24,70,B,72.40456204842482,54.03476958241365,3.6202281024212413,0.8487761757926395,B,753.2981659751385,Correct,d
8,24,71,A,26.04502452984812,37.92685486403505,1.302251226492406,0.5957536430730941,A,2052.4622490047477,Correct,k
8,24,72,B,44.423478803170454,20.01469277881027,2.2211739401585224,0.31439005898883515,B,700.8057500061113,Correct,d
8,24,73,B,69.81562038311586,57.57442669266533,3.4907810191557926,0.9043769796616072,A,778.1059160188306,Incorrect,k
8,24,74,A,41.316472816440324,58.39912185937573,2.0658236408220163,0.9173312610475495,A,889.0309580019675,Correct,k
8,24,75,A,28.09241150150198,59.412950215845555,1.404620575075099,0.9332564396309826,A,781.5507909981534,Correct,k
8,24,76,B,53.548590135889384,22.515795408446703,2.6774295067944696,0.3536772872245348,B,895.9583329851739,Correct,d
8,24,77,B,51.86374840735113,29.107502252428056,2.5931874203675567,0.4572195762028816,B,895.2355410146993,Correct,d
8,24,78,A,61.54444737862775,80.19185888008278,3.0772223689313876,1.2596507736768872,A,1355.6358329951763,Correct,k
8,24,79,A,19.11618145064805,37.54054987514483,0.9558090725324024,0.5896855784973812,A,648.0798739939928,Correct,k
8,24,80,B,39.9481005814289,16.587229310211434,1.9974050290714451,0.2605515887218477,B,890.4168320004828,Correct,d
8,24,81,A,10.403049043218015,33.94352732937839,0.5201524521609008,0.5331836804744976,A,835.0459990033414,Correct,k
8,24,82,A,40.391056961571024,52.15148794198398,2.0195528480785514,0.8191936569615678,A,782.5869160005823,Correct,k
8,24,83,B,56.59086277598669,45.38987860724631,2.829543138799335,0.7129825458992876,B,1439.3243320228066,Correct,d
8,24,84,A,37.05639039754922,69.21761169845696,1.852819519877461,1.0872677020545165,A,596.6765829944052,Correct,k
8,24,85,A,51.81019737147703,60.233104622653194,2.590509868573852,0.9461393949271634,A,1104.331083013676,Correct,k
8,24,86,B,45.99572877233637,21.32181609710506,2.2997864386168185,0.33492230405928924,B,909.7866239899304,Correct,d
8,24,87,A,53.51045238606681,68.89315656687202,2.6755226193033406,1.0821711727654828,A,1050.706166017335,Correct,k
8,24,88,B,57.13512857158765,31.773381522289363,2.8567564285793825,0.49909510985064964,B,830.9377909754403,Correct,d
8,24,89,B,65.21383804427677,33.504722940422404,3.2606919022138383,0.5262909572509622,B,816.0850830026902,Correct,d
8,24,90,B,79.74497925548206,56.66624488142192,3.9872489627741032,0.8901112931299765,B,1093.2687499735039,Correct,d
8,24,91,A,34.1995860133383,62.842051329600395,1.7099793006669148,0.9871206339679265,A,638.4434159845114,Correct,k
8,24,92,B,53.83096145954336,22.610685349516302,2.691548072977168,0.35516781493335386,B,828.5276660171803,Correct,d
8,24,93,A,56.39619763129934,64.11188385935678,2.8198098815649666,1.0070671167017864,A,663.5279160109349,Correct,k
8,24,94,A,46.3632079051239,53.602234728799495,2.3181603952561947,0.8419819341999608,A,558.5670409782324,Correct,k
8,24,95,B,46.638775308239076,34.516257580328464,2.331938765411954,0.5421801062188646,B,2195.4738330096006,Correct,d
8,24,96,B,69.06437461754743,49.581847816256534,3.453218730877371,0.7788298442547933,B,1245.0780830113217,Correct,d
8,24,97,A,27.744106682752,37.213298416214386,1.3872053341376,0.584545124601119,A,773.2386660063639,Correct,k
8,24,98,B,59.278076389171666,46.68626101886115,2.9639038194585834,0.7333460732021486,B,2441.927540989127,Correct,d
8,24,99,A,53.58235753551047,79.77129310873138,2.6791178767755235,1.253044541988743,A,633.5683319775853,Correct,k
8,24,100,A,23.53461605082445,40.47338132106648,1.1767308025412226,0.635754387121004,A,801.9333750125952,Correct,k
8,24,101,A,38.21532828799626,65.82917510617898,1.910766414399813,1.03404226452724,A,707.3678319866303,Correct,k
8,24,102,A,46.94905669345521,74.95344101139621,2.347452834672761,1.1773658982133912,A,648.0577909969725,Correct,k
8,24,103,B,54.97064601565667,32.209761421653056,2.7485323007828333,0.5059497492807259,B,826.2344159884378,Correct,d
8,24,104,A,53.273407122224455,68.47590554025707,2.663670356111223,1.075617008965901,A,1297.9429580154829,Correct,k
8,24,105,B,89.65679862064839,68.6141065957261,4.482839931032419,1.0777878660688003,B,850.6073739845306,Correct,d
8,24,106,B,41.10909494915595,30.758346688402717,2.0554547474577975,0.4831509799642696,B,1097.6205829938408,Correct,d
8,24,107,B,76.60458337370989,50.43827230685609,3.830229168685494,0.792282528694903,B,1047.3922489909455,Correct,d
8,24,108,A,54.501516107659796,67.14750682570217,2.7250758053829895,1.054750570752482,A,791.2512500188313,Correct,k
8,24,109,B,46.596961838420185,39.069599672742534,2.329848091921009,0.6137038365529106,B,1122.0446249935776,Correct,d
8,24,110,B,55.71124764404181,28.078036093557746,2.785562382202091,0.4410487595937503,B,675.9971659921575,Correct,d
8,24,111,B,64.99095285960665,54.365313952101445,3.2495476429803323,0.8539683546101229,B,3919.5513330050744,Correct,d
8,24,112,B,55.84519941787186,47.513629809096855,2.7922599708935927,0.7463423517682183,B,1589.099000004353,Correct,d
8,24,113,B,72.56507231393061,39.437086808748134,3.6282536156965306,0.6194763109867304,B,784.1442080098204,Correct,d
8,24,114,A,56.15879564743662,78.87265396587146,2.8079397823718306,1.238928751341558,A,2135.130290989764,Correct,k
8,24,115,B,71.86279897199464,53.94753900144764,3.5931399485997315,0.8474059610309836,B,904.7095410060138,Correct,d
8,24,116,B,72.71815154124772,43.96372070577344,3.635907577062386,0.6905805099686566,B,1396.9999990076758,Correct,d
8,24,117,B,45.31522805453011,33.99032352240478,2.2657614027265054,0.533918753355636,B,829.1205829882529,Correct,d
8,24,118,A,35.98327598919064,53.74763608256268,1.799163799459532,0.8442658933239829,A,653.7815409828909,Correct,k
8,24,119,B,60.315304295012155,36.563474862448714,3.0157652147506075,0.5743377200879198,B,965.9201239992399,Correct,d
8,24,120,A,33.30301118721809,54.42840479286063,1.6651505593609044,0.8549593832193123,A,804.8435820091981,Correct,k
8,24,121,B,32.07054631066305,14.26048919717229,1.6035273155331524,0.22400324049216536,B,1319.1606659966055,Correct,d
8,24,122,B,85.9957807910628,67.99378197776397,4.29978903955314,1.068043829755647,B,1792.5373750040308,Correct,d
8,24,123,B,34.92836667945548,21.974236327719304,1.746418333972774,0.3451704970770446,B,923.820958007127,Correct,d
8,24,124,A,51.136095879048604,75.69956272110554,2.55680479395243,1.1890859506229245,A,968.1700830115005,Correct,k
8,24,125,A,26.33325597648999,49.22433596679006,1.3166627988244994,0.7732140612555175,A,582.5364160118625,Correct,k
8,24,126,A,13.95181341083397,42.75040348528405,0.6975906705416987,0.6715217676368392,A,1100.1393750193529,Correct,k
8,24,127,A,52.94359368135446,76.45077177449446,2.647179684067723,1.2008859148401085,A,884.5770829939283,Correct,k
8,24,128,B,63.14340693079755,49.29343170155557,3.1571703465398775,0.7742994145191859,B,1281.397915998241,Correct,d
8,24,129,B,45.13726952988015,33.590646510125424,2.2568634764940074,0.5276406415277083,B,979.7052079811692,Correct,d
8,24,130,B,37.73748307745788,15.303078715326325,1.8868741538728941,0.24038019834687757,B,1867.0800830004737,Correct,d
8,24,131,A,49.98656645877365,71.5850609389652,2.4993283229386827,1.1244555077631537,A,1155.1541250082664,Correct,k
8,24,132,B,73.80535169182528,50.156367664747684,3.6902675845912642,0.7878543809315998,B,1200.3906659956556,Correct,d
8,24,133,B,46.29688516525752,36.17665299085493,2.314844258262876,0.5682615363376853,B,790.4154990101233,Correct,d
8,24,134,B,83.04991990944548,58.800865427249335,4.1524959954722735,0.9236418342548427,B,1128.2539579842705,Correct,d
8,24,135,B,69.6066278111298,54.67186531578222,3.48033139055649,0.8587836521705602,B,2066.099873976782,Correct,d
8,24,136,A,42.54097498036882,69.8772772330501,2.127048749018441,1.0976297040410372,A,1136.9163740018848,Correct,k
8,24,137,A,41.42244273491539,68.79988546232768,2.0711221367457697,1.0807060736813392,A,1882.0617489982396,Correct,k
8,24,138,A,21.11365560078805,48.244307345144286,1.0556827800394024,0.7578198076651669,A,2722.931583004538,Correct,k
8,24,139,A,25.42048857411137,41.059008172656306,1.2710244287055685,0.6449533921945018,A,1252.698165975744,Correct,k
8,24,140,B,80.67878549227032,57.46026224429268,4.033939274613516,0.9025836887000642,B,849.3867910001427,Correct,d
8,24,141,A,59.480013843604034,80.43112417357872,2.974000692180202,1.2634091441184165,A,2549.4045410014223,Correct,k
8,24,142,B,47.51358554954727,20.940304916939155,2.3756792774773636,0.3289295404549314,B,902.9271659965161,Correct,d
8,24,143,A,62.93147507353467,76.63558575586896,3.1465737536767335,1.2037889660709427,A,1437.3189990001265,Correct,k
8,24,144,B,47.591636254795716,21.701058327663734,2.379581812739786,0.34087942708655994,B,1201.5492909995373,Correct,d
8,24,145,A,23.43355474942405,35.74116009651206,1.1716777374712024,0.5614208299498948,A,663.2599990116432,Correct,k
8,24,146,A,48.89535116067743,70.38436551588552,2.4447675580338712,1.1055950281614235,A,1589.7740829968825,Correct,k
8,24,147,B,45.59721245261359,15.697455493758738,2.2798606226306792,0.24657505429622598,B,859.3063329753932,Correct,d
8,24,148,A,33.641013783662146,44.07385629251007,1.6820506891831073,0.6923105157196096,A,1051.3480410154443,Correct,k
8,24,149,A,56.99090085158008,76.64890641716427,2.849545042579004,1.203998206529274,A,1410.0016659940593,Correct,k
8,24,150,A,44.07901197567753,66.40612194679808,2.2039505987838766,1.0431049243072439,A,872.6840409799479,Correct,k
8,24,151,A,55.91306838177681,74.65631461873063,2.7956534190888407,1.1726986477514623,A,658.5520819935482,Correct,k
8,24,152,A,41.86413862902916,70.26519127849141,2.093206931451458,1.103723043617951,A,1766.8785830028355,Correct,k
8,24,153,B,77.71302416556895,47.81952615241274,3.885651208278448,0.7511473602928244,B,955.8649990067352,Correct,d
8,24,154,A,28.69046557061163,47.36781622295257,1.4345232785305813,0.7440519173130961,A,1003.5259989963379,Correct,k
8,24,155,B,37.89805294229505,19.456907635190557,1.8949026471147528,0.305628390441449,B,762.0292079809587,Correct,d
8,24,156,B,84.37977150004265,66.99806215376427,4.2189885750021325,1.0524030993350908,B,1108.2921240013093,Correct,d
8,24,157,A,37.725199251630656,67.89236880773144,1.8862599625815328,1.0664508354058897,A,1136.7300410056487,Correct,k
8,24,158,A,45.40680905597414,59.07393283753336,2.2703404527987074,0.9279311671052584,A,1284.451749001164,Correct,k
8,24,159,B,78.19664787206145,65.64362883947614,3.9098323936030726,1.0311277105853665,B,2500.628124020295,Correct,d
8,24,160,A,20.211101834648797,37.02704432614434,1.01055509173244,0.5816194521957936,A,648.0829569918569,Correct,k
8,24,161,B,60.66229506106702,46.150822231255226,3.0331147530533507,0.7249354203941997,B,1797.9713740060106,Correct,d
8,24,162,A,46.82784219768332,67.10875073160739,2.3413921098841657,1.0541417914500322,A,1647.3724989918992,Correct,k
8,24,163,A,39.749519113311315,53.70456383779321,1.987475955665566,0.843589316085276,A,701.5909159963485,Correct,k
8,24,164,A,34.95131939376448,62.395886255878835,1.747565969688224,0.9801122893784665,A,1054.41204100498,Correct,k
8,24,165,B,71.75762756092254,46.366459859574384,3.5878813780461267,0.7283226483390247,B,1256.5800409938674,Correct,d
8,24,166,A,45.73020005393026,57.8407059635353,2.286510002696513,0.9085596846674491,A,641.8156249856111,Correct,k
8,24,167,A,55.052203944411346,68.21368521548736,2.7526101972205677,1.0714980617363088,A,1812.6746249909047,Correct,k
8,24,168,B,84.8913523276275,65.84521941581508,4.244567616381375,1.0342942879536634,B,2366.4873740053736,Correct,d
8,24,169,A,58.288138539288404,76.88333083695511,2.91440692696442,1.2076805367044587,A,3541.9255000015255,Correct,k
8,24,170,B,80.13513534679115,62.92108731692252,4.0067567673395565,0.9883621283536285,B,1277.3508329992183,Correct,d
8,24,171,B,57.93618729895359,48.02879003404729,2.8968093649476794,0.7544344696588482,B,1971.3979990046937,Correct,d
8,24,172,B,57.86911181475375,27.208609719694664,2.8934555907376875,0.42739184204892305,B,761.6788330196869,Correct,d
8,24,173,B,61.544191949796854,44.220131426125846,3.077209597489843,0.6946082001454605,B,932.8330820135307,Correct,d
8,24,174,A,58.99685694247531,73.7838065436993,2.9498428471237657,1.158993322957881,A,1598.0873740045354,Correct,k
8,24,175,B,68.59747869110213,55.47993764752384,3.4298739345551064,0.8714768226754035,B,830.4037910129409,Correct,d
8,24,176,A,61.71553175273411,76.28323272097306,3.0857765876367056,1.1982542175414475,A,695.1239579939283,Correct,k
8,24,177,B,35.167438880839136,18.8223944200567,1.758371944041957,0.2956614801650982,B,749.2652079963591,Correct,d
8,24,178,B,61.44946789296564,38.964774020959304,3.072473394648282,0.6120572390651609,B,713.7598319968674,Correct,d
8,24,179,B,58.56472068583394,41.369696108273764,2.9282360342916967,0.6498336668749756,B,771.9748739909846,Correct,d
8,24,180,B,62.33508668304027,44.552783156349015,3.1167543341520134,0.6998334813048257,B,1174.1050409909803,Correct,d
8,24,181,A,29.798946814723188,48.07330654133219,1.4899473407361594,0.7551337333200967,A,623.7705829844344,Correct,k
8,24,182,B,83.042289120209,66.26073127552584,4.152114456010451,1.0408211329833972,B,705.6057070149109,Correct,d
8,24,183,B,56.02773363120965,34.974512083388234,2.8013866815604826,0.5493783511202996,B,1378.7666659918614,Correct,d
8,24,184,B,31.852362407396758,19.111169335726345,1.592618120369838,0.300197545933142,B,789.3589159939438,Correct,d
8,24,185,B,36.97534146821658,14.582696135568877,1.848767073410829,0.22906445524517727,B,1364.944998989813,Correct,d
8,24,186,B,61.18011605618402,49.31474025311201,3.0590058028092013,0.7746341284643276,B,907.6457079790998,Correct,d
8,24,187,A,33.93650157316522,64.07276589846677,1.6968250786582613,1.006452653209009,A,691.591956972843,Correct,k
8,24,188,B,37.99883306451943,21.710376843470236,1.8999416532259716,0.34102580199056026,B,911.5401239832863,Correct,d
8,24,189,B,58.32579828137587,46.53797186917893,2.916289914068793,0.7310167526859048,B,767.6352080015931,Correct,d
8,24,190,A,57.001240639188254,67.14098418306267,2.8500620319594128,1.0546481133214909,A,666.0244579834398,Correct,k
8,24,191,A,38.53925940151291,47.98554638643829,1.9269629700756454,0.7537552000306338,B,1419.50279098819,Incorrect,d
8,24,192,B,53.71024072271586,45.203709186054255,2.6855120361357927,0.7100582034695875,B,1709.5493320084643,Correct,d
8,24,193,A,34.175230342856835,61.37166038272009,1.7087615171428416,0.9640237869848058,A,1060.9158739971463,Correct,k
8,24,194,A,56.367189101879525,70.41883145022203,2.8183594550939763,1.106136417791977,A,742.0078739814926,Correct,k
8,24,195,B,75.16851013192368,62.84367919868999,3.758425506596184,0.9871462044757907,B,914.0844990033656,Correct,d
8,24,196,B,84.08890399639355,55.22082294561321,4.204445199819678,0.8674066584556057,B,1656.5781249955762,Correct,d
8,24,197,A,51.5412776302284,74.7756006359425,2.5770638815114197,1.174572388128206,A,1328.4223329974338,Correct,k
8,24,198,A,16.670417155717928,33.84561366395181,0.8335208577858964,0.5316456562145467,A,713.4265410131775,Correct,k
8,24,199,B,43.05425375471889,21.679436926303918,2.152712687735945,0.34053979890819835,B,1280.4237910022493,Correct,d
8,24,200,A,33.418448705313445,42.33184017148709,1.6709224352656722,0.6649469904784057,B,1488.9997489808593,Incorrect,d
8,24,201,A,46.52973850831863,72.73139819127265,2.3264869254159315,1.1424621312150804,A,1259.3262909795158,Correct,k
8,24,202,A,38.96105691336295,52.741287920182955,1.9480528456681474,0.8284582133545544,A,694.7086660075001,Correct,k
8,24,203,A,35.65132978281841,50.402390458542456,1.7825664891409203,0.7917188979396061,A,691.4872080087662,Correct,k
8,24,204,A,45.673818047604016,64.30140210295023,2.283690902380201,1.0100440623107585,A,1410.036790999584,Correct,k
8,24,205,A,26.934124971698257,58.55409524805506,1.3467062485849128,0.9197655773444339,A,923.3507080061827,Correct,k
8,24,206,B,66.69529870986844,41.59659320791555,3.334764935493422,0.6533977581817528,B,1111.5747069998179,Correct,d
8,24,207,A,64.69616298846105,78.26001111928255,3.234808149423053,1.229305380010968,A,1164.0770829981193,Correct,k
8,24,208,A,27.598259346746435,41.98831383375477,1.3799129673373218,0.6595508913837334,A,2017.8945410007145,Correct,k
8,24,209,B,55.484633667764996,44.75180100937368,2.77423168338825,0.7029596464298032,B,1532.3634999804199,Correct,d
8,24,210,A,36.550473724417486,54.74334713691542,1.8275236862208744,0.8599064859912466,A,677.6043330028187,Correct,k
8,24,211,B,79.08914689536844,48.6508209753955,3.9544573447684224,0.7642053088370735,B,1033.4967910021078,Correct,d
8,24,212,B,30.891105509921886,15.433401333766998,1.5445552754960943,0.2424273012503266,B,1479.2129159905016,Correct,d
8,24,213,A,55.86490107080414,79.90706156891899,2.7932450535402067,1.2551771879743159,A,1232.257624011254,Correct,k
8,24,214,A,29.39349483730806,46.5212334277119,1.469674741865403,0.7307538258621782,A,1804.6067069808487,Correct,k
8,24,215,B,87.40185258400322,65.10718751399475,4.370092629200161,1.0227013099492948,B,955.5131660017651,Correct,d
8,24,216,A,29.742118644926755,53.73688437389133,1.4871059322463378,0.8440970058791056,A,672.2892500110902,Correct,k
8,24,217,A,29.151962844928153,61.890299027635905,1.4575981422464077,0.9721705437684823,A,3475.2277490042616,Correct,k
8,24,218,B,40.74290223798579,30.83201037505434,2.0371451118992896,0.48430808644837503,B,2240.3470819990616,Correct,d
8,24,219,B,43.72303002673497,21.640521767165666,2.1861515013367483,0.33992852101788834,B,1216.8364160170313,Correct,d
8,24,220,B,68.07052274266029,39.61569350889767,3.403526137133014,0.622281858472089,B,1097.2545410040766,Correct,d
8,24,221,A,58.56093109547554,78.53909537780247,2.9280465547737773,1.2336892252924616,A,1078.3788319968153,Correct,k
8,24,222,A,18.21784351064275,32.59888948912254,0.9108921755321375,0.5120621586710645,A,2277.809332998004,Correct,k
8,24,223,B,56.94658473020092,42.012898001532186,2.8473292365100455,0.6599370585881541,B,1499.1765410231892,Correct,d
8,24,224,B,42.4983047293581,14.401155932158979,2.124915236467905,0.22621282839835857,B,2424.3619160261005,Correct,d
8,24,225,A,30.90371464807484,60.679518004222665,1.545185732403742,0.9531516399271776,A,1189.3684579990804,Correct,k
8,24,226,B,61.572306991374184,32.6656284999757,3.078615349568709,0.5131104926020853,B,1794.9369580019265,Correct,d
8,24,227,A,22.17402453905604,50.873384340241145,1.108701226952802,0.7991172525327581,A,937.8069160156883,Correct,k
8,24,228,B,71.75500291091215,58.47280272350936,3.5877501455456073,0.9184886373549113,B,3619.3750410166103,Correct,d
8,24,229,B,67.23625630996253,47.69139243644372,3.3618128154981264,0.749134640588997,B,1313.6751659912989,Correct,d
8,24,230,B,70.29592437550787,58.756087900067826,3.5147962187753934,0.922938470502646,B,2737.9322909982875,Correct,d
8,24,231,B,78.34507616697434,63.03648373747039,3.9172538083487165,0.9901747710888472,B,2450.107748998562,Correct,d
8,24,232,A,37.43540814524134,61.49874393958307,1.8717704072620671,0.96602001082797,A,1852.3570410034154,Correct,k
8,24,233,B,77.91496960863317,59.32505277347193,3.8957484804316582,0.9318757498348309,B,785.2627910033334,Correct,d
8,24,234,A,40.93887298417678,52.6014226020894,2.0469436492088393,0.8262612140754807,B,1885.50504099112,Incorrect,d
8,24,235,A,53.33934152504766,75.15666659297764,2.6669670762523827,1.18055815818398,A,1110.0072500121314,Correct,k
8,24,236,B,75.58280194626376,45.07890976987967,3.779140097313188,0.7080978588244556,B,939.9572080001235,Correct,d
8,24,237,A,42.713575157756765,57.604717626782154,2.1356787578878382,0.9048527885420664,A,839.9317500006873,Correct,k
8,24,238,B,82.93063043833601,67.5336254910761,4.146531521916801,1.0608157085652452,B,1395.4749160038773,Correct,d
8,24,239,A,60.93069171896086,87.776449139155,3.0465345859480433,1.3787892388688372,A,1209.1086659929715,Correct,k
8,24,240,B,72.44401036126399,54.32871644889608,3.6222005180631993,0.8533934823740744,B,1020.5887910269666,Correct,d
8,24,241,A,37.22879943082953,50.61406631293411,1.8614399715414764,0.7950438944851022,A,885.5014159926213,Correct,k
8,24,242,A,49.694993175576016,70.07800256973334,2.484749658778801,1.1007826902566045,B,6114.343291003024,Incorrect,d
8,24,243,B,40.85351370376841,19.34188544476481,2.0426756851884202,0.30382162609924235,B,4312.8745410067495,Correct,d
8,24,244,B,52.786749270003874,45.35745819214899,2.6393374635001936,0.7124732872098071,B,2966.00179100642,Correct,d
8,24,245,A,52.5658937008058,64.58059908730954,2.62829468504029,1.0144296782855966,A,2410.827707994031,Correct,k
8,24,246,B,48.860147355993135,25.5794656541406,2.443007367799657,0.40180130690900273,B,1976.1265820125118,Correct,d
8,24,247,A,15.768099118130312,33.059186130411966,0.7884049559065156,0.519292481404799,A,2626.4928329910617,Correct,k
8,24,248,A,65.90558237333133,82.11514772575076,3.295279118666566,1.289861724218296,A,6176.020707003772,Correct,k
8,24,249,B,68.05987585555849,54.35292855626579,3.4029937927779246,0.8537738052672774,B,2879.938332014717,Correct,d
8,24,250,B,38.0745732722199,17.14868319597171,1.9037286636109951,0.26937088573601725,B,1180.1597909943666,Correct,d
8,24,251,A,13.186288053157039,33.335705898667335,0.659314402657852,0.5236360437674161,A,1153.152582992334,Correct,k
8,24,252,A,38.68285599365331,68.25087041630022,1.9341427996826654,1.0720821655047883,A,746.7078740010038,Correct,k
8,24,253,B,68.21516796311931,39.30989514901832,3.4107583981559655,0.617478389067705,B,1675.8395829820074,Correct,d
8,24,254,B,40.80437343652517,28.420574545505765,2.0402186718262585,0.44642934101480997,B,711.4489579980727,Correct,d
8,24,255,A,44.502456576341736,58.71735633971831,2.225122828817087,0.9223300765753655,A,8152.795207017334,Correct,k
8,24,256,B,58.84572380923727,30.063371038965762,2.9422861904618633,0.4722343279907949,B,1862.0173330127727,Correct,d
8,24,257,A,18.710781069530626,39.52550180323499,0.9355390534765313,0.6208651304724658,A,1877.7012909995392,Correct,k
8,24,258,A,68.32071532866001,82.78611459121498,3.4160357664330006,1.3004012470950186,A,6975.06820698618,Correct,k
8,24,259,A,28.888668700843123,38.65150519754192,1.4444334350421562,0.607136423893927,A,4117.226124013541,Correct,k
8,24,260,A,54.940641476934246,63.66792993914207,2.7470320738467127,1.0000935048303918,A,5270.504373998847,Correct,k
8,24,261,A,20.38213961464936,32.66605619577188,1.019106980732468,0.5131172108319414,A,814.5385830139276,Correct,k
8,24,262,A,56.388864652192034,65.90587561876038,2.819443232609602,1.0352470733615011,A,1082.0711660198867,Correct,k
8,24,263,B,48.49995303288824,26.049104956956157,2.424997651644412,0.40917838382681465,B,1394.492582010571,Correct,d
8,24,264,B,54.688772187457104,36.333306132897214,2.734438609372855,0.5707222381386943,B,4241.795665991958,Correct,d
8,24,265,B,49.55967545879041,25.145451662722177,2.4779837729395204,0.3949838310740262,B,862.2546659898944,Correct,d
8,24,266,B,32.47889557203134,18.171327098697663,1.623944778601567,0.2854345385962286,B,1305.0109579926357,Correct,d
8,24,267,A,28.788868387729497,47.614436184684344,1.439443419386475,0.7479258146131218,A,1389.484082988929,Correct,k
8,24,268,B,87.17010792442326,67.87108220289713,4.3585053962211635,1.0661164661990528,B,705.9236239874735,Correct,d
8,24,269,B,41.62009530668373,31.947604189648757,2.0810047653341868,0.5018317931099752,B,1303.0862490122672,Correct,d
8,24,270,A,10.62302818505136,32.43646762889878,0.531151409252568,0.5095108420567578,A,1111.333790991921,Correct,k
8,24,271,A,40.73127259281345,72.97211536214047,2.036563629640672,1.146243307693037,A,1628.1697489903308,Correct,k
8,24,272,B,46.36197272433556,32.385996939326,2.318098636216778,0.5087180503188404,B,1395.6001659971662,Correct,d
8,24,273,B,75.61992284027903,45.51042454601288,3.7809961420139517,0.7148760770775333,B,745.0821239908691,Correct,d
8,24,274,A,17.98592745915382,41.41021842756314,0.8992963729576912,0.6504701899779051,A,3517.6975410140585,Correct,k
8,24,275,A,47.579389014580876,76.58228652210387,2.3789694507290435,1.2029517436647508,A,2056.6128740028944,Correct,k
8,24,276,B,44.50620750318781,34.78568970612956,2.22531037515939,0.5464123361541535,B,3256.7652500001714,Correct,d
8,24,277,B,68.56102780379824,58.061540665765186,3.4280513901899123,0.9120285480583646,B,932.2121239965782,Correct,d
8,24,278,B,69.05917413423147,58.7633236206724,3.4529587067115735,0.9230521289361199,B,1924.8522079724353,Correct,d
8,24,279,B,79.0047513223988,53.14098817199193,3.9502375661199403,0.8347366902281598,B,919.5195829961449,Correct,d
8,24,280,B,79.2313704933032,58.05389557504971,3.96156852466516,0.9119084592542259,B,838.7881660019048,Correct,d
8,24,281,A,27.772312376326177,39.32785544501223,1.3886156188163088,0.6177605087374587,A,2004.396041011205,Correct,k
8,24,282,B,34.45491083059947,14.043998460764893,1.7227455415299733,0.2206026119568268,B,2337.929041008465,Correct,d
8,24,283,B,52.171268034440004,27.890317362426057,2.6085634017220003,0.4381000806604278,B,1823.440831998596,Correct,d
8,24,284,A,12.44662070186726,34.502188929691,0.6223310350933631,0.5419591163714217,A,732.3168749862816,Correct,k
8,24,285,B,30.03118776988049,12.829228761835537,1.5015593884940244,0.20152105414702703,B,2691.3147490122356,Correct,d
8,24,286,B,55.74296688349795,26.8729122309132,2.787148344174897,0.4221187182260011,B,665.7960830198135,Correct,d
8,24,287,A,29.814476213831988,42.42722945370271,1.4907238106915994,0.6664453618196047,A,2404.83254098217,Correct,k
8,24,288,B,53.19113789937891,34.25003941324107,2.6595568949689454,0.5379983610289951,B,746.1069989949465,Correct,d
8,24,289,A,43.66314914673945,69.24763309708747,2.1831574573369723,1.087739277081457,A,1038.325124012772,Correct,k
8,24,290,A,50.47302459837713,64.19574774532319,2.5236512299188565,1.0083844475420543,A,1050.4768319951836,Correct,k
8,24,291,A,31.716326400849432,51.62516653134509,1.5858163200424715,0.8109262195761169,A,767.7193320123479,Correct,k
8,24,292,A,24.6816169922171,53.5909185389175,1.234080849610855,0.8418041799049614,A,4248.70899898815,Correct,k
8,24,293,A,31.55681167202939,64.58330039114517,1.5778405836014695,1.0144721102670224,A,1768.0368319852278,Correct,k
8,24,294,B,71.60591472223578,47.85112677861048,3.580295736111789,0.7516437417683826,B,763.5711240000091,Correct,d
8,24,295,A,32.58413706702029,63.234830122726876,1.6292068533510147,0.9932903888227865,A,1247.654832986882,Correct,k
8,24,296,A,55.973184619687046,83.49309580854091,2.7986592309843523,1.3115064820879043,A,852.0728319999762,Correct,k
8,24,297,A,34.434404142538874,59.36312771553142,1.7217202071269437,0.9324738296261308,A,1180.3647080087103,Correct,k
8,24,298,B,34.68362421766543,21.164910198564606,1.7341812108832715,0.33245763196849126,B,3215.0893739890307,Correct,d
8,24,299,A,48.963632620528045,63.83126893980628,2.448181631026402,1.0026592278530488,A,1385.0318320037331,Correct,k
8,24,300,B,52.050667836734746,37.85892949189947,2.6025333918367375,0.5946866738226265,B,881.8246659939177,Correct,d
8,24,301,B,79.9704360411122,51.138082278645186,3.9985218020556097,0.8032751180263105,B,821.1070830002427,Correct,d
8,24,302,A,50.81197794326782,75.49117593233306,2.5405988971633913,1.1858126185993607,A,1218.042124004569,Correct,k
8,24,303,A,23.45091834986875,45.54361148591708,1.1725459174934374,0.7153973763105241,A,1060.8151660126168,Correct,k
8,24,304,A,27.796606160511068,47.96442506797747,1.3898303080255534,0.7534234271360807,A,1038.90191600658,Correct,k
8,24,305,B,81.18719681329245,59.17815087486361,4.059359840664622,0.9295682202074995,B,1367.9121659952216,Correct,d
8,24,306,B,56.09932074970753,42.10256288117383,2.804966037485377,0.6613455112239901,B,1568.434040993452,Correct,d
8,24,307,A,12.417357527691493,39.12665154130205,0.6208678763845746,0.6146000052086115,A,774.3149159941822,Correct,k
8,24,308,B,66.27179793286267,44.271006367022004,3.3135898966431334,0.6954073418483164,B,3527.4463740061037,Correct,d
8,24,309,B,79.39212079731388,57.21028137831354,3.9696060398656936,0.8986569984395738,B,1086.8810410029255,Correct,d
8,24,310,A,26.7834434193557,58.59763298811738,1.339172170967785,0.9204494665661025,A,1208.8002910022624,Correct,k
8,24,311,A,47.44492380258005,54.90276727144954,2.3722461901290024,0.8624106516086799,B,4113.774748984724,Incorrect,d
8,24,312,B,52.20838998999842,40.652931933360996,2.610419499499921,0.638574761543664,B,932.0334990043193,Correct,d
8,24,313,A,49.75633939904131,63.682946154587526,2.4878169699520654,1.0003293789910328,A,1756.9027910067234,Correct,k
8,24,314,B,53.078766017592784,23.50126351391471,2.653938300879639,0.3691569840269615,B,838.3628739975393,Correct,d
8,24,315,A,44.612210823891324,60.97944105713432,2.2306105411945665,0.957862820225525,A,2619.239332008874,Correct,k
8,24,316,A,61.40318327321939,87.21415286094212,3.0701591636609695,1.369956709584965,A,2053.2612070092,Correct,k
8,24,317,B,58.13926718976827,42.08852098018254,2.9069633594884134,0.6611249415590066,B,2168.4086240129545,Correct,d
8,24,318,B,82.05436874689958,63.20224684056727,4.102718437344979,0.9927785718234742,B,823.8165829970967,Correct,d
8,24,319,B,48.59916889532818,25.94111644674334,2.4299584447664087,0.4074821042750311,B,1388.0073330074083,Correct,d
8,24,320,B,70.39664234915621,53.597981080041734,3.51983211745781,0.8419151180415191,B,2073.4627910132986,Correct,d
8,24,321,A,47.04099049163225,57.78039051134693,2.3520495245816124,0.9076122517599845,B,1410.2805409929715,Incorrect,d
8,24,322,A,23.95189188733771,45.896738535303065,1.1975945943668855,0.7209442830311984,A,2533.476790995337,Correct,k
8,24,323,B,52.038217756956705,32.45948952837017,2.601910887847835,0.5098724692080127,B,2384.281833015848,Correct,d
8,24,324,B,43.56155165399452,23.173727029502103,2.178077582699726,0.36401205296089506,B,992.8827489784453,Correct,d
8,24,325,B,56.544362747607565,31.55581478584785,2.8272181373803784,0.49567757954629893,B,3017.463748983573,Correct,d
8,24,326,A,34.742029567606124,58.57106876927342,1.7371014783803063,0.9200321967922597,A,1351.830206986051,Correct,k
8,24,327,A,51.00315655032504,79.22833248793334,2.550157827516252,1.2445157365013046,A,2021.8096240132581,Correct,k
8,24,328,B,41.42001025597949,14.540822745080956,2.0710005127989746,0.2284067095654885,B,3195.09762400412,Correct,d
8,24,329,B,49.76606844331317,34.155124952168066,2.4883034221656586,0.5365074481608632,B,1363.9185820065904,Correct,d
8,24,330,B,49.91540691860443,25.514350306180937,2.4957703459302216,0.4007784774150726,B,7458.701499999734,Correct,d
8,24,331,B,53.16197307704412,45.691325389139365,2.6580986538522056,0.7177176608765052,A,6040.861957008019,Incorrect,k
