subject,day,trial,cat,x,y,xt,yt,resp,rt,fb,ns_left_digit,ns_right_digit,ns_left_size,ns_right_size,ns_congruent,ns_cue,ns_correct_side,ns_resp,ns_rt,ns_fb
8,22,0,A,30.52175207628945,58.467794413715964,1.5260876038144724,0.9184099670086421,A,2240.9244579976075,Correct,7,5,small,big,False,Size,right,left,4577.489916002378,Incorrect
8,22,1,A,21.225551512304303,37.73254452687263,1.0612775756152153,0.5927014234343639,A,2153.418417001376,Correct,8,6,small,big,False,Size,right,right,926.865417000954,Correct
8,22,2,A,19.627284715881153,33.70028623952949,0.9813642357940577,0.5293628583698953,A,1071.2957080031629,Correct,4,2,big,small,True,Value,left,left,234.01170799479587,Correct
8,22,3,B,52.95220637588801,25.94675849658547,2.6476103187944005,0.4075707293867073,B,910.6758749985602,Correct,8,6,small,big,False,Size,right,right,1152.3982090002391,Correct
8,22,4,B,43.229371379585814,17.01443403710018,2.1614685689792905,0.26726210487971025,B,793.1646249999176,Correct,2,6,big,small,False,Value,right,left,741.2643339994247,Incorrect
8,22,5,A,38.50067805864356,47.53919411925397,1.925033902932178,0.7467439150131367,A,806.3722920051077,Correct,5,4,big,small,True,Size,left,left,923.3196249988396,Correct
8,22,6,B,75.87561804875673,62.342538551776116,3.793780902437837,0.9792743056019916,B,2016.1124169972027,Correct,5,6,big,small,False,Value,right,right,1603.1631250007194,Correct
8,22,7,B,70.83883368137643,60.327365695279134,3.541941684068821,0.9476200443935691,B,865.8584999939194,Correct,4,2,small,big,False,Value,left,left,2279.250791994855,Correct
8,22,8,A,56.066370664297736,77.94159188669914,2.8033185332148864,1.2243036624017392,A,1431.2565000000177,Correct,5,4,small,big,False,Value,left,right,1946.7177499973332,Incorrect
8,22,9,A,39.70456447666057,59.382545937969354,1.9852282238330288,0.9327788503509147,A,1119.9199170005159,Correct,7,8,big,small,False,Size,left,left,895.8207089963253,Correct
8,22,10,B,66.47130810830623,41.86751331890204,3.3235654054153114,0.6576533613336772,B,948.7732920024428,Correct,4,5,small,big,True,Size,right,right,1565.9797080006683,Correct
8,22,11,B,75.31545462856184,48.156695250157945,3.765772731428092,0.7564436000952934,B,897.9187500008265,Correct,7,2,small,big,False,Value,left,left,1001.6355830011889,Correct
8,22,12,A,33.08913345975154,47.69503340513776,1.654456672987577,0.7491918327915029,A,3044.0589580030064,Correct,7,2,big,small,True,Size,left,left,978.361916000722,Correct
8,22,13,A,39.97133361686896,51.246863384877614,1.998566680843448,0.8049838476472563,A,1375.740040995879,Correct,6,5,small,big,False,Value,left,left,2303.9744159978,Correct
8,22,14,B,75.29214275142316,44.39212526896058,3.764607137571158,0.6973098731110218,B,974.9851670057978,Correct,6,3,small,big,False,Value,left,left,3657.8532080020523,Correct
8,22,15,B,32.09746528140933,14.917573392249121,1.6048732640704662,0.23432469489238206,B,2265.426124999067,Correct,8,3,small,big,False,Value,left,left,989.3626669945661,Correct
8,22,16,A,28.604329867732023,55.335767277469984,1.4302164933866013,0.8692121997982707,A,889.3735419987934,Correct,2,7,big,small,False,Value,right,right,1199.798458997975,Correct
8,22,17,B,68.07290246211444,49.030992649010635,3.403645123105722,0.7701770315217349,B,2082.129458001873,Correct,4,3,small,big,False,Value,left,left,1078.6994580048486,Correct
8,22,18,B,78.9111340182341,62.76257594739759,3.9455567009117045,0.9858722375835786,B,965.1184169997578,Correct,8,3,small,big,False,Size,right,right,420.52512500231387,Correct
8,22,19,A,21.738796585679907,53.61987643793641,1.0869398292839954,0.8422590495190674,B,960.7815420022234,Incorrect,3,2,big,small,True,Value,left,right,2042.5826659993618,Incorrect
8,22,20,A,33.24795308078826,65.44747811806215,1.6623976540394128,1.028046582258414,A,781.8436659945291,Correct,2,4,big,small,False,Size,left,left,665.9755830041831,Correct
8,22,21,A,53.618637004786166,83.75295776213001,2.680931850239308,1.3155883841096194,A,880.7204170007026,Correct,5,2,small,big,False,Size,right,right,818.857250000292,Correct
8,22,22,B,47.077046263616666,37.996067938127496,2.353852313180833,0.5968408394986001,B,1141.7201249932987,Correct,8,3,small,big,False,Size,right,right,882.4669169989647,Correct
8,22,23,B,62.49316622456131,44.80249246505762,3.1246583112280657,0.7037559059536853,B,796.0081670025829,Correct,2,8,big,small,False,Value,right,right,737.363957996422,Correct
8,22,24,A,28.49519815705607,58.246502861449486,1.4247599078528035,0.9149339274341329,A,1644.8811250011204,Correct,6,7,big,small,False,Size,left,left,365.011833004246,Correct
8,22,25,A,55.54021144584465,76.84638892592538,2.7770105722922325,1.207100254522956,A,845.9027499993681,Correct,3,6,big,small,False,Value,right,right,631.396874996426,Correct
8,22,26,B,81.08263568570052,53.80901157614011,4.054131784285026,0.8452299773226495,B,813.7542500044219,Correct,8,7,small,big,False,Value,left,left,680.9130410038051,Correct
8,22,27,B,85.01597533339472,63.62024597694601,4.250798766669736,0.9993444869037459,B,704.7531670032186,Correct,6,4,small,big,False,Size,right,right,1052.3219160022563,Correct
8,22,28,A,60.79169047550317,74.38659498508606,3.039584523775158,1.1684619016535285,A,1009.322499994596,Correct,4,3,small,big,False,Size,right,right,1142.2129159982433,Correct
8,22,29,A,51.641101406201585,76.33331045549599,2.582055070310079,1.1990408367558758,A,996.356083000137,Correct,6,7,small,big,True,Size,right,right,2278.2797499967273,Correct
8,22,30,A,39.33420695711741,65.28836244812742,1.9667103478558703,1.025547199159724,A,1915.2717079996364,Correct,8,6,small,big,False,Value,left,left,952.3278749984456,Correct
8,22,31,A,26.678606632333807,57.24362948228685,1.3339303316166902,0.8991808292318423,A,1217.979707995255,Correct,4,3,small,big,False,Size,right,right,794.1376669987221,Correct
8,22,32,B,61.255367563586105,43.38988473060162,3.0627683781793054,0.68156671554883,B,596.2587500034715,Correct,7,5,big,small,True,Size,left,left,3081.0392499988666,Correct
8,22,33,A,32.33518824533976,50.740584877230944,1.616759412266988,0.7970312434457905,A,614.8806250057532,Correct,8,7,big,small,True,Size,left,left,1033.8112080062274,Correct
8,22,34,B,74.91531278701166,47.68618471125333,3.7457656393505827,0.7490528378329968,B,609.5345419962541,Correct,6,3,small,big,False,Size,right,right,733.2807079947088,Correct
8,22,35,B,83.87509883627607,54.74839230197463,4.193754941813803,0.8599857352586775,A,1052.8327499996522,Incorrect,5,7,big,small,False,Value,right,right,1036.1975000050734,Correct
8,22,36,A,38.40908680274972,56.04493233023694,1.920454340137486,0.8803517383980474,A,547.34825000196,Correct,4,2,big,small,True,Size,left,left,519.1368750020047,Correct
8,22,37,B,35.47729101729066,19.33045014718034,1.7738645508645332,0.30364200086482745,B,1166.2637080007698,Correct,5,2,small,big,False,Value,left,left,892.2694169959868,Correct
8,22,38,A,47.79391001212329,69.00768889971948,2.3896955006061646,1.0839702424428432,A,1027.4116249929648,Correct,8,4,small,big,False,Value,left,left,942.8856249942328,Correct
8,22,39,A,51.28641117079821,65.54054589813899,2.5643205585399107,1.0295084875292904,A,818.0452500018873,Correct,2,5,big,small,False,Size,left,left,784.8687919977237,Correct
8,22,40,A,50.01622731396253,76.96064775799293,2.5008113656981266,1.2088950280601116,A,751.2379170002532,Correct,7,6,small,big,False,Size,right,right,914.038957998855,Correct
8,22,41,B,37.802089102736126,25.050161197828068,1.8901044551368062,0.39348701195168373,B,821.9810410009813,Correct,5,2,small,big,False,Value,left,left,417.322791996412,Correct
8,22,42,B,71.37191395842827,38.56019900783415,3.5685956979214133,0.605702189619861,B,582.9213329998311,Correct,8,5,big,small,True,Value,left,left,1017.6017089979723,Correct
8,22,43,B,37.70196947169211,28.23213413984888,1.8850984735846055,0.4434693260445541,B,857.1686670038616,Correct,6,7,big,small,False,Value,right,right,523.6264589984785,Correct
8,22,44,B,34.7681259193093,16.007767936981136,1.7384062959654647,0.2514494307559509,B,547.3192920035217,Correct,4,8,big,small,False,Value,right,right,646.5896669978974,Correct
8,22,45,A,62.33995108078413,79.00887783011733,3.116997554039207,1.2410685507973505,A,634.844542000792,Correct,4,7,big,small,False,Size,left,left,1411.390790999576,Correct
8,22,46,A,37.48384751111305,47.0910948773672,1.8741923755556524,0.7397051885811837,A,599.8472499995842,Correct,2,4,big,small,False,Value,right,right,1755.9047500035376,Correct
8,22,47,B,79.75347463798526,64.73287862412758,3.9876737318992634,1.016821679656395,B,660.201375001634,Correct,8,7,small,big,False,Value,left,left,627.8583750026883,Correct
8,22,48,A,42.83733925680771,59.3154970950152,2.1418669628403855,0.9317256495886325,A,614.7592920024181,Correct,8,6,small,big,False,Size,right,right,739.7405829979107,Correct
8,22,49,A,19.351921530599036,37.03575030788991,0.9675960765299518,0.5817562054372644,A,1432.4189160033711,Correct,6,5,small,big,False,Value,left,right,1072.8817080016597,Incorrect
8,22,50,B,58.907415335938104,43.79662910099069,2.945370766796905,0.6879558411783465,B,663.8600000005681,Correct,5,8,big,small,False,Size,left,left,727.5337920000311,Correct
8,22,51,A,38.446042424233035,69.39362809516632,1.9223021212116518,1.090032561148584,A,543.902249999519,Correct,2,5,big,small,False,Value,right,right,880.2538340023602,Correct
8,22,52,B,76.19962593875496,56.02103334864587,3.809981296937748,0.8799763340730735,B,2751.6370410012314,Correct,8,2,small,big,False,Value,left,left,1607.1271670007263,Correct
8,22,53,B,85.959386467156,59.68480699931014,4.297969323357799,0.9375267559997871,B,847.4696669945843,Correct,3,7,big,small,False,Value,right,right,1310.0405420045718,Correct
8,22,54,B,82.35723462666965,53.1387659432819,4.117861731333482,0.8347017835412095,B,539.545542000269,Correct,3,5,small,big,True,Size,right,right,572.2220419993391,Correct
8,22,55,A,63.309364664940794,73.12125401586235,3.1654682332470396,1.1485859721875316,A,932.5187919966993,Correct,5,8,big,small,False,Value,right,right,2235.2866670044023,Correct
8,22,56,A,51.321467441876074,61.8089537059688,2.5660733720938036,0.970892774443716,A,590.5170420010109,Correct,3,6,small,big,True,Size,right,right,439.46908399811946,Correct
8,22,57,B,34.60396684817867,20.847174834538826,1.7301983424089338,0.3274666565414459,B,886.1308749983436,Correct,7,5,small,big,False,Size,right,right,1055.6602500000736,Correct
8,22,58,A,37.353445012002524,47.81942093008644,1.867672250600126,0.7511457074643878,A,534.7264160009217,Correct,2,5,big,small,False,Size,left,left,887.1327499946347,Correct
8,22,59,B,55.06090775455513,36.95037456905988,2.7530453877277568,0.5804151264677482,B,1207.730874994013,Correct,6,5,small,big,False,Value,left,left,1599.8741250004969,Correct
8,22,60,A,63.29923991555891,87.46599689088417,3.1649619957779453,1.373912666356547,A,1110.5063329960103,Correct,6,2,small,big,False,Size,right,left,546.8311250006082,Incorrect
8,22,61,B,87.24465492316355,68.13363069120837,4.362232746158178,1.0702405682095013,B,1792.6513329948648,Correct,7,4,small,big,False,Size,right,right,575.4330830022809,Correct
8,22,62,A,24.85154366785102,42.30119403026329,1.242577183392551,0.6644656020177578,A,891.1447079954087,Correct,6,2,small,big,False,Size,right,right,657.4111669979175,Correct
8,22,63,A,26.914936987081266,47.536681396230414,1.3457468493540634,0.7467044452521803,A,521.6956670046784,Correct,4,5,big,small,False,Value,right,right,1169.0969170012977,Correct
8,22,64,A,48.48102093519271,69.11139194308929,2.4240510467596352,1.0855992060388706,A,832.5893749934039,Correct,6,5,small,big,False,Value,left,left,1578.9565830054926,Correct
8,22,65,B,43.583709650619056,26.138297753547505,2.179185482530953,0.41057942099943723,B,811.2840419998975,Correct,4,3,small,big,False,Value,left,left,625.2184580007452,Correct
8,22,66,B,53.38704112811718,22.60836691025187,2.6693520564058595,0.35513139697454926,B,1038.1882919973577,Correct,3,8,big,small,False,Value,right,right,1203.831208003976,Correct
8,22,67,B,83.33661867174914,62.14194450577086,4.166830933587457,0.9761233816955717,A,900.5255829979433,Incorrect,3,2,small,big,False,Size,right,left,808.6058339977171,Incorrect
8,22,68,A,29.16650478231397,39.39164656666071,1.4583252391156987,0.6187625373331345,A,1181.7288329984876,Correct,4,2,small,big,False,Size,right,right,1070.791874997667,Correct
8,22,69,B,40.26161509394831,27.829623096904996,2.013080754697415,0.43714669736704775,B,943.9249580027536,Correct,6,4,small,big,False,Value,left,left,1006.7113330005668,Correct
8,22,70,B,45.149456471748955,21.886167601891856,2.2574728235874475,0.343787116766692,B,1158.8666669995291,Correct,8,6,small,big,False,Size,right,right,565.298832996632,Correct
8,22,71,A,30.981703553716784,61.31371726760279,1.5490851776858392,0.9631136186609127,A,648.6165419992176,Correct,2,6,big,small,False,Size,left,left,774.5435830001952,Correct
8,22,72,A,35.70348285269133,53.07506610025599,1.7851741426345666,0.8337011887467844,A,2138.196792002418,Correct,3,2,small,big,False,Value,left,left,1348.8598340045428,Correct
8,22,73,B,54.04349051175399,37.409989079479345,2.7021745255876994,0.5876347343148335,B,2383.8405839996994,Correct,6,4,small,big,False,Value,left,left,862.3718750022817,Correct
8,22,74,B,55.28924072103687,47.622769703605734,2.7644620360518433,0.7480567172222318,A,1049.3490410008235,Incorrect,4,7,small,big,True,Size,right,right,2852.372125002148,Correct
8,22,75,B,76.03932447998538,60.917828608473506,3.801966223999269,0.9568950141451126,B,1023.6972079947009,Correct,6,7,big,small,False,Size,left,left,1205.8325839971076,Correct
8,22,76,A,67.04913296630619,78.86746648500608,3.352456648315309,1.2388472665826715,A,633.5608750014217,Correct,7,8,big,small,False,Value,right,right,409.76179200515617,Correct
8,22,77,A,24.517145907570743,43.870369134168,1.2258572953785372,0.689114146910873,A,714.573791003204,Correct,4,6,big,small,False,Value,right,right,1154.7337079973659,Correct
8,22,78,B,69.2118768876104,54.10258639209153,3.46059384438052,0.8498414397480093,A,555.1712090018555,Incorrect,6,7,small,big,True,Value,right,right,1214.3811249989085,Correct
8,22,79,A,14.021810791176158,38.890759971508984,0.701090539558808,0.6108946290950831,A,764.1372090001823,Correct,2,5,big,small,False,Value,right,right,1280.8173750017886,Correct
8,22,80,B,53.31790204008918,40.72923247369665,2.665895102004459,0.6397732876285811,A,1114.8569170036353,Incorrect,2,6,big,small,False,Size,left,left,460.48049999808427,Correct
8,22,81,B,61.297642009492805,29.819314585870583,3.06488210047464,0.46840069819026997,B,1137.482917001762,Correct,7,5,small,big,False,Size,right,right,1960.1842499978375,Correct
8,22,82,A,59.026810507784745,82.35600338726351,2.951340525389237,1.293645076102216,A,782.4946660039132,Correct,8,4,small,big,False,Size,right,right,1735.854250000557,Correct
8,22,83,B,43.08032805200058,18.518298245141175,2.1540164026000292,0.29088474861960134,B,652.2528339992277,Correct,8,7,small,big,False,Size,right,right,1185.028207997675,Correct
8,22,84,A,58.88128583291352,75.94678605347114,2.944064291645676,1.1929693256467035,A,885.2225829978124,Correct,7,2,small,big,False,Value,left,left,1034.2375000036554,Correct
8,22,85,B,58.457545895005815,39.565625966736235,2.922877294750291,0.6214953993589006,B,945.3559589965153,Correct,2,4,small,big,True,Size,right,left,1579.8299169982783,Incorrect
8,22,86,B,77.32999846294342,58.559076461061004,3.8664999231471713,0.9198438220553612,B,673.1756669978495,Correct,8,5,small,big,False,Value,left,left,2534.341459002462,Correct
8,22,87,B,47.23741983737226,24.708324433668494,2.361870991868613,0.38811745261663066,B,956.143041003088,Correct,3,8,big,small,False,Size,left,left,539.1371670048102,Correct
8,22,88,B,57.5186398787623,41.80953754547911,2.8759319939381154,0.6567426800143189,B,970.7112499963841,Correct,5,8,big,small,False,Size,left,left,2527.6469999953406,Correct
8,22,89,A,28.190116191203444,42.247286293889005,1.4095058095601722,0.6636188212749323,A,545.7315419989754,Correct,6,4,small,big,False,Value,left,left,601.2988330039661,Correct
8,22,90,B,57.42840041420316,33.61640199918516,2.8714200207101577,0.5280452078038066,B,1077.617791997909,Correct,5,8,big,small,False,Value,right,right,865.710083002341,Correct
8,22,91,B,83.68858867753887,61.09647039150666,4.184429433876944,0.9597011127111179,B,1187.4226669970085,Correct,6,3,small,big,False,Size,right,right,881.3327079988085,Correct
8,22,92,B,47.93817013322824,19.26772431424095,2.396908506661412,0.30265670578506404,B,655.7327909977175,Correct,5,8,big,small,False,Size,left,left,797.6389589966857,Correct
8,22,93,A,68.68377081538085,87.49435061037147,3.4341885407690427,1.3743580455407631,A,896.8797080015065,Correct,6,5,small,big,False,Value,left,left,771.7920840004808,Correct
8,22,94,B,59.011416095402396,34.53095419467526,2.95057080477012,0.5424109600971873,B,772.4238329974469,Correct,2,3,big,small,False,Size,left,left,1182.5732500001322,Correct
8,22,95,A,44.11336951711889,67.78620085101537,2.2056684758559446,1.0647831530415603,A,601.3953340006992,Correct,7,2,small,big,False,Value,left,left,535.6097499970929,Correct
8,22,96,B,46.76740758514274,18.281499464658367,2.338370379257137,0.28716512207388234,B,536.0574169972097,Correct,6,7,big,small,False,Size,left,left,597.6945830043405,Correct
8,22,97,A,34.51069808612825,58.78762880328134,1.7255349043064125,0.923433913851762,A,546.9651669991435,Correct,6,2,small,big,False,Size,right,right,1146.0812079967582,Correct
8,22,98,A,16.46212295699565,34.98344043470881,0.8231061478497824,0.5495185973348866,A,465.5370420005056,Correct,8,3,small,big,False,Size,right,right,764.7401249996619,Correct
8,22,99,B,73.05875547514769,52.08601134620864,3.6529377737573845,0.8181651530002183,B,567.824166995706,Correct,5,6,big,small,False,Size,left,left,1271.0635000039474,Correct
8,22,100,A,65.71991688375464,79.19627061118516,3.285995844187732,1.2440121097190426,A,980.3216250002151,Correct,5,4,big,small,True,Value,left,left,779.2097499986994,Correct
8,22,101,A,33.46448073556906,64.34693219868493,1.673224036778453,1.0107592473821454,A,403.44850000110455,Correct,2,3,big,small,False,Value,right,right,453.48983299481915,Correct
8,22,102,A,12.574056155426742,35.38451570147731,0.6287028077713371,0.555818672892969,A,1426.9914999968023,Correct,7,2,small,big,False,Size,right,right,4669.907292001881,Correct
8,22,103,B,54.01063055971624,47.09954330980247,2.700531527985812,0.7398378962475486,A,983.9185419987189,Incorrect,8,7,big,small,True,Size,left,right,1548.7101250037085,Incorrect
8,22,104,B,75.796322115571,64.2119279097058,3.78981610577855,1.008638604969846,B,929.94324999745,Correct,5,6,big,small,False,Size,left,right,1205.9030829987023,Incorrect
8,22,105,A,27.96077547862906,40.12467820411324,1.3980387739314528,0.6302769713684832,A,939.9554589981562,Correct,5,4,small,big,False,Size,right,right,662.284041995008,Correct
8,22,106,A,14.06386744119958,40.59899155699121,0.703193372059979,0.6377274680929881,A,465.59712500311434,Correct,6,5,small,big,False,Size,right,right,1541.0312500025611,Correct
8,22,107,B,56.56164147265132,39.53471380404716,2.828082073632566,0.6210098322428478,B,582.7382499992382,Correct,3,2,big,small,True,Value,left,left,1387.5556670027436,Correct
8,22,108,B,72.56844418377466,58.154062493383535,3.628422209188733,0.9134818775280771,B,855.9334169985959,Correct,4,6,small,big,True,Size,right,right,1328.0074579961365,Correct
8,22,109,A,61.69530842763321,72.86280546257356,3.0847654213816607,1.1445262718058167,A,733.4019999980228,Correct,7,5,small,big,False,Value,left,left,415.64079199451953,Correct
8,22,110,A,38.78562701868486,69.71595492409051,1.9392813509342433,1.0950956591375995,A,1193.8005420015543,Correct,8,7,small,big,False,Size,right,right,740.5557919992134,Correct
8,22,111,B,70.40415043771726,53.140913841438575,3.520207521885863,0.8347355226465579,B,809.481541000423,Correct,5,6,small,big,True,Size,right,right,904.0585420007119,Correct
8,22,112,A,12.247429628273395,39.815084047584946,0.6123714814136697,0.6254138777297652,A,766.4243749968591,Correct,3,2,small,big,False,Value,left,left,1135.823958000401,Correct
8,22,113,A,40.060405321881454,54.90321199792604,2.003020266094073,0.8624176373558372,A,938.9537500028382,Correct,4,2,small,big,False,Value,left,left,1759.8510829993756,Correct
8,22,114,B,40.749515325758125,22.69129698241573,2.037475766287906,0.35643405950190754,B,1410.6239169996115,Correct,2,4,big,small,False,Value,right,right,584.5103750034468,Correct
8,22,115,A,22.983714647974065,41.00693596079857,1.1491857323987034,0.6441354438033595,A,930.436082999222,Correct,3,5,big,small,False,Value,right,right,856.4033750008093,Correct
8,22,116,B,53.583428929250324,24.897255115351687,2.6791714464625165,0.3910851688246988,B,798.0647500007763,Correct,8,4,small,big,False,Value,left,left,974.8845830035862,Correct
8,22,117,B,41.821347974835945,28.56768521846005,2.091067398741797,0.4487401500618991,B,673.2339169975603,Correct,7,4,small,big,False,Value,left,left,874.507332999201,Correct
8,22,118,A,41.93030843532798,69.3237947148864,2.0965154217663993,1.0889356209762702,A,644.1600420002942,Correct,5,4,big,small,True,Value,left,left,769.4876249952358,Correct
8,22,119,B,53.5463342801046,31.895417894171466,2.67731671400523,0.5010120526975276,B,898.6479580053128,Correct,6,8,big,small,False,Value,right,right,3353.245959006017,Correct
8,22,120,B,47.04194531466186,37.90451235947755,2.352097265733093,0.5954026878321909,B,1421.4940840029158,Correct,4,3,small,big,False,Value,left,left,550.6545419993927,Correct
8,22,121,A,50.95718707664652,79.98013374750047,2.547859353832326,1.256325003071383,A,1347.779834002722,Correct,2,3,big,small,False,Value,right,right,611.3319590003812,Correct
8,22,122,B,73.41928396519265,55.883549706642256,3.670964198259633,0.8778167460745366,A,773.7909589995979,Incorrect,5,3,small,big,False,Size,right,right,1561.691458999121,Correct
8,22,123,A,31.620455014351137,52.383866438927406,1.581022750717557,0.8228438498558163,A,553.2078749965876,Correct,2,5,big,small,False,Value,right,right,886.5934579953318,Correct
8,22,124,B,62.677620557634285,29.572498922699122,3.133881027881714,0.46452372681921816,B,946.7143330039107,Correct,6,4,big,small,True,Size,left,left,749.1957090023789,Correct
8,22,125,B,69.52773815277511,52.27069575173621,3.4763869076387555,0.8210661688584083,B,559.3231670063687,Correct,2,7,big,small,False,Size,left,left,808.6817500006873,Correct
8,22,126,A,65.58111922459074,89.07719240414227,3.279055961229537,1.3992212662962895,A,568.046125001274,Correct,2,6,small,big,True,Value,right,right,688.4559579993947,Correct
8,22,127,A,65.29626996724411,79.9227519351124,3.264813498362206,1.2554236516701425,A,633.4807089951937,Correct,6,8,big,small,False,Size,left,left,1086.5349170053378,Correct
8,22,128,A,18.23294439101758,34.66521821272135,0.911647219550879,0.5445199743608625,A,957.7892910019727,Correct,4,7,big,small,False,Size,left,left,1104.8056250001537,Correct
8,22,129,A,65.59891706031016,83.81567768330632,3.2799458530155077,1.3165735863276256,A,595.2416250001988,Correct,8,2,small,big,False,Value,left,left,701.2887919991044,Correct
8,22,130,A,40.28222489042016,71.96005167189416,2.014111244521008,1.1303458484218232,A,647.2434579991386,Correct,4,2,small,big,False,Value,left,left,349.8469169935561,Correct
8,22,131,B,44.21973580386184,25.02566592388951,2.210986790193092,0.39310224108841846,B,647.7991249994375,Correct,4,5,big,small,False,Size,left,left,652.234082997893,Correct
8,22,132,B,50.77516037490449,35.79860961200314,2.5387580187452246,0.5623232448289901,A,726.4839589988696,Incorrect,5,2,small,big,False,Value,left,left,631.4262910018442,Correct
8,22,133,A,65.40261833615793,77.44117433548995,3.2701309168078967,1.2164431218887082,A,573.7946660010493,Correct,6,2,small,big,False,Size,right,right,535.2312090035412,Correct
8,22,134,B,60.30845382081441,41.32290886819754,3.0154226910407202,0.6490987346264495,B,622.7213340025628,Correct,5,8,big,small,False,Size,left,left,932.5299999982235,Correct
8,22,135,B,88.42398886048095,65.89500477051557,4.421199443024047,1.0350763144765804,B,471.6237920001731,Correct,2,4,big,small,False,Size,left,left,813.393290998647,Correct
8,22,136,A,20.010305818973634,37.20987863333592,1.0005152909486816,0.5844914067772796,A,494.3578750026063,Correct,4,3,small,big,False,Value,left,left,660.0354580004932,Correct
8,22,137,A,21.21503392880185,42.14928813094268,1.0607516964400927,0.6620794697310449,A,842.2536669968395,Correct,4,8,big,small,False,Size,left,left,573.2272079985705,Correct
8,22,138,B,70.66510919514297,58.75978699323708,3.533255459757149,0.9229965757222733,B,724.1567919991212,Correct,2,6,big,small,False,Size,left,left,913.0182079970837,Correct
8,22,139,B,48.01695078266178,30.214841288693577,2.400847539133089,0.47461361710970645,B,586.24662499642,Correct,7,3,small,big,False,Size,right,right,786.4229579936364,Correct
8,22,140,B,65.68800782147207,32.46550069695643,3.2844003910736035,0.5099668924233631,B,703.1950829987181,Correct,8,6,small,big,False,Value,left,left,715.793791001488,Correct
8,22,141,B,54.482104828339565,44.202562878786566,2.724105241416978,0.6943322340491839,B,1546.5061659997446,Correct,7,5,small,big,False,Value,left,left,721.7632079991745,Correct
8,22,142,A,48.00664154107831,61.744259550707554,2.4003320770539154,0.9698765610292215,A,552.7702500039595,Correct,3,2,small,big,False,Value,left,left,763.1612080003833,Correct
8,22,143,B,84.31318576164838,68.64865188552318,4.215659288082419,1.0783305022120138,B,790.6488750013523,Correct,7,5,small,big,False,Size,right,right,594.789791997755,Correct
8,22,144,A,39.142278440508264,61.8413359467034,1.9571139220254132,0.971401433491709,A,487.8305000020191,Correct,2,5,big,small,False,Size,left,left,684.3355000019073,Correct
8,22,145,B,58.26930881720005,43.131879312727094,2.9134654408600023,0.6775139759219251,B,898.3805419993587,Correct,8,3,small,big,False,Size,right,right,1343.4104999978445,Correct
8,22,146,A,20.95664055865124,41.35504523651869,1.0478320279325621,0.6496035315196035,A,500.84766700456385,Correct,6,3,small,big,False,Value,left,left,617.2186250041705,Correct
8,22,147,A,30.278273791150752,48.17750643539743,1.5139136895575376,0.7567705014285977,A,489.0098749965546,Correct,6,2,small,big,False,Size,right,right,800.5660419948981,Correct
8,22,148,B,76.29463757589106,59.41824809373175,3.8147318787945528,0.9333396585022169,B,1270.686250005383,Correct,2,7,big,small,False,Value,right,right,1466.0738750026212,Correct
8,22,149,B,76.61896960086855,52.09868947932172,3.830948480043428,0.8183643006494649,B,621.087332998286,Correct,6,5,small,big,False,Value,left,left,628.443249996053,Correct
8,22,150,A,17.764855375659362,32.05457561475684,0.8882427687829682,0.5035120963262931,A,944.7837499974412,Correct,6,7,big,small,False,Value,right,right,984.2687920026947,Correct
8,22,151,A,34.17162312999842,54.03824632508648,1.708581156499921,0.8488307883388366,A,1269.1391669941368,Correct,8,7,small,big,False,Size,right,right,985.5401669992716,Correct
8,22,152,A,44.34008624982398,65.00492285293657,2.217004312491199,1.021094940409784,A,506.67983300081687,Correct,6,4,big,small,True,Size,left,left,2048.3815420011524,Correct
8,22,153,A,18.788660200940612,46.53911688747634,0.9394330100470306,0.7310347385912618,A,467.47195799980545,Correct,6,5,big,small,True,Size,left,left,540.9042920000502,Correct
8,22,154,B,58.32254158828047,28.8095900263029,2.9161270794140237,0.45253998189783484,B,1014.8516250046669,Correct,5,3,big,small,True,Size,left,left,1823.389416000282,Correct
8,22,155,A,35.32309829012337,50.22626176685915,1.7661549145061683,0.788952274920213,A,517.302500004007,Correct,5,6,big,small,False,Size,left,left,479.78054100531153,Correct
8,22,156,A,33.97625809175686,51.89199126014344,1.6988129045878428,0.815117492615062,A,425.90545900020516,Correct,7,8,big,small,False,Value,right,right,373.15558300178964,Correct
8,22,157,A,36.6998166724069,65.90247437444484,1.8349908336203447,1.0351936467407274,A,452.57433299411787,Correct,6,5,small,big,False,Size,right,right,676.706500002183,Correct
8,22,158,B,70.56240931048883,38.31328235317562,3.5281204655244416,0.60182363187824,B,978.0135839973809,Correct,3,7,small,big,True,Size,right,right,700.1425830021617,Correct
8,22,159,B,64.94361077726884,40.80796287323227,3.2471805388634425,0.6410099818525576,B,614.1168340036529,Correct,4,6,small,big,True,Value,right,right,494.90187499759486,Correct
8,22,160,A,63.3346488578852,86.16223273156774,3.16673244289426,1.353433186831936,A,545.6229999981588,Correct,8,5,small,big,False,Size,right,right,713.4751670018886,Correct
8,22,161,A,52.980163119741306,71.28960610267791,2.6490081559870653,1.119814514047415,A,1122.0332500015502,Correct,2,4,big,small,False,Size,left,left,425.19049999827985,Correct
8,22,162,B,47.09543992684626,38.23766907950826,2.354771996342313,0.6006359013529037,B,1358.2129580026958,Correct,3,2,small,big,False,Size,right,right,868.7290840025526,Correct
8,22,163,B,54.26166579001059,38.241807104790844,2.7130832895005295,0.6007009013020443,B,499.15816700377036,Correct,4,3,small,big,False,Size,right,right,623.7167920044158,Correct
8,22,164,B,65.19226350533327,41.164090560924464,3.2596131752666633,0.6466040224895262,B,465.0664159998996,Correct,5,6,big,small,False,Value,right,right,897.2504999983357,Correct
8,22,165,B,42.67038723298971,20.791366109307177,2.133519361649485,0.32659001513547614,B,693.1225829976029,Correct,5,6,big,small,False,Size,left,left,721.8476250054664,Correct
8,22,166,A,21.72929002884904,53.86026447566025,1.0864645014424519,0.8460350559856877,A,487.6790839989553,Correct,8,6,small,big,False,Value,left,left,957.0600829974865,Correct
8,22,167,A,34.11420052927031,57.99911908204771,1.7057100264635157,0.9110480321142035,A,495.4962909978349,Correct,2,4,small,big,True,Size,right,right,2270.7834579996415,Correct
8,22,168,B,86.42327001680512,67.06823646863268,4.321163500840256,1.0535053948953972,B,534.2627089994494,Correct,3,2,small,big,False,Size,right,right,2308.1007080036215,Correct
8,22,169,B,76.11046354707253,59.56898036934818,3.8055231773536264,0.9357073555508942,B,478.30437500670087,Correct,7,5,small,big,False,Size,right,right,566.7438750024303,Correct
8,22,170,A,40.96032858112341,50.7580873701512,2.0480164290561707,0.7973061719616794,A,816.5208339996752,Correct,8,6,small,big,False,Value,left,left,652.9128330003005,Correct
8,22,171,A,47.65836072321549,69.75587401979311,2.3829180361607745,1.0957227068265858,A,762.8831250040093,Correct,6,7,big,small,False,Size,left,left,790.8910420010216,Correct
8,22,172,B,30.503576253865734,14.557002266343595,1.5251788126932868,0.22866085689117502,B,686.0599999999977,Correct,2,3,big,small,False,Value,right,right,716.9480829979875,Correct
8,22,173,B,48.567694656847564,26.06811191376281,2.428384732842378,0.409476944406169,B,1439.8771660053171,Correct,8,7,small,big,False,Size,right,right,1354.3769160023658,Correct
8,22,174,A,23.544381814942298,54.57840249937652,1.177219090747115,0.8573155416835404,A,810.7350840000436,Correct,8,7,small,big,False,Size,right,right,618.4329579991754,Correct
8,22,175,B,56.62194467980541,40.802823970531584,2.831097233990271,0.6409292601576977,B,1262.022208997223,Correct,8,3,big,small,True,Size,left,left,1620.8013750001555,Correct
8,22,176,B,68.82557592861697,46.31747857154849,3.4412787964308484,0.727553252065897,B,708.2736659940565,Correct,3,2,small,big,False,Size,right,right,733.9695409973501,Correct
8,22,177,A,37.292647034075536,53.305968391894005,1.8646323517037768,0.8373281934623195,A,1159.429415994964,Correct,4,3,small,big,False,Size,right,right,607.1190829970874,Correct
8,22,178,A,52.34225403301026,65.66414656053979,2.617112701650513,1.0314500021941766,A,714.0974999929313,Correct,6,4,small,big,False,Size,right,right,1323.2573330024024,Correct
8,22,179,B,77.04427515466806,45.16795641323404,3.852213757733403,0.7094966002274004,B,659.7439580000355,Correct,5,4,small,big,False,Size,right,right,730.7300839966047,Correct
8,22,180,B,66.0502227038592,39.91339154223494,3.3025111351929604,0.6269580882446915,B,1465.9365839979728,Correct,6,2,small,big,False,Size,right,right,1448.143000001437,Correct
8,22,181,B,77.25234691480222,64.61006602879407,3.862617345740111,1.0148925439200545,B,2418.946624995442,Correct,3,8,big,small,False,Size,left,left,692.0562500017695,Correct
8,22,182,A,38.32552202235277,71.1577885059634,1.9162761011176386,1.1177439280801542,A,1436.0446249993402,Correct,3,7,big,small,False,Value,right,right,678.5617079949589,Correct
8,22,183,A,53.71624950565191,80.33756087101311,2.6858124752825954,1.2619394551984882,A,1145.2615419984795,Correct,8,5,small,big,False,Value,left,left,827.4854999981471,Correct
8,22,184,B,49.1797000657079,25.214952804434006,2.458985003285395,0.3960755524551161,B,590.7588330010185,Correct,3,8,small,big,True,Value,right,right,844.2031250015134,Correct
8,22,185,B,44.56025736943318,34.34607989653909,2.228012868471659,0.5395069614128765,B,1160.6752080042497,Correct,7,3,small,big,False,Value,left,left,797.1294170056353,Correct
8,22,186,B,52.516464885520364,20.87472482021561,2.625823244276018,0.3278994107044894,B,770.9170830057701,Correct,5,2,small,big,False,Value,left,left,736.3301660006982,Correct
8,22,187,B,80.87361474145865,61.874056263143586,4.043680737072933,0.9719154030204671,B,795.5887919961242,Correct,7,2,small,big,False,Value,left,left,989.3582499935292,Correct
8,22,188,A,19.99478231531179,47.40581739987545,0.9997391157655896,0.7446488384043395,A,1396.058999998786,Correct,4,5,big,small,False,Size,left,right,1820.9834580047755,Incorrect
8,22,189,B,63.40767105218774,32.36376389046895,3.1703835526093873,0.5083688144040595,B,1370.6414170010248,Correct,4,7,big,small,False,Size,left,left,812.976624998555,Correct
8,22,190,B,71.92624074502979,51.069360523487234,3.596312037251489,0.8021956392205803,B,684.0719169995282,Correct,6,2,small,big,False,Size,right,right,497.8210420013056,Correct
8,22,191,B,38.54272302043169,13.90022102562697,1.9271361510215843,0.21834416128692036,B,689.5412919984665,Correct,6,8,big,small,False,Value,right,right,522.9191659964272,Correct
8,22,192,A,42.86332975786295,67.98560721205864,2.1431664878931476,1.0679154208362234,A,797.2677500001737,Correct,3,2,big,small,True,Value,left,left,1059.7474170062924,Correct
8,22,193,A,31.878225074173844,52.82569150370854,1.5939112537086921,0.8297840217442575,A,712.6873749948572,Correct,3,5,big,small,False,Size,left,left,698.5655419994146,Correct
8,22,194,B,80.22176104068097,67.10726563706683,4.011088052034049,1.0541184636395395,B,900.3113750004559,Correct,4,8,big,small,False,Size,left,left,2761.975125002209,Correct
8,22,195,A,50.839622479979724,68.06776554649394,2.541981123998986,1.069205960935689,A,777.0645409982535,Correct,2,4,big,small,False,Size,left,left,711.0104589955881,Correct
8,22,196,B,79.63063436846053,61.37800016937513,3.9815317184230263,0.9641233721207098,B,667.8328339985455,Correct,3,6,big,small,False,Size,left,left,666.5520829992602,Correct
8,22,197,A,62.45021073994058,72.16105449576013,3.1225105369970287,1.1335031933958635,A,716.0379169945372,Correct,5,8,big,small,False,Value,right,right,585.4034160001902,Correct
8,22,198,A,40.421464958926975,50.53072136038439,2.0210732479463487,0.7937347150318822,A,1870.1950419999775,Correct,6,3,small,big,False,Value,left,left,833.2847089986899,Correct
8,22,199,A,65.30141384923431,78.36834907168009,3.2650706924617157,1.2310071485877534,A,771.5574169997126,Correct,2,6,big,small,False,Value,right,right,1648.861959001806,Correct
8,22,200,B,81.1357429843431,54.559145765198785,4.056787149217155,0.8570130576104159,B,1314.92179199995,Correct,3,2,big,small,True,Value,left,left,746.4229580000392,Correct
8,22,201,B,47.9692716913862,34.848617883024396,2.39846358456931,0.5474008096453367,B,626.5345420033555,Correct,4,6,big,small,False,Size,left,left,991.3756250025472,Correct
8,22,202,A,12.560540639540935,38.53876547714416,0.6280270319770467,0.6053655125070802,A,687.1314999953029,Correct,2,4,big,small,False,Value,right,right,1239.1875000030268,Correct
8,22,203,B,39.45688717537712,20.16525756700258,1.972844358768856,0.31675512515120646,B,791.5539579989854,Correct,6,7,big,small,False,Size,left,left,657.9270419970271,Correct
8,22,204,A,23.562004672241283,53.18504182518987,1.1781002336120643,0.8354286833944119,A,740.6500839933869,Correct,6,7,big,small,False,Value,right,right,675.0710839987732,Correct
8,22,205,A,33.58249994694041,64.7203633378454,1.6791249973470204,1.0166250899991864,A,699.6798750042217,Correct,8,7,small,big,False,Value,left,left,619.9512500024866,Correct
8,22,206,B,60.747472038401355,30.273993321292487,3.037373601920068,0.4755427750649947,B,733.049000002211,Correct,3,5,small,big,True,Size,right,right,1099.7672919984325,Correct
8,22,207,B,84.09967733790336,64.0742667931088,4.204983866895168,1.0064762292069152,B,1170.6634160000249,Correct,8,5,small,big,False,Value,left,left,601.7995419970248,Correct
8,22,208,A,54.91183593417405,81.59171960048798,2.7455917967087027,1.2816397344532569,A,711.1847500054864,Correct,8,7,small,big,False,Value,left,left,1233.461083000293,Correct
8,22,209,B,55.81025142828902,47.406767642043135,2.790512571414451,0.7446637647734052,A,1467.5505829945905,Incorrect,8,4,small,big,False,Size,right,right,1486.4624580004602,Correct
8,22,210,A,66.30538593261223,82.93632799628067,3.3152692966306114,1.302760793744144,A,708.5096250011702,Correct,5,2,small,big,False,Size,right,right,978.6552920049871,Correct
8,22,211,B,46.634162232673816,19.74377400090284,2.3317081116336906,0.31013447677686756,B,714.34770799533,Correct,7,6,small,big,False,Value,left,left,757.3562910038163,Correct
8,22,212,A,40.16871535633994,71.55616640285902,2.0084357678169966,1.1240016334513534,A,967.0050829954562,Correct,3,8,big,small,False,Value,right,right,827.4950830018497,Correct
8,22,213,A,40.31572558944274,63.382575388103135,2.015786279472137,0.9956111660243301,A,1536.3187080001808,Correct,8,6,big,small,True,Value,left,left,1969.7464589989977,Correct
8,22,214,B,55.16423220832246,26.26009775290399,2.758211610416123,0.4124926509153651,B,662.7392920054263,Correct,6,2,small,big,False,Value,left,left,708.0051250013639,Correct
8,22,215,A,57.975662307866834,68.40654151045722,2.8987831153933414,1.0745274413336883,A,909.8081659976742,Correct,6,8,big,small,False,Value,right,right,860.5851659958716,Correct
8,22,216,B,62.5167150922383,53.56838475438385,3.125835754611915,0.8414502200452189,B,956.5349170006812,Correct,3,6,big,small,False,Size,left,left,573.6521250000806,Correct
8,22,217,A,40.245438871579346,61.50888157287251,2.0122719435789675,0.9661792523993045,A,633.0608339994797,Correct,8,5,small,big,False,Value,left,left,1006.7927499985672,Correct
8,22,218,A,50.74514020347295,79.67822480856782,2.5372570101736476,1.2515826285483633,A,604.7471670026425,Correct,8,3,small,big,False,Value,left,left,807.5487500027521,Correct
8,22,219,A,33.986045426531184,60.48119666675317,1.699302271326559,0.9500364156429563,A,696.6332499941927,Correct,5,7,big,small,False,Size,left,left,1027.1336249934393,Correct
8,22,220,B,62.627947863015564,46.586416120918024,3.131397393150778,0.731777713212766,B,873.515082996164,Correct,6,7,big,small,False,Size,left,left,770.7615420004004,Correct
8,22,221,A,37.25631043643205,51.14649893570791,1.8628155218216025,0.8034073265662907,A,589.8782090007444,Correct,5,4,small,big,False,Value,left,left,714.6687919957913,Correct
8,22,222,A,38.28095259636132,50.1879469756132,1.9140476298180658,0.7883504275867026,A,878.6611249961425,Correct,7,8,big,small,False,Size,left,left,789.2427080005291,Correct
8,22,223,B,69.60582417015148,59.74659598847291,3.480291208507574,0.9384973351719195,B,928.5902080009691,Correct,3,2,small,big,False,Size,right,right,880.5173329965328,Correct
8,22,224,A,45.102978618544995,68.20041700833437,2.2551489309272497,1.0712896452257181,A,728.6616249984945,Correct,2,4,small,big,True,Size,right,right,1044.0568749982049,Correct
8,22,225,B,63.7892176007288,30.884508831030374,3.1894608800364397,0.4851327302664705,B,765.1019160039141,Correct,8,4,small,big,False,Size,right,right,867.3435419987072,Correct
8,22,226,B,74.89460384415973,46.68709591995395,3.744730192207987,0.7333591877978467,B,986.2139580000076,Correct,7,2,small,big,False,Size,right,right,605.2755830023671,Correct
8,22,227,B,44.89593076482137,29.837089182896364,2.2447965382410686,0.46867990090745354,B,770.810915993934,Correct,2,8,big,small,False,Size,left,left,879.5007500011707,Correct
8,22,228,B,64.74622552569325,55.37249475919124,3.2373112762846628,0.8697891137320726,A,1026.9387499938603,Incorrect,5,3,small,big,False,Size,right,left,1709.9105000015697,Incorrect
8,22,229,A,65.4421201040079,80.34899205888996,3.272106005200395,1.2621190158777669,A,944.0789580039564,Correct,5,2,small,big,False,Value,left,left,1045.6116249988554,Correct
8,22,230,B,57.707989817894834,31.659274055002303,2.885399490894742,0.4973027139459058,B,717.1288329991512,Correct,3,2,small,big,False,Value,left,left,739.2343750034343,Correct
8,22,231,A,55.40255568221413,65.3993837574759,2.7701277841107066,1.0272911178089297,A,734.0267920008046,Correct,3,2,small,big,False,Size,right,right,557.6185410027392,Correct
8,22,232,A,50.28630474184226,60.733360610143315,2.514315237092113,0.9539973976032299,A,774.2666249978356,Correct,4,8,big,small,False,Value,right,right,995.7805830053985,Correct
8,22,233,A,48.42229745591783,78.73688362066889,2.4211148727958913,1.2367960757462395,A,662.0195409996086,Correct,3,7,big,small,False,Value,right,right,657.5155419996008,Correct
8,22,234,B,84.65456035829834,68.67676022700692,4.232728017914917,1.0787720270075631,B,884.7012909973273,Correct,3,2,small,big,False,Value,left,left,525.7016670002486,Correct
8,22,235,B,49.3324870473232,37.91591824958028,2.4666243523661597,0.5955818511349628,B,939.7918749964447,Correct,4,6,small,big,True,Size,right,right,1246.702958997048,Correct
8,22,236,A,62.58961755633074,81.95384269433568,3.129480877816537,1.2873279507098927,A,799.9428750044899,Correct,5,4,small,big,False,Value,left,right,1068.2341659994563,Incorrect
8,22,237,B,58.98832664109944,46.07387385700473,2.9494163320549722,0.7237267181579443,B,706.9450000053621,Correct,5,4,small,big,False,Value,left,left,1032.5736659942777,Correct
8,22,238,B,37.75381009079657,18.650169799725237,1.8876905045398287,0.2929561821550951,B,721.3127499999246,Correct,4,6,big,small,False,Value,right,right,823.1895420030924,Correct
8,22,239,A,26.136872849761726,37.69152639135662,1.3068436424880863,0.5920571120683588,A,1026.0481250006706,Correct,2,6,big,small,False,Value,right,right,744.8999170010211,Correct
8,22,240,B,60.38950217054622,49.06936970704564,3.019475108527311,0.7707798569396805,B,2622.0709160043043,Correct,6,8,big,small,False,Size,left,left,2375.9175000013784,Correct
8,22,241,B,42.79207097936525,19.905960264096812,2.139603548968262,0.31268209264168445,B,888.7967499977094,Correct,8,3,big,small,True,Value,left,left,1003.2865839966689,Correct
8,22,242,B,44.40500859797919,18.70575094589149,2.2202504298989596,0.2938292487574652,B,835.9008750048815,Correct,5,4,small,big,False,Value,left,left,1201.0997089964803,Correct
8,22,243,A,46.99855400078677,63.08867532374137,2.3499277000393386,0.9909945946088877,A,1780.8976250016713,Correct,4,6,big,small,False,Size,left,left,925.6824999974924,Correct
8,22,244,A,28.15260437298127,55.03057626853595,1.4076302186490635,0.8644182706402268,A,1905.3725830017356,Correct,4,7,big,small,False,Size,left,left,1357.0265829985146,Correct
8,22,245,B,51.31653758322936,20.05710069217354,2.5658268791614685,0.31505620093421577,B,720.0302499986719,Correct,3,5,big,small,False,Size,left,left,3184.1886660040473,Correct
8,22,246,B,36.749020790595054,19.14979864561657,1.8374510395297527,0.300804333713964,B,670.8232919991133,Correct,7,6,small,big,False,Value,left,left,1841.625415996532,Correct
8,22,247,A,59.672957477863065,86.19412043660816,2.9836478738931533,1.3539340777314104,A,703.1859580019955,Correct,7,2,small,big,False,Value,left,left,726.5914579984383,Correct
8,22,248,B,66.0640891045139,42.55366788560602,3.3032044552256945,0.6684314520635989,B,985.3214160029893,Correct,2,6,small,big,True,Value,right,right,1135.928582996712,Correct
8,22,249,B,62.851175572316876,35.63711398331482,3.142558778615844,0.5597864774256196,B,685.2973749992088,Correct,2,3,big,small,False,Value,right,right,2126.8548750012997,Correct
8,22,250,B,50.662161219629795,39.49060649103936,2.53310806098149,0.6203169961902733,B,860.0107089951052,Correct,3,6,big,small,False,Value,right,right,952.3533339961432,Correct
8,22,251,A,66.19340458618666,80.81348619396711,3.309670229309333,1.2694152726897363,A,824.8125000027358,Correct,7,8,big,small,False,Value,right,right,965.3047079991666,Correct
8,22,252,B,58.700554942356234,29.661961624856396,2.935027747117812,0.46592900365855605,B,576.5930829948047,Correct,6,3,small,big,False,Size,right,right,506.1521250026999,Correct
8,22,253,A,50.32555001031109,76.6105788401034,2.5162775005155544,1.2033961583566524,A,1439.9071669977275,Correct,2,5,big,small,False,Value,right,left,2950.161749999097,Incorrect
8,22,254,A,41.714466262041945,53.82427317197575,2.0857233131020974,0.845469705909446,A,795.5317919986555,Correct,4,6,big,small,False,Value,right,right,912.5937909993809,Correct
8,22,255,B,36.42505119480969,24.94925381682783,1.8212525597404845,0.39190196251746706,B,625.1964170005522,Correct,6,3,small,big,False,Size,right,right,1467.6669170003152,Correct
8,22,256,B,48.16740936737037,33.69925546910252,2.4083704683685183,0.5293466670658906,B,1066.680208001344,Correct,8,4,small,big,False,Size,right,right,588.4807080001337,Correct
8,22,257,B,54.94293859402517,22.659980607261662,2.7471469297012585,0.3559421430313021,B,748.0799580007442,Correct,4,6,big,small,False,Value,right,right,855.4345000011381,Correct
8,22,258,A,64.44151924882402,87.44156283497776,3.222075962441201,1.373528857103882,A,2028.903000005812,Correct,7,5,small,big,False,Value,left,left,762.773415997799,Correct
8,22,259,A,49.07563169356427,60.46025278264086,2.4537815846782136,0.9497074298806317,A,1084.0369580037077,Correct,4,6,big,small,False,Size,left,left,1317.6505410010577,Correct
8,22,260,A,60.12609984028808,75.4492829951611,3.006304992014404,1.185154565881077,A,716.9805000012275,Correct,4,7,big,small,False,Value,right,right,1397.2881660010898,Correct
8,22,261,B,51.76063667736838,28.336631772626436,2.588031833868419,0.4451107710218116,B,1542.645250003261,Correct,4,2,small,big,False,Size,right,left,696.4400830038358,Incorrect
8,22,262,A,27.19787947344641,50.73183719361712,1.3598939736723203,0.7968938351529049,A,704.5006249973085,Correct,6,2,small,big,False,Size,right,right,539.37162499642,Correct
8,22,263,B,71.37988534010636,43.366227216317974,3.5689942670053174,0.6811951041834514,B,969.382167000731,Correct,4,8,big,small,False,Value,right,right,1193.1723749949015,Correct
8,22,264,A,40.96965741252342,49.2527623959363,2.048482870626171,0.7736605825603855,A,719.7213750041556,Correct,5,7,big,small,False,Size,left,left,1614.5105840041651,Correct
8,22,265,B,65.5382717213409,33.895575170658624,3.276913586067045,0.5324304497267087,B,677.190000002156,Correct,6,4,big,small,True,Value,left,left,1900.8892500060028,Correct
8,22,266,B,79.71829210632683,56.85375561233438,3.9859146053163412,0.8930567048034957,B,857.586917001754,Correct,8,7,small,big,False,Size,right,right,1444.778499993845,Correct
8,22,267,A,25.641612162926236,49.497880952231924,1.2820806081463119,0.7775108958389699,A,618.3914580033161,Correct,8,2,small,big,False,Size,right,right,659.0627089972259,Correct
8,22,268,B,46.73673780331744,30.278642238095046,2.336836890165872,0.4756158000793651,B,705.9961659979308,Correct,6,8,big,small,False,Value,right,right,628.9939999987837,Correct
8,22,269,B,41.29556631174576,28.106286892164967,2.064778315587288,0.4414925221005628,B,1010.2703340016888,Correct,4,8,big,small,False,Size,left,left,990.4052499987301,Correct
8,22,270,A,48.52853565488563,74.02811759213365,2.426426782744281,1.162830951932642,A,870.9104169975035,Correct,5,6,small,big,True,Value,right,right,928.4517920023063,Correct
8,22,271,A,20.391124120258343,41.46365401246585,1.019556206012917,0.6513095541827584,A,799.6105829952285,Correct,8,4,small,big,False,Value,left,left,741.6303749996587,Correct
8,22,272,A,53.020919525068194,74.53160097754585,2.6510459762534095,1.1707396504567196,A,917.671542003518,Correct,4,7,big,small,False,Size,left,right,1018.6929169940413,Incorrect
8,22,273,A,62.68719813729908,82.51213399911738,3.134359906864954,1.296097570018219,A,673.3234169951174,Correct,5,4,small,big,False,Value,left,left,688.6720830007107,Correct
8,22,274,A,25.98246724560233,40.86625014998938,1.2991233622801164,0.6419255562548472,A,747.4812500004191,Correct,2,6,big,small,False,Size,left,left,1257.2644590036361,Correct
8,22,275,B,40.403534754925296,20.21189636751137,2.0201767377462647,0.3174877257164597,A,802.2681250004098,Incorrect,4,2,small,big,False,Size,right,right,1493.920207998599,Correct
8,22,276,A,49.08069409644923,63.86322750665042,2.4540347048224613,1.0031612318471328,A,818.0141670018202,Correct,6,2,small,big,False,Size,right,right,1079.436625004746,Correct
8,22,277,A,26.166082927638552,58.29816981989616,1.3083041463819276,0.9157455101195798,A,648.184500001662,Correct,5,2,small,big,False,Size,right,right,803.6552500052494,Correct
8,22,278,A,60.87671158131667,71.98230852422972,3.0438355790658336,1.1306954582407702,A,753.3410420001019,Correct,5,8,big,small,False,Value,right,right,872.4198749987409,Correct
8,22,279,A,33.828864104563095,46.475512489669136,1.6914432052281547,0.7300356430468262,A,596.3068749988452,Correct,3,2,small,big,False,Value,left,left,877.005750000535,Correct
8,22,280,A,22.029005603633536,47.05049075502146,1.1014502801816768,0.7390673805188493,A,793.3007909959997,Correct,8,6,small,big,False,Value,left,left,796.393791999435,Correct
8,22,281,B,62.384378760810904,49.24182861453476,3.1192189380405453,0.7734888351237504,B,873.3631249997416,Correct,7,8,big,small,False,Size,left,right,1305.7781669995165,Incorrect
8,22,282,B,63.62821138990564,38.46676649187917,3.181410569495282,0.6042345550912082,B,742.0686249970458,Correct,3,6,big,small,False,Value,right,right,937.8283340047346,Correct
8,22,283,A,38.18030364046321,46.07752118001763,1.9090151820231602,0.7237840101738573,A,773.5867500014137,Correct,2,3,big,small,False,Size,left,left,541.3252500002272,Correct
8,22,284,B,37.67777768318293,21.77871612475835,1.8838888841591466,0.34209927291079195,B,699.747375001607,Correct,4,8,big,small,False,Size,left,left,1258.892082994862,Correct
8,22,285,A,41.24963630500512,63.881839584759206,2.0624818152502558,1.003453589686406,A,741.7680419966928,Correct,6,7,big,small,False,Value,right,right,890.4409579990897,Correct
8,22,286,B,71.28642391135621,55.517668584934114,3.5643211955678105,0.8720694988543094,B,731.329292000737,Correct,3,4,small,big,True,Value,right,right,813.7217920011608,Correct
8,22,287,B,31.58494129124167,16.082628394062677,1.5792470645620835,0.2526253360660096,B,810.9934579988476,Correct,8,3,small,big,False,Size,right,right,1185.1242909979192,Correct
8,22,288,B,51.66464652905938,35.70758022970246,2.5832323264529693,0.5608933586355069,B,867.8704589983681,Correct,6,7,big,small,False,Value,right,left,1726.1149999976624,Incorrect
8,22,289,B,77.42136091885413,64.32882485864766,3.8710680459427067,1.0104748179499599,B,1143.7622500016005,Correct,8,4,small,big,False,Size,right,right,1506.1192080029286,Correct
8,22,290,A,33.89037501431269,45.74624292705279,1.6945187507156345,0.7185803035448155,A,795.1503750009579,Correct,5,8,big,small,False,Value,right,right,1322.8038329980336,Correct
8,22,291,A,25.299358391861418,38.71938963166012,1.264967919593071,0.6082027500915211,A,802.8398339956766,Correct,4,7,big,small,False,Value,right,right,824.6674160036491,Correct
8,22,292,A,27.97064506049725,50.456537526269486,1.3985322530248627,0.7925694380905297,A,682.7082919990062,Correct,4,7,big,small,False,Size,left,left,828.1849589984631,Correct
8,22,293,A,42.128601553781316,51.42841363385703,2.106430077689066,0.8078356322895119,A,1062.6707090050331,Correct,6,5,small,big,False,Size,right,left,2079.862750004395,Incorrect
8,22,294,A,37.004245710818815,68.49795610063045,1.8502122855409409,1.0759633783582838,A,677.6622499965015,Correct,7,2,small,big,False,Size,right,right,682.5970409990987,Correct
8,22,295,B,75.63256151142157,52.93084744206671,3.7816280755710783,0.8314358073613942,B,727.7028750031604,Correct,6,7,big,small,False,Size,left,left,1126.1526660018717,Correct
8,22,296,B,43.811558448233484,16.049728579336335,2.1905779224116744,0.2521085469847659,B,764.7678339999402,Correct,2,3,big,small,False,Value,right,right,570.8487079973565,Correct
8,22,297,A,47.026021867622106,54.90074950382536,2.351301093381105,0.8623789565889562,A,1865.725374998874,Correct,4,2,small,big,False,Size,right,right,1005.2495830022963,Correct
8,22,298,B,43.56781103248698,35.54854428390124,2.178390551624349,0.5583952278405779,B,875.5524160005734,Correct,2,8,big,small,False,Size,left,left,736.1478750026436,Correct
8,22,299,A,36.69735033035211,66.87717938764611,1.8348675165176054,1.050504277285179,A,622.5257080004667,Correct,6,4,small,big,False,Value,left,left,1190.1460419976502,Correct
8,22,300,B,56.65685745940438,36.58192584235105,2.8328428729702186,0.5746275474024833,B,791.2064580013976,Correct,6,3,big,small,True,Value,left,left,1105.8982079994166,Correct
8,22,301,B,42.20058049275743,18.121829006638226,2.1100290246378717,0.2846570243843253,B,692.0332499939832,Correct,3,4,big,small,False,Value,right,right,2976.6989159979858,Correct
8,22,302,B,48.3647576445027,32.6873093033561,2.418237882225135,0.5134510538652042,B,1083.5849590002908,Correct,8,5,small,big,False,Value,left,left,1129.1314169939142,Correct
8,22,303,A,60.36911150079885,71.87408651588902,3.0184555750399427,1.1289955109089709,A,738.4956669993699,Correct,8,7,small,big,False,Size,right,right,1252.1692919981433,Correct
8,22,304,A,68.63623238951305,82.18814830436463,3.4318116194756527,1.2910084146257015,A,847.3769999982323,Correct,4,8,big,small,False,Value,right,left,1687.0765829953598,Incorrect
8,22,305,B,61.222896488140634,34.5282448434016,3.0611448244070316,0.5423684017069006,B,690.5881670027156,Correct,5,2,small,big,False,Value,left,left,780.6653750012629,Correct
8,22,306,B,87.37754347066135,64.38916093904665,4.368877173533067,1.011422574884599,B,716.1486249970039,Correct,7,6,small,big,False,Size,right,right,559.7994589988957,Correct
8,22,307,A,57.00252634456753,75.79108857435857,2.8501263172283764,1.1905236353638908,A,762.1048750006594,Correct,4,3,big,small,True,Value,left,left,1272.172542005137,Correct
8,22,308,B,49.0824425693673,30.56904325572386,2.4541221284683647,0.48017740859725344,B,1238.0951659943094,Correct,6,5,small,big,False,Value,left,left,1365.4959159975988,Correct
8,22,309,A,44.58080261133971,64.8575927045633,2.2290401305669856,1.0187806838508753,A,737.931124996976,Correct,3,5,big,small,False,Value,right,right,910.8415420050733,Correct
8,22,310,A,39.2506713784317,48.005897142544164,1.9625335689215848,0.7540748689600199,A,822.5854999982403,Correct,7,8,big,small,False,Size,left,left,1350.4830839956412,Correct
8,22,311,A,31.94406344598163,54.991525598406206,1.5972031722990814,0.8638048641482399,A,1160.1444999978412,Correct,7,8,big,small,False,Value,right,right,740.3811670010327,Correct
8,22,312,B,77.8542622242225,58.53653528339766,3.892713111211125,0.9194897460646091,B,814.9792080002953,Correct,8,5,small,big,False,Size,right,right,690.1681669987738,Correct
