subject,day,trial,cat,x,y,xt,yt,resp,rt,fb
8,10,0,A,25.16151363789308,41.27030581588755,1.258075681894654,0.6482724478129822,A,3764.9904573336244,Correct
8,10,1,B,84.69757107680243,65.08522100414274,4.2348785538401215,1.0223562608194146,B,660.3089161217213,Correct
8,10,2,A,66.56357175214029,88.95854263548381,3.328178587607015,1.3973575200884516,A,679.295583628118,Correct
8,10,3,A,40.19968221511587,64.67118446089928,2.0099841107557936,1.0158525900065578,A,533.6912916973233,Correct
8,10,4,A,51.658962932902824,72.49560843319165,2.582948146645141,1.1387583543561859,B,4767.141041345894,Incorrect
8,10,5,A,60.589261732548884,71.70160102151063,3.029463086627444,1.126286115099021,B,2317.663248628378,Incorrect
8,10,6,B,63.31417524090863,47.06991650026134,3.1657087620454316,0.7393725194115301,B,834.8702909424901,Correct
8,10,7,B,37.19393390262588,20.969458055440864,1.8596966951312939,0.3293874768836616,B,845.9044583141804,Correct
8,10,8,B,55.73665384689913,48.340890661989725,2.7868326923449565,0.7593369348584718,B,1402.8995838016272,Correct
8,10,9,A,45.09220302998318,68.73076502956225,2.254610151499159,1.0796203324623952,A,1342.1080000698566,Correct
8,10,10,B,61.177222727414666,30.941699299922327,3.058861136370733,0.48603107605110213,B,1505.678958259523,Correct
8,10,11,B,47.75414026752715,35.29724130646851,2.387707013376357,0.5544477699019383,B,2294.094707816839,Correct
8,10,12,B,89.7341612116314,65.30166516570486,4.48670806058157,1.0257561577587944,B,811.1999165266752,Correct
8,10,13,A,44.07871225546957,60.8759881588899,2.203935612773478,0.9562377858999388,A,1114.3224174156785,Correct
8,10,14,B,67.34102621629954,55.198878759790524,3.3670513108149773,0.8670619599907579,B,2939.4878754392266,Correct
8,10,15,A,56.9862638421024,68.65065269072332,2.8493131921051202,1.0783619307866037,A,1044.2288322374225,Correct
8,10,16,B,57.25222120026075,39.009099383243296,2.8626110600130374,0.6127535002277563,B,911.2962912768126,Correct
8,10,17,A,50.768904670318,65.47379199426533,2.5384452335159,1.0284599196592508,A,3050.665957853198,Correct
8,10,18,B,70.73634726669822,58.498934350336306,3.5368173633349107,0.9188991119892407,B,3730.462832376361,Correct
8,10,19,A,55.01859146648075,65.44818429898261,2.7509295733240373,1.0280576749223729,A,1386.5601243451238,Correct
8,10,20,A,38.632113339413145,52.10657960822334,1.9316056669706572,0.8184882385044309,A,3226.729916408658,Correct
8,10,21,A,37.05730499259835,69.1383730124092,1.8528652496299174,1.0860230236846777,A,1174.178833141923,Correct
8,10,22,A,47.59535511191368,68.30778331941313,2.379767755595684,1.0729761512963585,A,1955.7185005396605,Correct
8,10,23,B,70.14431244741792,41.197519178114916,3.5072156223708957,0.6471291179804521,B,4051.7295403406024,Correct
8,10,24,A,53.28017898582983,63.907705892345454,2.6640089492914916,1.003859896695848,A,2432.3214581236243,Correct
8,10,25,B,51.528327028549484,23.151043318293485,2.5764163514274743,0.3636557380584494,B,1894.9456242844462,Correct
8,10,26,A,28.82558578230534,56.0004073483082,1.4412792891152668,0.8796523416174046,A,1272.512792609632,Correct
8,10,27,B,70.95725580346144,38.65904409206884,3.5478627901730717,0.6072548445722368,B,1110.219458118081,Correct
8,10,28,A,60.849423722398605,75.40721475992888,3.04247118611993,1.184493759587302,A,810.1690830662847,Correct
8,10,29,B,43.200588686554184,35.01697674914274,2.160029434327709,0.5500453845301572,B,1270.746666006744,Correct
8,10,30,B,69.65367327996428,60.67395439379046,3.482683663998214,0.9530642469388713,B,991.3664571940899,Correct
8,10,31,B,39.4772931822215,27.333131070306926,1.9738646591110751,0.4293478188504158,B,1437.6376662403345,Correct
8,10,32,B,80.99861785155024,64.42163461489181,4.049930892577512,1.0119326701919502,B,1360.0617907941341,Correct
8,10,33,B,75.05594770734943,50.263932170577675,3.752797385367472,0.7895440002381124,B,662.5812919810414,Correct
8,10,34,B,62.82230487674636,35.00633885063467,3.1411152438373175,0.5498782848111442,B,661.9151653721929,Correct
8,10,35,B,80.22049214175601,66.15818702407614,4.011024607087801,1.039210371648286,B,566.9956244528294,Correct
8,10,36,A,41.99120083352696,60.65805982262859,2.099560041676348,0.9528145755989008,A,1485.0331665948033,Correct
8,10,37,B,60.50509696935039,51.0573170043957,3.0252548484675197,0.8020064600650738,B,2895.524874329567,Correct
8,10,38,B,56.658411656342814,37.033637934536785,2.8329205828171404,0.5817230243542251,B,644.0025828778744,Correct
8,10,39,B,72.70086383104446,39.860604564622285,3.6350431915522226,0.6261289123393258,B,711.2381253391504,Correct
8,10,40,B,38.661316164763946,20.48348603205813,1.9330658082381973,0.32175384619111486,B,1634.6321254968643,Correct
8,10,41,A,26.964643625748884,52.31347371682385,1.3482321812874443,0.8217381235626827,A,800.9949158877134,Correct
8,10,42,A,44.875381223821066,74.51525182332298,2.2437690611910535,1.1704828385427248,A,869.2252086475492,Correct
8,10,43,A,40.67650541005344,49.20657551616339,2.033825270502672,0.7729350807494515,A,1175.9588737040758,Correct
8,10,44,A,23.30583034280953,42.404959425373434,1.1652915171404765,0.6660955450326322,A,1172.7576674893498,Correct
8,10,45,B,68.34247965744461,40.128190316289036,3.417123982872231,0.6303321394975336,B,865.4715409502387,Correct
8,10,46,B,67.40878075281388,44.56416893958759,3.370439037640694,0.7000123287697141,B,1097.0387076959014,Correct
8,10,47,B,52.97111468934599,29.397979511675324,2.6485557344672994,0.4617823823213123,B,1075.9851671755314,Correct
8,10,48,B,70.04636082422414,41.242769558180335,3.502318041211207,0.6478399092883805,B,660.346083343029,Correct
8,10,49,B,80.65968671017808,60.76374498719936,4.032984335508904,0.9544746742819458,B,1181.7570831626654,Correct
8,10,50,A,13.7850941357123,33.31880452550767,0.689254706785615,0.5233705576186463,A,798.2906252145767,Correct
8,10,51,B,60.93826417839391,49.03795667322866,3.0469132089196957,0.7702864221583486,B,960.0957911461592,Correct
8,10,52,B,44.012119692124294,35.947473968251764,2.2006059846062147,0.5646616006688503,B,746.3092915713787,Correct
8,10,53,A,46.93179808866945,63.00347204251617,2.3465899044334724,0.9896562245970936,A,1969.2324986681342,Correct
8,10,54,A,39.59043356416131,60.77025030983118,1.9795216782080656,0.9545768596508925,A,889.1348335891962,Correct
8,10,55,A,42.56412596505087,73.47664191187236,2.1282062982525436,1.1541683922039305,A,1558.105332776904,Correct
8,10,56,A,24.875582995580498,45.26558439677665,1.243779149779025,0.7110301370068115,A,610.0769154727459,Correct
8,10,57,A,27.509929578541616,51.88214386361436,1.375496478927081,0.814962810072098,A,577.9706658795476,Correct
8,10,58,A,58.69808167297521,83.56452676673013,2.9349040836487608,1.312628516955335,A,1568.3378335088491,Correct
8,10,59,A,42.3548379088697,52.20141337399473,2.117741895443485,0.8199778838137292,A,6433.153000660241,Correct
8,10,60,B,79.98731050754412,62.221469870866386,3.9993655253772062,0.9773725632093625,B,552.0311668515205,Correct
8,10,61,B,37.546252600058224,13.513121609712979,1.877312630002911,0.21226361788069886,B,650.9653739631176,Correct
8,10,62,B,64.90894288769499,36.89250063513353,3.2454471443847495,0.5795060448394614,B,667.3609986901283,Correct
8,10,63,B,50.28181337513449,41.86212274709942,2.5140906687567246,0.6575686864298085,B,626.13979075104,Correct
8,10,64,A,37.899798659885256,52.53523637411911,1.8949899329942628,0.8252215632376791,A,1129.328291863203,Correct
8,10,65,B,44.48051852955451,34.703577901460505,2.2240259264777253,0.545122526942547,B,883.7698744609952,Correct
8,10,66,A,53.597331074731215,61.336012105612895,2.6798665537365607,0.9634638251574404,A,2681.5312914550304,Correct
8,10,67,A,50.15347062021876,75.0627992682986,2.5076735310109384,1.1790836936958609,A,2012.700416147709,Correct
8,10,68,A,33.896074126246724,49.444095077322395,1.6948037063123362,0.7766660292915565,A,1801.8852910026908,Correct
8,10,69,A,30.884242853072934,51.02723888275989,1.5442121426536466,0.8015339940352495,A,1595.3057082369924,Correct
8,10,70,A,37.26141503558061,47.01414667745367,1.8630707517790308,0.7384964890834071,A,1194.0318755805492,Correct
8,10,71,B,57.680419105947344,31.32393137494744,2.884020955297367,0.4920351634454286,B,833.7027914822102,Correct
8,10,72,B,43.44407059640555,24.63166834609531,2.1722035298202775,0.38691334160876634,B,978.74974925071,Correct
8,10,73,B,66.12705241950138,39.891600817500105,3.3063526209750695,0.6266158003409746,B,1363.9348335564137,Correct
8,10,74,B,39.138526231385555,18.876220518534144,1.9569263115692777,0.2965069785428389,B,647.8367503732443,Correct
8,10,75,B,70.16319845544483,38.59623513429265,3.5081599227722418,0.6062682437705902,B,592.725875787437,Correct
8,10,76,A,20.74745457104364,33.494316870387934,1.037372728552182,0.526127499085097,A,939.2049154266715,Correct
8,10,77,B,85.31258708861253,64.33971815628156,4.265629354430627,1.0106459294690597,B,998.2634577900171,Correct
8,10,78,B,78.96875788102125,52.09668309979839,3.9484378940510623,0.8183327845136107,B,850.094374269247,Correct
8,10,79,A,50.529381674929674,73.85881347766349,2.5264690837464836,1.1601715291214323,A,874.2047501727939,Correct
8,10,80,A,40.38715115832902,60.18653095325598,2.0193575579164507,0.9454078174390182,A,942.1432502567768,Correct
8,10,81,B,61.183288882773766,28.31719107007437,3.059164444138688,0.4448053971802206,B,874.1022488102317,Correct
8,10,82,B,38.69009266014945,16.03793558157967,1.9345046330074727,0.2519233030091852,B,894.0007081255317,Correct
8,10,83,A,60.958784604619936,88.035290729407,3.047939230230997,1.3828551130607332,A,1862.1569154784083,Correct
8,10,84,A,35.29370314966264,50.84014149489166,1.764685157483132,0.7985950751390861,A,2453.5622904077172,Correct
8,10,85,A,47.8426125580189,62.74525598153123,2.3921306279009453,0.9856001761959476,A,993.3014996349812,Correct
8,10,86,A,59.001242378116785,79.83959194109576,2.9500621189058394,1.2541173775387666,A,1187.3305402696133,Correct
8,10,87,B,68.60096497751178,43.44149902976575,3.4300482488755892,0.6823774710642011,B,995.175875723362,Correct
8,10,88,A,39.616485508747665,49.1701189208745,1.9808242754373833,0.7723624218897792,A,2270.2874168753624,Correct
8,10,89,B,31.812861960451205,14.739249743602969,1.59064309802256,0.23152359356964164,B,720.6835830584168,Correct
8,10,90,A,26.11019667615669,55.82599423134525,1.3055098338078346,0.8769126667827021,A,717.9299164563417,Correct
8,10,91,B,61.4991581353697,37.204974021402705,3.074957906768485,0.5844143653131892,B,1023.043374530971,Correct
8,10,92,B,79.27812165128758,65.92902484817814,3.9639060825643786,1.0356107006068769,B,670.4559586942196,Correct
8,10,93,B,36.68884276796237,17.12826090052271,1.8344421383981184,0.26905009306925726,B,672.279248945415,Correct
8,10,94,A,51.27287384147695,65.53560886948227,2.5636436920738475,1.029430936864498,A,2078.6636658012867,Correct
8,10,95,B,60.86926949437269,53.53310995973089,3.0434634747186347,0.8408961248665258,B,2333.7854156270623,Correct
8,10,96,B,68.27501844184061,40.3705131556845,3.413750922092031,0.6341385377577425,B,769.3252079188824,Correct
8,10,97,A,45.94592830028374,71.48314347762273,2.2972964150141872,1.1228545920240236,A,727.373749949038,Correct
8,10,98,B,76.71913780874317,51.993772384228,3.8359568904371586,0.8167162667735528,B,1125.8969586342573,Correct
8,10,99,A,44.823100821897725,61.9505880576522,2.241155041094886,0.9731175616374385,A,1790.1417491957545,Correct
8,10,100,B,48.7650994117669,34.92854871700495,2.438254970588345,0.5486563602494796,B,2649.06866569072,Correct
8,10,101,A,26.328876548745423,56.23815508928041,1.3164438274372712,0.8833868743996338,A,1516.4357498288155,Correct
8,10,102,A,25.20183562167859,50.44725461782214,1.2600917810839294,0.7924236225056189,A,1153.4652914851904,Correct
8,10,103,B,58.61434472257412,36.269681800273254,2.930717236128706,0.5697228294588894,B,770.2075829729438,Correct
8,10,104,B,70.94287430407746,40.697650911562846,3.547143715203873,0.6392772056106389,B,1812.7775406464934,Correct
8,10,105,B,69.5655156953255,58.98955858557424,3.4782757847662755,0.9266058194547236,B,3082.678457722068,Correct
8,10,106,A,40.23924051944658,64.40907871169297,2.011962025972329,1.0117354425257068,A,624.1039577871561,Correct
8,10,107,B,81.0840855715197,52.37998432362453,4.054204278575985,0.8227828697312367,B,1223.2266245409846,Correct
8,10,108,A,33.33907828876705,41.741474051031595,1.6669539144383523,0.6556735411436493,A,1474.278500303626,Correct
8,10,109,B,32.6624691591724,18.8044305545426,1.6331234579586202,0.2953793044254524,B,3673.20504039526,Correct
8,10,110,A,46.002367631771335,58.97452359777223,2.300118381588567,0.9263696504185956,A,1129.9122916534543,Correct
8,10,111,B,68.00755498582225,44.09609396764234,3.4003777492911125,0.6926598243037518,B,654.9289170652628,Correct
8,10,112,A,20.57566040591899,52.404044255437526,1.0287830202959496,0.8231608022563848,A,875.6051659584045,Correct
8,10,113,B,72.57853692221609,56.715583985453165,3.6289268461108044,0.8908863099637729,B,683.606332167983,Correct
8,10,114,A,32.638231527943645,43.65851895981835,1.6319115763971823,0.6857864121538801,A,1285.578541457653,Correct
8,10,115,A,61.18352696511488,75.71472870414448,3.059176348255744,1.1893241773274226,A,1060.9742915257812,Correct
8,10,116,B,78.44304314907878,48.03754155350467,3.922152157453939,0.7545719382050233,B,652.7242502197623,Correct
8,10,117,A,30.108284329744187,48.8214856824955,1.5054142164872093,0.7668861037873356,A,960.2162493392825,Correct
8,10,118,A,47.87296862232534,68.90772771883803,2.393648431116267,1.0824000558853366,A,1112.0261661708355,Correct
8,10,119,A,41.14115588051426,66.90582857174144,2.057057794025713,1.0509542976166049,A,879.7360835596919,Correct
8,10,120,A,65.16971662857213,83.67066751438122,3.2584858314286067,1.314295771920671,A,906.5402904525399,Correct
8,10,121,A,52.46703777606131,80.29581207628001,2.6233518888030654,1.2612836666643394,A,1058.5713321343064,Correct
8,10,122,B,47.97156330800424,18.803218403102463,2.3985781654002123,0.2953602639951555,B,837.1527083218098,Correct
8,10,123,A,30.971163031306652,45.8374526338263,1.5485581515653326,0.7200130222684942,A,885.7575003057718,Correct
8,10,124,B,83.98607959127813,57.44722438212841,4.199303979563906,0.9023788904400951,B,652.7488334104419,Correct
8,10,125,A,17.336416004474827,46.460413656928864,0.8668208002237414,0.729798471136753,A,1911.7530826479197,Correct
8,10,126,A,43.2848136202802,70.48147060088574,2.16424068101401,1.107120351269738,A,1865.9257907420397,Correct
8,10,127,A,48.92597529899868,56.480161209886205,2.446298764949934,0.8871882976527286,A,1055.1597075536847,Correct
8,10,128,A,54.169755384278666,63.8694209573973,2.7084877692139333,1.0032585183439668,A,1015.2405826374888,Correct
8,10,129,B,66.03595919212067,36.82281790403562,3.301797959606034,0.5784114710589651,B,2511.7231672629714,Correct
8,10,130,A,40.43043912796234,58.054482481286826,2.0215219563981166,0.9119176783558401,A,2385.72833314538,Correct
8,10,131,B,63.691485919213804,47.05090525597969,3.18457429596069,0.739073891484676,B,1210.62545850873,Correct
8,10,132,A,12.690647514280776,39.88125225899633,0.6345323757140389,0.6264532455641211,A,1086.6550831124187,Correct
8,10,133,B,46.417213378894644,23.575117690688582,2.320860668944732,0.37031708272291014,B,1551.4501677826047,Correct
8,10,134,A,68.53252126081873,84.65712149979643,3.426626063040936,1.329790954889095,A,1592.701124958694,Correct
8,10,135,B,74.27764840866138,47.49718909636708,3.7138824204330687,0.7460841016565601,B,1289.1067489981651,Correct
8,10,136,B,46.556158927932955,18.505545235615692,2.3278079463966477,0.29068442481441925,B,2944.201667793095,Correct
8,10,137,A,12.259974411065954,37.014110853960915,0.6129987205532977,0.5814162936898092,A,2393.931000493467,Correct
8,10,138,A,31.66072981731516,40.46774175255149,1.583036490865758,0.6356658009859236,A,4422.304875217378,Correct
8,10,139,A,33.27101271928572,55.68424752802321,1.663550635964286,0.8746861147735665,A,4936.73412501812,Correct
8,10,140,A,40.97715455290352,50.82070470025464,2.048857727645176,0.7982897626828811,B,3156.7480005323887,Incorrect
8,10,141,B,56.77924586624892,49.97984044697275,2.8389622933124463,0.7850814978789981,B,1105.6628748774529,Correct
8,10,142,A,54.646179188623435,63.14754669742104,2.7323089594311716,0.9919193439841817,A,1974.089166149497,Correct
8,10,143,B,86.56007323156851,60.90136912948405,4.328003661578425,0.9566364692537365,B,1031.3341673463583,Correct
8,10,144,A,52.558587321569895,73.22634022227616,2.6279293660784946,1.150236662457848,A,1976.607165299356,Correct
8,10,145,A,32.66944746130889,65.6850959533357,1.6334723730654446,1.0317790744867006,A,3718.4994984418154,Correct
8,10,146,B,75.92513694513084,49.51285787753608,3.796256847256542,0.7777461528315142,B,2733.0215834081173,Correct
8,10,147,A,14.392074242244398,33.507200625731556,0.71960371211222,0.5263298766407879,A,2872.921290807426,Correct
8,10,148,A,57.00856808339961,81.38662818830879,2.8504284041699806,1.2784181660841745,A,1577.6186659932137,Correct
8,10,149,A,38.67820096278164,55.928545639153,1.9339100481390818,0.8785235405296226,A,2079.392082989216,Correct
8,10,150,A,39.56754618821716,68.99211362339165,1.9783773094108579,1.0837255865743973,A,1705.5531246587634,Correct
8,10,151,A,39.21413799342959,49.205839205438416,1.9607068996714794,0.7729235148076298,A,3358.59845764935,Correct
8,10,152,B,53.46180323745351,29.872870492959642,2.6730901618726755,0.4692419524116066,B,3227.900750003755,Correct
8,10,153,B,87.4767029465511,67.06139396151218,4.373835147327555,1.0533979130448878,B,5454.269499517977,Correct
8,10,154,B,45.422885680461604,29.850789497747552,2.27114428402308,0.4688951049498954,B,3973.067667335272,Correct
8,10,155,A,44.60236509211907,61.17164597852977,2.2301182546059537,0.9608819680707236,A,1999.6382910758257,Correct
8,10,156,B,75.35478746040758,47.214576411163854,3.7677393730203788,0.7416448319783315,B,1029.1858753189445,Correct
8,10,157,A,19.10810403754892,39.85942388066268,0.9554052018774459,0.6261103661990574,A,1303.6351660266519,Correct
8,10,158,B,51.121030895677464,34.72688776329981,2.556051544783873,0.5454886773960997,B,1438.629625365138,Correct
8,10,159,B,78.28594717398326,58.45090824505582,3.9142973586991627,0.9181447196915921,B,789.9981252849102,Correct
8,10,160,B,36.39059053091698,24.050707032694227,1.819529526545849,0.3777876226377629,B,658.3404159173369,Correct
8,10,161,B,42.37987121198355,32.08136635130362,2.1189935605991774,0.5039329242318912,B,751.3917498290539,Correct
8,10,162,A,27.23143355951442,38.769980332069835,1.361571677975721,0.6089974269552568,A,1496.074166148901,Correct
8,10,163,B,80.25928054476833,58.467730523989076,4.012964027238416,0.918408963431159,B,2237.0325829833746,Correct
8,10,164,A,35.486308750301184,59.18206843335659,1.7743154375150594,0.9296297570724072,A,2487.2135827317834,Correct
8,10,165,A,16.94560184457504,32.45739436107879,0.847280092228752,0.5098395583971596,A,1036.5591254085302,Correct
8,10,166,B,48.10977063802294,17.91924981116253,2.405488531901147,0.2814749178229425,B,906.0169579461217,Correct
8,10,167,A,30.378203347889418,55.67058227629076,1.5189101673944707,0.8744714615013061,A,3279.974083416164,Correct
8,10,168,B,54.37127675269253,32.98151892013391,2.7185638376346266,0.5180724877186272,B,792.2144159674644,Correct
8,10,169,A,49.727479454861594,78.05754536829224,2.48637397274308,1.2261250554313943,A,707.6598750427365,Correct
8,10,170,A,12.815674885017554,31.234163216328607,0.6407837442508777,0.4906250885072124,A,1361.756082624197,Correct
8,10,171,B,67.76963192450054,34.65013174208023,3.3884815962250276,0.5442829966341888,B,973.6628327518702,Correct
8,10,172,A,39.635687384059075,62.208238080584614,1.9817843692029538,0.9771647187336473,A,724.6891651302576,Correct
8,10,173,A,43.982974883866035,57.54427287801267,2.1991487441933018,0.9039033246486551,A,1308.6602911353111,Correct
8,10,174,A,55.7946999752721,73.8552267141668,2.789734998763605,1.1601151883721754,A,863.8211656361818,Correct
8,10,175,B,44.01911496633556,29.32729213111827,2.200955748316778,0.4606720275440145,B,836.1571673303843,Correct
8,10,176,B,48.51771324784765,29.767370094775142,2.425885662392383,0.4675847560321705,B,1180.2951665595174,Correct
8,10,177,B,35.42387186814299,17.514056383249528,1.7711935934071494,0.2751101543408707,B,959.8426660522819,Correct
8,10,178,B,70.33355555137166,53.39404304139989,3.516677777568583,0.8387116668215956,B,1930.3705831989646,Correct
8,10,179,A,38.21102849650641,54.00710514741295,1.9105514248253204,0.8483416238638201,A,709.3479176983237,Correct
8,10,180,A,34.757058422864404,66.02015868496397,1.7378529211432203,1.037042227567576,A,760.2769155055285,Correct
8,10,181,A,31.647377427083555,56.47290187031313,1.5823688713541777,0.8870742682133651,A,753.6520417779684,Correct
8,10,182,A,47.54283036464073,62.46824279879839,2.3771415182320363,0.9812488632968426,A,708.6733747273684,Correct
8,10,183,A,51.86325923372763,69.90422117001188,2.593162961686381,1.098052938413127,A,1767.4729162827134,Correct
8,10,184,A,47.36077487279266,71.1704710778178,2.368038743639633,1.117943145452986,A,799.3356250226498,Correct
8,10,185,A,38.01073386489008,60.43711612120854,1.900536693244504,0.94934400005271,A,1805.1196653395891,Correct
8,10,186,A,22.270692240763832,52.981782956684924,1.1135346120381917,0.8322359005540514,A,1467.917874455452,Correct
8,10,187,B,51.124366096423344,38.988331980495225,2.556218304821167,0.612427286628219,B,1021.56304102391,Correct
8,10,188,A,56.98948871133417,68.1058707555228,2.8494744355667088,1.0698045161594318,B,1256.451957859099,Incorrect
8,10,189,B,83.0714007255016,62.35172978116603,4.15357003627508,0.9794186810956357,B,808.4519580006599,Correct
8,10,190,B,60.41245544371096,52.49295176066215,3.0206227721855483,0.8245573580826981,B,1743.3309582993388,Correct
8,10,191,B,86.04431994303312,58.64100494065043,4.302215997151656,0.9211307516033507,B,597.4600417539477,Correct
8,10,192,A,31.05920964458477,52.67560413669173,1.5529604822292384,0.8274264548961744,A,1188.6865412816405,Correct
8,10,193,B,58.45920974277769,36.16230695357015,2.9229604871388846,0.5680361893109754,B,578.0020831152797,Correct
8,10,194,B,47.47095067949341,29.942766046059724,2.3735475339746706,0.47033986919229565,B,625.0880407169461,Correct
8,10,195,A,25.02409710098844,39.51786310693583,1.251204855049422,0.6207451421115835,A,861.9071673601866,Correct
8,10,196,B,71.47246416943375,39.5991656703897,3.5736232084716875,0.6220222397919071,B,770.7770830020308,Correct
8,10,197,B,80.87646636683206,55.694470112106316,4.0438233183416035,0.8748466907488476,B,1521.0621654987335,Correct
8,10,198,B,74.89927261029734,49.106446785183465,3.744963630514867,0.7713622623211523,B,638.3758746087551,Correct
8,10,199,B,51.329921753700056,21.295040916717507,2.5664960876850027,0.33450172050926885,B,671.508957631886,Correct
8,10,200,B,77.12264504514505,59.49693337152911,3.8561322522572525,0.9345756439555862,B,602.2711656987667,Correct
8,10,201,A,15.161063866208522,44.6505511287,0.7580531933104261,0.7013692170232969,A,752.2365413606167,Correct
8,10,202,A,53.280752462930934,76.21935264465634,2.664037623146547,1.1972507916491106,A,708.3492502570152,Correct
8,10,203,B,30.530433184061078,12.149060392325445,1.5265216592030537,0.1908369943827418,B,709.4052918255329,Correct
8,10,204,B,71.92703005998081,61.76239554757852,3.59635150299904,0.970161440601898,B,853.4608324989676,Correct
8,10,205,A,26.406124765315447,57.816953694209566,1.3203062382657722,0.90818658489335,A,715.0962082669139,Correct
8,10,206,A,60.506155055267286,84.49182935784307,3.0253077527633643,1.3271945519948112,A,832.2824165225029,Correct
8,10,207,B,67.71572997742845,36.74319814129752,3.385786498871423,0.5771608067504721,B,581.3089581206441,Correct
8,10,208,B,78.87452641781675,50.247274274198006,3.9437263208908377,0.7892823386136594,B,1067.455624230206,Correct
8,10,209,B,40.1926493944562,22.79628604003023,2.00963246972281,0.35808322376245255,B,823.8012073561549,Correct
8,10,210,B,85.60206157210425,59.39149953979047,4.2801030786052126,0.9329194931994367,B,1852.1103747189045,Correct
8,10,211,A,24.016939155230215,39.45318879157368,1.2008469577615108,0.6197292403414951,A,1460.3932909667492,Correct
8,10,212,A,39.326538967221666,57.60115117641451,1.9663269483610832,0.9047967668706945,A,1534.5849581062794,Correct
8,10,213,B,33.43882739174698,20.32408989755185,1.6719413695873493,0.3192500575652371,B,2453.922124579549,Correct
8,10,214,A,50.55742175090763,80.99943569523103,2.5278710875453814,1.2723361606252832,A,784.3334171921015,Correct
8,10,215,A,27.308608931962127,52.08443859785903,1.3654304465981062,0.8181404483269129,A,831.4964175224304,Correct
8,10,216,B,61.313874165598754,31.990885214823457,3.065693708279938,0.5025116498636185,B,1409.2941246926785,Correct
8,10,217,A,43.53337479008268,72.06464710361946,2.176668739504134,1.1319888296213594,A,651.0390406474471,Correct
8,10,218,B,64.96049868084317,57.05583427765936,3.2480249340421583,0.8962309490556567,B,1460.5820830911398,Correct
8,10,219,A,34.60033445568711,58.49176308781729,1.7300167227843557,0.9187864660610071,A,685.096750035882,Correct
8,10,220,A,23.936932636878975,52.21396721557499,1.1968466318439488,0.8201750790961435,A,741.4057077839971,Correct
8,10,221,A,52.31097588123834,74.77888459402168,2.615548794061917,1.1746239724210872,A,989.3986657261848,Correct
8,10,222,B,52.65027724976359,44.68335862194857,2.6325138624881794,0.7018845559221589,B,794.4503333419561,Correct
8,10,223,B,46.45726510226261,20.49234760184508,2.3228632551131305,0.32189304340382463,B,1656.7862909287214,Correct
8,10,224,B,57.43319450266979,45.80446606766499,2.8716597251334894,0.7194948704988965,B,1522.5460408255458,Correct
8,10,225,A,53.83807330175431,74.12868464297436,2.6919036650877155,1.1644106554732139,A,759.9598336964846,Correct
8,10,226,B,33.61785404147383,21.25586712125931,1.6808927020736915,0.3338863799691454,B,835.0700829178095,Correct
8,10,227,A,34.66203234419924,60.97430975590881,1.733101617209962,0.9577822179343578,A,1142.728416249156,Correct
8,10,228,A,59.56296662213158,78.15987904122412,2.978148331106579,1.2277325090068827,A,1672.4291667342186,Correct
8,10,229,A,42.939733124974495,72.29791741292405,2.1469866562487248,1.135653031071419,A,797.9361675679684,Correct
8,10,230,A,34.26045875754353,43.311483224350546,1.7130229378771764,0.6803351875684862,B,939.5295409485698,Incorrect
8,10,231,A,43.51771814195132,64.74737164452587,2.175885907097566,1.0170493354884527,A,1142.718249000609,Correct
8,10,232,A,23.33487804163656,48.281576214322556,1.166743902081828,0.7584052256932572,A,958.6686240509152,Correct
8,10,233,B,48.95686747712735,31.75080808132177,2.447843373856368,0.4987405270690996,B,1807.9424584284425,Correct
8,10,234,B,55.1066671996762,24.653989695412044,2.75533335998381,0.3872639645439247,B,1018.6227075755596,Correct
8,10,235,A,21.058883215807594,53.06835621462848,1.0529441607903798,0.8335957901098154,A,563.3032498881221,Correct
8,10,236,A,28.77519170158663,61.44382841519496,1.4387595850793315,0.9651573997880412,A,695.565041154623,Correct
8,10,237,B,51.26903011839097,37.23278714864922,2.5634515059195486,0.5848512528943443,B,2872.287250123918,Correct
8,10,238,A,42.087343242437996,51.11136599329586,2.1043671621219,0.8028554595973872,A,1070.205457508564,Correct
8,10,239,B,60.91437932922705,29.721969692287217,3.0457189664613527,0.46687160817754003,B,924.1751236841083,Correct
8,10,240,B,33.7435429781733,14.695656350022762,1.687177148908665,0.23083883014455853,B,773.8716248422861,Correct
8,10,241,A,45.419651917833086,54.524812877101674,2.2709825958916543,0.8564737578653038,A,821.2109999731183,Correct
8,10,242,B,78.46549494704136,49.97538224778044,3.923274747352068,0.7850114686498438,B,1091.6211241856217,Correct
8,10,243,B,50.548095090858155,40.67116222186158,2.527404754542908,0.6388611222457954,B,852.4641245603561,Correct
8,10,244,A,24.801116381550845,52.57479465288259,1.2400558190775421,0.8258429432274395,A,1452.9987908899784,Correct
8,10,245,A,35.76417015138317,54.238800202262595,1.7882085075691583,0.8519810812747638,A,1229.1273325681686,Correct
8,10,246,B,40.840615709411104,18.668582140440737,2.0420307854705553,0.2932454025267312,B,2185.7496658340096,Correct
8,10,247,B,68.09378492810004,43.080186287776264,3.4046892464050016,0.6767019837847883,B,1701.2975411489606,Correct
8,10,248,B,74.86168255669196,58.823211716570654,3.743084127834598,0.9239928489466771,B,898.3800411224365,Correct
8,10,249,B,78.91504249082895,49.61437536393085,3.945752124541448,0.7793407857788578,B,744.8434997349977,Correct
8,10,250,A,55.1270868428801,66.64909716365979,2.756354342144005,1.0469215700887295,A,608.3867084234953,Correct
8,10,251,B,80.36748201690229,49.511592759691226,4.018374100845114,0.7777262804068777,B,955.1161238923669,Correct
8,10,252,A,27.1760935105398,52.870497552438714,1.35880467552699,0.830487833511893,A,840.8772507682443,Correct
8,10,253,B,38.01770154866392,19.66603931857319,1.900885077433196,0.3089134232421878,B,871.7961255460978,Correct
8,10,254,B,68.19213505346143,48.890327007736715,3.409606752673071,0.7679674607955417,B,862.403248436749,Correct
8,10,255,B,42.522237894237435,16.998492074044744,2.1261118947118716,0.2670116891096165,B,735.2105425670743,Correct
8,10,256,A,41.010528189230826,69.5919154172938,2.050526409461541,1.0931472511210625,A,825.9546663612127,Correct
8,10,257,B,64.12372061101405,40.54888411909325,3.2061860305507026,0.6369403822990359,B,744.9314994737506,Correct
8,10,258,A,46.06720531532932,66.97523424728747,2.303360265766466,1.0520445194186694,A,1134.3783335760236,Correct
8,10,259,A,33.12651664853258,59.7248677521077,1.6563258324266288,0.9381560288332176,A,861.6533745080233,Correct
8,10,260,B,46.56161501315597,38.38312859598047,2.3280807506577985,0.6029207740946229,B,2841.9906655326486,Correct
8,10,261,A,29.51185081849734,61.291918197461975,1.475592540924867,0.9627711996678654,A,1255.4723732173443,Correct
8,10,262,B,73.71617156506426,52.63366058108856,3.685808578253213,0.8267676070654326,B,772.4205832928419,Correct
8,10,263,B,70.26763870755407,48.758478831132535,3.513381935377703,0.765896394480497,B,2597.830291837454,Correct
8,10,264,A,15.843787547172049,30.631295609686607,0.7921893773586024,0.48115526628664357,A,1430.529915727675,Correct
8,10,265,A,28.62439941414174,45.02791946708062,1.4312199707070872,0.7072969050210667,A,796.1659580469131,Correct
8,10,266,A,36.215248509687946,46.982925612556684,1.8107624254843973,0.738006069742819,A,1439.9834582582116,Correct
8,10,267,B,88.42766535535283,68.9633892173807,4.4213832677676415,1.0832743846598838,B,661.4649575203657,Correct
8,10,268,B,38.282157675111556,23.7312307763674,1.9141078837555778,0.37276930133839914,B,698.876166716218,Correct
8,10,269,B,61.82136024905694,46.4907938348314,3.091068012452847,0.7302756818553198,B,704.9467079341412,Correct
8,10,270,A,33.97644382446824,52.78584132241901,1.698822191223412,0.8291580565603405,A,928.5319577902555,Correct
8,10,271,B,56.61867881220887,35.584905880610634,2.8309339406104437,0.558966394466053,B,659.6794575452805,Correct
8,10,272,A,36.25950157433264,68.39954025345239,1.8129750787166319,1.0744174658458265,A,828.0573328956962,Correct
8,10,273,B,61.76408545291467,41.589015497409804,3.0882042726457337,0.6532787277834735,B,889.4355418160558,Correct
8,10,274,A,33.62422169315565,52.74864093958626,1.6812110846577824,0.82857371431325,A,816.8289987370372,Correct
8,10,275,A,33.32392258609661,66.29827869808523,1.6661961293048304,1.041410926517766,A,1025.2568749710917,Correct
8,10,276,B,62.22471998607659,40.839967510947304,3.1112359993038297,0.6415127095261893,B,804.2649580165744,Correct
8,10,277,B,48.54366546292089,37.58682522145932,2.4271832731460448,0.5904124699375007,B,2607.746041379869,Correct
8,10,278,B,44.442668103485154,30.255141590807536,2.2221334051742576,0.4752466527749997,B,874.6257489547133,Correct
8,10,279,B,48.410090263557436,31.940371954463526,2.420504513177872,0.5017181894253404,B,659.7082074731588,Correct
8,10,280,B,46.885362299319056,28.54039364235065,2.3442681149659528,0.44831145498684827,B,797.7429991587996,Correct
8,10,281,B,73.23851705916532,53.26454848514232,3.661925852958266,0.8366775710885023,B,808.5749167948961,Correct
8,10,282,A,61.196881102289574,82.0626395108397,3.0598440551144783,1.2890369271072075,A,1161.4838754758239,Correct
8,10,283,A,48.08272598221174,70.82173138213865,2.4041362991105872,1.1124651551231823,A,669.19962503016,Correct
8,10,284,A,65.42997033754125,85.8880093122035,3.2714985168770623,1.349125695433351,A,1098.78845885396,Correct
8,10,285,A,62.40019270398401,74.84179916255023,3.1200096351992004,1.1756122321525526,A,713.6774575337768,Correct
8,10,286,A,41.44449149276942,49.94004947069877,2.0722245746384713,0.7844564626852905,A,1109.3998737633228,Correct
8,10,287,B,57.13518938061016,42.3328639800189,2.8567594690305076,0.6649630724252168,B,856.2203329056501,Correct
8,10,288,B,69.84898695603457,49.040266301517654,3.492449347801728,0.7703227017146749,B,628.5117072984576,Correct
8,10,289,A,55.88681718088114,84.9022411742415,2.7943408590440573,1.3336412857315296,A,769.9989154934883,Correct
8,10,290,B,48.939058723491506,19.4967021040587,2.446952936174575,0.3062534804966973,B,896.2146658450365,Correct
8,10,291,B,59.55144656469152,52.094654674649306,2.977572328234576,0.8183009220858772,A,1789.8931661620736,Incorrect
8,10,292,B,77.96342568599869,59.52552171440786,3.8981712842999343,0.9350247085954172,B,784.5816249027848,Correct
8,10,293,A,61.060062031773455,76.29931465674454,3.0530031015886725,1.1985068319978234,A,2014.626832678914,Correct
8,10,294,A,51.71599097344568,68.76097965528889,2.585799548672284,1.080094942693464,A,1104.1308753192425,Correct
8,10,295,A,48.32634792207136,76.4526829943414,2.416317396103568,1.2009159362112614,A,1724.442291073501,Correct
8,10,296,B,60.96550135640023,41.49638589084192,3.0482750678200112,0.6518237053259806,B,759.4744581729174,Correct
8,10,297,B,72.31361191516615,61.92967442337356,3.6156805957583074,0.9727890510383904,B,1169.9683330953121,Correct
8,10,298,A,39.682910221332676,65.28748229073791,1.984145511066634,1.0255333736797796,A,754.4487491250038,Correct
8,10,299,B,76.90201310782592,55.84708219251533,3.8451006553912963,0.8772439157021575,B,792.7080411463976,Correct
