subject,day,trial,cat,x,y,xt,yt,resp,rt,fb
8,12,0,A,50.91273956457132,65.93192314872798,2.545636978228566,1.035656227005453,A,1767.9081233218312,Correct
8,12,1,A,56.8163308000439,66.67864421408812,2.8408165400021947,1.047385694071534,A,1350.351458415389,Correct
8,12,2,B,46.70900602141443,19.750233145438173,2.3354503010707215,0.310235936781971,B,805.3695000708103,Correct
8,12,3,A,68.18502600730383,87.35861238532873,3.409251300365191,1.3722258744877351,A,789.2545405775309,Correct
8,12,4,B,63.605419509730595,42.135869357822635,3.18027097548653,0.6618686881357743,B,824.2814987897873,Correct
8,12,5,B,72.34614518614086,61.400907519077386,3.6173072593070428,0.9644831999283989,B,829.9662079662085,Correct
8,12,6,B,46.940115912228734,31.52096436986439,2.347005795611437,0.4951301504921579,B,1332.7139997854829,Correct
8,12,7,A,34.01365844448344,52.36898648901259,1.700682922224172,0.8226101161491255,A,851.6638744622469,Correct
8,12,8,B,71.07054091802861,43.020176582583,3.5535270459014305,0.6757593535398919,B,901.7504993826151,Correct
8,12,9,B,35.44943919963197,16.249065888234927,1.7724719599815983,0.2552397301108768,B,834.3101656064391,Correct
8,12,10,A,38.048059050849055,55.68331684278377,1.9024029525424526,0.8746714956040115,A,1238.3292904123664,Correct
8,12,11,B,42.331747092014595,30.388506846962116,2.11658735460073,0.47734154931989653,B,1454.6184986829758,Correct
8,12,12,B,66.51363570093334,34.56787857384762,3.3256817850466667,0.5429909668889185,B,653.0581656843424,Correct
8,12,13,A,35.497811769942686,50.3603342575941,1.7748905884971344,0.7910582806799201,A,729.3648328632116,Correct
8,12,14,B,81.10046021332909,60.67868146338539,4.055023010666455,0.9531384995744334,B,812.5395001843572,Correct
8,12,15,B,63.45188148177919,43.52302502689595,3.172594074088959,0.683658078432505,B,1860.2373329922557,Correct
8,12,16,B,50.388136583942455,33.12714813362849,2.519406829197123,0.5203600260549405,B,680.0652500241995,Correct
8,12,17,B,73.48984292337319,43.451417290586,3.6744921461686597,0.6825332667408474,B,1407.2475405409932,Correct
8,12,18,B,50.410983636633276,20.909509312899036,2.5205491818316634,0.32844580423785485,B,842.2349169850349,Correct
8,12,19,A,13.751389757773715,38.6527006919186,0.6875694878886859,0.6071552026756829,A,646.6487077996135,Correct
8,12,20,A,24.82592934354735,55.4381257992618,1.2412964671773676,0.8708200436987381,A,715.8732078969479,Correct
8,12,21,B,62.341397509130616,32.79707167127559,3.1170698754565307,0.5151751971086865,B,802.6958331465721,Correct
8,12,22,A,32.34937401955895,57.65910528921966,1.6174687009779476,0.9057071079458642,A,906.1769163236022,Correct
8,12,23,B,66.82466231585401,38.74601845119269,3.3412331157927007,0.6086210346106077,B,708.2775821909308,Correct
8,12,24,B,53.1914649665858,46.20280610868009,2.6595732483292895,0.725751981231315,B,676.0385828092694,Correct
8,12,25,B,75.92930057851423,48.051440209361175,3.7964650289257116,0.7547902577806913,B,1302.6424571871758,Correct
8,12,26,B,80.95544224385075,51.72082573049371,4.047772112192538,0.8124288307625848,B,760.0366668775678,Correct
8,12,27,A,62.586690977235804,79.14750113926786,3.12933454886179,1.2432460406455685,A,888.3262081071734,Correct
8,12,28,A,44.45280291872153,62.185700547285364,2.2226401459360767,0.9768106999884324,A,1005.6176669895649,Correct
8,12,29,A,27.874829677274036,41.529042581863166,1.3937414838637017,0.6523366754289951,A,933.7067501619458,Correct
8,12,30,A,51.08588625103242,70.87843961046117,2.554294312551621,1.1133559258906631,A,783.8201252743602,Correct
8,12,31,A,35.32366874029974,52.37562353978232,1.766183437014987,0.8227143706988239,A,837.4163741245866,Correct
8,12,32,B,76.00969280710432,52.069436376572355,3.800484640355216,0.8179047939860041,B,626.3247914612293,Correct
8,12,33,B,47.092247779560466,30.592768997227488,2.3546123889780235,0.4805500916732974,B,816.2509584799409,Correct
8,12,34,A,46.397165957419844,53.64316536380892,2.3198582978709923,0.8426248711112228,B,710.1546656340361,Incorrect
8,12,35,B,85.70514531929331,69.63708145005008,4.285257265964665,1.0938567175045568,B,824.4999581947923,Correct
8,12,36,B,48.5795235395581,21.039301967597495,2.4289761769779052,0.3304845824903079,B,933.7527500465512,Correct
8,12,37,A,21.3181800078431,33.71333627971521,1.065909000392155,0.5295678479217777,A,632.7323326840997,Correct
8,12,38,A,56.68501547485139,80.68951232177925,2.8342507737425695,1.267467895659224,A,1028.5640833899379,Correct
8,12,39,B,75.26983812540362,53.43675131517038,3.7634919062701813,0.8393825268172199,B,557.5739154592156,Correct
8,12,40,A,43.84996100280503,58.654794072731995,2.1924980501402516,0.921347350783585,A,1073.4217073768377,Correct
8,12,41,A,36.74242541884062,47.063054116553516,1.8371212709420308,0.7392647253403171,A,1511.7380423471332,Correct
8,12,42,A,62.99203715655159,82.5303862327216,3.1496018578275793,1.296384275433232,A,837.6850830391049,Correct
8,12,43,B,47.682692079559374,36.67025971978663,2.384134603977969,0.5760150927045569,B,655.8986660093069,Correct
8,12,44,A,20.753688413545788,41.22607444890109,1.0376844206772895,0.6475776631250677,A,802.9746674001217,Correct
8,12,45,A,40.65942145859865,59.59034337340436,2.0329710729299326,0.9360429248339017,A,712.8859581425786,Correct
8,12,46,B,41.72379964556333,24.075221378838396,2.0861899822781664,0.37817269308653323,B,745.9910828620195,Correct
8,12,47,B,38.652139169231724,12.518241763794133,1.9326069584615864,0.1966360818049829,B,564.2331251874566,Correct
8,12,48,B,31.337145396168086,12.388819830121392,1.5668572698084042,0.19460312682478456,B,796.9168331474066,Correct
8,12,49,A,39.16897214912036,59.45011316630658,1.9584486074560177,0.933840193891753,A,718.0288331583142,Correct
8,12,50,A,50.11902217864139,76.49967747750301,2.505951108932069,1.2016541238265601,A,725.4279991611838,Correct
8,12,51,A,52.2573087891364,61.26067975883075,2.61286543945682,0.962280507421298,A,712.6012919470668,Correct
8,12,52,B,67.043001659364,40.337292508772414,3.3521500829682,0.63361670905631,B,854.0930403396487,Correct
8,12,53,B,62.4658045536693,31.24525283275898,3.123290227683465,0.49079928379475646,B,706.9804584607482,Correct
8,12,54,B,37.39439953262176,13.493674412739914,1.8697199766310881,0.21195814202498137,B,954.3324168771505,Correct
8,12,55,A,33.12906990980474,61.057691123882655,1.656453495490237,0.9590919693997223,A,700.0661231577396,Correct
8,12,56,B,48.741472234830326,25.621719134139052,2.4370736117415164,0.4024650230207615,B,619.8237081989646,Correct
8,12,57,B,48.26474862870649,29.922055034973496,2.4132374314353244,0.4700145413909111,B,621.2897915393114,Correct
8,12,58,B,71.09349478166466,53.40512638815781,3.554674739083233,0.838885763625355,B,986.8308743461967,Correct
8,12,59,B,74.17974667979702,49.1962189961342,3.708987333989851,0.7727724009132492,B,608.7735826149583,Correct
8,12,60,B,48.18899513497887,37.800485554690205,2.4094497567489435,0.5937686386037092,B,665.5768752098083,Correct
8,12,61,B,50.76059769962492,31.014072415115987,2.538029884981246,0.4871679102861512,B,816.3566663861275,Correct
8,12,62,A,45.37879425550078,65.25569258852171,2.268939712775039,1.0250340222050687,A,779.0472498163581,Correct
8,12,63,B,56.070457152651414,28.51115879622661,2.803522857632571,0.4478522350977876,B,979.0763752534986,Correct
8,12,64,B,79.79108764688368,55.12837521853743,3.989554382344184,0.865954492954494,B,616.634457372129,Correct
8,12,65,A,63.52558885373692,85.79160265255479,3.176279442686846,1.3476113431648036,A,889.9334575980902,Correct
8,12,66,B,67.27267355277803,59.19722272123973,3.3636336776389015,0.9298678000698277,B,1196.102250367403,Correct
8,12,67,A,59.68631563269505,72.55605267497383,2.9843157816347525,1.139707810285859,A,743.049624375999,Correct
8,12,68,B,76.50474491592513,55.294324482854435,3.8252372457962567,0.8685612179027287,B,789.248458109796,Correct
8,12,69,B,39.856022886922325,28.270354299250958,1.9928011443461162,0.4440696869045372,B,661.2015832215548,Correct
8,12,70,B,70.69163551663723,47.35961223383754,3.5345817758318616,0.7439230493534265,B,672.6815411821008,Correct
8,12,71,A,44.55951630573167,57.11576932409854,2.2279758152865834,0.897172406563586,A,832.0367485284805,Correct
8,12,72,A,55.08436352892895,77.77948981411949,2.7542181764464475,1.2217573689999999,A,929.6995420008898,Correct
8,12,73,B,39.57723717149226,29.52340049195856,1.9788618585746127,0.4637524904726315,B,767.8665407001972,Correct
8,12,74,A,64.2602563663678,82.4973222278704,3.21301281831839,1.2958649072595378,A,770.480583421886,Correct
8,12,75,A,19.446367218404212,40.61931445350441,0.9723183609202107,0.6380466994049157,A,1133.7662497535348,Correct
8,12,76,A,30.991012171261048,57.878769786660335,1.5495506085630524,0.909157589802935,A,1888.4130828082561,Correct
8,12,77,A,29.61213128263577,42.02255106686106,1.4806065641317883,0.6600886885837632,A,1256.957707926631,Correct
8,12,78,B,53.74965975290395,39.90797892071096,2.6874829876451973,0.6268730669846094,B,719.2132500931621,Correct
8,12,79,A,23.085775328461906,45.03795248258196,1.1542887664230954,0.7074545032600283,A,778.0993329361081,Correct
8,12,80,B,46.062431091569614,24.555434016436152,2.3031215545784804,0.3857158555587236,B,769.3744990974665,Correct
8,12,81,A,29.26159479093416,47.264250016064786,1.4630797395467081,0.7424251031395019,A,707.6093321666121,Correct
8,12,82,B,75.26491702117791,62.48651543129755,3.7632458510588953,0.9815358891369481,B,629.0172077715397,Correct
8,12,83,B,89.77607487346128,67.92708778017908,4.488803743673064,1.066996199749798,B,811.5607490763068,Correct
8,12,84,A,22.197632443107757,37.466979214120094,1.1098816221553878,0.5885299332564059,A,3454.255416058004,Correct
8,12,85,A,38.35162624964165,47.82203579436903,1.9175813124820822,0.7511867816564896,A,751.4453334733844,Correct
8,12,86,B,79.47998983451681,56.4460602251212,3.9739994917258405,0.886652640636639,B,696.2294159457088,Correct
8,12,87,B,54.035467797766856,43.74944755867556,2.7017733898883427,0.6872147152447352,B,1490.013207308948,Correct
8,12,88,B,87.05382618399646,67.28509481528219,4.352691309199823,1.056911797838916,B,1017.5332082435489,Correct
8,12,89,A,25.872436782194555,47.94494582769302,1.2936218391097276,0.753117447945205,A,814.6005002781749,Correct
8,12,90,A,28.48283401362278,58.47095014888299,1.4241417006811392,0.9184595371807293,A,1194.1896248608828,Correct
8,12,91,B,38.34528128956107,11.643713937172805,1.9172640644780534,0.18289903082761583,B,638.2358744740486,Correct
8,12,92,B,61.54550667064612,38.67852756243403,3.0772753335323055,0.6075608902090655,B,564.4010417163372,Correct
8,12,93,B,84.82846090889225,69.64192518357154,4.241423045444613,1.093932802692792,B,930.9279583394527,Correct
8,12,94,B,65.13352083402012,46.6178572201012,3.2566760417010063,0.732271588843839,B,737.5442488119006,Correct
8,12,95,B,48.76542714007907,38.22081723979158,2.4382713570039534,0.6003711932736367,B,602.605833671987,Correct
8,12,96,A,54.860779035179704,84.06461623200785,2.743038951758985,1.3204839039066056,A,758.475499227643,Correct
8,12,97,A,43.14204423906928,56.53589591531943,2.1571022119534637,0.8880637763584236,A,820.9194587543607,Correct
8,12,98,A,30.429021890577182,51.753667338813685,1.5214510945288593,0.8129447055397354,A,1382.5139161199331,Correct
8,12,99,A,17.497943549261734,33.9102191880435,0.8748971774630867,0.5326604774138854,A,884.5887910574675,Correct
8,12,100,B,66.59950264647435,46.57888587902619,3.329975132323717,0.7316594284497302,B,780.0622079521418,Correct
8,12,101,B,65.35046263180735,55.85741118015682,3.2675231315903672,0.8774061630606254,B,912.9748325794935,Correct
8,12,102,B,70.47402060442649,50.44051312828297,3.523701030221324,0.7923177274355666,B,587.6890830695629,Correct
8,12,103,B,76.17268348894635,46.340387321608226,3.8086341744473176,0.72791310187035,B,619.7327915579081,Correct
8,12,104,B,69.34046637699325,47.895655611467156,3.467023318849663,0.7523431990392596,B,717.3669151961803,Correct
8,12,105,A,42.98815261226304,60.24977471517557,2.149407630613152,0.9464012481281782,A,645.546417683363,Correct
8,12,106,A,31.51540743370521,44.91150946863959,1.5757703716852607,0.7054683410415329,A,725.6234986707568,Correct
8,12,107,A,21.42174609308201,36.46297647533001,1.0710873046541005,0.572759095114571,A,774.567499756813,Correct
8,12,108,A,10.936258327630888,35.81540099690738,0.5468129163815444,0.5625870032862839,A,840.9144161269069,Correct
8,12,109,A,24.01820984783478,39.631197742163835,1.200910492391739,0.6225253983987316,A,804.1217494755983,Correct
8,12,110,B,68.77912510913086,48.87724545542873,3.438956255456543,0.7677619762524002,B,984.3425415456295,Correct
8,12,111,B,60.3881989906711,27.649284694605406,3.019409949533555,0.4343139483679253,B,844.8029579594731,Correct
8,12,112,B,38.69217152787076,25.627785530723735,1.9346085763935381,0.4025603137554824,B,748.7129997462034,Correct
8,12,113,B,46.354025007015906,38.39022389624408,2.317701250350795,0.6030322268105386,B,724.0237081423402,Correct
8,12,114,A,32.622152882268985,52.53371813239155,1.631107644113449,0.825197714752391,A,1202.6208331808448,Correct
8,12,115,A,26.776767981173677,47.382758386763754,1.338838399058684,0.7442866282733859,A,1265.6165827065706,Correct
8,12,116,A,18.28984700003116,42.23859187650034,0.9144923500015579,0.6634822496859548,A,1237.3478738591075,Correct
8,12,117,B,42.97067193430877,31.554618069097632,2.1485335967154384,0.49565878156354437,B,703.2272908836603,Correct
8,12,118,B,52.56474862249628,28.34711488636479,2.628237431124814,0.44527543938734737,B,575.8174583315849,Correct
8,12,119,A,40.02222378130524,68.51201089807007,2.001111189065262,1.076184150600204,A,637.927457690239,Correct
8,12,120,B,40.589032590973616,31.459946993463554,2.0294516295486806,0.49417169178494696,B,996.2642909958959,Correct
8,12,121,B,73.10360415116804,47.97802025671159,3.655180207558402,0.753636979861337,B,666.0041240975261,Correct
8,12,122,B,67.53820334034205,55.81810006587592,3.376910167017103,0.8767886655214786,B,696.3172079995275,Correct
8,12,123,B,81.08365314064973,67.83598652656582,4.054182657032487,1.065565184604377,B,611.9575425982475,Correct
8,12,124,B,74.14964727395582,51.33602018050872,3.7074823636977907,0.8063843193181177,B,672.3516257479787,Correct
8,12,125,B,52.96483063787505,36.94481909645394,2.648241531893752,0.580327861308118,B,2244.431249797344,Correct
8,12,126,B,64.31248701709445,42.47109895798874,3.2156243508547226,0.6671344623815126,B,1442.0675821602345,Correct
8,12,127,B,36.95061040266497,11.78753154458574,1.8475305201332486,0.1851581125221425,B,1173.8972077146173,Correct
8,12,128,A,47.64588191834683,71.247469160303,2.3822940959173415,1.1191526285043663,A,878.0257906764746,Correct
8,12,129,B,71.88594654752805,41.70212963103629,3.594297327376403,0.6550555204395642,B,1182.1087077260017,Correct
8,12,130,A,33.941269949165246,44.02228221868198,1.6970634974582623,0.6915003920623394,A,1556.7888328805566,Correct
8,12,131,B,73.7737895770002,60.02991686757409,3.6886894788500104,0.9429477291338837,B,918.01199875772,Correct
8,12,132,A,43.227703224563164,74.90444913481812,2.161385161228158,1.1765963356156748,A,870.8358332514763,Correct
8,12,133,A,18.847590527272878,48.5593116078428,0.9423795263636439,0.7627678830528823,A,1023.433499969542,Correct
8,12,134,B,71.18924207225923,42.29709328941567,3.5594621036129617,0.664401187731152,B,780.6917075067759,Correct
8,12,135,B,67.584610273144,57.85829723115702,3.3792305136571996,0.9088360076530879,B,1016.4045412093401,Correct
8,12,136,A,64.93896819790002,89.14404978004717,3.246948409895001,1.400271459501195,A,951.898374594748,Correct
8,12,137,A,62.47374627928586,86.66145328199221,3.123687313964293,1.3612749249006089,A,919.6923328563571,Correct
8,12,138,B,53.36520743057397,45.08849062208541,2.6682603715286985,0.708248354498979,B,905.3864572197199,Correct
8,12,139,A,43.841432375271275,57.404518702037336,2.192071618763564,0.901708071185892,A,830.1833746954799,Correct
8,12,140,B,80.6228801483513,59.64145897687301,4.0311440074175655,0.9368458468556062,B,926.3414163142443,Correct
8,12,141,A,16.036358538940284,35.8371000804369,0.8018179269470141,0.5629278516933137,A,706.0821671038866,Correct
8,12,142,A,14.035440799496016,34.37297757485992,0.7017720399748008,0.5399294691559331,A,974.7031247243285,Correct
8,12,143,B,67.78496530915339,35.97750339545629,3.3892482654576694,0.5651333018083365,B,1550.369125790894,Correct
8,12,144,B,41.95340986639209,28.39105073633899,2.0976704933196046,0.44596558210488824,B,626.8729586154222,Correct
8,12,145,A,58.568052730725164,80.60573216003351,2.928402636536258,1.266151879955939,A,955.4313747212291,Correct
8,12,146,B,63.368913941143205,39.61162902051668,3.16844569705716,0.6222180136378973,B,1055.77795766294,Correct
8,12,147,A,23.397497095242237,53.46619607290138,1.1698748547621118,0.8398450439900922,A,757.1718748658895,Correct
8,12,148,A,40.33713337953201,63.111937686102145,2.0168566689766005,0.9913599989423765,A,795.8072908222675,Correct
8,12,149,A,44.45096675722475,68.87536318690037,2.2225483378612374,1.0818916750064753,A,863.8921668753028,Correct
8,12,150,B,74.28856637122557,49.651223824158905,3.7144283185612785,0.7799196000386006,B,948.2145830988884,Correct
8,12,151,A,17.162863912544267,33.871638459152365,0.8581431956272134,0.5320544527416129,A,834.9659163504839,Correct
8,12,152,A,21.403533580956942,34.30658357142329,1.070176679047847,0.5388865545887385,A,1045.2549578621984,Correct
8,12,153,B,41.23562560035009,14.92814057027623,2.0617812800175046,0.23449068373667778,B,1145.5630837008357,Correct
8,12,154,B,56.46245190724903,35.05954373248043,2.8231225953624515,0.5507140251408529,B,921.5496238321066,Correct
8,12,155,B,50.029976072006015,23.804088364630214,2.5014988036003007,0.3739137456586228,B,1021.092957817018,Correct
8,12,156,B,73.65643385227155,55.26041103060114,3.6828216926135777,0.8680285066404446,B,1301.6717489808798,Correct
8,12,157,A,56.31709985571818,74.01897284057331,2.8158549927859093,1.1626873065110377,A,1106.1642915010452,Correct
8,12,158,A,65.80758687479207,80.49000357981123,3.290379343739603,1.2643340196687554,A,1845.3946243971586,Correct
8,12,159,A,35.50740471784498,50.68778220724577,1.7753702358922487,0.7962018210452138,A,945.0110830366611,Correct
8,12,160,B,66.59778863128989,48.909651714224935,3.329889431564494,0.7682710125752225,B,611.8759997189045,Correct
8,12,161,B,85.43870917681554,64.29903609272762,4.271935458840777,1.0100068971090903,B,757.6202508062124,Correct
8,12,162,B,81.93199697512239,67.05475056604082,4.096599848756119,1.0532935588328494,B,709.2633750289679,Correct
8,12,163,B,59.514114997442825,33.89577353726493,2.9757057498721413,0.532433565662074,B,611.5798745304346,Correct
8,12,164,B,59.10875727177606,41.29407088439821,2.955437863588803,0.6486457486362079,B,681.5952500328422,Correct
8,12,165,A,16.169049389043533,35.922113888248674,0.8084524694521766,0.5642632454636896,A,766.4384162053466,Correct
8,12,166,B,54.321723303220935,45.772270769565665,2.716086165161047,0.7189891479389516,B,1674.9309161677957,Correct
8,12,167,A,63.78575377817536,82.24168181026724,3.1892876889087685,1.2918493169700243,A,972.9572497308254,Correct
8,12,168,B,59.796488167151054,29.153819973485824,2.9898244083575527,0.45794713326391223,B,719.2462487146258,Correct
8,12,169,A,16.870501149581436,37.0080184026867,0.8435250574790717,0.581320593688982,A,888.2870823144913,Correct
8,12,170,A,38.106701199713264,53.08395743081081,1.905335059985663,0.8338408534405428,A,877.7439575642347,Correct
8,12,171,B,43.03192580577705,28.297180003998275,2.1515962902888526,0.4444910640893449,B,1159.86558329314,Correct
8,12,172,A,16.078044016223306,37.67729788945998,0.8039022008111653,0.5918336112832084,A,887.9258744418621,Correct
8,12,173,B,70.54056685348156,44.763979669618,3.527028342674078,0.7031509483775739,B,978.6294158548117,Correct
8,12,174,A,22.193952987535503,34.56319065700965,1.1096976493767752,0.5429173292634245,A,942.7913753315806,Correct
8,12,175,B,47.34024426021518,20.36764355508443,2.3670122130107587,0.3199341968179437,B,821.0667911916971,Correct
8,12,176,B,57.07775470467018,32.86281190827837,2.853887735233509,0.5162078423367524,B,1142.1139584854245,Correct
8,12,177,A,30.530954175294998,56.0760836364646,1.5265477087647499,0.88084106197202,A,830.2618749439716,Correct
8,12,178,A,35.67899513073571,65.72590481065231,1.7839497565367852,1.0324200985184369,A,687.4559577554464,Correct
8,12,179,A,24.29397439878472,47.93159401762068,1.2146987199392358,0.7529077182030282,A,633.3337901160121,Correct
8,12,180,B,72.4665564275819,45.03324088111142,3.623327821379095,0.7073804935971958,B,678.1807085499167,Correct
8,12,181,A,43.684134941733895,51.52814736540286,2.184206747086695,0.8094022460812094,A,698.8844163715839,Correct
8,12,182,B,48.60851275215614,22.21173930334696,2.430425637607807,0.34890118509423235,B,631.677333265543,Correct
8,12,183,B,52.363398920379666,25.232471859487305,2.618169946018983,0.39635074112838253,B,1092.5458325073123,Correct
8,12,184,B,35.57756402437712,24.033383336719016,1.778878201218856,0.37751550265771905,B,2594.6937911212444,Correct
8,12,185,A,34.97675887228867,43.581348762493334,1.7488379436144335,0.6845742255289184,A,1166.4864579215646,Correct
8,12,186,B,39.98684024367612,20.850342342931153,1.999342012183806,0.3275164116469235,B,5125.57274941355,Correct
8,12,187,A,54.025429238217775,72.53638199467483,2.7012714619108884,1.1393988239622668,A,821.9570415094495,Correct
8,12,188,B,52.843743526441585,35.38196163317828,2.6421871763220794,0.5557785536819441,B,1268.7279172241688,Correct
8,12,189,B,45.67075631397277,33.3931383225393,2.2835378156986383,0.5245381901719862,B,1753.9592506363988,Correct
8,12,190,A,58.81918941698265,67.17452684594886,2.940959470849133,1.0551750002380162,A,1729.724958539009,Correct
8,12,191,A,55.179155622526146,71.27784024067503,2.7589577811263073,1.119629696319258,A,1269.5242501795292,Correct
8,12,192,A,42.73400906974479,61.87868833974368,2.1367004534872396,0.9719881635095556,A,1042.7169166505337,Correct
8,12,193,A,29.25017673354384,39.27079182636622,1.462508836677192,0.6168641555118312,A,2470.871583558619,Correct
8,12,194,A,60.59446675855824,86.0714709333659,3.0297233379279125,1.3520075038396486,A,1009.3849999830127,Correct
8,12,195,A,43.80201983617978,65.32692499081963,2.1901009918089893,1.0261529381638521,A,938.9437073841691,Correct
8,12,196,B,40.654381887388666,23.528930856412,2.0327190943694333,0.36959158162663075,B,744.6999158710241,Correct
8,12,197,A,56.806870390998085,77.1639926935571,2.8403435195499043,1.2120891628386776,A,1161.3204572349787,Correct
8,12,198,B,70.79388370314754,50.25716565840675,3.5396941851573773,0.7894377121134794,B,795.2219573780894,Correct
8,12,199,A,19.899878964591725,49.35534883378761,0.9949939482295862,0.7752720065579436,A,887.6682491973042,Correct
8,12,200,A,36.88934400533942,51.879049870562916,1.8444672002669709,0.8149142097428949,A,908.5501665249467,Correct
8,12,201,B,37.13684068142355,16.49163909010229,1.8568420340711775,0.2590500610555981,B,890.4747078195214,Correct
8,12,202,B,58.14070078106453,35.58748573600644,2.9070350390532265,0.5590069187398469,B,4187.582207843661,Correct
8,12,203,B,77.46685524335058,65.36740302040512,3.8733427621675287,1.02678876556574,B,665.4422078281641,Correct
8,12,204,A,19.52843690069177,49.07886634259215,0.9764218450345885,0.7709290297420143,A,857.5592488050461,Correct
8,12,205,B,46.819699053255775,31.862175376998948,2.3409849526627884,0.5004898804588475,B,601.4286242425442,Correct
8,12,206,B,46.09177882049125,30.980822787682992,2.3045889410245626,0.4866456263597607,B,613.4987501427531,Correct
8,12,207,A,47.62815739309877,73.65869934339509,2.3814078696549386,1.1570281436509464,A,726.7735004425049,Correct
8,12,208,A,33.80121729103114,47.52705028319344,1.6900608645515574,0.746553160082366,A,1335.9952084720135,Correct
8,12,209,B,48.626683017042005,30.71830539554542,2.4313341508521003,0.482522012806866,B,1035.031208768487,Correct
8,12,210,A,16.56166280520121,39.178831222618385,0.8280831402600605,0.6154196417260616,A,1169.8425002396107,Correct
8,12,211,A,13.413640372673978,35.469890146505605,0.6706820186336989,0.557159731539495,A,910.1618332788348,Correct
8,12,212,A,44.594074263761975,61.95706679430931,2.2297037131880986,0.9732193293948713,A,788.3110838010907,Correct
8,12,213,B,69.95870018077052,57.534093108810424,3.497935009038526,0.9037434212079497,B,801.7695834860206,Correct
8,12,214,A,29.006993696785322,51.989187527414416,1.450349684839266,0.8166442480111361,A,703.0413737520576,Correct
8,12,215,A,43.33352843460302,56.65046473329991,2.1666764217301506,0.8898634191429132,A,970.4346656799316,Correct
8,12,216,A,31.68031825503865,62.83466695889078,1.5840159127519327,0.9870046405440629,A,1674.445791170001,Correct
8,12,217,B,72.60102445681832,47.15921808486133,3.6300512228409163,0.7407752654221963,B,1274.8385407030582,Correct
8,12,218,B,83.57741713876914,54.77374194413254,4.178870856938457,0.8603839265065495,B,4686.980666592717,Correct
8,12,219,B,66.62827903329935,41.23619483630689,3.3314139516649677,0.6477366337986954,B,2770.1676236465573,Correct
8,12,220,B,73.29152168575035,55.70306766305563,3.6645760842875177,0.8749817407633536,B,1850.245458073914,Correct
8,12,221,B,74.28731488913354,57.568294642426835,3.714365744456677,0.9042806576417038,B,2779.6137910336256,Correct
8,12,222,B,82.81554110272957,65.79180646936615,4.140777055136478,1.0334552793528107,B,828.9222912862897,Correct
8,12,223,A,43.753338789310305,60.04148735936558,2.1876669394655153,0.9431294779939368,A,856.4947918057442,Correct
8,12,224,A,20.722449259933757,34.82131228466119,1.0361224629966879,0.5469718943092381,A,795.3813336789608,Correct
8,12,225,B,33.910174655746815,15.936987857753717,1.6955087327873406,0.25033761987134406,B,2509.086082689464,Correct
8,12,226,A,65.18526453819415,84.81698265069822,3.2592632269097073,1.3323020479754322,A,817.2184992581606,Correct
8,12,227,B,72.45815101777549,40.41609150723035,3.6229075508887747,0.6348544808296385,B,712.6970831304789,Correct
8,12,228,A,69.51258930530759,86.74306599768072,3.475629465265379,1.3625568944408415,A,878.4794174134731,Correct
8,12,229,A,55.77330373301364,85.22217806879254,2.788665186650682,1.3386668427191992,A,842.3759574070573,Correct
8,12,230,A,53.9501633858129,68.29523152422858,2.697508169290645,1.072778988158653,A,868.7435416504741,Correct
8,12,231,A,14.645024714728844,39.64419699270652,0.7322512357364422,0.6227295901487668,A,1670.1955823227763,Correct
8,12,232,A,16.52769962427419,41.31723362755346,0.8263849812137096,0.6490095881548756,A,1111.020540818572,Correct
8,12,233,A,18.682914115364692,41.745320847577304,0.9341457057682346,0.6557339664824885,A,813.1042495369911,Correct
8,12,234,B,62.95640262480241,54.948448944849076,3.1478201312401204,0.8631282176564582,B,811.1776253208518,Correct
8,12,235,B,51.8482884897497,35.649695388999405,2.592414424487485,0.5599841056839722,B,837.2475421056151,Correct
8,12,236,B,83.65324863404261,61.5985125000596,4.182662431702131,0.9675871717112313,B,2514.2224580049515,Correct
8,12,237,A,58.39993946372046,77.8386927478369,2.9199969731860227,1.2226873265081875,A,797.2967084497213,Correct
8,12,238,A,27.750674528439504,40.63628301207724,1.3875337264219751,0.638313240899688,A,1153.2441657036543,Correct
8,12,239,B,71.67389626828815,58.47621858318991,3.5836948134144073,0.9185422935533019,B,784.7275836393237,Correct
8,12,240,A,57.385098198043664,72.84028813624172,2.8692549099021836,1.1441725704709038,A,882.4886241927743,Correct
8,12,241,A,37.8658585392976,66.6529383501628,1.8932929269648797,1.0469819073052242,A,1600.8977498859167,Correct
8,12,242,B,38.236146836709636,14.801265137314012,1.9118073418354817,0.23249772909610208,B,709.0907925739884,Correct
8,12,243,A,47.293660976443256,76.54531117580704,2.3646830488221626,1.2023709362833004,A,614.1842911019921,Correct
8,12,244,B,61.67847066052615,33.834676370661406,3.0839235330263075,0.5314738536132901,B,768.2537902146578,Correct
8,12,245,A,64.85843930660968,86.35397933953305,3.242921965330484,1.3564451355066092,A,952.6865407824516,Correct
8,12,246,A,21.967994348852162,34.91529276341835,1.0983997174426081,0.5484481362174598,A,1371.93554174155,Correct
8,12,247,A,38.523938535674084,66.89378212647959,1.9261969267837042,1.0507650724969224,A,2764.3835404887795,Correct
8,12,248,A,47.385767600486936,78.04452366357475,2.3692883800243467,1.225920510972006,A,554.8244584351778,Correct
8,12,249,A,67.68813736757258,85.04627618913601,3.3844068683786293,1.3359037824547912,A,1375.7313750684261,Correct
8,12,250,A,49.6603904373218,77.10106901872666,2.48301952186609,1.2111007600657564,A,1187.4220417812467,Correct
8,12,251,A,33.56046834738854,49.555783653396155,1.678023417369427,0.7784204293419725,A,723.8081665709615,Correct
8,12,252,A,27.052618827785736,44.43538976241993,1.352630941389287,0.6979894701850877,A,668.9975000917912,Correct
8,12,253,B,35.79360162827663,13.73001575633813,1.7896800814138316,0.21567058316891988,B,829.8485828563571,Correct
8,12,254,B,44.15118146466852,24.73540802860589,2.207559073233426,0.38854288073107124,B,732.8013330698013,Correct
8,12,255,A,39.19571682600974,70.42008433170952,1.9597858413004872,1.1061560980083616,A,745.7269998267293,Correct
8,12,256,B,36.056628548260406,16.755690815456767,1.8028314274130202,0.26319777585830473,B,846.7683754861355,Correct
8,12,257,A,36.67652073319059,46.558972611237266,1.8338260366595296,0.7313466315707569,A,1092.9644983261824,Correct
8,12,258,A,41.75636680094928,65.44896397721148,2.087818340047464,1.0280699220793528,A,915.2946248650551,Correct
8,12,259,A,13.931789593201287,32.864666745852276,0.6965894796600643,0.5162369780572315,A,763.7659572064877,Correct
8,12,260,A,58.613922873750894,70.59146012766034,2.9306961436875447,1.1088480627161725,A,798.6678332090378,Correct
8,12,261,A,21.30998848897419,41.5583269899972,1.0654994244487097,0.6527966738362881,A,1124.658958055079,Correct
8,12,262,B,50.770424528617184,39.954257343744054,2.538521226430859,0.6276000067537117,B,3528.779207728803,Correct
8,12,263,B,76.7883540231684,60.90632711207556,3.8394177011584194,0.9567143490621671,B,835.7048751786351,Correct
8,12,264,A,24.055471085423193,54.42304754958554,1.2027735542711597,0.8548752318387296,A,1182.4874989688396,Correct
8,12,265,B,48.03135003939289,19.639791076071663,2.4015675019696445,0.3085011168131256,B,1520.374957472086,Correct
8,12,266,A,39.94941519687592,57.19816305897474,1.997470759843796,0.8984666443245307,A,953.8547080010176,Correct
8,12,267,B,69.93397815297736,49.767708813515895,3.4966989076488684,0.7817493419726875,B,2144.2287489771843,Correct
8,12,268,B,56.02274641315654,26.348034406248487,2.801137320657827,0.41387395663600673,B,1167.2403328120708,Correct
8,12,269,A,53.049171094366216,72.04685693073066,2.6524585547183106,1.1317093822390913,A,619.1948335617781,Correct
8,12,270,B,48.88091079522515,37.974302290066305,2.444045539761257,0.5964989454983518,B,1317.0414585620165,Correct
8,12,271,B,33.216127140400204,18.036072849165166,1.6608063570200102,0.28330996981273804,B,647.1314989030361,Correct
8,12,272,B,68.89968995927978,40.25604716569022,3.444984497963989,0.6323405101914831,B,788.9903327450156,Correct
8,12,273,B,87.86902303242012,64.39067264580166,4.393451151621005,1.0114463207187787,B,706.8962911143899,Correct
8,12,274,A,55.4096582210165,69.12660217923255,2.7704829110508253,1.0858381278695057,A,911.6717912256718,Correct
8,12,275,B,37.295794340391595,15.93674952053189,1.8647897170195795,0.2503338760790182,B,736.6173332557082,Correct
8,12,276,A,61.694618548790515,76.4404173910485,3.0847309274395256,1.2007232685652771,A,764.7781660780311,Correct
8,12,277,B,57.435536643668115,49.03774323389621,2.871776832183406,0.7702830694611547,B,1141.2681248039007,Correct
8,12,278,A,29.73317433503246,56.00889744290911,1.486658716751623,0.8797857037115372,A,832.2833748534322,Correct
8,12,279,A,39.392753206913525,65.1361620907565,1.9696376603456764,1.023156441536773,A,680.5359581485391,Correct
8,12,280,A,54.15405225704626,69.02285105566591,2.707702612852313,1.0842084090315125,A,734.4754580408335,Correct
8,12,281,B,72.50283884983823,48.854763407977885,3.6251419424919114,0.7674088290768537,B,786.3489985466003,Correct
8,12,282,B,48.530592837068156,18.162359902614217,2.4265296418534077,0.2852936822095333,B,794.004999101162,Correct
8,12,283,B,37.3365273573165,25.09449203409349,1.866826367865825,0.3941833590993785,B,785.8332078903913,Correct
8,12,284,A,52.978724731539,67.52624524636813,2.64893623657695,1.060699779952464,A,1084.9012909457088,Correct
8,12,285,A,38.61007574844949,52.57372032134748,1.9305037874224746,0.8258260676671482,A,754.0053324773908,Correct
8,12,286,A,12.837024123263085,33.13165796687355,0.6418512061631543,0.5204308663498983,A,752.0866664126515,Correct
8,12,287,B,85.11380200960764,62.830043307006164,4.255690100480382,0.9869320123900956,B,827.1862072870135,Correct
8,12,288,A,55.34243597664401,70.7601342054714,2.7671217988322008,1.1114975889346839,A,807.6540408656001,Correct
8,12,289,B,80.33918638163583,65.3122120698223,4.016959319081791,1.0259218281412616,A,1774.352042004466,Incorrect
8,12,290,A,25.155158378487375,48.38981313065706,1.2577579189243686,0.7601054071992756,A,961.75183262676,Correct
8,12,291,A,18.355437295615744,36.061428763610294,0.9177718647807872,0.5664515984085489,A,826.12937502563,Correct
8,12,292,A,48.3360172911555,55.609805775912506,2.416800864557775,0.8735167864658098,A,1097.4413333460689,Correct
8,12,293,A,21.36967468500029,51.57241351520847,1.0684837342500146,0.8100975771363694,A,928.7722492590547,Correct
8,12,294,A,49.7394406422327,79.167754111043,2.486972032111635,1.243564173582279,A,782.2261247783899,Correct
8,12,295,A,32.81499464002256,54.04355950177005,1.6407497320011282,0.8489142475230184,A,726.6502073034644,Correct
8,12,296,A,63.09199454974643,76.4287171490669,3.1545997274873216,1.200539481594004,A,790.4640408232808,Correct
8,12,297,B,81.82188947114064,57.74409576646317,4.091094473557032,0.9070421352405308,B,843.5961250215769,Correct
8,12,298,B,53.990050185133704,42.87879398309216,2.699502509256685,0.6735385208603627,B,692.4907909706235,Correct
8,12,299,A,44.450864184276575,67.73694668609666,2.222543209213829,1.0640094704282237,A,819.58441529423,Correct
