subject,day,trial,cat,x,y,xt,yt,resp,rt,fb
8,4,0,A,16.59371292185108,32.6750049281345,0.8296856460925539,0.513257777191188,A,582.9429579898715,Correct
8,4,1,A,32.51655917203055,44.56167757210741,1.6258279586015274,0.6999731944608485,A,676.7571661621332,Correct
8,4,2,A,21.40889344343055,35.11182073229578,1.0704446721715275,0.5515351903337111,A,452.74941623210907,Correct
8,4,3,B,62.85003039755879,39.102194936423416,3.1425015198779396,0.6142158417575191,B,1280.1694571971893,Correct
8,4,4,B,45.664079850284836,21.862382716385635,2.2832039925142418,0.34341350465882786,B,649.0732906386256,Correct
8,4,5,B,66.56653611266108,47.164708498714305,3.328326805633054,0.7408615086413247,A,2326.8582075834274,Incorrect
8,4,6,A,22.513417303086058,51.446771854300266,1.1256708651543028,0.8081240025418992,A,952.5634152814746,Correct
8,4,7,A,17.842897143112786,41.71729038335452,0.8921448571556394,0.6552936649800936,A,428.95533330738544,Correct
8,4,8,A,25.85845736642594,54.84200362487222,1.2929228683212972,0.8614561784802169,A,873.841498978436,Correct
8,4,9,A,45.60725334348808,61.00192704058665,2.280362667174404,0.9582160292276378,A,1083.6128741502762,Correct
8,4,10,B,87.9454988041892,63.14607835186383,4.39727494020946,0.9918962792661044,B,878.313041292131,Correct
8,4,11,A,51.997475128103005,62.739534058463946,2.5998737564051506,0.9855102964385848,A,893.7917910516262,Correct
8,4,12,B,67.78894105358219,38.73534290877533,3.38944705267911,0.6084533435824503,B,2454.923665151,Correct
8,4,13,B,59.47109407129117,41.38550010104714,2.973554703564558,0.6500819154129467,B,537.8574570640922,Correct
8,4,14,A,39.79862990365934,54.270649513075654,1.989931495182967,0.8524813690791246,A,647.1015410497785,Correct
8,4,15,A,56.16485100164285,76.49525480362584,2.808242550082143,1.2015846526277514,A,1013.6744575574994,Correct
8,4,16,B,72.58291290486137,62.79322309766024,3.6291456452430686,0.9863536418941715,B,1031.5532488748431,Correct
8,4,17,B,48.92875311532048,31.594704149675366,2.446437655766024,0.49628845224481544,B,1401.5210829675198,Correct
8,4,18,A,37.59499253326045,66.73549094087537,1.8797496266630225,1.0482786403678113,A,924.0917908027768,Correct
8,4,19,A,23.248439664623916,50.40827008847698,1.1624219832311957,0.791811254950647,A,795.4389164224267,Correct
8,4,20,B,42.42711869268679,33.911189548007634,2.1213559346343396,0.5326757197925588,B,3632.1686655282974,Correct
8,4,21,B,57.84408506050701,43.958802525923346,2.892204253025351,0.6905032553802262,B,1286.4375403150916,Correct
8,4,22,A,34.53254221997261,54.15876967442463,1.7266271109986306,0.8507239646831705,A,1208.674623630941,Correct
8,4,23,B,48.737383265524606,20.927262258693112,2.4368691632762305,0.32872466685828616,B,916.4698757231236,Correct
8,4,24,A,37.433598790502465,46.6411844831954,1.8716799395251231,0.7326380126356645,A,1433.6327500641346,Correct
8,4,25,A,32.23427915684553,45.66014186102881,1.6117139578422766,0.7172278311623794,A,1577.7418334037066,Correct
8,4,26,A,63.91094821328501,76.57361860858447,3.1955474106642505,1.2028155883975782,A,1394.7452064603567,Correct
8,4,27,A,48.39977045209981,66.06369469233826,2.4199885226049904,1.0377260895722444,A,1071.777207776904,Correct
8,4,28,B,85.54988859146913,66.15143196868698,4.277494429573457,1.03910426348636,B,757.0813335478306,Correct
8,4,29,A,62.190440582438626,87.91740101077002,3.109522029121931,1.3810033056907147,A,1003.3834166824818,Correct
8,4,30,B,41.0888049149725,25.830805079568737,2.054440245748625,0.4057493373714153,B,961.7816656827927,Correct
8,4,31,B,67.03322190468015,37.39043428038009,3.3516610952340073,0.5873275682488702,B,822.9054575785995,Correct
8,4,32,A,21.054515231291656,49.082723919980396,1.0527257615645829,0.7709896244259321,A,814.3987907096744,Correct
8,4,33,A,26.075161590726417,51.68013966202932,1.3037580795363208,0.8117897354936291,A,889.6068735048175,Correct
8,4,34,A,48.216704888255556,70.70192175170172,2.4108352444127776,1.1105831898491325,A,962.1299989521503,Correct
8,4,35,A,63.9927334427955,83.78125880367806,3.199636672139775,1.3160329358307008,A,966.5612913668156,Correct
8,4,36,A,33.77625414839372,51.641821789471464,1.688812707419686,0.8111878397589843,A,968.7641663476825,Correct
8,4,37,A,15.409439845792583,33.408262349316885,0.7704719922896291,0.524775757829072,A,822.4730836227536,Correct
8,4,38,B,84.64926442366902,58.2624893227228,4.232463221183451,0.9151850421805986,B,736.8218321353197,Correct
8,4,39,B,61.20803250318857,30.13115605153615,3.0604016251594284,0.473299092478368,B,995.9533317014575,Correct
8,4,40,B,30.876957341239834,15.894169633920711,1.5438478670619917,0.24966503278417637,A,3793.0070413276553,Incorrect
8,4,41,A,54.31140339733181,66.70788344377519,2.7155701698665906,1.0478449828174417,A,1303.305957466364,Correct
8,4,42,B,65.14012825578365,36.5001488452929,3.257006412789183,0.5733429973365306,B,812.7542082220316,Correct
8,4,43,B,55.62233092812391,24.319568980904105,2.7811165464061953,0.3820108962443927,B,1011.3869160413742,Correct
8,4,44,A,50.33471600117221,80.17828633718827,2.5167358000586106,1.2594375766716475,A,1000.1081256195903,Correct
8,4,45,A,48.36787698669892,74.19894418394259,2.418393849334946,1.1655142897619657,A,2561.6238322108984,Correct
8,4,46,B,57.96065698945664,29.578725234153403,2.8980328494728322,0.46462152949083685,B,944.8696235194802,Correct
8,4,47,B,54.43656195521753,24.377471521905797,2.7218280977608766,0.3829204272315682,B,841.4119994267821,Correct
8,4,48,B,55.897285929781034,36.377798226743074,2.794864296489052,0.5714211183145393,B,3390.2155412361026,Correct
8,4,49,A,52.09953511201828,77.01631206303804,2.604976755600914,1.2097694009190965,A,888.9837078750134,Correct
8,4,50,B,31.930440777080012,14.82891522110316,1.5965220388540007,0.23293205559661775,B,1147.673873230815,Correct
8,4,51,A,57.888032772420544,83.91868367653761,2.8944016386210274,1.3181916006856813,A,1239.4070820882916,Correct
8,4,52,B,80.55002611956458,62.34011486728555,4.0275013059782285,0.9792362344550406,B,845.8350831642747,Correct
8,4,53,B,62.27690139081289,45.31687596224706,3.1138450695406443,0.7118358230331762,B,1737.8564989194274,Correct
8,4,54,A,30.256935723985556,47.03753638411507,1.5128467861992778,0.7388638937364926,A,3408.665208145976,Correct
8,4,55,A,44.38710025716765,64.40875229736604,2.2193550128583825,1.0117303152214492,A,1812.1025832369924,Correct
8,4,56,A,46.014493764028686,74.12365838745247,2.3007246882014343,1.1643317032361007,A,2749.986040405929,Correct
8,4,57,A,41.34375391926103,49.030320010197435,2.0671876959630513,0.7701664657359645,A,1434.1232907027006,Correct
8,4,58,B,80.2733906573677,48.64028152934257,4.013669532868385,0.7640397556056097,B,997.6342087611556,Correct
8,4,59,B,56.68053077944039,40.22419336332118,2.8340265389720196,0.6318401518339256,B,964.3613323569298,Correct
8,4,60,A,36.136334009955405,66.63811900751871,1.8068167004977704,1.0467491256153156,A,1077.3157076910138,Correct
8,4,61,B,72.39897851841474,50.68871640152079,3.619948925920737,0.796216495334571,B,859.5223752781749,Correct
8,4,62,B,86.30700040420261,59.56295461812608,4.31535002021013,0.9356127032720356,B,765.7294571399689,Correct
8,4,63,B,30.99391890815074,12.579521882456966,1.549695945407537,0.19759866765799422,B,1077.966290526092,Correct
8,4,64,B,66.72948908029198,37.5569967302691,3.3364744540145987,0.5899439250935464,B,2113.5191237553954,Correct
8,4,65,B,69.54852671986885,59.62712208597055,3.4774263359934423,0.9366206434999338,B,818.5570407658815,Correct
8,4,66,A,28.698931941212635,45.07722072169304,1.4349465970606317,0.7080713273175823,A,963.4403325617313,Correct
8,4,67,B,68.64063878107035,41.26860558375641,3.432031939053518,0.6482457406291193,B,710.8677495270967,Correct
8,4,68,A,31.93593362404753,47.7423132726062,1.5967966812023764,0.7499345032130105,A,1061.90612539649,Correct
8,4,69,A,22.85489912899205,46.76842824680411,1.1427449564496024,0.7346367530005059,A,1766.7787494137883,Correct
8,4,70,B,31.43108931325478,11.314343844994202,1.571554465662739,0.1777252975181134,B,985.817707143724,Correct
8,4,71,A,18.82899065803261,34.209505457228786,0.9414495329016305,0.5373616551368495,A,1520.4096660017967,Correct
8,4,72,B,59.37558784471395,38.27014160438209,2.9687793922356973,0.6011459785808394,B,1283.5864163935184,Correct
8,4,73,A,54.84457941000014,84.11546152051977,2.742228970500007,1.3212825798308991,A,1279.9471663311124,Correct
8,4,74,B,54.017517781388776,44.14914859319397,2.700875889069439,0.6934932044131117,A,1268.3276664465666,Incorrect
8,4,75,A,10.501877419494754,33.14485720515781,0.5250938709747377,0.5206381995000325,A,1064.6200403571129,Correct
8,4,76,B,42.45274229067097,29.097509421115475,2.1226371145335485,0.45706260917568087,B,1800.7304165512323,Correct
8,4,77,B,51.31908270301645,44.53676316493501,2.565954135150822,0.6995818398681416,B,944.2266235128045,Correct
8,4,78,A,19.871869840979222,45.059652262799354,0.9935934920489612,0.7077953626106057,A,833.047291263938,Correct
8,4,79,A,56.546629292166294,64.12264215253141,2.8273314646083145,1.0072361075757994,A,2602.996874600649,Correct
8,4,80,B,38.31157487132793,18.21190852303575,1.9155787435663965,0.2860719901190922,B,1075.9801240637898,Correct
8,4,81,A,43.74658904768156,71.0758410472499,2.1873294523840783,1.1164567004087806,A,1077.712582424283,Correct
8,4,82,B,48.6217240724818,22.78887121975524,2.43108620362409,0.35796675203793465,B,943.5154162347317,Correct
8,4,83,B,60.637589052287574,31.06629342961378,3.0318794526143784,0.4879881960636976,B,767.1334994956851,Correct
8,4,84,A,53.348535123038744,80.3835051927797,2.6674267561519374,1.2626611469171685,A,804.992207325995,Correct
8,4,85,B,66.40994760706339,39.18413262467906,3.320497380353169,0.6155029159548993,B,1970.4913757741451,Correct
8,4,86,A,28.497773110874498,46.21019676942135,1.424888655543725,0.7258680734587644,A,1658.3053739741445,Correct
8,4,87,B,64.13181523953357,51.63718940985555,3.2065907619766785,0.8111150745101344,A,3815.9291660413146,Incorrect
8,4,88,B,59.57254795170795,40.699066075303215,2.9786273975853974,0.6392994349506907,B,973.4865836799145,Correct
8,4,89,A,43.48541863637194,50.710602115553144,2.174270931818597,0.7965602753266839,A,1594.8596661910415,Correct
8,4,90,A,56.18513470444579,64.99265793413548,2.8092567352222892,1.020902283515772,A,871.2037904188037,Correct
8,4,91,A,30.369291242875406,40.61581756540612,1.5184645621437705,0.6379917704151157,A,1483.1207068637013,Correct
8,4,92,A,41.21706175089001,55.47432367971217,2.060853087544501,0.8713886386752302,A,841.1779580637813,Correct
8,4,93,B,56.18522995418902,45.54173461540276,2.8092614977094508,0.7153678944974263,A,2446.185582317412,Incorrect
8,4,94,B,78.60526180634734,53.56269563669652,3.9302630903173674,0.8413608555935593,B,874.6008332818747,Correct
8,4,95,B,57.50089803862581,41.714019552032326,2.875044901931291,0.6552422868818287,B,1392.8073327988386,Correct
8,4,96,B,58.47214217788293,30.071719574568633,2.923607108894146,0.472365466481386,B,729.096207767725,Correct
8,4,97,A,64.91988580435597,88.02792694713506,3.2459942902177987,1.3827394430392925,A,968.2129565626383,Correct
8,4,98,A,40.79511532084422,58.504994580858636,2.039755766042211,0.9189943058676808,A,869.8636656627059,Correct
8,4,99,B,69.92653231840127,43.98776373459759,3.496326615920063,0.6909581769822766,B,1419.2999992519617,Correct
8,4,100,A,14.82967310458534,40.39223165560567,0.741483655229267,0.6344796911567394,A,803.8417492061853,Correct
8,4,101,B,32.29509986703868,10.075124013823672,1.614754993351934,0.15825967792917278,B,846.0199991241097,Correct
8,4,102,A,53.08846419438403,64.73528793837737,2.6544232097192015,1.0168595250761314,A,1718.2811247184873,Correct
8,4,103,B,35.968148561787395,20.854368862990583,1.7984074280893696,0.32757966007611466,B,887.6170823350549,Correct
8,4,104,B,73.27222287856694,56.60294824447925,3.663611143928347,0.8891170318818965,B,1216.8198321014643,Correct
8,4,105,B,73.25196477454772,55.09118669362668,3.662598238727386,0.8653703369712068,B,3463.606331497431,Correct
8,4,106,A,22.037389049930248,48.43311034714512,1.1018694524965125,0.7607855182854746,A,807.8854577615857,Correct
8,4,107,A,33.27814643354571,59.57537533992586,1.6639073216772855,0.9358078075138281,A,1864.0014994889498,Correct
8,4,108,A,25.652117605351183,36.50180442778333,1.2826058802675593,0.5733690031654773,A,1708.0650413408875,Correct
8,4,109,B,55.13871475695738,45.347215829345785,2.756935737847869,0.7123124005511174,B,814.6331664174795,Correct
8,4,110,B,54.30606330605747,41.88547807143199,2.715303165302873,0.6579355510065354,B,1239.6514564752579,Correct
8,4,111,B,44.19025547526571,36.117471404625434,2.209512773763285,0.5673319141550535,B,704.623750410974,Correct
8,4,112,B,61.197230243131365,39.97915058495199,3.0598615121565684,0.6279910288722264,B,770.599165931344,Correct
8,4,113,A,14.48817906208604,41.39585582686438,0.724408953104302,0.6502445827736968,A,809.1198736801744,Correct
8,4,114,B,69.63067201269078,60.34782640267558,3.4815336006345388,0.9479414404337888,B,1280.462583526969,Correct
8,4,115,A,41.799658335404104,71.3406591486603,2.089982916770205,1.1206164534184233,A,882.4341241270304,Correct
8,4,116,B,72.14333026388954,62.73907421675226,3.607166513194477,0.9855030732618685,B,1207.248124293983,Correct
8,4,117,A,54.249224918790134,79.77410517592642,2.7124612459395063,1.2530887138369498,A,855.8807065710425,Correct
8,4,118,B,85.75429123444628,65.82333269174255,4.287714561722314,1.0339504920958762,B,834.9168738350272,Correct
8,4,119,B,43.21155993702225,17.15046017404352,2.1605779968511127,0.26939879844229725,B,839.8719569668174,Correct
8,4,120,A,41.11114516293586,63.097342955360205,2.055557258146793,0.9911307454479765,A,1706.2076665461063,Correct
8,4,121,A,32.163527136124195,58.614693148259235,1.6081763568062097,0.9207174469349559,A,642.6203325390816,Correct
8,4,122,A,16.102252273876516,39.106200540262606,0.8051126136938258,0.614278761635491,A,818.2183336466551,Correct
8,4,123,A,30.97035385234046,63.93514487306966,1.5485176926170228,1.0042909071971737,A,713.1098322570324,Correct
8,4,124,A,34.69234066100484,65.26512628314946,1.734617033050242,1.0251822063337623,A,632.5527904555202,Correct
8,4,125,B,57.078188975596646,45.4838388242084,2.853909448779832,0.7144584695359765,B,1223.9329563453794,Correct
8,4,126,A,46.81110471639655,77.66140666310872,2.3405552358198274,1.219902523201359,A,750.7028328254819,Correct
8,4,127,B,84.19830440527063,64.94066026463202,4.2099152202635315,1.0200855060331928,B,756.1265826225281,Correct
8,4,128,B,72.58018978743118,47.89421491129002,3.629009489371559,0.7523205685737975,B,698.4639996662736,Correct
8,4,129,A,53.02907790957579,67.1813652649053,2.6514538954787894,1.055282417871795,A,1222.6307075470686,Correct
8,4,130,A,36.63394455043374,45.64299043594615,1.831697227521687,0.716958417207188,A,2372.9016659781337,Correct
8,4,131,A,45.03898438133851,56.438698618275325,2.2519492190669252,0.8865370047867109,A,733.7821656838059,Correct
8,4,132,B,65.23533574034916,49.025362046015694,3.261766787017458,0.7700885862167139,B,759.6342489123344,Correct
8,4,133,B,87.57560192314054,64.85938185646668,4.378780096157027,1.0188087877832541,B,926.9140409305692,Correct
8,4,134,A,61.902551704376435,86.62739088066652,3.0951275852188216,1.3607398739517669,A,908.1550408154726,Correct
8,4,135,B,64.12152799156432,54.23567831289288,3.206076399578216,0.8519320427512178,B,2351.172707043588,Correct
8,4,136,A,59.60095122558448,79.4276276573961,2.980047561279224,1.2476462577027052,A,980.7431241497397,Correct
8,4,137,B,75.1039214247635,49.638500613207,3.7551960712381747,0.7797197443083176,B,962.9430407658219,Correct
8,4,138,A,48.70972975385104,66.54773319994007,2.435486487692552,1.0453293486699264,A,1617.9095404222608,Correct
8,4,139,A,42.594680650485294,69.71371927282348,2.1297340325242646,1.095060541609617,A,729.194332845509,Correct
8,4,140,B,43.004456299872714,21.225501151081357,2.1502228149936355,0.3334093924249944,B,770.6788321956992,Correct
8,4,141,B,44.77802191714507,27.496568929418935,2.238901095857253,0.43191509473793943,B,734.046290628612,Correct
8,4,142,B,67.13512085208565,41.823487091858546,3.3567560426042826,0.6569617989764518,B,688.4358739480376,Correct
8,4,143,B,78.93965799383523,62.7997005203357,3.9469828996917613,0.9864553890116287,B,1314.6192077547312,Correct
8,4,144,B,73.20317207551554,48.5750217958011,3.6601586037757774,0.7630146581082642,B,909.4574991613626,Correct
8,4,145,A,39.86532257095305,71.36578783580134,1.9932661285476525,1.1210111739130066,A,809.1700822114944,Correct
8,4,146,A,17.49339797264054,37.900621080674576,0.8746698986320269,0.5953415637676884,A,437.7497499808669,Correct
8,4,147,A,52.295985622799876,60.787862309257314,2.614799281139994,0.9548535082909534,A,998.1114575639367,Correct
8,4,148,A,54.14918245878738,76.52466694784415,2.707459122939369,1.2020466575087643,A,565.0856653228402,Correct
8,4,149,A,26.165910275620572,42.26174372696559,1.3082955137810286,0.663845918102648,A,513.8593334704638,Correct
8,4,150,A,41.619260041735565,50.45797110917812,2.0809630020867784,0.7925919567581999,A,479.4076243415475,Correct
8,4,151,B,54.25704389910308,37.606295954871854,2.7128521949551545,0.5907183155027448,B,2808.443123474717,Correct
8,4,152,B,44.21382724974232,33.96523815150018,2.2106913624871165,0.5335247132709037,B,560.3404166176915,Correct
8,4,153,A,17.73874921421695,43.35756638427313,0.8869374607108474,0.6810590601518212,A,490.474040620029,Correct
8,4,154,B,74.40549228339731,42.349772653689996,3.720274614169865,0.665228673250152,B,677.7107492089272,Correct
8,4,155,A,66.59431414135688,86.08816566713196,3.329715707067844,1.3522697441044143,A,657.0281237363815,Correct
8,4,156,A,32.33490505980954,42.9117809463438,1.6167452529904773,0.6740566788674407,A,611.9382493197918,Correct
8,4,157,A,51.436026737225916,80.59764808873956,2.571801336861296,1.266024895660998,A,540.0368319824338,Correct
8,4,158,A,48.333159524552784,56.24932107635655,2.4166579762276394,0.8835622693144762,A,1063.0771657451987,Correct
8,4,159,B,46.00750551231789,26.00639217104486,2.3003752756158944,0.4085074529546482,B,623.3450407162309,Correct
8,4,160,B,84.8632628551571,59.63067483764871,4.243163142757855,0.9366764499927945,B,575.2986241132021,Correct
8,4,161,B,44.545992542149506,27.42510725284333,2.2272996271074756,0.43079257734722376,B,956.9123331457376,Correct
8,4,162,A,50.18849040297789,62.050444739632695,2.5094245201488947,0.9746861067300475,A,1083.6452906951308,Correct
8,4,163,B,59.196213064160226,44.42290743089315,2.9598106532080113,0.6977933981799667,A,837.039333768189,Incorrect
8,4,164,A,26.20953300094911,36.817599947076374,1.3104766500474556,0.5783295075827155,A,480.83991557359695,Correct
8,4,165,B,37.4640236647998,12.670525143611435,1.87320118323999,0.19902814354147222,B,682.5734153389931,Correct
8,4,166,B,87.75005931614814,64.28106030284174,4.387502965807407,1.0097245340618504,B,623.5552905127406,Correct
8,4,167,A,42.38683456136044,54.775550159223805,2.119341728068022,0.8604123298827836,A,868.1191653013229,Correct
8,4,168,A,46.698220213582005,65.86199151756358,2.3349110106791002,1.0345577435118551,A,568.8634580001235,Correct
8,4,169,B,77.59832645519299,61.69919817804474,3.8799163227596494,0.9691687386426306,B,534.5569578930736,Correct
8,4,170,A,46.04436248686985,70.30159874116478,2.3022181243434927,1.1042949307043035,A,650.046456605196,Correct
8,4,171,B,72.86238600045903,45.70174237138509,3.6431193000229514,0.7178812904509838,B,567.8661661222577,Correct
8,4,172,B,53.98570119558107,32.102384219567696,2.699285059779054,0.504263072134554,B,935.1712493225932,Correct
8,4,173,A,42.54321939916706,64.20246988103642,2.127160969958353,1.0084900386029199,A,761.6973733529449,Correct
8,4,174,A,54.63291980214087,75.46762589584938,2.731645990107044,1.1854426954913164,A,734.2262910678983,Correct
8,4,175,B,56.362474482736296,35.59499452888067,2.818123724136815,0.5591248665825019,B,680.4460408166051,Correct
8,4,176,B,65.69474361658855,50.9751402244035,3.2847371808294277,0.800715630223478,B,744.6260834112763,Correct
8,4,177,B,56.84523549464675,24.27150105829568,2.8422617747323375,0.38125584708169297,B,599.5702911168337,Correct
8,4,178,A,61.08033174042008,80.06626923531584,3.054016587021004,1.2576780161500536,A,574.4399167597294,Correct
8,4,179,A,53.66178620580827,60.949222374818525,2.683089310290413,0.9573881462737026,A,740.6187076121569,Correct
8,4,180,B,78.91223388030197,60.0702021212401,3.9456116940150987,0.9435805284187095,B,639.1199985519052,Correct
8,4,181,A,52.02906375620853,73.01942857486465,2.6014531878104266,1.146986501900597,A,586.8802070617676,Correct
8,4,182,B,55.900672841378025,37.86550079068975,2.7950336420689013,0.5947898955426472,B,664.1459567472339,Correct
8,4,183,B,55.39572123239909,23.963196299605166,2.7697860616199548,0.3764130072568485,B,503.3995406702161,Correct
8,4,184,A,33.018569306940904,50.364853694561056,1.650928465347045,0.7911292718297888,A,568.9342077821493,Correct
8,4,185,A,57.51294056781162,73.50998711856357,2.875647028390581,1.154692177485798,A,830.2458329126239,Correct
8,4,186,A,42.10526888577648,52.30502730198358,2.105263444288824,0.8216054475886259,A,678.3900829032063,Correct
8,4,187,A,57.321424630887904,78.73085863807204,2.8660712315443955,1.236701435540918,A,693.0042486637831,Correct
8,4,188,B,47.01798144410054,24.943863604489763,2.350899072205027,0.39181729326005427,B,593.5059990733862,Correct
8,4,189,A,14.839751401200886,34.079224049406115,0.7419875700600442,0.5353151995682742,A,597.650040872395,Correct
8,4,190,B,56.33456100358188,43.27756667185692,2.816728050179094,0.6798024276077409,B,902.9487911611795,Correct
8,4,191,A,23.793346088321393,52.65037752555816,1.1896673044160695,0.8270301962151133,A,505.2267499268055,Correct
8,4,192,B,42.6622202162534,27.247420553514846,2.13311101081267,0.42800148120096887,B,635.0684994831681,Correct
8,4,193,B,78.19082576901033,55.2823221342873,3.9095412884505163,0.868372685452307,B,737.78020683676,Correct
8,4,194,A,14.079545151876484,37.88248473579018,0.7039772575938242,0.5950566787284295,A,413.7117490172386,Correct
8,4,195,B,49.44001878536304,28.03214507923618,2.4720009392681517,0.44032790522645826,B,808.7925827130675,Correct
8,4,196,A,52.2767842762961,59.84547339559884,2.613839213814805,0.9400504978510835,A,946.0130408406258,Correct
8,4,197,B,56.83755598687005,30.715663251151252,2.8418777993435027,0.4824805100997738,B,918.4100823476911,Correct
8,4,198,B,88.10334713478031,62.18533349806287,4.405167356739015,0.9768049343927279,B,557.2492498904467,Correct
8,4,199,B,71.27413525948705,42.87589042169001,3.5637067629743524,0.6734929118245115,B,588.9234989881516,Correct
8,4,200,B,64.99412518506179,49.55138201753551,3.2497062592530894,0.7783512886075546,B,503.1412485986948,Correct
8,4,201,A,56.61139609292147,65.40343816568563,2.8305698046460734,1.0273548043041614,A,1494.5728331804276,Correct
8,4,202,A,24.888563842702574,56.62976445322562,1.2444281921351288,0.8895382599038703,A,532.5147910043597,Correct
8,4,203,B,61.033288400211475,37.07895977203304,3.0516644200105736,0.5824349381128522,B,1996.4014161378145,Correct
8,4,204,A,47.19147401844348,73.98439236749024,2.3595737009221738,1.1621441177100604,A,554.6957906335592,Correct
8,4,205,A,64.82178855012705,84.32917067341053,3.2410894275063526,1.3246395153545316,A,653.7374164909124,Correct
8,4,206,B,58.30401384419007,40.02568729876624,2.9152006922095035,0.6287220258634315,B,2387.664332985878,Correct
8,4,207,B,50.05294580154132,42.5864345353855,2.502647290077066,0.6689461493947486,B,507.2805415838957,Correct
8,4,208,A,32.40388119529839,62.105735777402195,1.6201940597649196,0.9755546163203777,A,713.6312490329146,Correct
8,4,209,A,30.81556015569786,43.14046043699781,1.540778007784893,0.6776487679067672,A,1544.0667914226651,Correct
8,4,210,B,70.804123411423,44.24431507430346,3.5402061705711505,0.6949880760027195,B,603.1238744035363,Correct
8,4,211,A,30.362024789105217,47.33977875447222,1.5181012394552607,0.7436115057880804,A,545.1242905110121,Correct
8,4,212,A,49.760302158129655,69.86943361171151,2.4880151079064827,1.0975064967251633,A,675.8343735709786,Correct
8,4,213,A,27.247614019237737,56.54800693421038,1.362380700961887,0.8882540157983,A,531.4673325046897,Correct
8,4,214,B,65.79241697757303,54.838797185053025,3.289620848878651,0.8614058118413161,B,629.3814154341817,Correct
8,4,215,A,41.739821645651965,65.2487285196544,2.0869910822825983,1.0249246308671056,A,553.9241656661034,Correct
8,4,216,B,73.57654362727631,62.166730940313684,3.678827181363815,0.9765127260989137,B,644.0504156053066,Correct
8,4,217,A,23.492863877944018,51.28636647639209,1.1746431938972008,0.805604360757736,A,524.7598737478256,Correct
8,4,218,B,74.69924253434883,61.419704102459264,3.7349621267174418,0.9647784559697244,B,769.2146254703403,Correct
8,4,219,B,69.89382681108786,52.26309397002977,3.494691340554393,0.8209467603505928,B,602.6805825531483,Correct
8,4,220,A,58.31331442815848,79.5015305715984,2.9156657214079242,1.2488071219643893,A,684.1487493366003,Correct
8,4,221,A,30.73169512504115,43.45403279607601,1.5365847562520574,0.6825743510050115,A,509.5680831000209,Correct
8,4,222,B,34.65149309863751,22.53032383539558,1.7325746549318755,0.35390549922138886,B,728.4332066774368,Correct
8,4,223,A,51.22194711356863,62.830992751121585,2.5610973556784313,0.9869469262233855,A,907.7037079259753,Correct
8,4,224,B,83.16374506312103,55.81337359968491,4.1581872531560515,0.8767144223641631,B,601.8892070278525,Correct
8,4,225,B,55.57767730870951,38.35535899046218,2.7788838654354753,0.602484570151176,B,3556.774833239615,Correct
8,4,226,A,44.61484401843632,61.85482598275462,2.230742200921816,0.971613334482485,A,697.417707182467,Correct
8,4,227,B,81.98754740656273,55.27689009327021,4.099377370328137,0.8682873591515405,B,571.9773750752211,Correct
8,4,228,A,48.45947888330004,64.89640354031465,2.422973944165002,1.0193903230332557,A,551.4464164152741,Correct
8,4,229,A,49.45091765651229,64.69204304561663,2.472545882825614,1.0161802358891192,A,559.132750146091,Correct
8,4,230,B,72.53843075867765,42.29408129567606,3.626921537933882,0.6643538754441268,B,551.8645830452442,Correct
8,4,231,A,30.911742726929255,46.854874234593325,1.5455871363464626,0.7359946434013603,A,473.5550004988909,Correct
8,4,232,A,62.745291315076344,76.75816960891822,3.1372645657538167,1.2057145087318841,A,857.6245410367846,Correct
8,4,233,B,65.98007090719864,38.131070418905374,3.299003545359932,0.5989614535077409,B,1416.1133328452706,Correct
8,4,234,A,22.243943788958937,41.06408546137034,1.112197189447947,0.6450331460591224,A,540.6955825164914,Correct
8,4,235,B,67.33587848287583,53.01412663375872,3.3667939241437916,0.8327439538454771,B,1339.808290824294,Correct
8,4,236,B,53.11873887580374,23.501831958558142,2.655936943790187,0.36916591313454045,B,745.8463329821825,Correct
8,4,237,B,85.908706443219,62.86431596977309,4.29543532216095,0.9874703661179333,B,584.2728745192289,Correct
8,4,238,A,54.36728225665889,63.16753360634317,2.7183641128329445,0.9922332976153704,A,1021.9366233795881,Correct
8,4,239,A,22.397768657627907,47.46177511744576,1.1198884328813954,0.7455278201764922,A,747.8670822456479,Correct
8,4,240,A,14.43463297785356,42.00756028520057,0.721731648892678,0.6598532139360823,A,617.3783326521516,Correct
8,4,241,B,42.49481303604377,19.050925661628337,2.1247406518021887,0.2992512405132842,B,715.0084991008043,Correct
8,4,242,B,49.959391620436726,32.71984035398387,2.4979695810218363,0.5139620504135329,B,737.14929074049,Correct
8,4,243,B,63.13258979527757,34.826332224142575,3.1566294897638785,0.547050747334219,B,778.2544158399105,Correct
8,4,244,A,60.80496394566332,76.33267552711375,3.040248197283166,1.1990308633241697,A,935.4893742129207,Correct
8,4,245,B,81.42897082209764,57.47850549970661,4.071448541104882,0.9028702530859939,B,647.4039163440466,Correct
8,4,246,A,19.517231074421307,40.68092098437844,0.9758615537210653,0.6390144125289509,A,456.84499852359295,Correct
8,4,247,B,84.5262070781696,54.727145499869536,4.22631035390848,0.8596519912716493,B,560.8386658132076,Correct
8,4,248,B,47.55534342564694,29.235221095654676,2.377767171282347,0.45922577910091034,B,827.7693316340446,Correct
8,4,249,B,78.37512584696883,54.78937480509127,3.9187562923484416,0.8606294869122623,B,564.87787514925,Correct
8,4,250,A,39.73852617227947,47.846914589046236,1.9869263086139737,0.7515775768494297,A,766.1144575104117,Correct
8,4,251,B,54.38865636714164,32.778058164512736,2.719432818357082,0.5148765336428607,A,691.9203735888004,Incorrect
8,4,252,A,12.674349964078736,31.214070534112384,0.6337174982039369,0.49030947339300546,A,549.2225410416722,Correct
8,4,253,B,53.054226629346644,34.15059611006171,2.6527113314673323,0.5364363092754102,B,971.8561666086316,Correct
8,4,254,A,42.03955510426403,70.5419711405666,2.1019777552132015,1.1080706915247363,A,840.3890831395984,Correct
8,4,255,A,42.38693550151169,69.0386131183607,2.1193467750755843,1.0844559989333493,A,788.3003326132894,Correct
8,4,256,B,48.17915591644254,30.21054888844877,2.408957795822127,0.47454619224432976,B,1039.3154565244913,Correct
8,4,257,A,31.69279111579482,62.89735159329575,1.584639555789741,0.987989288478761,A,523.4837494790554,Correct
8,4,258,B,74.5946775804162,42.10263182709058,3.7297338790208103,0.661346594223918,B,553.375581279397,Correct
8,4,259,A,60.066724224322364,86.22575893209279,3.0033362112161184,1.354431054056336,A,690.2093747630715,Correct
8,4,260,B,53.16888799883451,35.592662583709995,2.6584443999417253,0.5590882364734182,B,670.0118742883205,Correct
8,4,261,A,15.883866051445356,34.91649205547642,0.7941933025722677,0.5484669746530554,A,514.7586660459638,Correct
8,4,262,B,55.169065454941176,39.59666512042983,2.758453272747059,0.6219829612449878,B,2749.381790868938,Correct
8,4,263,B,56.144813942488746,27.425019581689178,2.8072406971244375,0.4307912002119548,B,718.5301659628749,Correct
8,4,264,B,37.34137109926713,16.79654671931728,1.8670685549633563,0.2638395388954245,B,713.3281249552965,Correct
8,4,265,B,53.88913962039973,45.127546797139445,2.6944569810199868,0.7088618474621144,B,1238.3502069860697,Correct
8,4,266,A,30.45551901593865,61.58759967793218,1.5227759507969325,0.9674157535021043,A,581.2312075868249,Correct
8,4,267,B,64.13442217051484,51.49265078826396,3.2067211085257417,0.8088446671513736,B,1852.8293333947659,Correct
8,4,268,B,75.01669191664016,61.006995601976456,3.750834595832008,0.9582956460037704,B,625.4131244495511,Correct
8,4,269,B,76.26343607137733,63.54583363577349,3.813171803568866,0.9981756205819257,B,560.7176655903459,Correct
8,4,270,A,33.21340557960299,49.892537665797555,1.6606702789801495,0.7837101489991082,A,589.2340820282698,Correct
8,4,271,B,42.39150808541544,16.231588722357227,2.1195754042707717,0.25496519943124196,B,689.0464155003428,Correct
8,4,272,B,53.65893825937503,33.46140353500115,2.6829469129687515,0.5256104976218157,B,608.4424573928118,Correct
8,4,273,A,42.20927531634552,64.36508424427288,2.110463765817276,1.0110443790474792,A,528.3925412222743,Correct
8,4,274,B,42.04627623055222,24.891860915535126,2.102313811527611,0.39100043693212033,B,882.0822909474373,Correct
8,4,275,B,75.65263956290231,54.25372524277806,3.7826319781451154,0.8522155232629535,B,584.567416459322,Correct
8,4,276,A,15.756807173240706,41.08120056899877,0.7878403586620353,0.6453019895410768,A,489.848623983562,Correct
8,4,277,B,72.32274331238816,40.056193992795684,3.616137165619408,0.6292012238926726,B,567.3473747447133,Correct
8,4,278,B,45.31827607737696,26.740461760371296,2.2659138038688478,0.4200381910999062,B,1018.522541038692,Correct
8,4,279,A,54.18324462158672,61.683254297361145,2.709162231079336,0.9689182927505041,A,587.1762912720442,Correct
8,4,280,B,78.76867559887883,65.51787909743322,3.9384337799439413,1.0291524382564023,B,632.2181653231382,Correct
8,4,281,A,50.9622921265617,80.41764413385248,2.548114606328085,1.2631974001495463,A,563.9882907271385,Correct
8,4,282,A,20.720636830493884,48.75317288828809,1.0360318415246943,0.7658130489251948,A,527.0192911848426,Correct
8,4,283,B,57.352461496005226,25.050436013523168,2.8676230748002616,0.3934913287465278,B,598.380041308701,Correct
8,4,284,A,60.18418306185847,76.0621344098735,3.0092091530929235,1.1947812133920899,A,754.7861654311419,Correct
8,4,285,A,34.50677606157729,61.49660610232038,1.7253388030788646,0.9659864297587748,A,527.1966652944684,Correct
8,4,286,A,50.20887515144391,78.24286995476015,2.5104437575721956,1.2290361272282802,A,564.7517079487443,Correct
8,4,287,B,85.16045458320622,65.12256745307535,4.258022729160311,1.0229428974674364,B,524.9569993466139,Correct
8,4,288,B,77.60860553613288,48.289879247144356,3.880430276806644,0.7585356494278345,B,511.4739164710045,Correct
8,4,289,B,57.28147672001869,36.94192642091133,2.8640738360009346,0.5802824232669486,B,791.2909584119916,Correct
8,4,290,A,32.9608657861023,46.826908334290025,1.6480432893051153,0.7355553560666411,A,550.6656235083938,Correct
8,4,291,A,32.45169555282449,65.52590886789064,1.6225847776412246,1.0292785695957976,A,889.4225414842367,Correct
8,4,292,A,50.424255319329816,79.82678037851818,2.5212127659664905,1.2539161339843925,A,833.2025827839971,Correct
8,4,293,A,22.143327871639265,52.93410722525704,1.1071663935819631,0.8314870119160095,A,556.7808747291565,Correct
8,4,294,A,45.50696709678941,61.841020814163066,2.275348354839471,0.9713964834013409,A,816.9855838641524,Correct
8,4,295,A,18.62694278872381,34.52906865787898,0.9313471394361905,0.542381342154451,A,486.34312581270933,Correct
8,4,296,B,65.72519557492686,44.871847829712266,3.286259778746343,0.7048453374741157,B,916.544540785253,Correct
8,4,297,B,76.31605702277835,57.00281042118367,3.8158028511389177,0.8953980522658115,B,537.7105828374624,Correct
8,4,298,A,28.90071836085741,51.72165335010631,1.4450359180428705,0.8124418309810594,A,2017.3804154619575,Correct
8,4,299,B,63.138274514159356,42.10809659909514,3.156913725707968,0.6614324346618332,B,700.0312907621264,Correct
