subject,day,trial,cat,x,y,xt,yt,resp,rt,fb
8,11,0,B,51.68882196149621,22.09640677295087,2.5844410980748105,0.347089545943171,B,518.368374556303,Correct
8,11,1,B,70.44152866546746,46.92465051633178,3.522076433273373,0.7370906866718822,B,649.1312915459275,Correct
8,11,2,B,47.70500603165812,36.85453806016704,2.385250301582906,0.578909730106331,B,618.4722073376179,Correct
8,11,3,A,26.764384445170705,57.96748159869388,1.3382192222585354,0.9105510716877911,A,813.4471252560616,Correct
8,11,4,B,70.76904697027234,54.34861294926138,3.5384523485136175,0.8537060158709733,B,714.1887489706278,Correct
8,11,5,A,42.82122148897557,59.25586193434564,2.1410610744487784,0.9307889026753566,A,742.4124162644148,Correct
8,11,6,B,67.9703189520112,56.6639669610602,3.39851594760056,0.8900755116406073,A,903.8822082802653,Incorrect
8,11,7,A,36.86997079518651,68.66696436743504,1.8434985397593255,1.07861815400523,A,1260.0377909839153,Correct
8,11,8,B,55.66391427008913,43.44619312192378,2.7831957135044565,0.6824512056913957,B,724.6874580159783,Correct
8,11,9,B,58.15847890713858,33.333305940630176,2.907923945356929,0.5235983453147238,B,817.8444169461727,Correct
8,11,10,A,57.294020165741706,67.13600058268906,2.8647010082870854,1.0545698311098801,B,1389.151749201119,Incorrect
8,11,11,A,38.48008287202153,55.437894250180115,1.9240041436010769,0.8708164065342684,A,1408.595041371882,Correct
8,11,12,B,50.32298733407593,34.855677294604924,2.5161493667037966,0.547511698623137,B,726.6686232760549,Correct
8,11,13,B,40.89354339276954,30.809511072778633,2.044677169638477,0.48395466823467376,B,924.1504156962037,Correct
8,11,14,A,36.46096649770908,59.0394908132878,1.823048324885454,0.9273901530535351,A,1453.7726659327745,Correct
8,11,15,A,61.813257067157586,72.0789107406854,3.0906628533578795,1.1322128823084585,A,869.9108744040132,Correct
8,11,16,B,76.67538513319754,63.41861804531929,3.833769256659877,0.9961773227599607,B,652.4255834519863,Correct
8,11,17,A,47.21561598219381,62.432692698564125,2.3607807991096905,0.9806904436281908,A,821.7129586264491,Correct
8,11,18,B,35.3833515900857,22.216277453247844,1.7691675795042852,0.34897247018617994,B,1081.3902085646987,Correct
8,11,19,A,31.187235511250833,47.34844130930762,1.5593617755625417,0.7437475768812415,A,910.203498788178,Correct
8,11,20,B,75.95963512630057,57.89702642134591,3.7979817563150284,0.9094443643499723,B,951.0400416329503,Correct
8,11,21,A,42.799948913945926,50.096108766471765,2.139997445697296,0.7869078363709145,A,2832.873707637191,Correct
8,11,22,A,44.619433838792574,63.22067555863872,2.230971691939629,0.9930680494500158,A,2473.054832778871,Correct
8,11,23,B,61.78044629348752,47.6274884621939,3.0890223146743763,0.7481308393088051,B,2061.926333233714,Correct
8,11,24,A,34.20900240735573,55.017902659214556,1.7104501203677867,0.864219194050534,A,2100.0574994832277,Correct
8,11,25,A,30.996057552979888,57.472604182844655,1.5498028776489943,0.902777555417494,A,2175.3088738769293,Correct
8,11,26,A,45.71175037409632,54.36344810472298,2.285587518704816,0.8539390459480384,A,2233.134708367288,Correct
8,11,27,B,31.302018064407847,11.68026441213031,1.5651009032203922,0.18347316434567443,B,1508.7757920846343,Correct
8,11,28,B,58.541412638655295,46.15333528532223,2.927070631932765,0.7249748953551745,B,966.2988325580955,Correct
8,11,29,B,42.99842125436675,32.37444086807951,2.149921062718337,0.5085365279761788,B,1416.3711247965693,Correct
8,11,30,A,47.993302602100066,73.34360240177591,2.3996651301050034,1.1520786124661497,A,722.2654158249497,Correct
8,11,31,A,44.357181885545174,58.455482959915045,2.2178590942772587,0.9182165791445622,A,1394.545916467905,Correct
8,11,32,B,37.47161405144209,22.66149023614693,1.8735807025721045,0.35596585622638005,B,802.9600419104099,Correct
8,11,33,B,49.33713122383021,38.067322811933806,2.466856561191511,0.5979601084390119,B,814.7369576618075,Correct
8,11,34,B,64.88339044370295,41.092282475223044,3.244169522185148,0.6454760637169866,B,839.7194985300303,Correct
8,11,35,B,51.40353047108674,41.81765199135136,2.5701765235543372,0.6568701414320202,B,797.353083267808,Correct
8,11,36,A,15.49547142371528,45.349866249312115,0.7747735711857641,0.7123540332505931,A,789.1686251387,Correct
8,11,37,B,52.102644617408544,38.80844302965607,2.605132230870427,0.6096015975961276,B,884.0113747864962,Correct
8,11,38,B,45.321667136980814,16.808215383184077,2.2660833568490406,0.2640228298388302,B,1033.4348324686289,Correct
8,11,39,B,85.9338906255706,61.75978001868806,4.29669453127853,0.9701203559701607,B,726.2530410662293,Correct
8,11,40,B,45.31614411682135,26.693455856708148,2.2658072058410674,0.4192998240917888,B,819.0205413848162,Correct
8,11,41,B,73.67633816211841,58.06813509862851,3.683816908105921,0.9121321331675547,B,1228.1579580157995,Correct
8,11,42,A,47.98772280115706,65.89740634189307,2.399386140057853,1.0351140382715636,A,1245.0514575466514,Correct
8,11,43,B,50.466014141797444,38.69570015087435,2.5233007070898723,0.6078306365975016,B,983.4337085485458,Correct
8,11,44,B,76.61937587325983,62.04523913130977,3.8309687936629917,0.9746043372257236,B,701.7388744279742,Correct
8,11,45,B,58.87651107236398,32.40310463043994,2.943825553618199,0.5089867773024577,B,532.5140422210097,Correct
8,11,46,A,39.705114240694435,64.59918454698474,1.9852557120347216,1.0147216180034928,A,1412.6770002767444,Correct
8,11,47,A,46.01121804039034,54.99489174096461,2.300560902019517,0.863857739391902,A,1040.4853336513042,Correct
8,11,48,B,42.310875273729636,28.7603777450681,2.115543763686482,0.45176695719186666,B,1254.341958090663,Correct
8,11,49,A,42.22840695414765,50.818103501853,2.1114203477073827,0.7982489031539357,A,800.3760417923331,Correct
8,11,50,B,86.96792178226374,64.22498972659136,4.348396089113187,1.0088437795096967,B,1784.811083227396,Correct
8,11,51,B,58.16555921718106,29.112976102723565,2.908277960859053,0.45730555924225785,B,664.9832502007484,Correct
8,11,52,A,64.12589848465552,88.67214350950961,3.2062949242327763,1.3928587731376763,A,1564.8243334144354,Correct
8,11,53,B,43.05310369166638,28.334051061830415,2.1526551845833186,0.4450702333114226,B,770.3118324279785,Correct
8,11,54,A,45.70655597071854,66.41579202185044,2.285327798535927,1.0432568214909645,A,1611.3382913172245,Correct
8,11,55,A,17.32184638259833,33.10719213771955,0.8660923191299165,0.5200465580042274,A,1502.663915976882,Correct
8,11,56,B,47.27288055227269,21.302564242714325,2.3636440276136343,0.3346198966376797,B,1802.061582915485,Correct
8,11,57,B,42.63109426726538,28.739281387768266,2.1315547133632693,0.45143557638631326,B,675.8432909846306,Correct
8,11,58,B,67.82052423305534,37.68540524204083,3.3910262116527665,0.5919609612797487,B,2498.5082084313035,Correct
8,11,59,A,49.274244333427276,61.15058589752542,2.4637122166713636,0.9605511570918872,A,2273.7250411882997,Correct
8,11,60,A,38.2263303778909,67.34234710242238,1.9113165188945453,1.0578111146623201,A,1437.1214164420962,Correct
8,11,61,B,82.56204168771487,67.65285340217903,4.128102084385744,1.0626885362133645,B,2127.6063742116094,Correct
8,11,62,B,38.35936765429325,20.111370587728906,1.9179683827146625,0.3159086704601549,B,2068.5173328965902,Correct
8,11,63,A,34.146729543693695,45.20504802682197,1.7073364771846848,0.7100792339311884,A,2619.3112498149276,Correct
8,11,64,B,35.16727725164925,20.373522533983657,1.7583638625824625,0.3200265436025458,B,1728.8127914071083,Correct
8,11,65,B,81.13162961019647,66.15017267838736,4.0565814805098235,1.0390844826005898,B,2492.9365403950214,Correct
8,11,66,B,82.98673559296027,59.270268442250256,4.149336779648014,0.9310151995723418,B,960.1011238992214,Correct
8,11,67,A,46.14117724199302,63.86246294593724,2.3070588620996513,1.003149222155534,A,1054.5037081465125,Correct
8,11,68,A,40.57672046384759,66.62110461911173,2.0288360231923797,1.0464818642271922,A,713.4950831532478,Correct
8,11,69,B,46.91226723900915,22.86680508058033,2.3456133619504573,0.35919093426110466,B,638.4555827826262,Correct
8,11,70,A,36.24690418745662,61.29242446619955,1.812345209372831,0.9627791521185988,A,1046.2437914684415,Correct
8,11,71,A,31.061141425367985,53.99999470211984,1.5530570712683993,0.8482299332503374,A,1384.4684585928917,Correct
8,11,72,A,41.57801131023771,62.363147876144325,2.0789005655118857,0.9795980361121447,A,1014.6354995667934,Correct
8,11,73,A,53.547339965658864,68.00196331144056,2.677366998282943,1.0681723418445215,A,3873.114458285272,Correct
8,11,74,A,22.627668016143858,52.02167686391561,1.1313834008071928,0.817154589315497,A,768.6879578977823,Correct
8,11,75,A,34.5637140002451,57.594411067302005,1.7281857000122551,0.9046908934843333,A,2477.5155829265714,Correct
8,11,76,A,47.63776626916713,67.70137247070119,2.381888313458356,1.0634506719595056,A,767.4639169126749,Correct
8,11,77,B,79.49881121001518,58.38724063830974,3.974940560500759,0.9171446312634663,B,746.0897918790579,Correct
8,11,78,A,53.05671587356649,65.26456515170989,2.6528357936783244,1.025173392101721,A,1515.6618328765035,Correct
8,11,79,B,71.69544720735271,44.12933264590466,3.5847723603676354,0.6931819362409716,B,2413.011417724192,Correct
8,11,80,B,83.64130587686336,59.94499795009594,4.182065293843168,0.9416138258973831,B,4678.7299159914255,Correct
8,11,81,B,69.52770053434286,58.16334628920176,3.476385026717143,0.913627707051777,B,693.1110834702849,Correct
8,11,82,B,36.27865956708061,26.157345613472668,1.8139329783540306,0.41087862408347464,B,2280.0710825249553,Correct
8,11,83,B,32.16547836808299,16.146432071737685,1.6082739184041492,0.25362756189128866,B,721.246249973774,Correct
8,11,84,A,39.883261573118205,65.66650550395842,1.9941630786559101,1.0314870563907474,A,606.8361243233085,Correct
8,11,85,B,57.76204194854705,46.09688590597476,2.8881020974273524,0.7240881905778859,B,1796.5125823393464,Correct
8,11,86,B,76.13428637724049,47.17803582681739,3.8067143188620243,0.7410708538216279,B,964.5375832915306,Correct
8,11,87,B,76.72570096586028,62.11022615486323,3.8362850482930138,0.9756251510045947,B,1178.772666491568,Correct
8,11,88,B,33.4407875353926,16.60761140237637,1.67203937676963,0.2608717498768985,B,873.3590422198176,Correct
8,11,89,A,30.63931106227305,63.90972964323999,1.5319655531136525,1.0038916857005629,A,1163.8632491230965,Correct
8,11,90,A,35.94360892230985,58.53958545232901,1.7971804461154925,0.9195376580061436,A,1514.9759156629443,Correct
8,11,91,B,83.91135208114807,54.25554044550098,4.195567604057403,0.8522440364006489,B,1167.5379164516926,Correct
8,11,92,B,74.69254741639041,45.09844783675104,3.7346273708195206,0.708404762061198,B,838.255750015378,Correct
8,11,93,B,53.96839652608374,22.300835550163086,2.6984198263041868,0.3503007056665322,B,749.6495824307203,Correct
8,11,94,A,32.10649345566478,44.267996083782535,1.605324672783239,0.6953600564297647,A,776.2168329209089,Correct
8,11,95,B,77.95565086784117,65.87841683361094,3.8977825433920588,1.0348157517729915,B,723.3499996364117,Correct
8,11,96,A,32.16519158545762,64.98982706743078,1.608259579272881,1.0208578163655582,A,961.2370412796736,Correct
8,11,97,A,60.35502553315716,84.52063688929537,3.017751276657858,1.327647059640704,A,945.3554162755609,Correct
8,11,98,B,62.71390188333775,39.23423449878156,3.1356950941668873,0.6162899143529569,B,1709.7068335860968,Correct
8,11,99,B,60.18618830425259,44.93406358853966,3.009309415212629,0.705822620328464,B,678.4376660361886,Correct
8,11,100,A,52.62441591461008,81.41547568154101,2.6312207957305045,1.2788713014482387,A,862.4608758836985,Correct
8,11,101,B,57.71277643998507,43.33032478670218,2.8856388219992533,0.6806311501378164,B,1426.7144165933132,Correct
8,11,102,A,19.254989414845,37.21241038888621,0.9627494707422499,0.5845311755004671,A,1452.8776668012142,Correct
8,11,103,A,30.19550714554746,39.66930807015163,1.5097753572773729,0.6231240340308933,A,1248.1891252100468,Correct
8,11,104,B,76.75364665977604,63.82199790677731,3.837682332988802,1.0025135988067737,B,2867.5704170018435,Correct
8,11,105,A,55.135468079497194,81.36577421203228,2.7567734039748597,1.2780905925908321,A,1673.9988755434752,Correct
8,11,106,B,58.39533212481736,50.87690541188583,2.919766606240868,0.7991725613968165,A,3600.1055827364326,Incorrect
8,11,107,A,14.274546140594541,40.26478542209992,0.713727307029727,0.6324777704021924,A,2122.905750758946,Correct
8,11,108,A,49.8620301885196,75.85825009811593,2.49310150942598,1.191578606112091,A,2557.5035829097033,Correct
8,11,109,B,85.54226797008664,58.470439492256695,4.277113398504332,0.9184515158052008,B,3118.478915654123,Correct
8,11,110,B,83.96673747949292,67.74869324472476,4.198336873974646,1.0641939849396789,B,1180.4265826940536,Correct
8,11,111,B,74.11030282661795,45.730249820285785,3.7055151413308978,0.7183290844111789,B,683.692748658359,Correct
8,11,112,B,39.70134255639776,17.401221254351107,1.9850671278198881,0.27333774428080004,B,926.0692074894905,Correct
8,11,113,B,81.4602239948907,52.84167951378346,4.073011199744535,0.8300351608192419,B,839.3147075548768,Correct
8,11,114,B,84.76365234061734,69.1924804164966,4.238182617030867,1.0868729408006066,B,602.9502497985959,Correct
8,11,115,B,36.27798689463672,23.501349891715407,1.813899344731836,0.369158340846282,B,1115.1369158178568,Correct
8,11,116,B,62.3316589478611,33.27950052315889,3.1165829473930553,0.5227531717934683,B,700.984250754118,Correct
8,11,117,A,62.970146506860345,88.74780388478784,3.1485073253430174,1.394047243533386,A,950.1958750188351,Correct
8,11,118,A,56.22804266836812,80.51474766612576,2.811402133418406,1.2647226988676832,A,891.8647076934576,Correct
8,11,119,A,62.59768576384915,80.48916489439672,3.1298842881924576,1.264320845629071,A,894.9936665594578,Correct
8,11,120,A,27.759906237948144,43.772644183041194,1.387995311897407,0.6875790869682111,A,1343.1899575516582,Correct
8,11,121,A,34.146301326239225,44.3243847232221,1.7073150663119612,0.696245807106811,A,771.112916059792,Correct
8,11,122,B,59.025858179539426,30.270318565187292,2.9512929089769715,0.4754850521310756,B,655.898374505341,Correct
8,11,123,A,36.41867774895177,54.52866520925344,1.8209338874475887,0.8565342701572397,A,980.1178332418203,Correct
8,11,124,A,46.35084551577883,62.850527675360865,2.3175422757889415,0.9872537800957784,A,857.3044156655669,Correct
8,11,125,A,55.359707294465814,84.93288524358391,2.767985364723291,1.3341226416471408,A,779.441375285387,Correct
8,11,126,A,16.789773175530314,38.533018539730435,0.8394886587765157,0.6052752398252822,A,1052.3527078330517,Correct
8,11,127,A,35.6429054054646,67.21402492275034,1.78214527027323,1.0557954345775686,A,761.481249704957,Correct
8,11,128,A,59.047238257123894,74.9955668064244,2.952361912856195,1.1780276086543273,A,1055.0488326698542,Correct
8,11,129,B,47.046426774354224,25.604839992074375,2.352321338717711,0.40219988607721496,B,799.5293736457825,Correct
8,11,130,A,30.559021504333224,51.77297855427172,1.5279510752166612,0.8132480454028096,A,790.7169573009014,Correct
8,11,131,A,19.173374805360865,45.46926234176533,0.9586687402680433,0.714229502685185,A,771.3059987872839,Correct
8,11,132,B,80.06984642565985,59.384047429263674,4.003492321282993,0.9328024357210131,B,1623.8468745723367,Correct
8,11,133,A,21.587192008583884,38.881207694335316,1.079359600429194,0.610744582276114,A,958.6255410686135,Correct
8,11,134,B,58.28129247550416,49.38918778813351,2.914064623775208,0.7758035476098348,B,914.9761255830526,Correct
8,11,135,B,63.3817289456229,51.01119818449497,3.169086447281145,0.801282027336112,B,768.8069986179471,Correct
8,11,136,A,10.986149841110763,31.84977514889068,0.5493074920555381,0.5002950981312085,A,812.0062910020351,Correct
8,11,137,A,51.71567556658999,66.68016410010034,2.5857837783294992,1.0474095683851854,A,780.2480412647128,Correct
8,11,138,A,33.16091318099643,58.21888962484154,1.6580456590498216,0.914500179727786,A,655.7133747264743,Correct
8,11,139,B,62.368784465124726,32.418635399753214,3.118439223256236,0.5092307340563534,B,740.298124961555,Correct
8,11,140,A,66.94381481679345,82.35164447967006,3.3471907408396726,1.2935766065418495,A,1043.431124649942,Correct
8,11,141,A,57.0444164577933,70.0091508999673,2.852220822889665,1.0997011707569826,A,854.249082505703,Correct
8,11,142,B,82.62132125164922,55.69698952082565,4.131066062582461,0.8748862655284679,B,700.6468325853348,Correct
8,11,143,B,73.15174748786534,51.63637329465942,3.657587374393267,0.8111022550026111,B,814.5594578236341,Correct
8,11,144,B,36.433484515723265,25.64418109560497,1.8216742257861631,0.40281785468639414,B,1636.578624136746,Correct
8,11,145,B,85.79873927403781,56.60794448376144,4.289936963701891,0.8891955126250191,B,609.2441249638796,Correct
8,11,146,B,57.87854525315567,32.597629745049396,2.8939272626577837,0.5120423706574365,B,594.8983328416944,Correct
8,11,147,B,58.81914188108317,28.40655168793014,2.9409570940541583,0.4462090704831004,B,529.9454154446721,Correct
8,11,148,A,52.69186128811606,65.00782403862183,2.634593064405803,1.0211405121279615,A,699.9994572252035,Correct
8,11,149,B,36.32643980718322,12.295200897514562,1.816321990359161,0.19313256407021193,B,554.109999909997,Correct
8,11,150,A,37.70147924230122,46.74244531208025,1.885073962115061,0.7342286140162697,A,720.9474164992571,Correct
8,11,151,A,44.98366657874233,55.63601807397029,2.249183328937116,0.8739285282808701,A,808.0660002306104,Correct
8,11,152,A,43.88286362708639,74.06055911246892,2.194143181354319,1.1633405421424248,A,707.5617909431458,Correct
8,11,153,A,44.292961406783526,70.53353981936566,2.214648070339176,1.1079382526410115,A,1659.926707856357,Correct
8,11,154,A,15.825661011182415,40.49072167611415,0.7912830505591208,0.6360267687811461,A,835.1304577663541,Correct
8,11,155,A,31.56546069245159,53.28460140133919,1.5782730346225795,0.8369925615595379,A,761.6842910647392,Correct
8,11,156,A,28.212562803916157,56.45191734883155,1.410628140195808,0.886744644120737,A,735.8791241422296,Correct
8,11,157,A,56.51391673726517,75.4239505695472,2.8256958368632588,1.184756645070046,A,1022.318665869534,Correct
8,11,158,B,69.1424878005282,41.39348373859429,3.45712439002641,0.650207322098282,B,2908.5301673039794,Correct
8,11,159,A,18.054537568021015,42.85164923458112,0.9027268784010508,0.6731121321478336,A,2576.539915986359,Correct
8,11,160,A,38.24029645226506,70.48727107842689,1.9120148226132532,1.107211464957891,A,1694.0307915210724,Correct
8,11,161,B,75.0084734333406,56.730767801581706,3.75042367166703,0.8911248167897873,B,1828.6172915250063,Correct
8,11,162,B,35.90601602070384,22.756082720846468,1.795300801035192,0.3574517115014645,B,4357.202999293804,Correct
8,11,163,A,20.94689289271089,48.14183549015622,1.0473446446355446,0.7562101835310158,A,3539.1851663589478,Correct
8,11,164,A,57.10813313613703,72.7220753335807,2.8554066568068515,1.1423156881089034,A,859.6913740038872,Correct
8,11,165,B,44.757204805502056,18.51455019570549,2.237860240275103,0.2908258743967392,B,796.934749931097,Correct
8,11,166,A,62.99426217178668,75.90415444268284,3.149713108589334,1.1922996698703872,A,1370.1172079890966,Correct
8,11,167,A,66.5198058212312,87.69930455092933,3.32599029106156,1.3775774545106674,A,765.1223335415125,Correct
8,11,168,A,32.795486787477046,48.24457833056886,1.6397743393738522,0.7578240642942622,A,975.0420404598117,Correct
8,11,169,A,28.490049294724525,37.815242812074445,1.4245024647362263,0.5940004450606365,A,1192.2348327934742,Correct
8,11,170,A,58.77195509903669,73.73998813123411,2.9385977549518345,1.1583050249444182,A,1796.9002909958363,Correct
8,11,171,B,48.13834662251105,33.93915554775954,2.4069173311255527,0.5331150086894133,B,1305.558916181326,Correct
8,11,172,A,30.773853636879302,61.742502415884836,1.538692681843965,0.9698489600199691,A,896.2666662409902,Correct
8,11,173,A,24.22692239028306,46.401120126740295,1.211346119514153,0.728867090542524,A,1097.6530835032463,Correct
8,11,174,A,22.287990821845447,40.37113784725209,1.1143995410922725,0.6341483503899401,A,1005.8752503246069,Correct
8,11,175,B,54.16798762133171,36.9105617105639,2.708399381066586,0.5797897475489013,B,713.0401665344834,Correct
8,11,176,A,59.749515004030684,79.81938868113708,2.987475750201534,1.253800025473443,A,3950.2526251599193,Correct
8,11,177,B,62.33548857700664,32.008638027033186,3.116774428850332,0.5027905103857118,B,682.3629587888718,Correct
8,11,178,B,51.265491211967,35.75839252062502,2.5632745605983502,0.5616915162348789,B,664.3109163269401,Correct
8,11,179,A,43.49787105436153,65.98558555934078,2.1748935527180766,1.0364991541802286,A,911.1090824007988,Correct
8,11,180,B,56.3745643429287,48.27182516028142,2.818728217146435,0.7582520564945553,B,675.3620421513915,Correct
8,11,181,A,39.38100464630095,69.91651057413468,1.9690502323150474,1.0982459799216728,A,703.5539159551263,Correct
8,11,182,A,65.74226330676844,85.4676248607089,3.287113165338422,1.3425223119108571,A,824.2694577202201,Correct
8,11,183,A,54.338337621100955,83.6968210736749,2.716916881055048,1.3147065910693825,A,909.0302912518382,Correct
8,11,184,A,17.27430357844939,31.93350004594837,0.8637151789224695,0.5016102457388036,A,982.4842503294349,Correct
8,11,185,B,78.1904423162184,66.40985511520242,3.90952211581092,1.0431635647794122,B,671.879624016583,Correct
8,11,186,A,63.02859372222674,76.42868012372942,3.151429686111337,1.200538900001363,A,807.7590828761458,Correct
8,11,187,A,40.57326491642551,72.69197478001186,2.028663245821275,1.1418428697190988,A,815.5565829947591,Correct
8,11,188,B,56.75097049622612,40.90405152237723,2.8375485248113055,0.6425193388237935,B,1109.257916919887,Correct
8,11,189,B,74.51311627700474,53.074607959284876,3.725655813850237,0.8336939922852385,B,618.8733754679561,Correct
8,11,190,B,75.53483259582903,61.896354047902825,3.7767416297914513,0.9722656558044218,B,696.877583861351,Correct
8,11,191,A,49.20829912043119,73.98034623877913,2.46041495602156,1.162080561268889,A,820.0176656246185,Correct
8,11,192,A,40.20525625118995,48.56196270860824,2.0102628125594975,0.7628095264463256,A,1852.621791884303,Correct
8,11,193,B,86.36454409837661,66.75987683417995,4.318227204918831,1.0486616930840957,B,1935.3377493098378,Correct
8,11,194,B,59.864765663747015,28.340198174692038,2.9932382831873507,0.44516679193445685,B,669.8297085240483,Correct
8,11,195,A,30.442932959590642,43.10620626808833,1.5221466479795323,0.6771107046797629,A,976.812083274126,Correct
8,11,196,B,37.65632892021242,18.178713640549947,1.882816446010621,0.2855505661243214,B,2573.7286247313023,Correct
8,11,197,A,17.359384270713285,37.79285126816778,0.8679692135356644,0.5936487195114379,A,1404.106916859746,Correct
8,11,198,A,52.36188024464936,71.73994263611178,2.618094012232468,1.1268883837728096,A,2607.2049578651786,Correct
8,11,199,B,43.50837490439139,15.059347736631825,2.1754187452195692,0.23655168108628308,B,1493.011249229312,Correct
8,11,200,B,53.846700244754665,43.10294037469244,2.692335012237733,0.6770594041462633,B,1067.1544997021556,Correct
8,11,201,B,38.134984867794756,15.647987788495762,1.9067492433897377,0.24579801739900536,B,1550.3824157640338,Correct
8,11,202,B,59.40208328650108,47.54212125258639,2.970104164325054,0.746789894316003,B,996.117833070457,Correct
8,11,203,B,37.95005629446915,13.848093185611305,1.8975028147234576,0.21752533909071675,B,3482.407541014254,Correct
8,11,204,A,40.959423592416314,50.971965877423415,2.047971179620816,0.8006657676977149,A,842.2681661322713,Correct
8,11,205,A,33.01572280788017,49.38100298352988,1.6507861403940083,0.7756749809997657,A,2198.555041104555,Correct
8,11,206,A,17.675548241652272,40.748537729408795,0.8837774120826137,0.640076533876186,A,966.7264996096492,Correct
8,11,207,A,30.469060411490496,44.51010339320452,1.5234530205745247,0.6991630691530673,A,696.6275833547115,Correct
8,11,208,B,53.719052756594486,34.65804251369779,2.6859526378297245,0.5444072587441785,B,973.7479174509645,Correct
8,11,209,A,19.913209463009974,40.714363327728165,0.9956604731504988,0.6395397236298825,A,838.2597081363201,Correct
8,11,210,A,16.539356928064706,32.916032117203216,0.8269678464032353,0.5170438234236566,A,1082.0774156600237,Correct
8,11,211,B,81.62786411090698,56.027688845815234,4.08139320554535,0.8800808783781396,B,772.5385408848524,Correct
8,11,212,B,50.43141586040982,33.61231681696997,2.521570793020491,0.5279810379116275,B,2227.155958302319,Correct
8,11,213,B,49.23536976562018,20.20035471115041,2.461768488281009,0.3173064298022905,B,873.3231239020824,Correct
8,11,214,A,33.285888725820264,56.22257479612148,1.664294436291013,0.8831421397269894,A,818.5092499479651,Correct
8,11,215,B,40.677106597302405,20.998387019688014,2.0338553298651205,0.32984189199143565,B,1038.411958143115,Correct
8,11,216,B,52.71233057143069,31.255583464497967,2.6356165285715343,0.49096155697864713,B,997.9201657697558,Correct
8,11,217,B,68.8943181850671,56.68159644019278,3.4447159092533552,0.890352434851255,B,1480.2943747490644,Correct
8,11,218,B,81.88122917076029,55.530129600733645,4.094061458538015,0.8722652360327695,B,1303.2170832157135,Correct
8,11,219,B,67.96876379005423,35.065968938517564,3.3984381895027114,0.5508149520412733,B,668.8787080347538,Correct
8,11,220,B,44.75285908944133,19.33718206413681,2.2376429544720664,0.3037477455691026,B,1231.5965006127954,Correct
8,11,221,A,50.14910476569762,66.56483478298233,2.507455238284881,1.0455979797081782,A,1630.4857907816768,Correct
8,11,222,A,27.80518302788078,57.876288432452895,1.390259151394039,0.9091186127821898,A,869.5986671373248,Correct
8,11,223,B,45.83237263206002,27.558636820897593,2.291618631603001,0.43289005489740523,B,1868.710707873106,Correct
8,11,224,A,23.140771727554764,38.47006649234247,1.1570385863777382,0.6042863913772698,A,13396.929332986474,Correct
8,11,225,A,22.516900061692983,48.62917004891348,1.1258450030846492,0.763865216879177,A,930.1488744094968,Correct
8,11,226,B,62.3589137148085,38.07830210630033,3.117945685740425,0.5981325707916292,B,580.7237075641751,Correct
8,11,227,B,54.28561357754177,22.941415082156126,2.7142806788770883,0.36036290542527893,B,676.5167498961091,Correct
8,11,228,A,55.562477254382976,69.59469241582947,2.778123862719149,1.0931908721120558,A,917.0038746669888,Correct
8,11,229,A,27.846666040012135,38.33028720437123,1.3923333020006066,0.6020907434561974,B,2179.6592073515058,Incorrect
8,11,230,B,46.94780935292367,36.29344894786243,2.347390467646184,0.570096162940204,B,869.2486248910427,Correct
8,11,231,A,18.308501746892706,37.56623630137646,0.9154250873446352,0.5900890599371125,A,812.3141657561064,Correct
8,11,232,A,18.534910195672595,43.2908445329969,0.9267455097836297,0.6800109957628045,A,1024.1124164313078,Correct
8,11,233,A,57.92018333300059,81.81234084372846,2.8960091666500296,1.2851052448382076,A,1356.8328330293298,Correct
8,11,234,B,67.8339127000627,54.31226978152882,3.391695635003135,0.8531351387271894,B,1151.13424975425,Correct
8,11,235,B,78.93161187479855,51.007054048702926,3.9465805937399274,0.8012169314033132,B,2453.0453328043222,Correct
8,11,236,B,66.83785979855396,48.78344458926064,3.341892989927698,0.7662885556921297,B,803.9144575595856,Correct
8,11,237,A,37.303426382566094,69.8607945415449,1.8651713191283048,1.0973707945283169,A,855.1242081448436,Correct
8,11,238,B,41.002062716587744,15.789025608912702,2.0501031358293873,0.2480134343015063,B,911.4431655034423,Correct
8,11,239,B,79.80727586294616,65.5213000264079,3.9903637931473077,1.029206174083079,B,853.9815414696932,Correct
8,11,240,A,36.544650161139955,53.28256239191937,1.8272325080569976,0.8369605328744685,A,1260.6432484462857,Correct
8,11,241,A,54.35389354204375,65.54471207248525,2.7176946771021875,1.0295739296428894,B,2897.766500711441,Incorrect
8,11,242,A,47.05942295660705,75.99344680477728,2.3529711478303525,1.193702271014275,A,1222.7183757349849,Correct
8,11,243,A,31.1119505888543,62.21232179692049,1.5555975294427151,0.977228865599848,A,698.966583237052,Correct
8,11,244,B,59.28737396245203,50.63572459894712,2.964368698122602,0.7953841020462412,B,926.3342497870326,Correct
8,11,245,A,16.42242289961021,33.74047660250736,0.8211211449805106,0.529994167115277,A,683.2830831408501,Correct
8,11,246,B,86.80671473246639,68.06063698632492,4.340335736623319,1.0690939857744006,B,1563.4805830195546,Correct
8,11,247,A,47.947507753767525,79.61651488018079,2.3973753876883763,1.250613291259992,A,1126.496957615018,Correct
8,11,248,B,76.4077355080579,61.931247009645034,3.820386775402895,0.9728137531657784,B,958.8684160262346,Correct
8,11,249,B,63.11408272590775,47.071493935624474,3.1557041362953875,0.7393972977082718,B,984.3455404043198,Correct
8,11,250,A,35.918626925658224,43.68960486884299,1.7959313462829112,0.68627470847099,A,555.1959993317723,Correct
8,11,251,B,71.9869052021205,47.69053783989562,3.599345260106025,0.7491212166178106,B,1306.1907077208161,Correct
8,11,252,A,38.39671954456274,47.59722676439228,1.9198359772281373,0.7476554896713115,A,740.2676669880748,Correct
8,11,253,B,37.65428203888885,22.110861576136365,1.8827141019444427,0.3473166014606542,B,919.0148329362273,Correct
8,11,254,B,50.58976263508836,25.05654688496285,2.5294881317544182,0.3935873180906375,B,1020.1922496780753,Correct
8,11,255,B,72.66998407918285,45.608292633301545,3.633499203959143,0.716413385397768,B,1287.495999597013,Correct
8,11,256,B,48.612867138442894,39.391412659407735,2.4306433569221446,0.6187588631265967,B,757.8157084062696,Correct
8,11,257,B,43.1121763336575,23.644919611160244,2.155608816682875,0.37141352872571126,B,786.031000316143,Correct
8,11,258,A,31.354538787383472,62.21971250496683,1.5677269393691737,0.9773449585703639,A,1052.489249035716,Correct
8,11,259,B,37.432701567047786,11.360641931976112,1.8716350783523894,0.17845254616780154,B,1239.0320831909776,Correct
8,11,260,A,29.90421854040195,38.7696307148127,1.4952109270200975,0.6089919351802239,A,920.7245409488678,Correct
8,11,261,B,70.68341137331973,60.426124403552194,3.5341705686659863,0.9491713425555125,B,658.7681248784065,Correct
8,11,262,A,41.99348662044553,58.24854406466564,2.0996743310222765,0.9149659905792745,A,513.0788749083877,Correct
8,11,263,B,56.919691108640414,40.82347814863586,2.845984555432021,0.6412536952286892,B,616.8495416641235,Correct
8,11,264,A,53.49976263937234,66.60605641938353,2.674988131968617,1.0462454876586131,A,631.8532498553395,Correct
8,11,265,A,68.22303420836364,87.76691768936891,3.411151710418182,1.3786395192057073,A,1168.6225831508636,Correct
8,11,266,A,67.82246124908045,82.57465409226157,3.3911230624540223,1.2970796333448364,A,623.3674576506019,Correct
8,11,267,A,23.597754648719885,53.155047561274415,1.1798877324359942,0.8349575345985788,A,808.8037492707372,Correct
8,11,268,A,29.34929325147559,52.7591648107243,1.4674646625737795,0.828739022894523,A,790.2502082288265,Correct
8,11,269,A,49.0796281898552,61.64866820294323,2.4539814094927603,0.9683750156498057,A,535.9509577974677,Correct
8,11,270,B,64.16584351718016,50.93521623779877,3.2082921758590084,0.8000885057083807,B,1038.0819579586387,Correct
8,11,271,B,41.11790424185371,30.634722892721687,2.055895212092685,0.4812091019226675,B,944.153749383986,Correct
8,11,272,A,61.2136069142929,83.45293867571736,3.0606803457146454,1.3108756953205658,A,591.4763323962688,Correct
8,11,273,B,44.040405380198365,31.061642210505163,2.2020202690099184,0.48791513488478827,B,1254.6774158254266,Correct
8,11,274,A,37.456625147325504,50.76331523350353,1.872831257366275,0.7973882910471877,A,617.3082077875733,Correct
8,11,275,B,61.72906333866773,44.43325222612166,3.086453166933387,0.6979558938434306,B,1728.578208014369,Correct
8,11,276,B,70.90897401925494,61.11065111124497,3.5454487009627473,0.9599238629358807,B,1065.8340407535434,Correct
8,11,277,A,48.614928283348476,69.60494375218283,2.430746414167424,1.0933518997269418,A,814.1371244564652,Correct
8,11,278,A,42.07462907631882,68.90969840883943,2.103731453815941,1.082431011411491,A,792.5857910886407,Correct
8,11,279,B,75.69854551855639,64.23817457229029,3.7849272759278194,1.0090508865816292,B,670.3517502173781,Correct
8,11,280,A,38.37330961628381,65.08602496398609,1.9186654808141907,1.022368889391103,A,661.655250005424,Correct
8,11,281,A,49.21284971050272,69.61694588805273,2.460642485525136,1.093540428836323,A,1322.9352915659547,Correct
8,11,282,A,28.411395682915696,49.835452571925785,1.4205697841457847,0.7828134584414231,A,841.8064583092928,Correct
8,11,283,B,35.36127701294339,18.665180681751,1.7680638506471695,0.2931919725385753,B,773.2575824484229,Correct
8,11,284,B,76.99670460937553,58.56772779347196,3.849835230468776,0.9199797168670912,B,721.0431238636374,Correct
8,11,285,B,50.88798149824235,28.812745791119784,2.5443990749121173,0.4525895525356607,B,728.3975416794419,Correct
8,11,286,A,26.8898202185352,58.7390278089121,1.3444910109267598,0.9226704912174241,A,760.927458293736,Correct
8,11,287,B,34.97078082845945,11.12423547266614,1.7485390414229727,0.17473908218865464,B,571.4341253042221,Correct
8,11,288,A,16.51785457676405,31.454670805851293,0.8258927288382025,0.4940888136237388,A,752.1766666322947,Correct
8,11,289,A,41.03951478695476,60.8457420308327,2.051975739347738,0.9557626808314186,A,855.9541674330831,Correct
8,11,290,B,54.147593777108675,44.24702317413003,2.7073796888554336,0.6950306147353211,B,1749.578041024506,Correct
8,11,291,A,53.11606894070669,69.71135838366433,2.6558034470353347,1.0950234568494255,A,893.612707965076,Correct
8,11,292,A,51.62505304184974,64.72563205644225,2.581252652092487,1.016707850837375,A,1104.9859998747706,Correct
8,11,293,B,47.27168391624421,21.188804950506906,2.3635841958122104,0.3328329698542977,B,1572.2344163805246,Correct
8,11,294,B,50.05612973536304,42.13825866140773,2.502806486768152,0.661906219228725,A,3296.950082294643,Incorrect
8,11,295,B,35.93563432597074,13.238931269734689,1.796781716298537,0.20795664609189346,B,1349.319332279265,Correct
8,11,296,B,48.454497197210614,41.48598567632907,2.422724859860531,0.6516603391384339,B,4677.676082588732,Correct
8,11,297,B,35.14030285869207,13.67082570416924,1.7570151429346033,0.21474082800362299,B,744.9328331276774,Correct
8,11,298,A,30.863833848849502,44.82714899419325,1.5431916924424751,0.7041432098076631,A,3976.8642084673047,Correct
8,11,299,A,46.7322275622711,62.641581507294774,2.336611378113555,0.9839716613628174,A,5844.137833453715,Correct
