subject,day,trial,cat,x,y,xt,yt,resp,rt,fb,resp_key
8,23,0,A,24.18281376768199,48.45609188574614,1.2091406883840994,0.7611465114496603,B,1432.0651660018484,Incorrect,d
8,23,1,B,52.344548954572176,26.45120210872091,2.617227447728609,0.41549451111688224,B,824.795416003326,Correct,d
8,23,2,A,27.46664938972924,42.09784510177906,1.3733324694864621,0.6612714045185507,A,838.211082998896,Correct,k
8,23,3,B,57.74640940867577,49.63035115467861,2.8873204704337883,0.7795917329131001,B,1156.008499005111,Correct,d
8,23,4,B,31.742820717607405,15.257683772307459,1.5871410358803704,0.23966713624938657,B,914.9087069963571,Correct,d
8,23,5,A,28.959115356849654,56.964930837092595,1.4479557678424828,0.8948030411503037,A,731.5857069988851,Correct,k
8,23,6,A,59.22447927867668,69.25119037078501,2.961223963933834,1.087795154606032,B,747.9741659990395,Incorrect,d
8,23,7,A,44.094210813069154,63.97045182369944,2.2047105406534575,1.0048455074807696,A,710.4104160025599,Correct,k
8,23,8,A,26.953364340744564,51.49261111747147,1.3476682170372283,0.8088440440040224,A,1647.8057490021456,Correct,k
8,23,9,B,46.57090946399224,25.397027849003692,2.3285454731996116,0.398935580567227,B,768.5872910005855,Correct,d
8,23,10,A,22.54889391699175,51.28546828957472,1.1274446958495874,0.8055902520722011,A,824.5005829958245,Correct,k
8,23,11,B,84.47729758069062,58.462182450882224,4.223864879034531,0.9183218145025885,B,699.8880409955746,Correct,d
8,23,12,B,58.99408409609149,32.50922146488976,2.9497042048045743,0.5106536566401064,B,455.98020799661754,Correct,d
8,23,13,B,60.20754078500282,36.664589350332946,3.010377039250141,0.5759260227494627,B,466.75887400488136,Correct,d
8,23,14,A,63.194692067913266,83.62136576163749,3.159734603395663,1.3135213417995268,A,608.9361659978749,Correct,k
8,23,15,B,46.689986244506,21.25946426031198,2.3344993122253,0.3339428836972544,B,855.5513749961392,Correct,d
8,23,16,B,75.45683232965612,45.88214416716224,3.772841616482806,0.7207150352325232,B,1496.861791005358,Correct,d
8,23,17,B,89.62492850113195,67.75653463564727,4.4812464250565975,1.0643171572202592,B,3009.42820799537,Correct,d
8,23,18,B,88.16369983855132,64.90980818371767,4.408184991927566,1.0196008826794503,B,410.38041599676944,Correct,d
8,23,19,B,49.65911027848051,32.86377279016673,2.4829555139240256,0.5162229358341596,B,613.3198330062442,Correct,d
8,23,20,A,24.756361023340094,43.2688536035359,1.2378180511670047,0.6796655630506032,A,551.7718749979394,Correct,k
8,23,21,A,29.235033699762916,59.86679212833063,1.4617516849881458,0.9403853717217537,A,654.1334990033647,Correct,k
8,23,22,B,80.77915240276383,51.58600127628295,4.038957620138191,0.810311013188221,B,559.2934989981586,Correct,d
8,23,23,B,73.37797145947505,62.48713478281931,3.668898572973752,0.9815456178879017,B,2199.5911660051206,Correct,d
8,23,24,B,50.73167780999568,35.85702710047851,2.536583890499784,0.563240864592167,B,1314.2649569999776,Correct,d
8,23,25,B,87.65735447916055,62.86632913446286,4.382867723958027,0.9875019888349326,B,509.6609569955035,Correct,d
8,23,26,B,41.94516923926638,27.1860274918029,2.0972584619633188,0.4270371212426907,B,551.3415410023299,Correct,d
8,23,27,B,57.77617234520771,42.3343660017971,2.888808617260386,0.6649866661281364,B,568.7700819980819,Correct,d
8,23,28,A,53.53589924489897,64.85279410866463,2.6767949622449487,1.018705307682761,A,593.8061249980819,Correct,k
8,23,29,A,31.43025282635439,39.88685861491378,1.5715126413177194,0.6265413099969395,A,485.74024900153745,Correct,k
8,23,30,B,74.92823371054283,42.366523815220575,3.7464116855271414,0.6654917998801698,B,804.7989580009016,Correct,d
8,23,31,A,25.697505049484143,50.92422938197789,1.284875252474207,0.799915924580716,A,754.3556239979807,Correct,k
8,23,32,B,85.70678717618223,60.7361861928307,4.285339358809112,0.9540417817522938,B,988.41833199549,Correct,d
8,23,33,A,32.54887612633986,56.37837049219844,1.627443806316993,0.885589372798271,A,952.9033319995506,Correct,k
8,23,34,A,52.217738651546696,61.28431622840076,2.610886932577335,0.962651788217088,A,932.8001660032896,Correct,k
8,23,35,B,57.90992245709184,32.34441514407516,2.895496122854592,0.5080648850064249,B,922.4597080028616,Correct,d
8,23,36,B,57.36059373456552,44.93890761892338,2.868029686728276,0.7058987101798004,B,1602.7988319983706,Correct,d
8,23,37,A,57.093169824522725,82.95497759518858,2.8546584912261364,1.3030537409587517,A,694.4259570009308,Correct,k
8,23,38,B,61.50135858441456,46.2092180019904,3.075067929220728,0.7258526990159113,B,895.9174579940736,Correct,d
8,23,39,A,56.9182178204616,74.53782753275385,2.8459108910230797,1.1708374569572124,A,655.8919159942889,Correct,k
8,23,40,A,25.622876887195414,54.7346201833937,1.2811438443597707,0.8597694033258865,A,949.6739570022328,Correct,k
8,23,41,B,60.71642395118403,44.34889125347198,3.0358211975592013,0.6966307547838011,B,754.9225830007344,Correct,d
8,23,42,B,58.91885179594598,42.69622839001741,2.9459425897972995,0.6706707872303533,B,966.7924160021357,Correct,d
8,23,43,B,39.41639113651122,12.900495237131501,1.970819556825561,0.20264050532321218,B,854.5478739979444,Correct,d
8,23,44,A,43.32483843425341,55.90721041352132,2.1662419217126705,0.8781884075890868,A,978.0941249991884,Correct,k
8,23,45,B,68.97603456141309,56.266781487391825,3.4488017280706544,0.8838365368096616,B,2293.904582002142,Correct,d
8,23,46,B,70.8074884700366,42.451802488977414,3.5403744235018304,0.6668313541550817,B,1264.5239990015398,Correct,d
8,23,47,A,54.907595256646054,68.70840940620378,2.7453797628323025,1.0792691711518483,A,734.6635409994633,Correct,k
8,23,48,A,51.34280897131816,74.1055322416384,2.567140448565908,1.164046978403464,A,798.9669990056427,Correct,k
8,23,49,A,18.141599208539493,43.35533866724595,0.9070799604269746,0.6810240672545869,A,924.9393330028397,Correct,k
8,23,50,A,59.223686493265994,77.1892123495134,2.9611843246632996,1.2124853122680692,A,873.8182489978499,Correct,k
8,23,51,B,43.8650094630936,32.28060022727484,2.19325047315468,0.5070624826373782,B,1005.9906659953413,Correct,d
8,23,52,B,73.26316871655739,43.95164028184604,3.6631584358278695,0.6903907511133437,B,1671.878832996299,Correct,d
8,23,53,B,67.38322547680062,56.17392533903701,3.3691612738400307,0.8823779558421011,B,1902.896581996174,Correct,d
8,23,54,A,30.071227362586768,50.91374312532842,1.5035613681293385,0.7997512068464482,A,589.0810409982805,Correct,k
8,23,55,A,14.416789395268488,33.622436376768164,0.7208394697634245,0.5281399955852254,A,842.4902069964446,Correct,k
8,23,56,B,56.09503752744871,28.793498015380887,2.8047518763724355,0.45228720918136445,B,1016.0629579986562,Correct,d
8,23,57,B,38.08575341778212,19.088680297848466,1.904287670889106,0.29984428895222487,B,979.4999989971984,Correct,d
8,23,58,A,18.928642205610508,46.27979289336574,0.9464321102805254,0.7269612868172746,A,676.8771659990307,Correct,k
8,23,59,B,34.6590356212717,21.897376598601493,1.7329517810635848,0.3439631872752775,B,1490.7232080004178,Correct,d
8,23,60,B,70.13410262568195,40.215955799091184,3.5067051312840976,0.6317107564775836,B,813.6002500032191,Correct,d
8,23,61,B,70.4359099285791,58.45297556041109,3.521795496428955,0.9181771930052559,B,1008.548374993552,Correct,d
8,23,62,A,31.49795373735416,61.84304980838676,1.5748976868677078,0.9714283547680774,A,912.4407080016681,Correct,k
8,23,63,B,47.50279141050157,25.700134903693023,2.3751395705250786,0.4036967750485432,B,851.1812910001026,Correct,d
8,23,64,A,49.95253680618448,77.07222700715948,2.497626840309224,1.2106477108074853,A,651.6284570025164,Correct,k
8,23,65,B,71.28441702881037,39.53690841920263,3.5642208514405183,0.6210443051770972,B,870.0637910005753,Correct,d
8,23,66,B,55.74097430830797,39.099081417811995,2.7870487154153984,0.6141669347215368,B,876.0372079996159,Correct,d
8,23,67,B,72.58568600093122,43.606212458197845,3.629284300046561,0.6849647835477503,B,1175.3140820001136,Correct,d
8,23,68,B,47.9748741936604,35.79415801770149,2.39874370968302,0.5622533193492161,B,878.7762080028187,Correct,d
8,23,69,A,32.26548340577788,57.744821696009936,1.6132741702888937,0.9070535381151866,A,648.838415996579,Correct,k
8,23,70,A,67.83371472115323,85.40571159491815,3.3916857360576613,1.3415497806060173,A,731.1960410006577,Correct,k
8,23,71,A,33.10812896020005,45.381542232451956,1.6554064480100024,0.7128515984302299,A,600.9435830055736,Correct,k
8,23,72,B,54.69955909880837,24.33166980045976,2.7349779549404185,0.382200975473485,B,952.4261240003398,Correct,d
8,23,73,A,17.409869232412795,40.47074109685728,0.8704934616206398,0.6357129145761069,A,746.9117489963537,Correct,k
8,23,74,A,35.844696278164136,48.01299804742338,1.7922348139082067,0.7541864097130317,A,692.389791001915,Correct,k
8,23,75,B,48.99391217446568,31.052177071760006,2.4496956087232835,0.4877664568330532,B,899.0668329934124,Correct,d
8,23,76,B,54.744393725301464,45.16986911412157,2.737219686265073,0.7095266448626841,A,1104.8186249972787,Incorrect,k
8,23,77,A,48.544069501135596,68.39054664390814,2.4272034750567797,1.0742761945574593,A,830.1300829916727,Correct,k
8,23,78,B,53.469987275663044,36.87160698707397,2.673499363783152,0.5791778481832084,B,1563.269833000959,Correct,d
8,23,79,B,71.39144667210675,45.103638316385755,3.569572333605338,0.708486293924643,B,725.4868739983067,Correct,d
8,23,80,A,45.94820630901083,52.911318584060524,2.2974103154505414,0.8311290487771683,B,947.9908740031533,Incorrect,d
8,23,81,A,32.66427467589543,58.715688055078935,1.6332137337947714,0.9223038712215298,A,780.317583004944,Correct,k
8,23,82,A,43.54705632168752,57.52084405329933,2.177352816084376,0.9035353055306465,A,646.4086659980239,Correct,k
8,23,83,B,70.11554265960163,60.86986573002335,3.5057771329800813,0.9561416150121924,B,1049.6943739999551,Correct,d
8,23,84,B,50.04011485739011,35.4640825092704,2.5020057428695055,0.5570685053871307,B,957.5795409909915,Correct,d
8,23,85,A,19.74221364677259,49.173023001005646,0.9871106823386296,0.7724080390738064,A,636.1107910051942,Correct,k
8,23,86,B,52.17109363732198,38.43376162191746,2.6085546818660994,0.6037161158061862,B,789.3289990024641,Correct,d
8,23,87,B,89.89599193901869,65.88142467974998,4.4947995969509345,1.0348629989096592,B,939.381874006358,Correct,d
8,23,88,B,42.70017560245772,34.74076068969972,2.135008780122886,0.5457065928144086,B,1045.0977490108926,Correct,d
8,23,89,B,50.6670102505187,22.81295613435914,2.533350512525935,0.3583450769918444,B,1644.0287490113406,Correct,d
8,23,90,B,58.71764209951357,25.89708582587263,2.9358821049756783,0.40679047289972914,B,686.131041002227,Correct,d
8,23,91,B,48.88303495833436,28.981003201711047,2.444151747916718,0.4552325337607885,B,714.1082500020275,Correct,d
8,23,92,A,46.580406794715586,73.63104055927383,2.3290203397357794,1.1565936804859338,A,1175.065583011019,Correct,k
8,23,93,A,27.293989555061486,53.88677180094744,1.3646994777530745,0.8464514320776306,A,897.5307069922565,Correct,k
8,23,94,A,46.252052683336345,74.56427223276069,2.312602634166817,1.171252849333552,A,794.8628739977721,Correct,k
8,23,95,A,31.33068135786246,55.19826566621667,1.566534067893123,0.8670523295394201,A,549.8523330024909,Correct,k
8,23,96,A,51.436114139607305,63.40294140273596,2.5718057069803653,0.9959310746340972,A,910.7497079967288,Correct,k
8,23,97,B,71.63556566631523,49.62626666188921,3.581778283315762,0.7795275738503961,B,810.8553740021307,Correct,d
8,23,98,A,46.452547805585624,65.93006482488862,2.322627390279281,1.0356270365228446,A,1010.1589160040021,Correct,k
8,23,99,A,49.109887022346065,74.10342717596637,2.4554943511173035,1.164013912109211,A,1812.6293329987675,Correct,k
8,23,100,B,41.08506291295186,26.82991824230661,2.054253145647593,0.4214433702322261,B,1356.683873993461,Correct,d
8,23,101,A,19.921080236621698,49.61287031257734,0.9960540118310849,0.7793171444874806,A,1688.4814160002861,Correct,k
8,23,102,B,55.1677483665958,28.243166468557515,2.75838741832979,0.44364262145866934,B,967.6039159967331,Correct,d
8,23,103,B,42.9469979752801,30.364541235279646,2.147349898764005,0.4769650983718944,B,960.6712080130819,Correct,d
8,23,104,B,36.83503852991987,15.188716007584446,1.8417519264959936,0.23858379313444494,B,580.8381660026498,Correct,d
8,23,105,B,49.604689510191704,30.59309439041568,2.480234475509585,0.480555202937545,B,1370.154582997202,Correct,d
8,23,106,B,58.12421482397875,38.87934146698544,2.906210741198937,0.6107152676454524,B,419.46533300506417,Correct,d
8,23,107,B,81.59750883544748,58.08398190873225,4.079875441772374,0.9123810542785785,B,471.7794570024125,Correct,d
8,23,108,B,71.18787350142273,57.224857068492064,3.5593936750711364,0.898885952845503,B,795.2637080015847,Correct,d
8,23,109,A,44.37270302106309,52.36275542663095,2.218635151053155,0.8225122388501143,B,769.1804159985622,Incorrect,d
8,23,110,A,27.219469243904612,36.80373275504089,1.3609734621952305,0.5781116822395925,B,1192.3192079993896,Incorrect,d
8,23,111,A,55.63760991567166,78.42520052291869,2.7818804957835828,1.231900169095539,A,1534.2189990042243,Correct,k
8,23,112,B,71.50991992823774,58.276782755074954,3.575495996411887,0.9154095628909591,B,1231.4418739988469,Correct,d
8,23,113,B,85.8614135444384,63.16129722801672,4.2930706772219205,0.9921353368136936,B,714.2669989989372,Correct,d
8,23,114,A,19.10015901734521,39.37804411809793,0.9550079508672604,0.6185488705707561,A,987.0680829917546,Correct,k
8,23,115,A,46.8238392225764,65.05301685966297,2.34119196112882,1.0218503993008508,A,764.4089579989668,Correct,k
8,23,116,A,40.080910184681294,59.36462337153417,2.0040455092340648,0.9324973233356835,A,902.7733330003684,Correct,k
8,23,117,A,64.72247190085457,84.69193979576914,3.2361235950427285,1.330337879403287,A,846.3827069936087,Correct,k
8,23,118,B,42.973231521016274,20.42449238384528,2.1486615760508134,0.32082717613194506,B,1429.4364990055328,Correct,d
8,23,119,A,12.719306894025213,40.45787626943341,0.6359653447012605,0.6355108343394842,A,827.716332001728,Correct,k
8,23,120,B,51.643361787979785,30.140104948556015,2.582168089398989,0.4734396614240447,B,840.9432079934049,Correct,d
8,23,121,A,27.549043817922005,52.917508100463074,1.3774521908961004,0.8312262734734659,A,780.8782490028534,Correct,k
8,23,122,B,37.90449188095556,11.38179311241807,1.895224594047778,0.17878478813325757,B,1222.990498994477,Correct,d
8,23,123,B,70.55295165917614,61.06859796905796,3.527647582958807,0.9592632937231053,B,938.6949160107179,Correct,d
8,23,124,A,53.773448645972366,76.41872911898473,2.6886724322986186,1.200382589984354,A,748.2191240123939,Correct,k
8,23,125,A,38.940267326618574,66.46406438648907,1.9470133663309286,1.0440150820215652,A,876.2997070007259,Correct,k
8,23,126,B,86.57845285953333,67.5002151019963,4.328922642976667,1.0602908994008118,B,783.568416009075,Correct,d
8,23,127,B,36.73159000707389,14.754140218847674,1.8365795003536944,0.2317574926078278,B,668.7450820027152,Correct,d
8,23,128,B,32.51295399382117,13.696531829338426,1.6256476996910585,0.21514461887354186,B,1421.5274580055848,Correct,d
8,23,129,B,71.56246370453837,50.13597969768533,3.5781231852269184,0.7875341274938764,B,850.0914580072276,Correct,d
8,23,130,A,33.8862222518881,50.35457504646384,1.694311112594405,0.7909678152030336,A,1063.7904570030514,Correct,k
8,23,131,A,14.619837930219681,41.445304184627545,0.7309918965109842,0.651021315761101,A,787.4899989983533,Correct,k
8,23,132,A,36.63567087064809,69.53629871509062,1.8317835435324046,1.0922736260057704,A,1959.3958319892408,Correct,k
8,23,133,B,84.96971916087838,58.238039487110285,4.248485958043919,0.9148009850608898,B,773.235624001245,Correct,d
8,23,134,B,47.12812111463356,24.21326618429901,2.3564060557316777,0.38034109582003967,B,904.3625829945086,Correct,d
8,23,135,B,45.66412950326897,27.543895485044075,2.283206475163448,0.4326584985352977,B,680.6477490026737,Correct,d
8,23,136,A,54.336757150455874,82.19905778489635,2.716837857522794,1.2911797803451663,A,803.5207909997553,Correct,k
8,23,137,A,46.50496171198775,60.91977915872564,2.3252480855993873,0.9569256533168252,A,658.3015409996733,Correct,k
8,23,138,B,82.3101711277232,56.81920687285113,4.1155085563861595,0.892514014472739,B,1109.0788330038777,Correct,d
8,23,139,A,42.21258587352793,72.75677665925878,2.1106292936763964,1.1428607752580033,A,676.8318739923416,Correct,k
8,23,140,B,69.96781071736163,39.94031455284236,3.4983905358680816,0.6273809939063753,B,1092.0019159966614,Correct,d
8,23,141,A,36.73889601744466,52.438378331905696,1.8369448008722329,0.8237001206683855,A,798.4267909923801,Correct,k
8,23,142,A,33.868226138863534,48.05655814598157,1.6934113069431767,0.7548706501411322,A,618.5004990111338,Correct,k
8,23,143,B,71.28213570899025,57.68322324246506,3.5641067854495128,0.9060859518695412,B,677.7074989950052,Correct,d
8,23,144,A,36.79957106376513,54.25778803205295,1.8399785531882566,0.8522793414076487,A,659.623040992301,Correct,k
8,23,145,A,37.80785418541167,50.75791735318971,1.8903927092705834,0.7973035013414935,A,1441.8832499941345,Correct,k
8,23,146,A,47.494225785092766,59.76438929623674,2.3747112892546385,0.9387768317966891,A,1415.2553330059163,Correct,k
8,23,147,A,20.62824514939885,47.1417480907727,1.0314122574699425,0.7405008473967609,A,1183.9839989988832,Correct,k
8,23,148,B,65.04995504412098,35.670994185541716,3.2524977522060485,0.5603186663977103,B,745.6366250116844,Correct,d
8,23,149,A,20.807608888781342,41.98256438284232,1.0403804444390672,0.6594605792199897,A,628.3464159932919,Correct,k
8,23,150,B,51.02982407873401,42.88943473331083,2.5514912039367004,0.673705665373941,B,895.5784580030013,Correct,d
8,23,151,B,61.44413705160353,52.185022150542,3.0722068525801767,0.8197204110778167,B,1102.414041000884,Correct,d
8,23,152,A,66.93218352250744,88.65120175478529,3.346609176125372,1.3925298208237002,A,892.809707991546,Correct,k
8,23,153,B,58.70894851220618,26.12055884255912,2.9354474256103087,0.41030077883721816,B,1331.808123999508,Correct,d
8,23,154,B,85.62232459300068,58.298446149841325,4.281116229650035,0.9157498507002082,B,770.9993330063298,Correct,d
8,23,155,B,66.96672895618586,58.635256768163586,3.3483364478092934,0.9210404595210696,A,1579.3016660027206,Incorrect,k
8,23,156,B,82.87665310091941,68.70251438186531,4.14383265504597,1.0791765723260758,B,2312.763833004283,Correct,d
8,23,157,B,65.54024673439146,39.27219991623352,3.277012336719573,0.6168862737357445,B,1169.2974580073496,Correct,d
8,23,158,B,82.4558463781366,52.08786781191081,4.122792318906829,0.8181943142952761,B,736.6358330036746,Correct,d
8,23,159,B,65.90502846486724,35.95887809402914,3.2952514232433625,0.5648407362576644,B,845.8953329973156,Correct,d
8,23,160,A,15.391697249573141,40.569953314632215,0.7695848624786571,0.6372713364486472,A,1166.6985409974586,Correct,k
8,23,161,B,50.11704324344047,27.057140310646226,2.5058521621720233,0.42501256613537214,B,775.2996249910211,Correct,d
8,23,162,B,47.490702353806086,28.574455657592658,2.3745351176903045,0.448846499871102,B,1945.0544159917627,Correct,d
8,23,163,A,43.84472837516418,71.54032917391993,2.192236418758209,1.1237528628409121,A,2386.039956996683,Correct,k
8,23,164,B,63.15393687121603,51.04915718363708,3.1576968435608017,0.8018782859003243,B,2699.264665992814,Correct,d
8,23,165,A,22.669828364087927,48.109072101607296,1.1334914182043963,0.7556955374271558,A,1081.5905409981497,Correct,k
8,23,166,A,63.84402735405925,82.16875159622903,3.192201367702962,1.2907037318467887,A,674.9537080031587,Correct,k
8,23,167,A,17.80872489768868,38.339042825551836,0.890436244884434,0.6022282764320905,A,1054.2974159907317,Correct,k
8,23,168,A,24.35923382135995,47.32788510513582,1.2179616910679976,0.7434246807811824,A,2208.815958001651,Correct,k
8,23,169,A,57.1642418598971,73.80006449641962,2.8582120929948553,1.159248702282024,A,6127.704457001528,Correct,k
8,23,170,A,35.64242696501548,62.3050969246925,1.782121348250774,0.9786861738990699,A,979.1250409907661,Correct,k
8,23,171,B,83.37355558571755,61.025437389651245,4.168677779285877,0.9585853289271611,B,765.5783329973929,Correct,d
8,23,172,A,68.64051898275879,82.98085604391076,3.4320259491379397,1.3034602386807113,A,1403.639749987633,Correct,k
8,23,173,A,34.383901788826634,62.34144112679801,1.7191950894413315,0.979257067290746,A,708.4077079925919,Correct,k
8,23,174,B,48.07262488872507,32.95534134033474,2.4036312444362538,0.5176612912566981,B,813.4163329959847,Correct,d
8,23,175,B,84.13011172616953,56.57338061616989,4.206505586308476,0.8886525846624926,B,773.5153750109021,Correct,d
8,23,176,A,29.878767373976707,51.06531995177829,1.4939383686988352,0.8021321700685948,A,715.72633300093,Correct,k
8,23,177,B,48.81927808201908,32.44156503544779,2.440963904100954,0.5095909119315915,B,1906.3352910015965,Correct,d
8,23,178,A,63.18769064612782,74.82566792031338,3.1593845323063907,1.1753588431920299,A,976.1675409972668,Correct,k
8,23,179,B,65.26394534370078,41.69271832682175,3.2631972671850393,0.6549076880186586,B,1936.5391659957822,Correct,d
8,23,180,B,56.179189606209256,30.150795067440992,2.8089594803104627,0.47360758141882,B,1098.534707998624,Correct,d
8,23,181,A,28.609733245204623,59.30529904113881,1.430486662260231,0.9315654589329376,A,2538.824040995678,Correct,k
8,23,182,A,68.16030748949333,88.0470126544841,3.4080153744746666,1.383039240629274,A,840.6707079993794,Correct,k
8,23,183,B,41.51311873021942,16.40997318000587,2.075655936510971,0.2577672559395599,B,985.7423749926966,Correct,d
8,23,184,A,47.23906118641411,74.10651813251475,2.361953059320706,1.1640624647411357,A,764.4404159946134,Correct,k
8,23,185,B,57.645136140539115,31.31296903390236,2.882256807026956,0.4918629673949617,B,2408.603999996558,Correct,d
8,23,186,A,15.028671851255545,31.64600612856336,0.7514335925627773,0.4970943018447611,A,1561.0648750007385,Correct,k
8,23,187,B,33.27162524261344,12.820185677033319,1.6635812621306718,0.20137900570312478,A,1627.1822489943588,Incorrect,k
8,23,188,B,69.21235211540245,37.9880638182181,3.4606176057701226,0.596715111077071,B,895.2291239984334,Correct,d
8,23,189,A,40.89802714801267,60.42925302852042,2.0449013574006334,0.9492204868815926,A,1534.7366659989348,Correct,k
8,23,190,B,48.28634643365282,34.42564954177828,2.414317321682641,0.5407568384775374,B,866.6777909966186,Correct,d
8,23,191,B,75.4775031467147,65.12044490082229,3.773875157335735,1.022909556494611,B,2077.357000001939,Correct,d
8,23,192,B,59.94756049722624,48.268560286689656,2.997378024861312,0.7582007719801014,B,935.5823740042979,Correct,d
8,23,193,B,43.56473739236205,17.31764747275304,2.1782368696181025,0.27202497038929396,B,1146.964665997075,Correct,d
8,23,194,B,65.58652442128864,34.1219782819405,3.279326221064432,0.5359867814824736,B,823.3223750139587,Correct,d
8,23,195,A,25.685278280213055,37.87322442636108,1.2842639140106527,0.5949112181280674,A,2094.035916001303,Correct,k
8,23,196,B,81.14838037209665,55.69936465709084,4.057419018604833,0.8749235740816776,B,1371.0184990050038,Correct,d
8,23,197,B,70.86278012830067,55.26871346864531,3.5431390064150334,0.868158921032277,B,2408.938582011615,Correct,d
8,23,198,A,27.952502168257823,60.03349674289151,1.397625108412891,0.9430039616838736,A,671.03433299053,Correct,k
8,23,199,B,75.57098971152266,50.37493561846158,3.778549485576133,0.7912876383200884,B,1532.8953330026707,Correct,d
8,23,200,A,40.98564378262638,58.45083045068839,2.049282189131319,0.9181434977005261,A,913.9564990036888,Correct,k
8,23,201,B,66.65881017039912,42.79006403277009,3.332940508519956,0.6721447540599368,B,805.5065410007956,Correct,d
8,23,202,B,69.58685073528365,52.386436324399966,3.4793425367641824,0.822884217522422,B,739.9215820041718,Correct,d
8,23,203,A,58.12305114937749,80.79381152614485,2.9061525574688742,1.269106223730275,A,1023.585749004269,Correct,k
8,23,204,A,51.81842249061924,80.77077832027837,2.5909211245309622,1.2687444189785813,A,764.9879159871489,Correct,k
8,23,205,B,76.40949369214422,59.91736362300197,3.8204746846072113,0.9411797469024563,B,727.148498990573,Correct,d
8,23,206,B,50.44128310630479,42.726377993126654,2.522064155315239,0.6711443760885365,B,1452.6315410039388,Correct,d
8,23,207,A,28.686961917564776,54.1606372817956,1.4343480958782389,0.8507533009911524,A,822.723582998151,Correct,k
8,23,208,A,31.178445684852477,59.722378859368234,1.5589222842426238,0.938116933397488,A,717.1573329978855,Correct,k
8,23,209,B,51.92072166947102,29.51151404781154,2.5960360834735514,0.4635657786445836,B,978.1274160050089,Correct,d
8,23,210,B,47.92013579700199,25.222103023503692,2.3960067898500994,0.39618786783362053,B,3296.390331990551,Correct,d
8,23,211,A,23.83674231422991,42.67364683057851,1.1918371157114955,0.6703160769241541,A,684.1001660068287,Correct,k
8,23,212,A,41.2057409940793,57.42344738709264,2.0602870497039647,0.9020054022754511,A,668.6772490065778,Correct,k
8,23,213,B,31.960522939697636,12.194612089043687,1.5980261469848818,0.1915525187615846,B,1082.436331998906,Correct,d
8,23,214,A,33.62668693698502,46.544277647789954,1.6813343468492508,0.7311158036247025,A,1086.1985410010675,Correct,k
8,23,215,A,45.753386313696204,57.780761105730576,2.2876693156848105,0.9076180730429501,A,2406.5121239982545,Correct,k
8,23,216,B,89.90880477714448,67.27030449761213,4.495440238857224,1.0566794720722337,B,851.3917080126703,Correct,d
8,23,217,A,67.6427729026217,80.51580350656555,3.382138645131085,1.2647392839705283,A,2589.3629159982083,Correct,k
8,23,218,B,47.63722382945135,40.67281428599592,2.381861191472568,0.6388870728085339,B,1196.5826239902526,Correct,d
8,23,219,A,42.852133558554755,72.46195298277794,2.1426066779277377,1.1382296957773208,A,596.9097490014974,Correct,k
8,23,220,B,48.23709934247829,20.45263314057576,2.4118549671239147,0.32126921010499976,B,758.1987910089083,Correct,d
8,23,221,B,31.289483482830825,15.170162902058529,1.5644741741415413,0.23829236163433748,B,929.957790998742,Correct,d
8,23,222,A,43.53088191269566,53.55928888080496,2.176544095634783,0.8413073423971518,A,2623.311499002739,Correct,k
8,23,223,A,20.152262086665807,36.42929724844926,1.0076131043332905,0.5722300630558352,A,961.2134990020422,Correct,k
8,23,224,A,16.416869842522047,44.86627896348831,0.8208434921261023,0.7047578619280257,A,1930.244290997507,Correct,k
8,23,225,B,45.67804415313063,36.11415218181732,2.2839022076565314,0.5672797759251054,B,1523.786124002072,Correct,d
8,23,226,A,38.57505598750951,48.16301924909776,1.9287527993754754,0.7565429372383465,A,927.8033330047037,Correct,k
8,23,227,A,65.95375913632952,87.9872559828584,3.297687956816476,1.3821005850263626,A,1006.8736250104848,Correct,k
8,23,228,A,25.522497056703422,50.58714795615212,1.2761248528351712,0.794621061925537,A,874.0125409967732,Correct,k
8,23,229,B,45.125521541451306,34.43640131969818,2.256276077072565,0.5409257270101683,B,2005.457875013235,Correct,d
8,23,230,B,33.708762455500136,19.401470392931806,1.6854381227750068,0.3047575842763722,B,1024.0364159981254,Correct,d
8,23,231,A,20.276856659666123,51.55105079387868,1.0138428329833062,0.8097620122944176,A,950.8994160132715,Correct,k
8,23,232,A,58.156201088291695,85.81253752691107,2.907810054414585,1.3479401874022112,A,1311.2664579966804,Correct,k
8,23,233,B,55.33314200271424,42.24929079096445,2.7666571001357116,0.663650307841364,B,1368.1646659970284,Correct,d
8,23,234,B,59.72435789898604,27.2200269632377,2.986217894949302,0.4275711836911182,B,1199.998540992965,Correct,d
8,23,235,A,27.841073602291775,46.677662393009854,1.3920536801145889,0.7332110063031215,A,884.9037079926347,Correct,k
8,23,236,A,34.744756590030065,43.51631847630435,1.7372378295015034,0.6835527321821576,A,1998.9200410054764,Correct,k
8,23,237,A,36.885954238568274,45.04074007767302,1.8442977119284136,0.7074982907013246,A,785.276041002362,Correct,k
8,23,238,A,27.11532771730151,54.90597037380883,1.3557663858650755,0.8624609658228833,A,649.1053740028292,Correct,k
8,23,239,A,57.75507900240253,72.74128500556256,2.8877539501201266,1.1426174329307834,A,1611.5793329954613,Correct,k
8,23,240,A,62.047905434460546,71.80357965117416,3.102395271723027,1.1278879916678914,A,853.7823329970706,Correct,k
8,23,241,B,35.426392988759574,11.937490651351645,1.7713196494379786,0.18751366466291583,B,1653.381249998347,Correct,d
8,23,242,B,57.333363575666084,39.18926993722624,2.8666681787833044,0.6155836126716865,B,826.4442069921643,Correct,d
8,23,243,B,47.119022347533026,37.44141488106122,2.355951117376651,0.5881283696517474,B,1438.786706989049,Correct,d
8,23,244,B,55.05383415294482,34.62599491572995,2.752691707647241,0.5439038562524736,B,1490.2307910087984,Correct,d
8,23,245,A,65.8177471955456,86.24106079094142,3.2908873597772805,1.3546714150930614,A,980.5007489921991,Correct,k
8,23,246,B,56.65294702814137,40.697879538721665,2.832647351407069,0.6392807968776517,B,931.6911659989273,Correct,d
8,23,247,B,86.13709390771953,59.73007676365482,4.306854695385977,0.938237851795262,B,2433.0481240031077,Correct,d
8,23,248,A,28.748059811397923,57.666196480924846,1.4374029905698962,0.9058184961246954,A,840.330166000058,Correct,k
8,23,249,A,32.51070784947146,52.30756214556634,1.625535392473573,0.8216452648185139,A,1023.0064159986796,Correct,k
8,23,250,B,47.44344230111274,24.013016954147282,2.372172115055637,0.37719558826838134,B,817.0285410014912,Correct,d
8,23,251,A,60.97397921492207,81.10571304666252,3.048698960746103,1.274005561357784,A,2243.1113330094377,Correct,k
8,23,252,B,83.19880325966895,61.808036909880016,4.159940162983447,0.9708783734444293,B,829.8232910019578,Correct,d
8,23,253,A,24.081731884418346,38.058340119686946,1.2040865942209174,0.5978190086391509,A,1414.8925819899887,Correct,k
8,23,254,A,19.853039088288295,51.038217538955635,0.9926519544144148,0.8017064463635037,A,1041.6057070106035,Correct,k
8,23,255,B,76.41421969106494,56.73638325647894,3.820710984553247,0.8912130241490458,B,846.3176660006866,Correct,d
8,23,256,B,55.69047290393913,38.22286814981311,2.784523645196957,0.6004034088929208,B,763.0940829985775,Correct,d
8,23,257,A,17.11859822423438,35.32170555589158,0.8559299112117189,0.5548320534332538,A,1339.5097909960896,Correct,k
8,23,258,A,48.65666415738782,61.18282663133548,2.432833207869391,0.9610575933543075,A,1494.1003330022795,Correct,k
8,23,259,B,56.13013445076089,32.28426735578057,2.8065067225380447,0.5071200857572451,B,1873.1081659934716,Correct,d
8,23,260,A,47.36903579237213,73.58855798201648,2.3684517896186064,1.1559263657228476,A,2080.365707995952,Correct,k
8,23,261,B,35.44760240740867,14.560099050536373,1.7723801203704335,0.22870950106352395,B,758.6188740096986,Correct,d
8,23,262,A,47.41412518302363,67.22763225451894,2.3707062591511816,1.0560091780451644,A,902.1274580009049,Correct,k
8,23,263,B,61.64319652013224,43.7593170630486,3.0821598260066123,0.6873697450568999,B,1391.5302910027094,Correct,d
8,23,264,A,37.79721948947302,51.10930185438795,1.8898609744736512,0.8028230361792418,A,3880.333207998774,Correct,k
8,23,265,B,64.75057982079775,32.56583271321061,3.2375289910398872,0.5115429040492832,B,1983.7297909980407,Correct,d
8,23,266,B,47.32506885779449,25.850040346921737,2.3662534428897244,0.40605148424444537,B,2489.7810830007074,Correct,d
8,23,267,A,14.712222562092581,34.39568284748457,0.735611128104629,0.54028612274431,A,1403.1130410003243,Correct,k
8,23,268,B,37.30030380450812,18.339913283471784,1.865015190225406,0.2880826841941441,B,1388.5506239894312,Correct,d
8,23,269,A,37.96047111354715,55.24862656680507,1.8980235556773577,0.8678433967160034,A,2128.0960830044933,Correct,k
8,23,270,B,69.24206808538668,39.47501845755467,3.462103404269334,0.6200721399328761,B,1988.943749005557,Correct,d
8,23,271,B,45.82453159951952,24.469212670998466,2.2912265799759757,0.3843614938316753,B,2733.5944160004146,Correct,d
8,23,272,B,72.15616396302262,60.78087098020599,3.607808198151131,0.954743688751021,B,1338.5075830010464,Correct,d
8,23,273,B,63.3140685115967,48.46856941661266,3.165703425579835,0.7613425080461863,B,2932.344250002643,Correct,d
8,23,274,B,40.7347717982107,26.769621244180716,2.0367385899105352,0.42049622720049695,B,808.7900820100913,Correct,d
8,23,275,A,65.99235280923183,77.13219052757839,3.2996176404615913,1.2115896155836425,A,1890.4770820081467,Correct,k
8,23,276,B,56.09171069832745,29.265693957379227,2.8045855349163724,0.45970444569354896,B,1917.5259990006452,Correct,d
8,23,277,A,20.56868131228171,41.23640446327268,1.0284340656140856,0.647739926611374,A,1304.2201239877613,Correct,k
8,23,278,B,36.67286896773429,13.538421227904802,1.8336434483867146,0.21266102335394915,B,1007.7304159931373,Correct,d
8,23,279,A,51.51232863185251,59.34886769096769,2.5756164315926253,0.9322498336840835,A,673.0105410097167,Correct,k
8,23,280,A,51.759387977666066,76.21576418078324,2.587969398883303,1.1971944241904038,A,628.3493750088383,Correct,k
8,23,281,A,22.564241369426785,52.23082364403616,1.1282120684713393,0.8204398592552402,A,1030.2402490051463,Correct,k
8,23,282,B,57.77394561811217,31.30906796786882,2.8886972809056086,0.49180168959300097,B,845.4942500102334,Correct,d
8,23,283,B,80.71954188710485,53.688166895219915,4.035977094355243,0.8433317535136281,B,926.9648749905173,Correct,d
8,23,284,A,24.14382738805694,55.480411857028855,1.2071913694028469,0.8714842715408895,A,611.0580410022521,Correct,k
8,23,285,B,70.0804877961352,48.68261736388013,3.5040243898067605,0.7647047653394434,A,691.9023329974152,Incorrect,k
8,23,286,B,74.32121668151194,44.61393011055315,3.716060834075597,0.7007939754154112,B,1145.5744989943923,Correct,d
8,23,287,A,54.9430290456969,78.81836478712279,2.7471514522848453,1.2380759789159268,A,1716.5161239972804,Correct,k
8,23,288,B,58.439447753626716,44.52435422654723,2.9219723876813357,0.6993869207197522,B,925.6497910100734,Correct,d
8,23,289,B,42.41536580032057,16.234118439040323,2.1207682900160285,0.2550049361279784,B,1227.6287499989849,Correct,d
8,23,290,B,50.34017308996857,19.592048261080052,2.5170086544984285,0.30775117442892885,B,824.6898330107797,Correct,d
8,23,291,B,55.532589561139055,32.99062554550187,2.776629478056953,0.5182155342554022,B,860.6652489979751,Correct,d
8,23,292,A,16.682388933894984,41.8288461555351,0.8341194466947492,0.6570459789518337,A,1235.031958000036,Correct,k
8,23,293,B,70.75672463609212,60.32421235952229,3.537836231804606,0.9475705119113292,B,863.8668740022695,Correct,d
8,23,294,B,38.27196061352516,12.539945323727107,1.9135980306762579,0.19697700052719383,B,1273.959874000866,Correct,d
8,23,295,B,60.59713075198595,30.367061217653198,3.029856537599297,0.47700468216245406,B,1269.7014160075923,Correct,d
8,23,296,A,65.00811653243656,76.42829584279221,3.250405826621828,1.2005328637305166,A,701.9483329931973,Correct,k
8,23,297,A,50.20648821360834,78.45293431660235,2.510324410680417,1.2323358105080027,A,1596.5065409982344,Correct,k
8,23,298,A,46.79718491226788,73.33259464004502,2.339859245613394,1.1519057029492183,A,994.1603740007849,Correct,k
8,23,299,B,46.04468910253855,35.15419971877372,2.302234455126927,0.5522008778966394,B,875.0478739966638,Correct,d
8,23,300,B,64.48782491210693,50.94368457571445,3.2243912456053465,0.8002215260493009,B,1383.9633329916978,Correct,d
8,23,301,B,45.34159280756638,32.16670801035953,2.2670796403783187,0.5052734678775673,B,823.2289989973651,Correct,d
8,23,302,B,61.39809873482152,32.18873927695414,3.069904936741076,0.5056195342039818,B,1034.8715409927536,Correct,d
8,23,303,A,29.09268368306793,43.963217287414025,1.4546341841533965,0.6905726022915584,A,1689.502082997933,Correct,k
8,23,304,A,19.06775824917795,36.26585190557533,0.9533879124588975,0.5696626696136543,A,4780.64858300786,Correct,k
8,23,305,A,63.0736331516795,88.550417336979,3.153681657583975,1.3909467028908173,A,778.8273740006844,Correct,k
8,23,306,A,20.92546444145524,47.05006583919572,1.046273222072762,0.7390607059566668,A,677.6857079967158,Correct,k
8,23,307,A,44.12989884988596,70.62075788096918,2.206494942494298,1.1093082707489814,A,990.8867069898406,Correct,k
8,23,308,A,38.7742964948371,47.063932302311606,1.938714824741855,0.7392785198499474,A,1779.9435820052167,Correct,k
8,23,309,B,36.44999041701948,26.688456058790965,1.822499520850974,0.4192212874497585,B,3475.2424159960356,Correct,d
8,23,310,A,59.83371853567746,73.12067750227564,2.991685926783873,1.1485769163332882,A,1982.0129160070792,Correct,k
8,23,311,A,19.394805944610738,49.53445755930366,0.9697402972305369,0.7780854398393189,A,602.6549160014838,Correct,k
8,23,312,A,22.946942854950574,53.49559045053716,1.1473471427475288,0.8403067697942793,A,1438.683125001262,Correct,k
8,23,313,B,58.67374719361409,50.781261541013144,2.9336873596807043,0.7976701909863438,B,814.984500000719,Correct,d
8,23,314,B,56.905299020721706,38.12974118643898,2.8452649510360852,0.5989405739729844,B,718.5471249977127,Correct,d
8,23,315,B,73.3676614712351,48.931020372773695,3.668383073561755,0.7686066706787916,B,952.3107080021873,Correct,d
8,23,316,A,27.7188401609855,46.34360998218425,1.385942008049275,0.7279637233043033,A,634.9377500009723,Correct,k
8,23,317,B,77.43211997104869,62.87382098135991,3.8716059985524343,0.9876196704908005,B,720.2371659950586,Correct,d
8,23,318,B,57.02974129946296,43.10487404536071,2.8514870649731483,0.6770897781740927,B,726.2575409986312,Correct,d
8,23,319,B,43.95659025631924,16.8813467334276,2.1978295128159617,0.26517157440219097,B,810.4386249906383,Correct,d
8,23,320,B,83.06313380857608,64.25287359657595,4.153156690428804,1.009281778315183,B,1262.7390830020886,Correct,d
8,23,321,A,51.676579527715276,62.42364696312825,2.583828976385764,0.9805483535482326,A,1282.9590409965022,Correct,k
8,23,322,A,28.366287020143766,57.32551918374491,1.4183143510071883,0.9004671496543689,A,591.1265830072807,Correct,k
8,23,323,B,55.64130798803757,29.280914526764477,2.7820653994018785,0.45994352983836967,B,775.0580410065595,Correct,d
8,23,324,A,34.280187466615835,62.34587616951742,1.714009373330792,0.9793267327788744,A,604.8554159933701,Correct,k
8,23,325,A,65.824808855189,78.72106478427709,3.2912404427594506,1.2365475940452553,A,1156.2239579943707,Correct,k
8,23,326,A,40.02791786283221,60.36630939212279,2.001395893141611,0.9482317705531075,A,628.3083750022342,Correct,k
8,23,327,A,67.41099965155827,88.47216098444041,3.3705499825779133,1.3897174549796576,A,943.8819570059422,Correct,k
8,23,328,A,32.42879288962121,51.23605572108362,1.6214396444810604,0.804814081261368,A,670.1399999874411,Correct,k
8,23,329,B,75.10902371123255,54.14921309346972,3.7554511855616277,0.8505738502605635,B,596.1754160089185,Correct,d
8,23,330,A,40.322890556556345,56.5716646919013,2.016144527827817,0.8886256309871109,A,1322.7533740137005,Correct,k
8,23,331,A,55.68871030262709,79.20762079218264,2.7844355151313547,1.2441903979452356,A,607.3103329981677,Correct,k
8,23,332,B,57.38963508855356,35.27993893193056,2.869481754427678,0.5541759848382478,B,780.8728740055813,Correct,d
8,23,333,A,40.64138332933036,58.17490396741627,2.032069166466518,0.9138092546366334,A,570.5737910029711,Correct,k
8,23,334,B,63.356785879439414,33.31149525229962,3.167839293971971,0.5232557438235789,B,819.5822499983478,Correct,d
8,23,335,A,42.25176964528791,70.45968558723212,2.112588482264395,1.1067781530754752,A,726.0536660032813,Correct,k
8,23,336,A,22.656345260930067,33.76298652215406,1.1328172630465034,0.530347752106252,A,650.6452909961808,Correct,k
8,23,337,A,20.76139975843074,44.53231743234299,1.0380699879215372,0.6995120064638871,A,942.955457008793,Correct,k
8,23,338,B,67.63352271648901,42.76550094328007,3.3816761358244505,0.6717589179524801,B,710.8044580090791,Correct,d
8,23,339,A,31.10623100909283,49.634387073251574,1.5553115504546415,0.7796551289737965,A,599.901249006507,Correct,k
8,23,340,B,69.83130901440607,41.46430868437239,3.4915654507203038,0.6513198377450189,B,721.7249579989584,Correct,d
8,23,341,A,44.82960253961444,62.88786310202187,2.241480126980722,0.9878402436063626,A,754.3632909946609,Correct,k
8,23,342,A,34.81402630611793,55.2711282294726,1.7407013153058966,0.8681968520066529,A,1641.2819159886567,Correct,k
8,23,343,B,50.14627256730944,35.258517140795696,2.507313628365472,0.5538394921299677,B,2277.4285409977892,Correct,d
8,23,344,A,26.420843111948564,52.66689515440432,1.321042155597428,0.8272896545223024,A,567.2309580113506,Correct,k
8,23,345,B,70.67869818397867,44.905015977968716,3.5339349091989334,0.705366341528594,B,1097.398208003142,Correct,d
8,23,346,A,52.60989278198508,64.24162402977343,2.630494639099254,1.0091050705330686,A,838.5179579927353,Correct,k
8,23,347,B,54.35935070731371,36.49737630458456,2.7179675353656854,0.5732994463689252,B,2266.433208002127,Correct,d
8,23,348,A,47.56177726707418,63.79761205201524,2.378088863353709,1.0021305466959136,A,671.5486250031972,Correct,k
8,23,349,A,52.253820298320264,76.8718114239953,2.612691014916013,1.2074995901888175,A,688.7891660007881,Correct,k
8,23,350,A,50.56294653709794,73.14617692656748,2.5281473268548975,1.148977460353418,A,1811.5214160061441,Correct,k
8,23,351,A,24.57029254525609,35.52813722944953,1.2285146272628047,0.5580746745788433,A,629.1627079917816,Correct,k
8,23,352,A,27.647647278532375,53.152653764260876,1.3823823639266186,0.8349199329230191,A,686.8697910103947,Correct,k
8,23,353,A,24.53043444401502,42.77261197106775,1.226521722200751,0.6718706177157664,A,1288.8210829987656,Correct,k
8,23,354,B,46.74725603051373,23.198547194027277,2.337362801525687,0.364401927193561,B,1015.8846239937702,Correct,d
8,23,355,A,54.50480566052607,72.1191969856662,2.725240283026303,1.1328456971648206,A,3439.479291002499,Correct,k
8,23,356,B,43.90696530398425,34.25278965294451,2.1953482651992124,0.5380415616932347,B,1645.823750004638,Correct,d
8,23,357,B,50.69127782789557,27.69277767049817,2.5345638913947783,0.4349971344356627,B,1452.3849580000388,Correct,d
8,23,358,A,20.884352245010277,52.494658076002494,1.0442176122505138,0.8245841608213876,A,632.8979579993756,Correct,k
8,23,359,A,37.759659642402355,45.652585133511266,1.887982982120118,0.7171091303641081,A,892.9335410066415,Correct,k
8,23,360,A,25.53420038406092,56.948624182851304,1.276710019203046,0.8945468968244584,A,2922.6819570030784,Correct,k
8,23,361,A,30.822996132392007,45.343936922889334,1.5411498066196003,0.7122608956089405,A,959.2212910065427,Correct,k
8,23,362,B,59.10583647920031,43.725997205792964,2.9552918239600157,0.6868463579630351,B,809.0567909966921,Correct,d
8,23,363,B,80.93215846416606,53.27829521902863,4.0466079232083025,0.8368935042794428,B,824.8074989969609,Correct,d
8,23,364,B,86.86047383079666,63.744513810040274,4.343023691539833,1.001296481461378,B,3051.2151659931988,Correct,d
8,23,365,B,49.19959638557113,34.34532380701326,2.4599798192785562,0.5394950847863774,B,2108.580707994406,Correct,d
8,23,366,A,55.6233185278023,69.99734708231587,2.781165926390115,1.0995157568228924,A,1295.1038739993237,Correct,k
8,23,367,A,38.587438604201076,58.02275912556714,1.9293719302100538,0.9114193690494594,A,1133.2243329961784,Correct,k
8,23,368,A,39.87153456886519,54.654225063601714,1.9935767284432593,0.8585065597372715,A,1157.2784159943694,Correct,k
8,23,369,A,37.514497570961296,53.22190662337441,1.8757248785480647,0.8360077542901749,A,743.1004160025623,Correct,k
8,23,370,B,71.90350709762026,59.340883548184635,3.5951753548810133,0.9321244190625213,B,998.0923330003861,Correct,d
8,23,371,A,58.82966873649719,77.44900094550508,2.9414834368248597,1.2165660619913383,A,673.2190409966279,Correct,k
8,23,372,A,22.648139544738783,39.37626357291787,1.1324069772369392,0.6185209018324709,A,3481.3790830085054,Correct,k
8,23,373,A,32.83131226223131,44.62685526169398,1.6415656131115655,0.700997003214764,A,1224.0658329974394,Correct,k
8,23,374,B,74.35011741765408,42.627844384500456,3.717505870882704,0.6695966137835777,B,749.1841239971109,Correct,d
8,23,375,A,27.164165461044398,49.7347493381796,1.35820827305222,0.7812316157447743,A,3277.1199160051765,Correct,k
8,23,376,B,45.432548140470175,27.616743163941916,2.2716274070235087,0.4338027871995803,B,1045.6224579975242,Correct,d
8,23,377,B,46.13599284991545,21.451176717021422,2.306799642495773,0.33695429592525455,A,3542.053290992044,Incorrect,k
8,23,378,A,48.042914831338976,65.34219541072846,2.4021457415669487,1.0263928053588662,A,1432.5055410008645,Correct,k
8,23,379,B,79.23892295466158,67.21125861945896,3.961946147733079,1.0557519815870797,B,1394.7084569954313,Correct,d
8,23,380,B,83.79215398400841,59.22218252874032,4.18960769920042,0.9302598678092219,A,5483.588831993984,Incorrect,k
8,23,381,B,63.77622257313109,35.41331894621219,3.188811128656555,0.5562711132032623,B,2178.86354100483,Correct,d
8,23,382,B,78.79854891951167,47.49758892569221,3.939927445975584,0.7460903821609128,B,1638.4856250078883,Correct,d
8,23,383,A,37.29736789162068,62.417888485356166,1.8648683945810343,0.9804578995909092,A,5546.14587398828,Correct,k
8,23,384,A,66.42553042990548,88.65963094854669,3.321276521495274,1.3926622262896828,A,2802.877291003824,Correct,k
8,23,385,A,49.07304649112142,71.47565815025675,2.453652324556071,1.1227370127767102,A,1784.8428750003222,Correct,k
8,23,386,A,39.15968671511014,64.81980406180732,1.957984335755507,1.0181871012385186,A,1614.6685409912607,Correct,k
8,23,387,A,37.8554513462759,54.15380388496254,1.8927725673137952,0.8506459622447035,A,1688.8245820009615,Correct,k
8,23,388,A,47.11355093071701,76.59020535749703,2.3556775465358504,1.2030761324402315,A,791.6820409882348,Correct,k
8,23,389,A,23.532841413458833,41.887152473258126,1.1766420706729417,0.6579618524489163,A,746.5540410048561,Correct,k
8,23,390,B,76.58600229881826,59.43072845393647,3.8293001149409127,0.9335356995418834,B,1756.9969159958418,Correct,d
8,23,391,A,60.29634563652789,71.42990317513338,3.0148172818263945,1.1220182953081461,A,1649.679082998773,Correct,k
8,23,392,A,57.59783368370043,80.13113968847853,2.8798916841850213,1.2586969988455083,A,3188.126582012046,Correct,k
8,23,393,B,81.90600784395,57.98216993911982,4.095300392197499,0.9107817955996688,B,1719.7227909928188,Correct,d
8,23,394,B,59.82465163855275,36.76858353368965,2.9912325819276373,0.5775595595617102,B,2366.7109989910387,Correct,d
8,23,395,A,67.29933348447827,81.66348998484821,3.3649666742239135,1.282767101014514,A,2290.332831995329,Correct,k
8,23,396,A,15.843913925116777,40.209647624690305,0.7921956962558389,0.6316116679058067,A,2283.680624997942,Correct,k
8,23,397,B,56.73492242662013,30.677614532978637,2.8367461213310063,0.4818828422323258,A,1165.3691660030745,Incorrect,k
8,23,398,B,63.60711483138567,48.94929198205803,3.180355741569284,0.7688936804462764,A,762.3474990105024,Incorrect,k
8,23,399,B,54.106366177388914,43.519124897598864,2.7053183088694457,0.6835968153447664,B,1720.338957005879,Correct,d
8,23,400,A,35.12455042586601,62.63666857697373,1.7562275212933005,0.9838944892337966,A,1123.8082079944434,Correct,k
8,23,401,B,55.832133035343986,33.32345040326758,2.791606651767199,0.5234435348958463,B,1067.5352909893263,Correct,d
8,23,402,A,50.274803408458276,72.7927479091985,2.513740170422914,1.1434258103307589,A,1110.8230829995591,Correct,k
8,23,403,B,49.512703243576915,36.18904315847011,2.4756351621788455,0.5684561606354683,B,3444.997540995246,Correct,d
8,23,404,B,41.78228999378362,24.702645989794615,2.089114499689181,0.3880282558288406,B,5154.452581991791,Correct,d
8,23,405,A,42.57598163428551,66.69272354614108,2.1287990817142757,1.0476068517022592,A,810.2239569998346,Correct,k
8,23,406,A,45.99402125579473,53.56349061610586,2.2997010627897363,0.8413733431009199,A,1106.6386659949785,Correct,k
8,23,407,A,55.182172526601384,83.86161408704848,2.759108626330069,1.317295153670269,A,732.654833002016,Correct,k
8,23,408,A,49.07116660738154,75.00103864803023,2.453558330369077,1.1781135601412795,A,819.2380819964455,Correct,k
8,23,409,A,44.794017870651416,75.39923997774305,2.239700893532571,1.1843684920016568,A,706.6062910016626,Correct,k
8,23,410,B,55.01164870640074,43.8923465665217,2.750582435320037,0.6894593676110088,B,2010.2154159976635,Correct,d
8,23,411,A,62.64672497053187,75.07589369732085,3.1323362485265935,1.1792893805059572,A,778.1375000049593,Correct,k
8,23,412,A,51.27205629867699,68.96117553776698,2.5636028149338497,1.0832396122618244,A,1707.8924990055384,Correct,k
8,23,413,B,38.23844572166519,20.938663529457322,1.9119222860832594,0.32890375760065826,B,3426.249958007247,Correct,d
8,23,414,B,67.83314536533092,53.21817696361916,3.391657268266546,0.8359491689317375,B,5296.838708003634,Correct,d
8,23,415,B,41.998364047678876,16.498716616775738,2.099918202383944,0.25916123458461254,B,1012.8012080094777,Correct,d
8,23,416,B,87.66418595431288,65.02593954833692,4.383209297715644,1.0214250698891463,B,1028.000873993733,Correct,d
8,23,417,B,41.04761212864667,16.06679410865711,2.0523806064323336,0.2523766116924847,B,759.5346239977516,Correct,d
8,23,418,A,22.484831989960835,46.664735820968644,1.1242415994980417,0.7330079561843176,A,868.7210409989348,Correct,k
8,23,419,A,31.610761634162586,44.77303784437211,1.5805380817081294,0.7032932338538861,A,645.6608750013402,Correct,k
8,23,420,B,41.44828374990233,18.932534944886058,2.0724141874951165,0.29739156348343043,B,907.3471250012517,Correct,d
8,23,421,B,64.68176474983939,47.93170446589056,3.234088237491969,0.7529094531203943,B,2373.3166659949347,Correct,d
