subject,day,trial,cat,x,y,xt,yt,resp,rt,fb
8,3,0,B,36.67660181372256,19.189532106193436,1.833830090686128,0.30142846545321383,B,706.3483744859695,Correct
8,3,1,A,40.71466833132593,48.819050707956194,2.0357334165662966,0.7668478552967138,A,951.0693745687604,Correct
8,3,2,A,29.20823392935541,42.28708793358636,1.4604116964677702,0.6642440239693026,A,773.4143324196339,Correct
8,3,3,A,62.525744386955715,84.73396141061166,3.1262872193477858,1.3309979533856928,B,1970.8068743348122,Incorrect
8,3,4,A,45.4714690525755,76.39980736994853,2.273573452628775,1.200085367845528,A,1492.787916213274,Correct
8,3,5,B,56.08357522836437,48.998086074060296,2.804178761418218,0.7696601362511408,B,1803.0189163982868,Correct
8,3,6,B,48.56192735710627,32.02359494560753,2.4280963678553134,0.5030254531132792,B,782.943750731647,Correct
8,3,7,B,57.46670857928572,48.97539418361866,2.8733354289642863,0.7693036928696033,B,874.2947913706303,Correct
8,3,8,B,51.97058939864338,41.19272939407018,2.598529469932169,0.647053880228616,B,999.0526661276817,Correct
8,3,9,A,24.958730548725278,50.2967289047337,1.2479365274362637,0.7900591701335439,A,950.3322904929519,Correct
8,3,10,A,16.53028061938865,44.981400006870786,0.8265140309694324,0.7065661790488457,A,1182.6736656948924,Correct
8,3,11,B,39.18771424544074,16.667768117595212,1.9593857122720368,0.2618166893498765,B,789.8925002664328,Correct
8,3,12,B,38.604059363839795,12.598605332740195,1.9302029681919897,0.19789842979406896,B,651.6290828585625,Correct
8,3,13,B,52.8063554847492,40.00685450423203,2.64031777423746,0.6284262010186553,B,684.1236669570208,Correct
8,3,14,B,60.524950042664194,30.062370181072986,3.02624750213321,0.4722186065517788,B,596.4332493022084,Correct
8,3,15,A,43.89101845297169,67.28241046903031,2.1945509226485846,1.0568696322265931,A,998.8367492333055,Correct
8,3,16,A,19.636831774716775,37.29454891596956,0.9818415887358387,0.5858214044667757,A,1458.628375083208,Correct
8,3,17,B,51.291997692424935,21.11800532174681,2.5645998846212468,0.3317208518863497,B,808.9519580826163,Correct
8,3,18,B,63.949922199455344,32.09585317952416,3.197496109972767,0.5041604827974485,B,905.541374348104,Correct
8,3,19,A,33.16205598715575,49.70636772735046,1.6581027993577877,0.780785798444385,A,822.991625405848,Correct
8,3,20,A,33.04519989165885,51.77499791291409,1.6522599945829424,0.8132797654141888,A,1076.982457190752,Correct
8,3,21,A,51.30365374402872,69.71842825282192,2.5651826872014363,1.095134510094462,A,1411.0035421326756,Correct
8,3,22,B,83.63056843864942,57.101576074727404,4.181528421932471,0.8969494595238114,B,1138.0427917465568,Correct
8,3,23,A,12.431834892074534,35.34467305025373,0.6215917446037267,0.5551928259910514,A,987.6156253740191,Correct
8,3,24,B,61.54014350092654,36.80254233963099,3.077007175046327,0.5780929832380602,B,1022.5052498281002,Correct
8,3,25,A,59.60429299825112,87.40718141911705,2.980214649912556,1.3729887950864421,A,1380.2838744595647,Correct
8,3,26,A,14.945869931141218,37.407088419018066,0.7472934965570609,0.5875891708468549,A,814.0517082065344,Correct
8,3,27,B,54.98786944553255,37.21855144792453,2.749393472276628,0.5846276390302674,B,774.3538748472929,Correct
8,3,28,A,64.25567068220025,75.01380525559676,3.2127835341100126,1.1783140975439912,A,2496.0495829582214,Correct
8,3,29,B,70.50549102366688,41.42945810742005,3.525274551183344,0.6507724061623845,B,844.8761254549026,Correct
8,3,30,B,64.99118305721457,39.86780879138299,3.2495591528607286,0.6262420760686568,B,886.7512084543705,Correct
8,3,31,A,33.56366844139309,63.12333291355216,1.6781834220696543,0.9915389947565911,A,1193.77616699785,Correct
8,3,32,B,45.882572534293416,35.961355448138434,2.294128626714671,0.564879650445015,A,948.1587493792176,Incorrect
8,3,33,A,16.761571626186978,43.76379976545557,0.8380785813093489,0.6874401591816497,A,1162.631000392139,Correct
8,3,34,A,67.93632298064922,83.36135019965863,3.396816149032461,1.309437026902868,A,1879.2895833030343,Correct
8,3,35,B,77.28753305940818,53.78983760875349,3.864376652970409,0.8449287933472396,B,1169.530083425343,Correct
8,3,36,B,82.33012117092423,51.79336802086283,4.116506058546212,0.8135683223950759,B,925.2941654995084,Correct
8,3,37,A,20.925327108040094,45.81742563113541,1.0462663554020046,0.7196984388458584,A,880.5149579420686,Correct
8,3,38,A,56.33755563333174,66.83346835524775,2.816877781666587,1.0498176659938612,A,1825.3986248746514,Correct
8,3,39,B,48.78232480174401,41.92544293289679,2.4391162400872006,0.6585633175824334,A,1652.360999956727,Incorrect
8,3,40,B,48.42054608578513,27.74479979696022,2.4210273042892565,0.43581429608724903,B,902.1543329581618,Correct
8,3,41,B,48.14591375291788,18.724891927571285,2.4072956876458935,0.29412991459460386,B,887.6282498240471,Correct
8,3,42,A,51.70904496561978,74.0308832594958,2.585452248280989,1.162874394933978,A,1076.9185004755855,Correct
8,3,43,B,61.56022796391554,28.89437373713428,3.0780113981957764,0.45387176131329454,B,1407.5119160115719,Correct
8,3,44,B,55.323810310162045,32.16458060468362,2.7661905155081024,0.505240050667354,B,1096.851791255176,Correct
8,3,45,A,56.911267776608184,75.20103532903106,2.845563388830409,1.1812551006601522,A,461.8914583697915,Correct
8,3,46,A,27.462198130873993,52.67476668034225,1.3731099065436996,0.8274133001625982,A,504.7319997102022,Correct
8,3,47,A,19.98269895284191,49.254397099448155,0.9991349476420956,0.7736862604231037,A,475.2414170652628,Correct
8,3,48,A,38.64821492877705,61.17853011402184,1.9324107464388527,0.9609901038181647,A,499.31637570261955,Correct
8,3,49,A,54.72885333680455,79.35651043173277,2.7364426668402273,1.2465291509342673,A,685.1456239819527,Correct
8,3,50,B,34.58443101132313,19.493609533561003,1.7292215505661568,0.30620490251291604,B,621.7551240697503,Correct
8,3,51,A,48.41628566639424,74.9575170248625,2.4208142833197117,1.1774299240831994,A,670.6593334674835,Correct
8,3,52,A,36.31372035918891,48.90139266244353,1.8156860179594458,0.768141279693212,A,790.1622075587511,Correct
8,3,53,A,16.288792290848015,39.40371356970881,0.8144396145424008,0.6189520853737681,A,610.3797499090433,Correct
8,3,54,B,57.89209385105744,50.196105923378994,2.894604692552872,0.7884785880385127,A,963.8924580067396,Incorrect
8,3,55,A,20.012892944920427,41.77252135642662,1.0006446472460213,0.656161231076363,A,552.8669999912381,Correct
8,3,56,A,46.59290192109214,65.42176243412175,2.329645096054607,1.027642641239668,A,901.8868748098612,Correct
8,3,57,A,25.967298381270492,44.196989994231856,1.2983649190635245,0.694244695383302,A,548.8063329830766,Correct
8,3,58,B,80.68779264429912,56.54349723196165,4.034389632214956,0.8881831775610277,B,1028.0552916228771,Correct
8,3,59,A,44.796927288977116,73.54638232959302,2.239846364448856,1.155263872123778,A,669.3985825404525,Correct
8,3,60,A,53.800249368440994,72.9527892545098,2.69001246842205,1.1459397339042618,A,599.8057499527931,Correct
8,3,61,B,53.43353303296092,41.42092427822715,2.671676651648046,0.6506383570868874,A,1921.0011241957545,Incorrect
8,3,62,A,56.513205318851696,84.11234599703084,2.8256602659425845,1.3212336413023746,A,873.416374437511,Correct
8,3,63,B,54.235891153812034,35.41028168083081,2.7117945576906015,0.5562234039502166,B,989.8657910525799,Correct
8,3,64,A,57.891467477505664,66.19792959317317,2.894573373875283,1.039834646463836,A,849.1142494603992,Correct
8,3,65,B,48.8745352264985,22.261599365005978,2.443726761324925,0.3496843851113099,B,726.6192082315683,Correct
8,3,66,B,83.05636910957192,52.449179278285115,4.152818455478596,0.8238697815373724,B,743.9680406823754,Correct
8,3,67,B,47.82807041998201,27.797580253894118,2.3914035209991003,0.4366433695660322,B,738.9273336157203,Correct
8,3,68,A,56.51918998598223,71.2524538323114,2.8259594992991115,1.119230927549177,A,817.6578329876065,Correct
8,3,69,B,70.65735033886392,52.03604028748576,3.5328675169431962,0.817380209445339,A,1784.114208072424,Incorrect
8,3,70,B,85.315991021369,60.631148068079874,4.26579955106845,0.9523918467469735,B,651.1118747293949,Correct
8,3,71,B,82.06862153144488,59.252067390613306,4.103431076572244,0.9307292981217906,B,729.088332504034,Correct
8,3,72,B,33.976799253010206,18.81180305670777,1.6988399626505102,0.2954951114186557,B,923.7221656367183,Correct
8,3,73,B,34.546055556666104,18.666618173614133,1.727302777833305,0.29321455260795937,B,1151.7532914876938,Correct
8,3,74,A,38.718716753676,68.85614311187841,1.9359358376838,1.0815897667740233,A,882.0825004950166,Correct
8,3,75,A,30.765020864476593,63.626705938947524,1.5382510432238297,0.999445959749578,A,1051.9757075235248,Correct
8,3,76,B,69.93453688698582,45.2103073739266,3.496726844349291,0.7101618475623213,B,1854.758333414793,Correct
8,3,77,A,24.6016513653117,42.81563867933701,1.230082568265585,0.6725464796688008,A,1327.1082499995828,Correct
8,3,78,A,32.15011842658127,43.8147162781337,1.6075059213290637,0.6882399538925299,A,772.2954982891679,Correct
8,3,79,A,61.06449784591351,77.299428744726,3.0532248922956753,1.2142165873555946,A,1623.5084170475602,Correct
8,3,80,B,68.1009958716011,53.31285450847011,3.4050497935800546,0.837436360328556,A,1574.7726671397686,Incorrect
8,3,81,B,69.96130267349842,42.19104721248,3.4980651336749213,0.6627354198499364,B,699.6244573965669,Correct
8,3,82,B,32.16769147983863,16.812208185911846,1.6083845739919314,0.2640855486374142,B,826.0796247050166,Correct
8,3,83,B,42.50610246397973,29.63662659724738,2.1253051231989866,0.4655310419754812,B,844.610832631588,Correct
8,3,84,A,12.797467321039118,35.97377577480098,0.639873366051956,0.565074748480006,A,993.6796659603715,Correct
8,3,85,A,54.71266697797997,82.70650237097206,2.7356333488989986,1.2991507012637629,A,966.947415843606,Correct
8,3,86,B,48.073424178399904,37.543704424879834,2.403671208919995,0.5897351300487456,B,1416.283749975264,Correct
8,3,87,B,50.895629648518266,34.78623194408367,2.544781482425913,0.5464208536080192,B,757.639791816473,Correct
8,3,88,A,45.90197860335411,74.43819993541744,2.2950989301677054,1.1692725103177781,A,868.6284152790904,Correct
8,3,89,A,47.39421472135264,64.12534055491251,2.3697107360676317,1.0072784939812838,A,736.1724162474275,Correct
8,3,90,A,14.604864964864863,40.59465512633684,0.730243248243243,0.6376593515995552,A,988.5710002854466,Correct
8,3,91,A,15.566182621061781,33.61669320472406,0.7783091310530891,0.528049782049715,A,814.1900831833482,Correct
8,3,92,B,79.30728419046685,50.40243318637641,3.965364209523342,0.7917195691068527,B,1460.730791091919,Correct
8,3,93,B,65.65185668136843,52.52704267420942,3.2825928340684216,0.8250928569004693,B,1401.340457610786,Correct
8,3,94,A,25.313667480547707,40.490527437547,1.2656833740273854,0.636023717688868,A,723.7494578585029,Correct
8,3,95,A,31.148948352981456,41.212562047953234,1.5574474176490727,0.647365410827317,A,1916.0854164510965,Correct
8,3,96,B,45.18342343456727,29.125516216926577,2.2591711717283633,0.4575025388955346,B,986.7896651849151,Correct
8,3,97,A,50.00893616491142,80.49902051332185,2.5004468082455706,1.26447565732913,A,976.2163748964667,Correct
8,3,98,A,15.160375494584198,40.503558475864665,0.75801877472921,0.6362284087601051,A,981.0947077348828,Correct
8,3,99,A,53.11674025031407,82.48579927585797,2.6558370125157036,1.2956839051525886,A,1502.0422907546163,Correct
8,3,100,B,49.784329933376114,19.667695299840428,2.4892164966688055,0.308939435335106,B,1082.1540830656886,Correct
8,3,101,A,27.689860160726305,48.17341223764941,1.3844930080363154,0.7567061899207601,A,2017.5936669111252,Correct
8,3,102,B,80.827856090173,50.73491607403636,4.04139280450865,0.7969421980934368,B,1608.5047908127308,Correct
8,3,103,B,75.34678167315475,59.55948379450999,3.7673390836577374,0.9355581837021646,B,880.1587922498584,Correct
8,3,104,A,67.05817582925319,80.08467413306809,3.352908791462659,1.2579671196078963,A,1857.3499154299498,Correct
8,3,105,B,34.36996520031491,10.492240018791268,1.7184982600157455,0.1648117208136774,B,832.4634162709117,Correct
8,3,106,B,63.25354820494263,35.58801012017524,3.1626774102471313,0.5590151557471087,B,876.1782078072429,Correct
8,3,107,B,79.73689916317522,61.06706420366689,3.9868449581587613,0.9592392013926806,B,982.7338736504316,Correct
8,3,108,B,65.26476317780757,39.93545586617091,3.2632381588903785,0.6273046738346097,B,1137.7804586663842,Correct
8,3,109,B,89.15503776183316,67.3596273687226,4.457751888091658,1.0580825524506245,B,829.6680832281709,Correct
8,3,110,B,70.29108777311245,56.02700823917391,3.5145543886556228,0.8800701874340178,A,2843.106291256845,Incorrect
8,3,111,A,49.74444734026014,69.10288942839908,2.4872223670130067,1.0854656488504315,A,897.1924996003509,Correct
8,3,112,A,56.683979095201195,78.89722526988928,2.83419895476006,1.2393147164825158,A,967.9434578865767,Correct
8,3,113,A,32.19233539981892,46.452556968157815,1.609616769990946,0.7296750585581296,A,870.3766250982881,Correct
8,3,114,A,61.15287853329757,76.01734590382952,3.0576439266648783,1.194077677184325,A,2469.2182913422585,Correct
8,3,115,A,66.83349017561284,79.03873064234747,3.341674508780642,1.2415374776753065,A,2166.423291899264,Correct
8,3,116,A,51.62359241503968,62.40735458159148,2.581179620751984,0.9802924334175055,A,864.8569574579597,Correct
8,3,117,B,73.37467313064158,58.17434843814243,3.668733656532079,0.9138005284032057,B,793.0752905085683,Correct
8,3,118,A,20.127137622458,49.604110192593254,1.0063568811229002,0.7791795408445478,A,1034.4672501087189,Correct
8,3,119,B,39.5235324507408,30.27146570456935,1.97617662253704,0.4755030713543522,B,845.4395830631256,Correct
8,3,120,B,40.71460876295316,20.115173969862443,2.035730438147658,0.3159684138470024,B,727.5064159184694,Correct
8,3,121,B,70.87070130880223,53.559734786681055,3.543535065440111,0.8413143466702746,B,799.149208702147,Correct
8,3,122,B,60.405294146407485,47.68741780393431,3.020264707320374,0.7490722072075355,B,678.6195822060108,Correct
8,3,123,B,41.03457828716368,21.69898718396133,2.0517289143581845,0.3408468936373599,A,938.6639995500445,Incorrect
8,3,124,B,38.85059914892473,15.267765749005207,1.9425299574462367,0.23982550356902313,B,711.8297908455133,Correct
8,3,125,A,55.74705679068665,70.55462075107323,2.787352839534332,1.1082693911419281,A,880.0364583730698,Correct
8,3,126,A,35.87985920466888,63.20193935060286,1.7939929602334441,0.9927737417824081,A,1287.3429581522942,Correct
8,3,127,B,84.59888790723348,64.80708887489186,4.229944395361674,1.0179873715495054,B,834.2530000954866,Correct
8,3,128,B,32.44020206181105,17.342338574116873,1.6220101030905525,0.2724128173025623,B,779.7035416588187,Correct
8,3,129,A,42.828027649308524,65.18739379011686,2.141401382465426,1.0239611871884802,A,1034.4830425456166,Correct
8,3,130,B,66.23435390536775,48.44929234657016,3.3117176952683876,0.761039704538045,B,839.7936662659049,Correct
8,3,131,B,66.44059089374417,40.36658066077409,3.322029544687209,0.6340767662721386,B,790.9117080271244,Correct
8,3,132,A,18.331439917087547,36.56856896822321,0.9165719958543774,0.5744177381143086,A,848.9839164540172,Correct
8,3,133,B,60.37451526334999,27.303849976218448,3.0187257631674993,0.42888787250002863,B,1211.5431670099497,Correct
8,3,134,B,36.17387292850279,22.06396357073892,1.8086936464251395,0.3465799293145311,B,815.8705001696944,Correct
8,3,135,A,52.62692090176202,60.49619784684179,2.6313460450881005,0.950272053628764,A,1013.3186662569642,Correct
8,3,136,A,50.10311407042407,70.8365021778581,2.5051557035212033,1.1126971742397818,A,680.8842914178967,Correct
8,3,137,A,10.099595686805468,33.06603103647191,0.5049797843402735,0.5194000009377613,A,965.2346251532435,Correct
8,3,138,B,66.1613061755644,33.28244896503089,3.30806530877822,0.5227994858100912,B,668.6253752559423,Correct
8,3,139,B,57.18339172298891,49.42812505049307,2.859169586149445,0.7764151726967333,A,1072.6559171453118,Incorrect
8,3,140,B,83.19879174394065,62.8897630343254,4.159939587197033,0.9878700876731981,B,1368.9652075991035,Correct
8,3,141,A,43.75708382657497,72.87484104125865,2.187854191328748,1.1447153262337106,A,1163.777332752943,Correct
8,3,142,A,36.45563321446222,55.41380558401613,1.8227816607231109,0.8704380226509907,A,924.3792491033673,Correct
8,3,143,B,52.870748534275315,34.62681172661352,2.6435374267137655,0.5439166866878297,B,956.3854997977614,Correct
8,3,144,A,36.89502701816433,56.687786328131736,1.8447513509082165,0.8904496653836328,A,1349.721373990178,Correct
8,3,145,A,46.621120125289615,57.186507948764806,2.3310560062644807,0.898283566281469,A,1141.0812083631754,Correct
8,3,146,B,72.47990586449485,51.01857325170423,3.623995293224743,0.8013978746209336,B,1701.0373333469033,Correct
8,3,147,A,30.024325477591248,40.49903879981221,1.5012162738795625,0.6361574138546902,B,1765.0266233831644,Incorrect
8,3,148,B,69.65666922568663,44.031844763712506,3.4828334612843315,0.691650600168427,B,1459.5285411924124,Correct
8,3,149,B,77.93774803661827,57.8771748620282,3.8968874018309134,0.9091325367853982,B,2184.840666130185,Correct
8,3,150,B,69.29368521771045,58.70782989203726,3.464684260885522,0.9221804354851176,B,612.2258752584457,Correct
8,3,151,A,34.38877701918645,44.32621769258857,1.7194388509593224,0.6962745993222907,A,2127.2397907450795,Correct
8,3,152,B,47.089231118276004,34.345691103370065,2.3544615559138005,0.5395008542640585,B,1282.5070824474096,Correct
8,3,153,B,82.8459193802008,65.17548569914983,4.14229596901004,1.0237741353329788,B,1335.042375139892,Correct
8,3,154,A,51.05799738215596,75.38577998291912,2.552899869107798,1.1841570628973759,A,986.4247497171164,Correct
8,3,155,A,39.90789164519616,60.7491156960066,1.995394582259808,0.9542448779132535,A,929.903082549572,Correct
8,3,156,B,69.3180385468198,39.39193927610867,3.4659019273409903,0.6187671352023912,B,585.9793331474066,Correct
8,3,157,A,69.13695914515829,83.3943285774051,3.4568479572579145,1.309955050049146,A,1991.7631251737475,Correct
8,3,158,A,43.56709059730444,60.24985119320479,2.1783545298652225,0.946402449442252,A,2091.909082606435,Correct
8,3,159,A,30.077355251892858,60.22994053778048,1.5038677625946428,0.9460896935982062,A,1150.860708206892,Correct
8,3,160,B,79.66767442579523,63.2613860370933,3.983383721289761,0.9937075281502014,B,860.8323745429516,Correct
8,3,161,B,73.20860859582979,63.14951383623464,3.6604304297914894,0.9919502437284087,B,739.3876658752561,Correct
8,3,162,B,72.78565514078095,54.30076558477302,3.639282757039047,0.8529544312271219,B,695.5298325046897,Correct
8,3,163,B,78.44763213378616,51.61563257880578,3.922381606689308,0.8107764605998311,B,727.0576255396008,Correct
8,3,164,B,57.94057303673208,31.920800513541813,2.8970286518366044,0.5014107619502413,B,755.0726244226098,Correct
8,3,165,B,61.93623201037958,37.53329434490848,3.096811600518979,0.5895716088949391,B,601.1268747970462,Correct
8,3,166,B,59.44461169303813,29.334171335057338,2.9722305846519066,0.46078008582680213,B,604.4509178027511,Correct
8,3,167,A,36.48897781755826,53.94248811316875,1.824448890877913,0.8473266218634284,A,1244.1156655550003,Correct
8,3,168,B,72.59270292364207,55.44310419924054,3.629635146182103,0.8708982442227374,B,858.2904580980539,Correct
8,3,169,B,54.69576806916558,47.78053328908048,2.7347884034582792,0.7505348618278889,B,2079.4164584949613,Correct
8,3,170,B,87.30030921436925,68.54660880113816,4.365015460718462,1.0767276131907455,B,806.453749537468,Correct
8,3,171,A,27.32167102638055,51.39460153046042,1.3660835513190275,0.807304513011346,A,860.2593326941133,Correct
8,3,172,B,65.71067642806162,53.265845713711855,3.2855338214030807,0.8366979479072225,B,909.9407503381371,Correct
8,3,173,A,24.612415803615313,45.766300495307775,1.2306207901807655,0.7188953670902092,A,886.9020408019423,Correct
8,3,174,B,52.051340231441735,34.52051925517387,2.602567011572087,0.5422470484507962,B,1687.8926251083612,Correct
8,3,175,A,27.706728207223556,44.447465127557,1.3853364103611778,0.698179149577108,A,748.6279578879476,Correct
8,3,176,B,71.29864669602463,56.615416714520826,3.564932334801232,0.8893128861513172,B,1025.9904582053423,Correct
8,3,177,B,67.75019685504107,53.915384186525316,3.387509842752053,0.8469008743792961,B,1189.252750016749,Correct
8,3,178,B,73.64289427606533,61.945373184234924,3.682144713803267,0.973035646597353,B,923.5651241615415,Correct
8,3,179,A,23.54015933841867,50.64585279437641,1.1770079669209335,0.7955431953680152,A,793.3774162083864,Correct
8,3,180,A,24.646316582650623,51.75768157111014,1.2323158291325311,0.813007760953197,A,931.1698749661446,Correct
8,3,181,A,60.53917539690146,79.75883998477829,3.026958769845073,1.2528489287751166,A,1291.2860410287976,Correct
8,3,182,A,30.235003687633156,49.32217434296639,1.5117501843816579,0.774750902874691,A,3453.447458334267,Correct
8,3,183,A,15.477935007099873,32.746073569436064,0.7738967503549936,0.5143741207982561,A,2393.91762483865,Correct
8,3,184,B,75.54262010703272,48.130070582167406,3.777131005351636,0.7560253807884768,B,583.3364576101303,Correct
8,3,185,B,73.09409851222547,42.57534903754618,3.6547049256112736,0.6687720188018818,B,599.5322493836284,Correct
8,3,186,A,16.0580079119062,32.07738542845117,0.80290039559531,0.5038703920419525,A,907.3999160900712,Correct
8,3,187,A,44.58582932165045,62.57363743972555,2.2292914660825227,0.9829043984451652,A,1437.8949999809265,Correct
8,3,188,A,44.38555909319092,70.46367241661638,2.219277954659546,1.1068407780449987,A,682.9537497833371,Correct
8,3,189,A,26.840720416635676,47.71868716742787,1.3420360208317839,0.7495633852207046,A,1089.750082232058,Correct
8,3,190,B,68.89136708058831,46.84336246804902,3.444568354029416,0.7358138169953332,B,3239.433123730123,Correct
8,3,191,B,61.85602458001775,41.27310655022288,3.0928012290008877,0.6483164416450449,B,616.9026661664248,Correct
8,3,192,B,66.80209781145473,42.05778372770521,3.340104890572736,0.660642121926135,B,544.1166665405035,Correct
8,3,193,B,40.65621422816383,15.106245684254944,2.0328107114081915,0.23728835232488923,B,691.4060423150659,Correct
8,3,194,B,59.460469665400886,52.12100862272211,2.9730234832700444,0.8187148889341702,B,1061.002666130662,Correct
8,3,195,A,54.45197169400461,81.99816462471901,2.7225985847002305,1.2880241579643186,A,1038.0454994738102,Correct
8,3,196,B,82.15099476387596,65.91130442628746,4.107549738193797,1.0353323488707256,B,706.9233329966664,Correct
8,3,197,A,47.69810262781958,71.95738228256947,2.3849051313909793,1.1303039177523628,B,853.0043754726648,Incorrect
8,3,198,B,63.172327490996196,44.24414194048719,3.1586163745498097,0.6949853564230931,B,567.4838330596685,Correct
8,3,199,B,83.4438345879827,64.82254419838969,4.172191729399135,1.0182301432033036,B,670.1113749295473,Correct
8,3,200,A,39.48315845319331,53.53277621079859,1.9741579226596655,0.8408908823505565,B,1936.8490828201175,Incorrect
8,3,201,A,42.60223487435344,49.582179389436675,2.1301117437176718,0.7788350525941274,B,667.8568748757243,Incorrect
8,3,202,B,68.14438403958837,35.65905628828021,3.4072192019794185,0.5601311463460301,B,676.3234985992312,Correct
8,3,203,A,46.34677117142217,58.11070367855941,2.3173385585711084,0.912800798857478,A,1494.6717498824,Correct
8,3,204,B,61.191983700613704,47.48025338578732,3.0595991850306854,0.7458180761368568,B,1136.1916661262512,Correct
8,3,205,A,52.45791233888477,82.29053054596326,2.622895616944238,1.2926166311160234,A,630.1080835983157,Correct
8,3,206,B,49.260397680553304,26.67135182468711,2.463019884027665,0.41895261476872875,B,558.5783328860998,Correct
8,3,207,B,41.00487145712805,17.579797749696553,2.0502435728564024,0.27614281731020535,B,563.0632918328047,Correct
8,3,208,A,45.34618291005906,71.74833989502932,2.2673091455029533,1.1270202876074378,A,789.4050823524594,Correct
8,3,209,A,28.58735926035945,54.05249682405181,1.4293679630179725,0.849054634653134,A,1576.600375585258,Correct
8,3,210,B,89.32301049167228,66.38179864953129,4.466150524583614,1.0427228548472218,B,672.6732905954123,Correct
8,3,211,A,29.57697946687339,56.39760002795482,1.4788489733436694,0.8858914296395919,A,1778.6669172346592,Correct
8,3,212,A,30.981886951353584,47.87611007659049,1.5490943475676793,0.7520361784953646,A,805.945623666048,Correct
8,3,213,B,78.25303168125963,47.46395586063373,3.9126515840629814,0.7455620752103858,B,733.201083727181,Correct
8,3,214,A,35.1530484916083,65.52425477930711,1.757652424580415,1.0292525872330855,A,773.0724588036537,Correct
8,3,215,A,55.69846394466087,82.09769629548995,2.7849231972330437,1.289587597792786,A,988.5114161297679,Correct
8,3,216,B,34.334199311023404,13.016286715233793,1.7167099655511704,0.2044593536079845,B,927.7373338118196,Correct
8,3,217,A,58.36465198610275,66.57167343678434,2.9182325993051377,1.0457054010309021,A,1055.1926661282778,Correct
8,3,218,A,52.08668380008854,62.480540483546285,2.6043341900044266,0.9814420348771433,A,965.6140003353357,Correct
8,3,219,A,53.93900013736463,83.63137959310743,2.6969500068682315,1.313678638696428,A,654.213291592896,Correct
8,3,220,B,47.712514690355256,22.33803428089134,2.3856257345177627,0.35088502196242594,B,695.7807904109359,Correct
8,3,221,A,52.907632408676456,73.8693163877875,2.6453816204338225,1.1603365084478667,A,1281.9961244240403,Correct
8,3,222,A,26.228948165787884,39.18721594046078,1.311447408289394,0.6155513485659422,A,584.782125428319,Correct
8,3,223,B,80.87622903614948,62.63419991152995,4.043811451807474,0.9838557115276848,B,740.9334583207965,Correct
8,3,224,B,45.34487243581345,32.69563648034148,2.2672436217906724,0.5135818568554161,B,923.8302083685994,Correct
8,3,225,A,27.117703650889826,50.29277845612924,1.3558851825444913,0.7899971166319734,A,532.3276240378618,Correct
8,3,226,B,71.51775948066948,43.55918086129026,3.575887974033474,0.684226012951093,B,1069.1648749634624,Correct
8,3,227,B,67.7377759651865,39.011453014530716,3.386888798259325,0.6127904709815655,B,658.8987084105611,Correct
8,3,228,A,46.539501988499374,72.16496389914667,2.3269750994249687,1.1335646021606591,A,911.7801245301962,Correct
8,3,229,B,51.16247500777957,30.80334689363886,2.558123750388978,0.4838578415351691,A,995.9829170256853,Incorrect
8,3,230,B,51.83848982937194,23.375724652070513,2.591924491468597,0.36718502419641275,B,510.2524161338806,Correct
8,3,231,A,15.342661499677625,34.33523894614335,0.7671330749838813,0.5393366721622705,A,503.090082667768,Correct
8,3,232,A,27.238973378759013,51.75183425530433,1.3619486689379505,0.8129159115313035,A,1488.0704153329134,Correct
8,3,233,B,73.68405299297548,59.36580816228587,3.684202649648774,0.9325159339852913,B,2779.246499761939,Correct
8,3,234,B,76.87940209767092,58.29990093969766,3.8439701048835455,0.9157727024858341,B,529.3217496946454,Correct
8,3,235,A,51.85759666301496,78.55942120799732,2.5928798331507483,1.2340085026865526,A,970.8409998565912,Correct
8,3,236,A,65.78596123847367,78.15117630007106,3.2892980619236836,1.2275958066685198,A,571.5061668306589,Correct
8,3,237,A,37.10539553562635,68.99331862055176,1.8552697767813173,1.0837445146255265,A,506.2370831146836,Correct
8,3,238,A,57.43875136753642,84.47581555652759,2.8719375683768207,1.326943007791967,A,683.4762925282121,Correct
8,3,239,B,57.72187133616833,49.04505418978439,2.8860935668084164,0.7703979096876995,A,1780.4470006376505,Incorrect
8,3,240,B,65.75642542109279,49.24829725928659,3.2878212710546393,0.7735904443579055,B,554.185583256185,Correct
8,3,241,B,77.05336333872131,58.58113241222262,3.8526681669360654,0.9201902761260475,B,648.0676671490073,Correct
8,3,242,A,20.9505814199218,42.12988529815546,1.04752907099609,0.6617746907463291,A,517.2191252931952,Correct
8,3,243,A,60.525157038556294,87.85355285763953,3.0262578519278147,1.3800003812466146,A,877.4172915145755,Correct
8,3,244,B,36.33344234003032,19.58353598532554,1.8166721170015159,0.3076174639140503,B,734.5516253262758,Correct
8,3,245,B,36.986022108436345,15.50082149469252,1.8493011054218171,0.24348633466166392,B,569.288750179112,Correct
8,3,246,A,50.42218411723323,65.02545214003099,2.5211092058616615,1.0214174136973804,B,2461.565707810223,Incorrect
8,3,247,A,57.97366009851606,74.19984600474254,2.898683004925803,1.1655284555299656,A,467.2480830922723,Correct
8,3,248,B,67.79218497764457,58.41044012838923,3.3896092488822287,0.9175090480014703,A,1108.3549158647656,Incorrect
8,3,249,A,54.35044484007604,81.06746067193652,2.7175222420038017,1.2734046944606763,A,654.9707083031535,Correct
8,3,250,A,53.303417744403106,78.47347829158535,2.665170887220155,1.2326585145124132,A,785.2632086724043,Correct
8,3,251,B,73.37051903428835,61.900591782376154,3.6685259517144173,0.9723322219818682,B,844.772832468152,Correct
8,3,252,B,62.219747844572375,45.6552845788846,3.1109873922286186,0.717151533152876,B,755.284957587719,Correct
8,3,253,B,47.581502427830756,26.92138119461665,2.3790751213915375,0.4228800669274904,B,726.6216250136495,Correct
8,3,254,A,16.63351941142375,35.32993274448571,0.8316759705711876,0.5549612858094889,A,531.6271670162678,Correct
8,3,255,B,83.57610090255723,62.57625112796577,4.178805045127862,0.9829454541640364,B,685.0647907704115,Correct
8,3,256,A,16.98849086215807,41.378761513405756,0.8494245431079035,0.649976065925798,A,487.9099577665329,Correct
8,3,257,B,47.64941199537199,23.565608495476845,2.3824705997685998,0.3701677126338163,B,893.5357490554452,Correct
8,3,258,B,42.78108945328127,19.656678522392976,2.1390544726640632,0.30876638419963015,B,1349.1770830005407,Correct
8,3,259,A,51.82561824309259,79.40163660111305,2.59128091215463,1.2472379911453157,A,1055.0440410152078,Correct
8,3,260,A,29.030469585881068,44.86431489597844,1.4515234792940535,0.7047270104277249,A,1722.6903326809406,Correct
8,3,261,A,61.19594735450156,80.53017732587669,3.059797367725078,1.2649650673962878,A,1108.070457354188,Correct
8,3,262,B,35.56859982981279,25.600381476577972,1.7784299914906396,0.40212985187956796,B,843.5852080583572,Correct
8,3,263,B,77.62359591663981,53.57039706358154,3.881179795831991,0.84148182932418,B,828.4041667357087,Correct
8,3,264,B,56.20239525698581,42.2787508980675,2.8101197628492907,0.6641130661216086,B,990.6473327428102,Correct
8,3,265,B,60.02719170922135,52.87253793795577,3.0013595854610675,0.8305198838126475,B,1150.8139576762915,Correct
8,3,266,B,61.6244035493067,49.82833517703497,3.081220177465335,0.7827016586639146,B,907.9933753237128,Correct
8,3,267,A,67.6760625223249,86.56405561922968,3.383803126116245,1.359745005991551,A,831.7071665078402,Correct
8,3,268,A,12.182864369982205,39.44197773500322,0.6091432184991102,0.6195531374766915,A,522.7907486259937,Correct
8,3,269,B,32.97451271046059,16.894491482507078,1.6487256355230295,0.26537805163789785,B,1246.2326250970364,Correct
8,3,270,A,55.85736370171911,65.78684533588451,2.792868185085956,1.0333773500503136,A,1191.9369576498866,Correct
8,3,271,A,34.11274077830723,55.140240744811535,1.7056370389153614,0.8661408762053625,A,673.7271249294281,Correct
8,3,272,B,43.90429094541698,19.9942926981825,2.195214547270849,0.31406961527167093,B,622.24758323282,Correct
8,3,273,B,51.5692954386445,25.8491555347791,2.5784647719322256,0.4060375856478098,B,578.3760407939553,Correct
8,3,274,A,56.294447926465864,70.43145059484303,2.814722396323293,1.1063346388521567,A,1367.3601252958179,Correct
8,3,275,B,40.68070754427689,31.371960550527035,2.0340353772138444,0.49278960397122273,A,920.718583278358,Incorrect
8,3,276,A,53.521459044641134,69.19296554563343,2.6760729522320563,1.0868805611912682,A,715.4268752783537,Correct
8,3,277,B,79.57769302198287,54.35766272809498,3.978884651099144,0.8538481694644744,B,715.9119574353099,Correct
8,3,278,A,20.421480309654815,38.23932222170519,1.0210740154827407,0.6006618688498097,A,545.3155413269997,Correct
8,3,279,B,73.88124512851965,51.430426657870136,3.6940622564259824,0.8078672527967673,A,923.5533326864243,Incorrect
8,3,280,B,62.015838358632756,41.2570454301257,3.100791917931638,0.6480641541605162,B,436.62679102271795,Correct
8,3,281,B,58.31106313464052,50.58575222789868,2.9155531567320256,0.7945991378774001,A,1228.3820006996393,Incorrect
8,3,282,B,47.586361510181426,28.24029170652052,2.3793180755090715,0.44359746480218815,B,682.1409584954381,Correct
8,3,283,A,21.250417557907817,50.746804569584306,1.0625208778953907,0.7971289421448151,A,929.4446660205722,Correct
8,3,284,B,59.27114188787932,34.71704176938634,2.963557094393966,0.5453340168853706,B,977.3601656779647,Correct
8,3,285,A,25.3632785955916,49.8705493830039,1.26816392977958,0.7833647578606602,A,515.1717914268374,Correct
8,3,286,A,26.40592678013054,53.531645299890435,1.320296339006527,0.8408731180435519,A,417.32716653496027,Correct
8,3,287,A,42.03054298069044,56.10666277979992,2.101527149034522,0.8813213980322965,A,858.9793331921101,Correct
8,3,288,A,51.00959107214735,72.32241193601637,2.5504795536073677,1.1360377901404188,A,756.0884160920978,Correct
8,3,289,B,74.91308287787726,52.04503780823883,3.745654143893863,0.8175215421708308,A,667.8102081641555,Incorrect
8,3,290,A,48.046153884059024,57.72134885598456,2.4023076942029515,0.9066848276062733,B,534.9432909861207,Incorrect
8,3,291,A,53.97125945833477,81.57674512329419,2.6985629729167386,1.28140451591554,A,914.8665824905038,Correct
8,3,292,A,27.26278242957422,60.109275344400636,1.363139121478711,0.9441942891728756,A,1047.6686246693134,Correct
8,3,293,A,21.235506309212028,49.29652384857264,1.0617753154606013,0.7743479858509493,A,962.3126247897744,Correct
8,3,294,A,10.504104846506806,34.07377037207556,0.5252052423253403,0.5352295334050907,A,832.675707526505,Correct
8,3,295,A,33.998270864497094,62.3846079493507,1.6999135432248549,0.9799351301537979,A,871.8376662582159,Correct
8,3,296,A,17.45165967941379,36.85870260733212,0.8725829839706896,0.5789751466602278,A,757.7972076833248,Correct
8,3,297,A,14.581088641645525,39.04471004912591,0.7290544320822763,0.6133128712593877,A,811.8934575468302,Correct
8,3,298,A,50.425874957125295,64.54433719139652,2.521293747856265,1.013860077756569,A,907.263582572341,Correct
8,3,299,B,88.07305130311316,61.91817587238553,4.403652565155658,0.9726084322218358,B,1332.9654997214675,Correct
