subject,day,trial,cat,x,y,xt,yt,resp,rt,fb
10,4,0,B,45.60950056638473,20.59441596371839,2.2804750283192363,0.32349632948295026,B,948.4168329999534,Correct
10,4,1,B,38.801756442041516,29.336031378360886,1.9400878221020759,0.460809303318691,B,582.0463750000044,Correct
10,4,2,A,30.06002149702699,57.40531865772738,1.5030010748513496,0.9017206368604871,A,562.7892919999908,Correct
10,4,3,B,60.584736773239605,34.175753201061475,3.0292368386619803,0.536831475936763,B,522.9688750000037,Correct
10,4,4,A,68.2062261700483,88.21446705313865,3.410311308502415,1.385669608172396,A,543.4611670000322,Correct
10,4,5,A,26.105965672712962,42.35625317767719,1.305298283635648,0.6653304690829,A,575.2807499999903,Correct
10,4,6,B,57.461729245738155,30.097272005492805,2.873086462286908,0.47276684312774964,B,502.4481670000114,Correct
10,4,7,B,79.15771148437422,66.82221650887658,3.957885574218711,1.0496409224043663,A,483.6182919999601,Incorrect
10,4,8,A,62.744479505474175,77.40117738486242,3.1372239752737086,1.215814851257421,A,641.142249999973,Correct
10,4,9,A,41.2806562072069,73.00122056228842,2.064032810360345,1.1467004911078673,A,526.568124999983,Correct
10,4,10,B,73.6068756206391,47.093664500072634,3.6803437810319553,0.7397455521202533,B,513.6280419999366,Correct
10,4,11,A,16.218964152403235,34.176033652207295,0.8109482076201617,0.5368358812530598,A,540.153499999974,Correct
10,4,12,B,66.60118955430596,40.09228855274332,3.330059477715298,0.629768195914503,B,475.567500000011,Correct
10,4,13,B,39.7811403744384,23.330391031354356,1.9890570187219199,0.3664729253474003,B,486.8716249999352,Correct
10,4,14,B,77.36430570362103,57.591831232252005,3.8682152851810514,0.9046503695301304,B,665.3327499999477,Correct
10,4,15,A,18.071709778420523,40.41791919020232,0.9035854889210262,0.6348831900066276,A,580.4657920000409,Correct
10,4,16,B,64.15667942257906,43.04990590316965,3.2078339711289527,0.6762263406156481,B,486.3187079999989,Correct
10,4,17,A,10.874179679638573,35.18597443870793,0.5437089839819287,0.5526999940302154,A,532.4093330000323,Correct
10,4,18,A,51.32572001118672,66.76534739840847,2.566286000559336,1.0487476245060523,A,777.5585000000547,Correct
10,4,19,B,73.95886768264009,56.67512557829413,3.6979433841320044,0.8902507907902392,B,622.0119160000195,Correct
10,4,20,B,81.2190940417015,62.14344050613764,4.060954702085075,0.976146880814382,A,863.3647080000628,Incorrect
10,4,21,B,75.01362496291233,57.89021064061916,3.7506812481456167,0.9093373023166742,B,496.5537080000786,Correct
10,4,22,B,48.52663723835715,22.166892525699147,2.4263318619178573,0.3481967335582547,B,518.5487500000363,Correct
10,4,23,B,82.26246597448103,65.96955769587782,4.113123298724052,1.0362473890896888,A,741.7668329999287,Incorrect
10,4,24,B,46.154317296436375,31.469509443429377,2.3077158648218186,0.4943218983977618,B,421.82437500002834,Correct
10,4,25,A,41.575959490574405,65.87388385177222,2.07879797452872,1.0347445478607744,A,718.5912080000207,Correct
10,4,26,A,22.77197405746068,47.270911956532856,1.138598702873034,0.7425297486556676,A,542.9064999999582,Correct
10,4,27,B,35.838816966374,17.013541176272298,1.7919408483186998,0.2672480798546225,B,464.5327079999788,Correct
10,4,28,A,59.31335094036461,72.30568369279962,2.96566754701823,1.135775023510433,A,619.1831249999495,Correct
10,4,29,A,49.768315915273355,63.375982889453276,2.4884157957636677,0.9955076112976943,A,595.3037500000846,Correct
10,4,30,B,46.11028811234673,17.078825945113856,2.3055144056173362,0.2682735706055422,B,518.7458749999223,Correct
10,4,31,B,67.47642290041863,46.45984210461183,3.3738211450209317,0.7297894932139515,B,671.5319170000384,Correct
10,4,32,A,45.696724958545005,67.93569136235382,2.2848362479272506,1.0671313445025716,A,511.31499999996777,Correct
10,4,33,B,77.97212858250687,50.244568190194904,3.8986064291253433,0.7892398315455387,B,643.3169169999928,Correct
10,4,34,B,40.33700679552649,14.62047132792209,2.0168503397763247,0.22965782657910122,B,513.668374999952,Correct
10,4,35,B,60.4638996365833,38.44847614988266,3.0231949818291652,0.6039472510709686,B,517.3910830000068,Correct
10,4,36,A,29.03018707394918,41.20188058755032,1.451509353697459,0.64719762683966,A,730.5010420000144,Correct
10,4,37,A,48.12201293394946,74.51996878699569,2.4061006466974733,1.1705569324348315,A,537.318166000091,Correct
10,4,38,B,68.00341984422748,52.22968259391337,3.400170992211374,0.8204219356818245,B,552.7808750000531,Correct
10,4,39,A,35.98069734668644,68.42971001280262,1.799034867334322,1.0748913713175028,A,551.2687090000554,Correct
10,4,40,A,24.26929678166649,36.457740184836794,1.2134648390833247,0.5726768436558434,A,573.5310839999102,Correct
10,4,41,A,43.33744128416638,74.51389039543928,2.166872064208319,1.1704614532835353,A,491.4682499999117,Correct
10,4,42,B,85.92019211974286,68.74999685353279,4.296009605987143,1.0799224252469002,A,559.3900839999151,Incorrect
10,4,43,B,58.53647403738367,46.36031629134425,2.9268237018691834,0.7282261453949315,B,573.1725420000657,Correct
10,4,44,B,69.80783830459248,58.94134728493832,3.490391915229624,0.9258485181152346,B,596.7826669999567,Correct
10,4,45,B,86.92288612372276,69.40243888283393,4.3461443061861385,1.0901709606776284,B,774.3209589999651,Correct
10,4,46,B,41.63557692716543,20.401149455793885,2.0817788463582714,0.3204605062755474,B,668.8300409999783,Correct
10,4,47,A,61.20407450183312,85.73990609635707,3.060203725091656,1.3467992955589705,A,608.6836660000472,Correct
10,4,48,A,49.55953186821719,75.1080038223042,2.4779765934108595,1.1797937651697248,B,884.0562919999684,Incorrect
10,4,49,A,21.03366438685025,40.98818929781675,1.0516832193425125,0.6438409719098445,A,742.283417000067,Correct
10,4,50,B,33.60064931439724,13.469196294490967,1.6800324657198618,0.2115736406426584,B,559.7677499999918,Correct
10,4,51,A,31.036290094603725,60.90961120542742,1.5518145047301863,0.9567659354799065,A,649.7255829999631,Correct
10,4,52,A,42.54592032001287,70.91488730551703,2.1272960160006433,1.113928444945802,A,840.9085829999867,Correct
10,4,53,A,17.977647086781566,37.78568900628805,0.8988823543390783,0.5935362149649157,A,642.7903750000041,Correct
10,4,54,A,47.43294233452054,60.41773675633648,2.371647116726027,0.9490395897011435,A,562.3751659999243,Correct
10,4,55,B,60.21831370045928,38.36175397602595,3.0109156850229635,0.6025850223495108,B,799.147707999964,Correct
10,4,56,B,77.77723458215718,55.004246882525166,3.888861729107859,0.8640046896119017,B,774.9984170000062,Correct
10,4,57,B,45.862478849037046,33.79601191836179,2.293123942451852,0.5308665138167925,B,460.2080410001008,Correct
10,4,58,A,21.19742172301694,52.5885716319192,1.0598710861508471,0.8260593515080898,A,522.9471249999733,Correct
10,4,59,A,19.954986162760157,32.58422882140093,0.9977493081380078,0.5118318694410098,B,578.959832999999,Incorrect
10,4,60,A,32.953725613723456,64.92481627996199,1.647686280686173,1.019836629303978,A,591.4862910000238,Correct
10,4,61,A,54.44862058231879,83.5632464809369,2.7224310291159397,1.3126084062731225,A,713.4014160000106,Correct
10,4,62,B,46.31785482148346,28.55718865119492,2.315892741074173,0.4485752703688589,B,553.5854169999084,Correct
10,4,63,B,44.574929480222224,20.580079351707422,2.2287464740111114,0.32327113050809514,B,532.9267080001046,Correct
10,4,64,B,48.2852181436277,36.13948427530144,2.414260907181385,0.5676776915190542,B,469.5232500000657,Correct
10,4,65,A,33.76028154788732,66.74972190886334,1.6880140773943657,1.0485021798902334,A,525.1890419999654,Correct
10,4,66,A,49.29951623111869,77.22274735077326,2.4649758115559344,1.2130120788360497,A,544.2734999999175,Correct
10,4,67,A,44.85588144687995,66.41196356915364,2.2427940723439974,1.0431966842966303,A,606.6753329999983,Correct
10,4,68,A,67.35033819767098,80.67265636539821,3.3675169098835487,1.2672031229155445,A,548.1604999999945,Correct
10,4,69,A,49.88245049275499,79.44941370508405,2.4941225246377496,1.2479884721395416,A,469.4499170000199,Correct
10,4,70,A,39.50063952423638,71.39895080847435,1.9750319762118187,1.1215320966696103,A,618.7870420000081,Correct
10,4,71,A,54.17298284172708,70.19433711786755,2.7086491420863537,1.10261006906549,A,760.4309579999153,Correct
10,4,72,B,44.8148420680431,30.275614173870533,2.240742103402155,0.47556823535775344,B,578.6355000000185,Correct
10,4,73,A,36.6492209926927,66.35069829676397,1.832461049634635,1.0422343316483325,A,528.3832080000366,Correct
10,4,74,B,37.00046831983643,19.851338303728568,1.8500234159918216,0.31182409289459667,B,673.3527500000491,Correct
10,4,75,B,50.84846920082349,27.165415044165186,2.5424234600411744,0.4267133416723351,B,1080.6254999999965,Correct
10,4,76,A,52.99505320955576,61.165597315789356,2.649752660477788,0.960786955898577,B,1467.344374999925,Incorrect
10,4,77,B,78.34573063412137,64.03827073381153,3.9172865317060683,1.005910804429683,B,550.2274589999843,Correct
10,4,78,A,37.75804959950453,60.793241104838515,1.8879024799752266,0.9549379982143686,B,799.2164580000463,Incorrect
10,4,79,B,57.46547108316253,31.910500379361736,2.8732735541581262,0.5012489678208857,B,530.3420830000505,Correct
10,4,80,A,54.021475526226524,77.30650058329869,2.7010737763113264,1.214327671536131,A,507.25979100002405,Correct
10,4,81,A,19.836673962895183,32.68347370705193,0.9918336981447592,0.5133908044593476,A,625.2404169999863,Correct
10,4,82,A,37.74746400844661,45.991741072167656,1.8873732004223307,0.7224365793906293,B,759.3150000000151,Incorrect
10,4,83,A,22.387306294542707,47.73629758497887,1.1193653147271354,0.749840009012729,A,1180.690334000019,Correct
10,4,84,A,26.835043934372848,47.457260728596594,1.3417521967186423,0.7454569083222722,A,1237.535166999919,Correct
10,4,85,A,51.63007078971621,78.41082082256021,2.5815035394858104,1.2316742932905038,A,620.0922909999917,Correct
10,4,86,B,50.84920185295736,33.15944636254278,2.5424600926478678,0.520867365448346,B,591.2713750000194,Correct
10,4,87,B,42.14562301400582,31.30553174087871,2.107281150700291,0.4917461426693332,B,683.628707999901,Correct
10,4,88,A,59.18598869483686,72.19462604925357,2.959299434741843,1.1340305341249868,A,920.9266670000034,Correct
10,4,89,A,50.08696432618627,57.91912423686876,2.5043482163093134,0.9097914760245072,A,1775.7705829999395,Correct
10,4,90,B,68.40143783690468,56.27656012436145,3.4200718918452337,0.8839901392799911,B,955.9242079999422,Correct
10,4,91,A,17.830905392748704,34.51356731335804,0.8915452696374352,0.5421378476041122,A,571.4426669999284,Correct
10,4,92,B,74.0885553198509,59.46446713612242,3.704427765992545,0.9340656655223695,B,790.2442500000006,Correct
10,4,93,A,50.71199786353638,77.12639718605867,2.535599893176819,1.211498613987852,A,655.6057500000634,Correct
10,4,94,B,64.18283098598738,49.10622635819989,3.209141549299369,0.7713587998621911,B,640.6289579999793,Correct
10,4,95,B,39.45853171155982,26.890372179758963,1.9729265855779912,0.4223929784611306,B,733.4965000000011,Correct
10,4,96,B,69.9335057239545,37.11284032022947,3.496675286197725,0.58296713251942,B,538.6943749999773,Correct
10,4,97,A,27.092233434568747,52.84043678064735,1.3546116717284375,0.8300156400127882,A,1246.0545830000456,Correct
10,4,98,A,15.548275823986323,37.45313318078462,0.7774137911993162,0.5883124402733654,A,560.751707999998,Correct
10,4,99,A,46.13483551007468,74.71434690201914,2.306741775503734,1.1736102167257132,A,605.893124999966,Correct
10,4,100,B,69.63472187663473,51.55016942264081,3.4817360938317363,0.8097481677473878,B,924.3230829999902,Correct
10,4,101,B,43.90262376308314,17.0275174630072,2.195131188154157,0.26746761885327663,B,514.9895829999878,Correct
10,4,102,B,76.23777161214974,46.84974290704532,3.811888580607487,0.7359140406967204,B,578.2889160000195,Correct
10,4,103,B,67.76344368688015,41.71909615529634,3.388172184344007,0.6553220299794258,B,520.2974999999697,Correct
10,4,104,A,16.350083060141802,45.09379073757639,0.8175041530070901,0.7083316085184272,A,622.2602500000676,Correct
10,4,105,A,32.73082811964789,60.34509774862109,1.6365414059823946,0.9478985788361299,A,568.5693749999245,Correct
10,4,106,A,55.759207648253074,68.74848019845768,2.7879603824126535,1.07989860168469,A,599.8812090000456,Correct
10,4,107,A,38.566192811972435,51.1386049331217,1.9283096405986218,0.8032833278636294,B,582.1002080000426,Incorrect
10,4,108,B,48.528901810183065,36.36629100711518,2.4264450905091532,0.571240363331308,B,440.443916999925,Correct
10,4,109,B,63.75756615961365,41.72854159674313,3.1878783079806827,0.6554703986267214,B,499.4242499999473,Correct
10,4,110,B,67.71019271485997,48.015374189600465,3.385509635742999,0.7542237340670689,B,853.3020840000063,Correct
10,4,111,A,26.478699597686106,38.14028015409739,1.3239349798843054,0.5991061196898447,A,624.6192910000445,Correct
10,4,112,A,19.412611053823866,46.23086760541541,0.9706305526911934,0.7261927701912771,A,571.297708999964,Correct
10,4,113,A,45.472818649307925,73.3497075014896,2.2736409324653963,1.1521745111481996,A,632.8951660000257,Correct
10,4,114,B,66.66399996409172,49.26021765203572,3.3331999982045857,0.7737776894493483,B,789.5215419999886,Correct
10,4,115,A,23.71558285300842,53.2187677792763,1.185779142650421,0.8359584494423781,A,603.1312080000362,Correct
10,4,116,B,40.810268999319774,32.2544007660592,2.0405134499659887,0.5066509424629628,B,565.6432920000043,Correct
10,4,117,A,17.61241576339892,43.73881278625832,0.8806207881699462,0.6870476646302422,A,557.5325419999899,Correct
10,4,118,B,49.560631920709824,21.007459893157844,2.4780315960354913,0.32998440835463455,B,643.9669999999751,Correct
10,4,119,B,61.44692102736634,39.87273517064438,3.072346051368317,0.6263194594531388,B,426.6864590000523,Correct
10,4,120,A,40.517994471220774,59.26811456990368,2.025899723561039,0.9309813666246378,A,553.8645840000527,Correct
10,4,121,B,78.00239066256557,61.32817640634566,3.9001195331282785,0.9633407422811721,B,1653.4594170000219,Correct
10,4,122,B,80.08560468654093,52.976035208131925,4.004280234327046,0.8321456151309073,B,501.9016250000732,Correct
10,4,123,B,74.99838470467819,55.455357749559035,3.7499192352339095,0.8710907225410421,B,431.9700409999996,Correct
10,4,124,B,58.309974095918314,28.532629073651748,2.9154987047959158,0.4481894894269344,B,449.77733400003217,Correct
10,4,125,A,47.03150647878529,65.24835636727117,2.3515753239392643,1.0249187851111394,A,680.2692910000587,Correct
10,4,126,A,45.13634109019932,66.60214187397806,2.256817054509966,1.046183998123173,A,673.6655419999806,Correct
10,4,127,B,72.91719680127466,43.65647067840336,3.645859840063733,0.6857542378246511,B,540.0496250000515,Correct
10,4,128,A,17.72394403043272,31.468533940831197,0.886197201521636,0.49430657523878174,A,570.1537500000313,Correct
10,4,129,A,32.033614141123486,48.70329684784613,1.6016807070561743,0.7650295979139817,A,607.2480419999238,Correct
10,4,130,A,44.329815406758875,63.52524264275328,2.216490770337944,0.9978521780199137,A,853.8729580000108,Correct
10,4,131,B,85.88483611664319,59.261575277802,4.29424180583216,0.9308786476645065,B,671.2351249999529,Correct
10,4,132,A,24.687640806907204,51.32380382932698,1.2343820403453603,0.8061924253224867,A,544.7475839999925,Correct
10,4,133,B,61.74720982793309,44.99878198871646,3.0873604913966544,0.7068392145812016,B,605.47658400003,Correct
10,4,134,A,61.314439774318835,84.56391174737169,3.065721988715942,1.3283268195217928,A,650.0851670000429,Correct
10,4,135,A,36.86558697933399,47.20840969682393,1.8432793489666994,0.7415479654559961,B,577.8548339999361,Incorrect
10,4,136,B,84.90876546010796,69.07774216551343,4.245438273005398,1.0850706365687341,A,657.8200830000469,Incorrect
10,4,137,B,50.35560843360595,37.15931632838412,2.5177804216802975,0.583697175948354,B,509.9460840000347,Correct
10,4,138,A,47.6923348562756,60.43865336981442,2.38461674281378,0.9493681470973448,B,601.4302080000107,Incorrect
10,4,139,B,59.749656517513955,27.82922947820586,2.9874828258756976,0.43714051441898016,B,390.926874999991,Correct
10,4,140,A,15.573273880246752,35.15732099936214,0.7786636940123376,0.5522499068574714,A,573.9434590000201,Correct
10,4,141,A,30.863307803379165,43.07079745226798,1.5431653901689584,0.6765545043014953,B,1459.064249999983,Incorrect
10,4,142,A,44.56880606723942,76.22465372452695,2.228440303361971,1.1973340608169987,A,626.6259589999663,Correct
10,4,143,A,31.222105909017817,55.26728990833631,1.5611052954508908,0.8681365597992333,A,832.0877079999036,Correct
10,4,144,A,49.5624734667085,75.59761390790841,2.478123673335425,1.187484542410013,A,1256.6697910000357,Correct
10,4,145,B,63.52329338727812,55.465499517744846,3.176164669363906,0.8712500290631771,B,649.0092500000628,Correct
10,4,146,B,47.0158492719154,19.80614456541188,2.35079246359577,0.3111141913131768,B,483.0626250000023,Correct
10,4,147,A,33.30667045991699,53.511871302435836,1.6653335229958492,0.8405625088178744,A,495.6203340000229,Correct
10,4,148,A,17.3174462173934,47.697247310295545,0.86587231086967,0.7492266087323999,A,554.3154580000191,Correct
10,4,149,A,52.91073840010374,75.66981972595653,2.645536920005187,1.1886187487476452,A,556.9032920000154,Correct
10,4,150,A,18.21166127257248,45.95066593565313,0.9105830636286241,0.7217913726550331,A,583.5261250000485,Correct
10,4,151,A,24.468788235452564,52.97154511795503,1.2234394117726282,0.832075084959339,A,576.3801250001279,Correct
10,4,152,B,51.819061368564135,33.766834570059075,2.5909530684282065,0.5304081971013972,B,546.0148329998447,Correct
10,4,153,A,49.856350633797334,62.47317764122126,2.4928175316898664,0.9813263796203543,A,845.6611669998892,Correct
10,4,154,A,52.14452183475318,79.6019146519968,2.6072260917376586,1.2503839514119743,A,691.0758750000241,Correct
10,4,155,B,78.22631876203221,60.46269816218695,3.9113159381016103,0.9497458418127183,B,689.1590000000178,Correct
10,4,156,A,20.708657995640788,36.604503549784575,1.0354328997820395,0.5749821972015235,A,591.5181249999932,Correct
10,4,157,A,36.88333311471187,60.8372348556724,1.8441666557355934,0.9556290504364865,A,584.4161669999721,Correct
10,4,158,A,48.24210273837563,55.9450533698726,2.412105136918781,0.8787828433574033,B,1225.4374579999876,Incorrect
10,4,159,B,62.70298479047069,45.65111469771938,3.1351492395235345,0.717086032812701,B,589.4261250000454,Correct
10,4,160,B,35.455993227897864,16.23163510334902,1.772799661394893,0.25496592798215745,B,566.6738749998785,Correct
10,4,161,B,45.028476989321426,28.986259490076318,2.251423849466071,0.45531509934535586,B,469.404958000041,Correct
10,4,162,B,63.35087096671931,48.20388211090561,3.1675435483359653,0.7571848095706476,B,447.726375000002,Correct
10,4,163,A,20.74817757524631,41.86846133077266,1.0374088787623155,0.6576682526693186,A,647.5725000000239,Correct
10,4,164,B,57.127905941510775,49.91536338231439,2.856395297075539,0.7840686945157194,B,473.3212910000475,Correct
10,4,165,B,59.92137209048576,44.81583305273075,2.996068604524288,0.7039654594148278,B,559.006791999991,Correct
10,4,166,A,46.89033867175471,66.57415890650654,2.3445169335877356,1.045744442698002,A,720.4901669999799,Correct
10,4,167,B,64.47839925783849,35.92616132347405,3.2239199628919244,0.5643268224275391,B,604.0738330000295,Correct
10,4,168,B,33.10903325974576,12.233918254390524,1.655451662987288,0.19216993856305667,B,778.9316250000411,Correct
10,4,169,B,59.43440272289452,42.08254995423409,2.9717201361447256,0.6610311489027365,B,607.9109170000265,Correct
10,4,170,A,41.7779364460042,71.51976056257502,2.08889682230021,1.1234297718494333,A,508.76324999990175,Correct
10,4,171,A,44.54114281832501,76.72931909667146,2.22705714091625,1.2052613259452503,A,638.5553750001236,Correct
10,4,172,A,41.047218709823596,61.6219974670617,2.05236093549118,0.9679560727102494,A,516.6129589999855,Correct
10,4,173,A,25.39855256009628,35.81463007035189,1.269927628004814,0.5625748936002679,B,550.190541999882,Incorrect
10,4,174,B,56.511914081272344,46.45188099411759,2.8255957040636175,0.7296644403827358,B,766.9427499999983,Correct
10,4,175,A,22.683675523944007,49.48813314699356,1.1341837761972002,0.7773577776723425,A,501.3899579998906,Correct
10,4,176,A,13.502789185482094,37.16057055343492,0.6751394592741048,0.5837168772693816,A,569.2852080001103,Correct
10,4,177,A,33.98776021383624,51.116662655916386,1.6993880106918118,0.8029386593792732,A,917.8219590000936,Correct
10,4,178,A,56.54472590266009,64.527015257134,2.827236295133005,1.0135879854494432,B,647.464207999974,Incorrect
10,4,179,A,39.09896552627567,57.41799290457691,1.9549482763137833,0.9019197234644485,B,577.6379159999578,Incorrect
10,4,180,A,44.52474035195154,52.75631680377956,2.2262370175975774,0.8286942865060482,B,683.5857910000414,Incorrect
10,4,181,B,33.43821130430714,11.686842567221209,1.671910565215357,0.18357649376421317,B,459.294792000037,Correct
10,4,182,B,75.1354891874335,48.21893412548884,3.7567744593716754,0.7574212460628297,B,548.1016669998553,Correct
10,4,183,B,63.76873748141083,53.963116970443124,3.1884368740705415,0.847650659195754,B,570.8777499999087,Correct
10,4,184,B,31.731319243040694,15.83215990493797,1.5865659621520347,0.24869098623906005,B,833.3513750001202,Correct
10,4,185,A,41.5016056450811,61.50674228574206,2.075080282254055,0.9661456485556396,A,679.0614999999889,Correct
10,4,186,B,49.87372500878192,42.772559935244786,2.493686250439096,0.6718698003389707,B,612.1345830001701,Correct
10,4,187,A,39.83196951520464,60.93363161633138,1.9915984757602319,0.9571432472120672,A,1062.6673330000358,Correct
10,4,188,B,84.00935368911422,57.18178426997734,4.200467684455711,0.8982093669085859,B,692.2456669999519,Correct
10,4,189,A,31.617072018663436,47.85860095563943,1.5808536009331717,0.7517611458666115,A,1012.5177079999048,Correct
10,4,190,B,59.04104099670862,40.62458049041859,2.9520520498354306,0.6381294181193314,B,814.4267909999598,Correct
10,4,191,A,52.01005138302425,68.9310920873269,2.600502569151212,1.0827670625273387,A,631.6930409998349,Correct
10,4,192,A,34.24844275264288,65.20256046384921,1.712422137632144,1.024199424742365,A,656.04329100006,Correct
10,4,193,B,70.9853955003974,38.02212245074435,3.5492697750198703,0.5972501028257499,B,611.9660829999702,Correct
10,4,194,B,65.92786062953508,44.44475244986603,3.2963930314767538,0.6981365389355804,B,582.7529589998903,Correct
10,4,195,A,40.69938150013689,67.21789184317872,2.0349690750068445,1.0558561760216176,A,605.9852500000034,Correct
10,4,196,A,46.05604534345519,53.950427933437446,2.3028022671727597,0.8474513402685632,A,1169.1010829999868,Correct
10,4,197,B,55.52671379513391,48.655768502631396,2.7763356897566958,0.7642830244131622,B,539.1887079999833,Correct
10,4,198,A,28.754461534935622,43.39442082398438,1.437723076746781,0.6816379683370665,A,560.9198750000814,Correct
10,4,199,A,18.62436267084436,47.820990770284126,0.931218133542218,0.7511703664565494,A,575.0619160000952,Correct
10,4,200,B,69.60952083591435,52.64498986478213,3.4804760417957175,0.8269455670375433,B,589.6624590000101,Correct
10,4,201,B,53.15777327640876,44.279733969166884,2.657888663820438,0.6955444347022254,A,828.6464160000833,Incorrect
10,4,202,A,57.46711407885977,79.85730028082439,2.873355703942989,1.25439553948876,A,851.7836670000634,Correct
10,4,203,A,41.56274323458068,60.095608915309505,2.078137161729034,0.9439796174067082,A,1762.8533330000664,Correct
10,4,204,B,67.63249609576891,57.052502713684206,3.381624804788446,0.8961786169711102,B,709.7661249999874,Correct
10,4,205,B,63.932800227664615,49.97105080767483,3.196640011383231,0.7849434305477678,B,531.9151660000898,Correct
10,4,206,B,82.24454525224303,52.28681091779706,4.112227262612151,0.8213193052949492,B,535.1579999999103,Correct
10,4,207,B,69.0586862833115,46.43583151884958,3.452934314165575,0.7294123358147561,B,572.2275000000536,Correct
10,4,208,B,66.60945093347352,53.33459860024766,3.330472546673676,0.8377779157234926,B,527.4112089998653,Correct
10,4,209,A,26.950068413137366,59.780057837073336,1.3475034206568681,0.9390229526606126,A,519.0882499998679,Correct
10,4,210,B,80.55527997744733,67.36760795702213,4.027763998872366,1.0582079112384901,A,915.2714580000065,Incorrect
10,4,211,B,60.65158242750393,48.0085786419181,3.0325791213751967,0.7541169898536887,B,489.42287499994563,Correct
10,4,212,B,87.46119957722273,64.38055713300007,4.373059978861137,1.0112874266152547,B,655.264458000147,Correct
10,4,213,B,72.82305938538696,61.01783072247156,3.641152969269348,0.9584658436785112,B,739.7969999999532,Correct
10,4,214,A,62.256684751963775,87.05958465704191,3.112834237598189,1.3675287579157074,A,677.4668749999364,Correct
10,4,215,A,37.68507224409897,47.99149459508949,1.8842536122049482,0.753848634273637,B,701.4727920000041,Incorrect
10,4,216,A,38.27002518550783,57.946297177129125,1.9135012592753917,0.9102183075719991,A,535.3067080000073,Correct
10,4,217,B,49.52669754479827,21.97396002517913,2.476334877239913,0.34516615692689273,B,475.0120829999105,Correct
10,4,218,B,72.48014342870103,56.435375282205435,3.6240071714350512,0.886484801945798,A,629.3863339999461,Incorrect
10,4,219,B,51.50589177324404,28.532220869621227,2.5752945886622016,0.44818307737301716,B,464.2905420000716,Correct
10,4,220,A,25.28180862333257,52.14065075615896,1.2640904311666283,0.8190234268447004,A,713.6093340000116,Correct
10,4,221,B,61.09851679236101,52.09462275798714,3.0549258396180505,0.81830042074012,B,447.49241699992126,Correct
10,4,222,A,14.885885519434368,34.82555818063946,0.7442942759717184,0.5470385886873044,A,586.2984159998632,Correct
10,4,223,B,48.83933619252211,29.862712074944085,2.4419668096261056,0.4690823843545578,B,424.2634170000201,Correct
10,4,224,B,74.77208276157155,51.37298620078272,3.7386041380785775,0.8069649802067439,B,516.6088749999744,Correct
10,4,225,B,75.16508146424195,48.30023037160592,3.7582540732120977,0.7586982445106588,B,458.18725000003724,Correct
10,4,226,A,60.08214249756153,73.49877428842566,3.0041071248780766,1.1545160467618623,A,546.468042000015,Correct
10,4,227,A,30.17849763862408,54.27835433050091,1.5089248819312042,0.852602396068227,B,602.2471250000763,Incorrect
10,4,228,A,23.3581482718323,38.757142391295986,1.167907413591615,0.608795769053145,A,623.7165000000005,Correct
10,4,229,B,69.13696788950634,55.37264958836691,3.4568483944753168,0.8697915457830768,B,633.3236250000027,Correct
10,4,230,A,26.2167942841687,48.51470115153654,1.3108397142084351,0.7620671436438573,A,627.6544170000307,Correct
10,4,231,B,38.80606461572968,22.840960440273285,1.940303230786484,0.3587849676004882,B,539.5828750001783,Correct
10,4,232,B,63.471203538841806,46.828493852406574,3.17356017694209,0.7355802613269762,B,647.3172089999935,Correct
10,4,233,B,48.0823685497176,22.456651785922798,2.40411842748588,0.35274826137439586,B,566.8679170000814,Correct
10,4,234,A,33.154881448822955,47.46121991886608,1.6577440724411476,0.7455190991375961,A,599.3919580000693,Correct
10,4,235,B,77.86611425808897,50.81458861877664,3.893305712904448,0.7981936914996811,B,516.0649160000048,Correct
10,4,236,B,64.45463472427015,53.867216594377616,3.2227317362135075,0.8461442596111346,A,728.1022499998926,Incorrect
10,4,237,A,11.219905950713287,31.44616350244756,0.5609952975356642,0.4939551812143637,A,583.8454579998142,Correct
10,4,238,A,37.86747566437198,48.71581925454463,1.8933737832185988,0.7652262994184279,A,538.227291000112,Correct
10,4,239,B,82.57839328481634,68.66696484920217,4.128919664240817,1.0786181615728105,A,750.8887909998521,Incorrect
10,4,240,A,58.9781069091521,76.68744746934443,2.948905345457605,1.2046036079612281,B,571.3662919999933,Incorrect
10,4,241,B,37.42805039711335,13.072046996820458,1.8714025198556674,0.2053352340629583,B,447.73045800002365,Correct
10,4,242,A,40.30052038149943,49.06305712722851,2.0150260190749716,0.7706806991677871,A,612.629583999933,Correct
10,4,243,B,66.13218452300563,48.31373612545738,3.306609226150282,0.7589103923960636,B,680.8625829999073,Correct
10,4,244,A,29.72173469797812,38.71054044053359,1.486086734898906,0.6080637473223546,A,527.7746249998927,Correct
10,4,245,B,49.57268292376125,22.002070785027303,2.4786341461880625,0.3456077197100219,B,527.1869590001188,Correct
10,4,246,A,65.82491786594036,82.43743709282973,3.2912458932970186,1.2949242337580231,A,550.7838749999792,Correct
10,4,247,B,46.13877085423866,21.076443322440607,2.306938542711933,0.33106799752790533,B,453.9240410001639,Correct
10,4,248,B,44.731553375406534,22.193650429618103,2.2365776687703267,0.3486170457301409,B,722.4482910000916,Correct
10,4,249,A,19.362574349313732,32.52299808296627,0.9681287174656866,0.5108700592508088,A,536.7713749999439,Correct
10,4,250,B,67.83958529068624,48.243861199572564,3.3919792645343123,0.7578127996269141,B,626.9201669999802,Correct
10,4,251,A,45.494096605603445,61.23237466052077,2.274704830280172,0.9618358919767492,A,466.91725000005135,Correct
10,4,252,A,42.453274600918846,53.48555904014621,2.1226637300459426,0.8401491967683324,A,596.2322499999573,Correct
10,4,253,B,49.998374986697605,34.262329914902594,2.49991874933488,0.538191419777639,B,608.1956250000076,Correct
10,4,254,A,50.08766638269988,60.59144702253801,2.504383319134994,0.951768224181903,A,681.7148750001252,Correct
10,4,255,B,52.683071916798944,36.4224118030809,2.634153595839947,0.5721219067329056,B,489.75175000009585,Correct
10,4,256,B,60.17877903653661,38.33039404532678,3.008938951826831,0.6020924217100028,B,490.69783299978553,Correct
10,4,257,B,58.03096964618264,35.42747288785353,2.901548482309132,0.5564934427986612,B,525.9274170000481,Correct
10,4,258,B,87.85399226470878,60.34377669127322,4.392699613235439,0.9478778277158347,B,554.6863749998465,Correct
10,4,259,B,70.31675669126196,45.36642618353285,3.515837834563098,0.7126141560890523,B,414.0881250000348,Correct
10,4,260,B,68.66614681780214,39.928951094425145,3.4333073408901074,0.6272024971189608,B,467.4027920000299,Correct
10,4,261,A,41.7075725113135,52.31138839863539,2.085378625565675,0.8217053674611764,A,644.2130000000361,Correct
10,4,262,B,52.156913973103514,23.389939895359007,2.607845698655176,0.36740831671583335,B,470.5097910000404,Correct
10,4,263,A,15.815799092994833,36.7489606345365,0.7907899546497417,0.577251323782602,A,741.7992919999961,Correct
10,4,264,B,41.67362647668872,22.515291240788574,2.083681323834436,0.35366936777748004,B,468.64337499982867,Correct
10,4,265,A,34.01192440030064,58.658863093376816,1.7005962200150322,0.9214112668104104,A,657.0156660000066,Correct
10,4,266,A,22.57231092537514,53.84992644933854,1.1286155462687573,0.8458726666479631,A,527.4012080001285,Correct
10,4,267,B,54.714389187828786,43.66651615602637,2.735719459391439,0.6859120318181623,B,674.465582999801,Correct
10,4,268,B,50.81168550988478,34.791772105293255,2.5405842754942394,0.5465078782567979,B,2592.7547499998127,Correct
10,4,269,A,55.364602060346115,68.77283470936129,2.7682301030173058,1.0802811614473726,A,607.3935839999649,Correct
10,4,270,B,40.39097391843559,14.599981553116933,2.019548695921779,0.22933597394909327,B,525.620624999874,Correct
10,4,271,B,37.726403017680425,20.905901125108123,1.886320150884021,0.3283891269565713,B,413.81495900009213,Correct
10,4,272,A,57.80680372604803,74.767853569321,2.8903401863024016,1.1744506974902813,A,481.3003750000462,Correct
10,4,273,A,18.76945465947142,39.24353736874353,0.938472732973571,0.616436043492606,A,523.1253330000527,Correct
10,4,274,B,62.90015631932313,42.6701963217006,3.1450078159661565,0.6702618764574441,B,514.9747089999437,Correct
10,4,275,A,32.35816965162839,54.0291410994852,1.6179084825814192,0.8486877637895455,A,507.72316599977785,Correct
10,4,276,B,41.66813333691012,19.58649227190174,2.0834066668455056,0.3076639011549988,B,471.174167000072,Correct
10,4,277,B,48.49805634385026,25.31849504859059,2.424902817192513,0.39770199022300884,B,459.9947090000569,Correct
10,4,278,B,36.33439991061479,18.56257587766646,1.8167199955307396,0.2915802600449003,B,433.71425000009367,Correct
10,4,279,A,33.04448584461612,56.795283392360865,1.6522242922308061,0.8921382253199565,A,562.6797079999051,Correct
10,4,280,A,54.66162777905784,72.82667383731129,2.7330813889528915,1.1439587175633856,A,684.3802079999932,Correct
10,4,281,B,51.41367484654175,33.74427991438975,2.5706837423270876,0.5300539093986223,B,466.389917000015,Correct
10,4,282,A,26.56763509023469,55.68359092871971,1.3283817545117345,0.8746758009358253,A,521.7722089998915,Correct
10,4,283,B,65.79515851827131,38.15399981125523,3.289757925913565,0.599321627560529,B,600.5044999999427,Correct
10,4,284,B,78.38681201825904,55.39874567825096,3.919340600912952,0.8702014622044125,A,594.7556669998448,Incorrect
10,4,285,A,29.603741552626435,57.75216236960654,1.4801870776313217,0.9071688451464038,A,534.6847089999756,Correct
10,4,286,B,49.89747979809758,38.60400675806919,2.494873989904879,0.6063903201514045,B,526.8178329999955,Correct
10,4,287,B,60.36938455260609,44.70637248265192,3.018469227630305,0.7022460568007408,B,518.8247909998154,Correct
10,4,288,B,73.2495277080571,51.12691042052465,3.662476385402855,0.8030996308893186,A,718.1675420001739,Incorrect
10,4,289,A,68.44098925172818,88.98579208255934,3.422049462586409,1.397785553402186,A,584.1907500000616,Correct
10,4,290,B,68.46788438578709,50.32515962724845,3.4233942192893547,0.790505758878487,B,509.77295899997443,Correct
10,4,291,A,51.93221414764529,65.24932927223729,2.5966107073822644,1.0249340674666108,A,1823.6687909998182,Correct
10,4,292,A,62.09692755300777,75.77396259032056,3.104846377650388,1.1902546210356946,A,727.189583000154,Correct
10,4,293,B,61.92981723166364,34.37007516090032,3.096490861583182,0.5398838781440675,B,449.3126669999583,Correct
10,4,294,B,46.88969673584832,33.70363185751538,2.344484836792416,0.5294154112143261,B,437.3017920001985,Correct
10,4,295,A,18.47928854625398,41.36842569570575,0.923964427312699,0.6498137112810222,A,572.8997500000332,Correct
10,4,296,A,61.35834036104026,87.18439728733972,3.0679170180520132,1.3694893101278018,A,573.0920830001196,Correct
10,4,297,B,75.77994810242747,51.15352188383632,3.788997405121373,0.8035176427775244,A,1381.842708000022,Incorrect
10,4,298,A,21.540887974141665,40.35452724418955,1.0770443987070832,0.6338874316471752,A,543.3698750000531,Correct
10,4,299,A,17.111307826898827,41.96885410317279,0.8555653913449413,0.6592452186505474,A,570.4002500001479,Correct
