subject,day,trial,cat,x,y,xt,yt,resp,rt,fb
10,18,0,B,54.355424983480724,46.25973926144647,2.7177712491740365,0.7266462851036978,B,753.8129160002427,Correct
10,18,1,A,33.118542268067515,53.692086725611695,1.655927113403376,0.8433933260654386,A,464.1581659998337,Correct
10,18,2,B,41.908143568115825,33.464720545756784,2.0954071784057913,0.5256626011049246,B,512.270207000256,Correct
10,18,3,A,14.580489912044172,41.28055762886072,0.7290244956022086,0.6484334829145945,A,457.4257910007873,Correct
10,18,4,B,50.75128065210657,19.887239404021223,2.537564032605329,0.3123880260592727,B,422.98612400009006,Correct
10,18,5,A,35.38508238728312,59.92101327935253,1.769254119364156,0.9412370755703517,A,490.0494159992377,Correct
10,18,6,A,55.1521099178275,78.40834231133094,2.757605495891375,1.2316353609271553,A,518.2439159998466,Correct
10,18,7,A,40.08572499661449,66.02402086584445,2.0042862498307246,1.0371028945629808,A,498.73241600107576,Correct
10,18,8,B,38.36229612646478,12.124760520845935,1.9181148063232387,0.19045529289412574,B,491.84574900027656,Correct
10,18,9,B,46.37029620598254,24.222549726124292,2.318514810299127,0.3804869213540277,B,428.9145410002675,Correct
10,18,10,A,40.742086513342215,69.34203455609259,2.0371043256671104,1.0892221317319501,A,386.32891599991126,Correct
10,18,11,B,73.95678901838508,47.344244504089374,3.6978394509192536,0.7436816536190305,B,518.9472080000996,Correct
10,18,12,A,42.55658920808127,61.654087037100794,2.1278294604040635,0.9684601344977077,A,421.9292489997315,Correct
10,18,13,A,64.66624534969378,81.04875348723627,3.2333122674846893,1.273110842690558,A,643.0154989993753,Correct
10,18,14,B,43.57986984360078,35.38267305590537,2.178993492180039,0.5557897286840091,B,398.708873999567,Correct
10,18,15,B,62.50196363524403,34.72078977080586,3.1250981817622017,0.5453928903539966,B,416.58566600017366,Correct
10,18,16,B,57.40013707494425,44.755498179394365,2.870006853747212,0.7030177214406834,B,437.2055409985478,Correct
10,18,17,A,30.308219855893046,56.17336597054952,1.5154109927946524,0.8823691693024462,A,485.2524159996392,Correct
10,18,18,A,52.55876539524412,81.8954024853133,2.627938269762206,1.2864099740531978,A,573.6991240009957,Correct
10,18,19,B,66.49411943709175,48.821604886512446,3.3247059718545877,0.7668879762396551,B,582.097041000452,Correct
10,18,20,B,61.92215087793897,33.76510000508268,3.0961075438969483,0.5303809506184621,B,454.6574159994634,Correct
10,18,21,A,29.283015208246752,40.98970623795531,1.4641507604123376,0.6438647999498206,A,529.3278739991365,Correct
10,18,22,A,49.68398812070015,80.53321918365836,2.4841994060350077,1.2650128487865886,A,473.88416600006167,Correct
10,18,23,A,48.90850137311256,77.1471969627963,2.445425068655628,1.2118253361168283,A,466.9407079982193,Correct
10,18,24,B,55.29628045642669,35.66405985401688,2.7648140228213345,0.5602097421728305,B,661.9867499994143,Correct
10,18,25,B,55.85691080897001,25.417444426090416,2.7928455404485004,0.3992562834101624,B,465.6045819992869,Correct
10,18,26,A,51.20493015311702,75.11445413304345,2.560246507655851,1.179895086413884,A,555.8477079994191,Correct
10,18,27,B,43.39204429760119,27.524388097724795,2.1696022148800593,0.4323520772118328,B,614.616582999588,Correct
10,18,28,A,58.496901988447185,69.59654831649772,2.9248450994223596,1.0932200245315815,A,475.40004100119404,Correct
10,18,29,A,48.712274147383326,68.4555114790525,2.435613707369166,1.0752966598016154,A,1189.0357499996753,Correct
10,18,30,B,75.73654878652215,61.15211419151447,3.786827439326107,0.96057516347773,B,729.0742080003838,Correct
10,18,31,B,48.23386385459078,27.586685360481155,2.4116931927295386,0.43333064032690344,B,801.7215410000063,Correct
10,18,32,A,24.925229249274082,51.1599542245442,1.246261462463704,0.8036186817490909,A,450.06199899944477,Correct
10,18,33,B,35.69538878243683,11.885920167367058,1.7847694391218414,0.18670359739477554,B,547.821999000007,Correct
10,18,34,B,57.893993509007586,38.95462638837938,2.8946996754503793,0.6118978404253389,B,454.37612400019134,Correct
10,18,35,B,36.87577548618569,19.219380294308586,1.8437887743092845,0.3018973196957414,B,403.16449899910367,Correct
10,18,36,A,54.890781145087146,73.36140393997962,2.7445390572543573,1.1523582383743665,A,607.5523330000578,Correct
10,18,37,B,77.7136626390763,45.64545572870544,3.885683131953815,0.7169971419352958,B,546.070915999735,Correct
10,18,38,A,22.327834396698037,44.53419006391002,1.1163917198349018,0.6995414216917564,A,459.5927490008762,Correct
10,18,39,A,55.932404732852966,75.9692084395956,2.7966202366426485,1.1933215356643263,A,497.6476249994448,Correct
10,18,40,A,23.00152571982673,46.694047559067336,1.1500762859913365,0.7334683838896917,A,481.02583199943183,Correct
10,18,41,B,59.87895195497776,44.85751785429045,2.9939475977488876,0.7046202427465593,A,541.3624160009931,Incorrect
10,18,42,B,74.73604067552529,42.0396097116291,3.736802033776264,0.6603566451491805,B,477.4717069994949,Correct
10,18,43,B,67.54940294824623,43.90452367811995,3.377470147412311,0.6896506452327038,B,553.8333330005116,Correct
10,18,44,A,46.173299955150924,67.24591344287715,2.308664997757546,1.0562963382803898,A,484.1279159991245,Correct
10,18,45,B,42.46436357388166,18.7520634144713,2.123218178694083,0.29455672331276483,B,404.08629099874815,Correct
10,18,46,A,66.20435713528937,81.95327480764008,3.3102178567644684,1.2873190303665378,A,558.2205829996383,Correct
10,18,47,A,49.951696539569646,67.45075845449429,2.4975848269784824,1.0595140361984945,A,479.27170699949784,Correct
10,18,48,B,83.84330450877943,66.08701618724673,4.192165225438971,1.0380924227576203,A,563.9887910001562,Incorrect
10,18,49,B,53.893150488886725,27.358247354013535,2.6946575244443363,0.4297423445123066,B,396.66249900074035,Correct
10,18,50,A,44.27898674651837,63.36674587144885,2.2139493373259187,0.9953625165581753,A,1362.180582000292,Correct
10,18,51,B,72.53483916788493,47.19502152974103,3.626741958394246,0.7413376646192327,B,537.5127070001327,Correct
10,18,52,A,33.88543587634772,61.01858477483701,1.694271793817386,0.9584776883053697,A,836.140040999453,Correct
10,18,53,B,55.987942422865174,28.806173378269143,2.7993971211432584,0.4524863133160211,B,668.0910410013894,Correct
10,18,54,B,76.72960342639372,55.78512176465452,3.8364801713196863,0.8762706435772535,B,848.7107910004852,Correct
10,18,55,A,37.997348311897625,50.81091183884488,1.8998674155948811,0.7981359367755687,A,562.7502070001356,Correct
10,18,56,A,36.448218597009536,60.8684874672581,1.822410929850477,0.9561199653113022,A,400.2367070006585,Correct
10,18,57,A,20.554820191230128,39.027263428011366,1.0277410095615065,0.6130388203757705,A,494.1965830003028,Correct
10,18,58,A,32.2573913009297,56.89875304858249,1.6128695650464848,0.8937635228792331,A,425.9945819994755,Correct
10,18,59,B,35.75222485245004,22.831196295625638,1.7876112426225022,0.35863159277502,B,578.3867080008349,Correct
10,18,60,A,25.815122660460737,43.786185804006266,1.2907561330230368,0.6877917982529189,A,418.9432069997565,Correct
10,18,61,A,16.391205541875102,40.15875282536915,0.8195602770937552,0.6308122142675403,A,598.3915819997492,Correct
10,18,62,A,11.838963006788866,34.571845267198526,0.5919481503394433,0.5430532755623698,A,717.6044570005615,Correct
10,18,63,B,39.07215338036822,14.68189729900789,1.953607669018411,0.23062270347661504,B,553.2092079993163,Correct
10,18,64,A,45.80514447887591,59.50174962793278,2.2902572239437955,0.9346512975342642,A,676.2589999998454,Correct
10,18,65,A,48.706903019274826,59.776180812369496,2.4353451509637414,0.9389620524989757,A,469.89245799886703,Correct
10,18,66,A,39.70179236174609,69.08769547762552,1.985089618087304,1.0852269828297854,A,444.0000409995264,Correct
10,18,67,B,81.76866024578,56.768193139031226,4.088433012288999,0.8917126926157349,B,623.8327490009397,Correct
10,18,68,A,32.01463216479823,43.51736152775563,1.6007316082399115,0.6835691163960409,A,516.7828739995457,Correct
10,18,69,B,58.075415777223526,32.02511014493169,2.903770788861176,0.5030492538086068,B,428.69108299964864,Correct
10,18,70,B,41.85707062191419,14.936352736435722,2.0928535310957095,0.23461968014106133,B,424.7927080014051,Correct
10,18,71,B,34.32697628287994,20.872876859923487,1.716348814143997,0.32787038301210014,B,459.1297079987271,Correct
10,18,72,B,40.49721173795291,17.937585952762632,2.0248605868976455,0.2817629412616728,B,434.36220700095873,Correct
10,18,73,B,62.03175862289324,32.90227334883355,3.101587931144662,0.5168277011954937,B,410.68958299911174,Correct
10,18,74,A,20.986886931804193,38.8557979058853,1.0493443465902097,0.6103454462524945,A,458.3929580003314,Correct
10,18,75,B,75.17281835617439,42.97364531066788,3.7586409178087195,0.6750284420298382,B,522.6679579991469,Correct
10,18,76,B,72.15596680145607,62.05282673557196,3.607798340072804,0.9747235230347661,A,509.2461660005938,Incorrect
10,18,77,A,37.86583803389929,64.71428414873137,1.8932919016949643,1.0165295983198843,A,838.0147079988092,Correct
10,18,78,B,65.282952576573,35.38651344469821,3.26414762882865,0.5558500533701017,B,545.4092489999312,Correct
10,18,79,A,50.726007083148104,79.54575679961533,2.536300354157405,1.2495018259295594,A,515.7360829998652,Correct
10,18,80,B,62.25560088644476,49.36529003014263,3.1127800443222378,0.7754281625051277,B,515.928499000438,Correct
10,18,81,A,21.11600849264014,43.47536842792111,1.055800424632007,0.682909490326333,A,538.0678319997969,Correct
10,18,82,A,57.81910426592479,69.35359893187169,2.8909552132962397,1.089403784521905,A,685.9517909997521,Correct
10,18,83,A,25.555960414354928,45.21399305904902,1.2777980207177464,0.7102197421688414,A,560.398081999665,Correct
10,18,84,A,36.721174701150254,44.305994718398324,1.8360587350575128,0.6959569375865418,A,756.2653740005771,Correct
10,18,85,A,32.90523876818447,64.86690945206409,1.6452619384092233,1.0189270309783942,A,549.2526660000294,Correct
10,18,86,A,15.207294553244857,41.81028110413354,0.7603647276622428,0.6567543598063504,A,603.4615410007973,Correct
10,18,87,B,49.46810917677337,18.37012723304383,2.4734054588386685,0.2885572838042015,B,717.0608330015966,Correct
10,18,88,B,77.04035603141637,56.99535907523864,3.852017801570818,0.8952810067974102,B,1712.0480409994343,Correct
10,18,89,A,34.29767101454478,61.92694452800312,1.7148835507272393,0.9727461699421861,A,529.3506240013812,Correct
10,18,90,A,55.91639105779825,64.3377804983602,2.7958195528899124,1.0106154928096052,A,693.7457080002787,Correct
10,18,91,A,47.33439720175941,61.19536594433063,2.3667198600879704,0.9612545604222406,A,716.8309159987984,Correct
10,18,92,B,68.58592121441359,36.731043070350665,3.4292960607206795,0.5769698753425196,B,438.83987399931357,Correct
10,18,93,A,38.57400156893575,66.56506508436654,1.9287000784467876,1.0456015972738617,A,485.1742069986358,Correct
10,18,94,A,62.20968437676865,84.8236764940409,3.1104842188384327,1.3324071946207805,A,703.1739570011268,Correct
10,18,95,A,21.40877373048833,42.019981717293504,1.0704386865244166,0.6600483293351335,A,590.7557070004259,Correct
10,18,96,B,74.61456196738358,55.124983127675904,3.7307280983691786,0.8659012101158396,B,599.4831659991178,Correct
10,18,97,A,41.81732903435184,48.83782868196603,2.0908664517175923,0.7671428190227068,A,722.4279580004804,Correct
10,18,98,A,22.527314648420287,41.875347909636446,1.1263657324210143,0.6577764267971528,A,547.4783329991624,Correct
10,18,99,B,45.429713696746234,26.708405851133108,2.2714856848373115,0.41953465805507206,B,752.3207080012071,Correct
10,18,100,A,55.127620193293986,69.10645881097733,2.7563810096646995,1.08552171658086,A,480.3405410002597,Correct
10,18,101,B,77.18052556042895,51.96590295060737,3.8590262780214473,0.8162784947339413,B,676.6827909996209,Correct
10,18,102,A,30.016770770943655,59.198368891209874,1.5008385385471827,0.9298858040656174,A,423.08104099902266,Correct
10,18,103,A,60.41095532997412,84.23378586510422,3.0205477664987064,1.323141214289336,A,500.706998998794,Correct
10,18,104,B,59.69151780532251,37.15826192480853,2.9845758902661252,0.583680613415719,B,722.5020409987337,Correct
10,18,105,B,36.13722372657646,13.009184008214628,1.8068611863288229,0.20434778454702449,A,482.5832910009922,Incorrect
10,18,106,A,49.0018375190955,64.28046990909999,2.450091875954775,1.0097152601786414,A,777.7835830002005,Correct
10,18,107,B,78.5258025949276,57.84749757971085,3.9262901297463797,0.9086663671248646,B,610.3792909998447,Correct
10,18,108,B,73.72849085312286,53.47650571669778,3.6864245426561433,0.8400069874961515,B,511.83712399870274,Correct
10,18,109,A,39.696665874987175,60.062914386074894,1.9848332937493587,0.9434660529424279,A,815.8573319997231,Correct
10,18,110,B,67.56698643532263,45.36612423962136,3.3783493217661316,0.7126094131651814,B,657.399333000285,Correct
10,18,111,B,57.262675569679466,28.67714102469784,2.8631337784839737,0.4504594778457459,B,511.378582999896,Correct
10,18,112,A,17.4935411252051,33.30894167488573,0.8746770562602549,0.5232156323233597,A,498.89012400126376,Correct
10,18,113,B,87.1481466612939,61.27184561620342,4.357407333064694,0.9624559002987632,B,711.3215409990516,Correct
10,18,114,A,59.16673486449036,83.61731155185993,2.9583367432245176,1.3134576584212605,A,760.6767500001297,Correct
10,18,115,A,39.41179501699739,62.127959170012055,1.9705897508498693,0.9759037005551826,A,484.0272500005085,Correct
10,18,116,B,66.25073407470937,56.82156174310231,3.3125367037354687,0.8925510046881453,B,620.7052080007998,Correct
10,18,117,B,44.180939526485574,29.18275365078516,2.209046976324279,0.4584016224041368,B,826.1552069998288,Correct
10,18,118,B,33.76509616415335,15.590282062283677,1.6882548082076676,0.24489157797131564,B,600.8861659993272,Correct
10,18,119,B,41.69438922784225,14.076390038525524,2.0847194613921123,0.22111141767048165,B,483.0726660002256,Correct
10,18,120,A,45.68663953405448,58.20911134245957,2.284331976702724,0.9143465828273064,A,801.3867500012566,Correct
10,18,121,A,24.834264137025084,51.66796489113535,1.2417132068512542,0.8115984946396309,A,487.89129100077844,Correct
10,18,122,B,85.99201166715618,60.07030427336855,4.299600583357809,0.943582133020591,B,500.9495819995209,Correct
10,18,123,B,53.0264114671823,41.57060122272902,2.651320573359115,0.6529894770331818,B,667.6847909984645,Correct
10,18,124,A,46.51353060877943,58.31600468917191,2.3256765304389715,0.916025659591052,B,664.7978749988397,Incorrect
10,18,125,A,33.232477917459136,62.43298733069968,1.6616238958729568,0.9806950716989536,A,622.9459990008763,Correct
10,18,126,B,59.80718101328407,43.44060732166799,2.9903590506642037,0.6823634641461557,B,552.179916001478,Correct
10,18,127,B,71.14423956868207,57.33124544999836,3.557211978434103,0.9005570976343406,B,756.3348740004585,Correct
10,18,128,B,40.766093711007684,31.10309607326827,2.038304685550384,0.4885662906383856,B,505.7343319986103,Correct
10,18,129,B,45.84336399410165,21.520052694740627,2.2921681997050825,0.3380361972533119,B,782.5754160003271,Correct
10,18,130,A,62.71216862766249,80.50151813096363,3.1356084313831247,1.2645148898153045,A,527.4143320002622,Correct
10,18,131,A,33.42822999114516,54.254814126522476,1.6714114995572578,0.8522326274088138,A,634.2289570002322,Correct
10,18,132,B,49.66306924012475,29.10889038083737,2.4831534620062374,0.4572413808729463,B,527.7802069995232,Correct
10,18,133,B,33.56672852949822,15.499786378761979,1.678336426474911,0.24347007509864887,B,535.8043739997811,Correct
10,18,134,A,49.51946414336894,66.90221844955673,2.475973207168447,1.0508975899499347,A,530.9216660007223,Correct
10,18,135,B,84.24368742469343,59.75971690734285,4.212184371234672,0.9387034380835703,B,1300.2986249994137,Correct
10,18,136,A,39.568517770607514,68.96729499815206,1.9784258885303756,1.083335736520773,A,675.9850410016952,Correct
10,18,137,B,85.1119660232019,66.8205600901131,4.255598301160095,1.0496149034392732,B,893.3405409989064,Correct
10,18,138,B,49.770369570732825,19.53451486118339,2.4885184785366414,0.30684744189667185,B,544.7890409996035,Correct
10,18,139,A,23.903659688987776,42.13404496487315,1.1951829844493889,0.6618400306383374,A,584.6175830010907,Correct
10,18,140,B,70.93174309907198,39.67254218952068,3.546587154953599,0.6231748354591464,B,589.6319990006305,Correct
10,18,141,A,26.519519544101495,57.91983530764949,1.3259759772050748,0.9098026454982119,A,460.85829099865805,Correct
10,18,142,B,42.9349554870129,34.99045213838966,2.146747774350645,0.549628736918751,B,537.6434160007193,Correct
10,18,143,B,40.139375012341056,24.133217566810952,2.0069687506170526,0.3790836950768871,B,570.6134159991052,Correct
10,18,144,A,27.418486850175825,52.68621200376566,1.3709243425087914,0.8275930828825229,A,480.71479099962744,Correct
10,18,145,A,32.989329349362315,61.715371690735395,1.6494664674681159,0.9694227915858891,B,628.8947079992795,Incorrect
10,18,146,A,58.60019852563071,76.246553372369,2.9300099262815356,1.1976780596808825,B,582.0148330003576,Incorrect
10,18,147,B,63.347784735985805,38.142961991948546,3.1673892367992904,0.5991482459003012,B,531.1109989997931,Correct
10,18,148,A,39.9406033685616,61.028937119948424,1.9970301684280798,0.9586403025621171,B,633.9488739995431,Incorrect
10,18,149,B,51.018040802998335,37.176576463670784,2.550902040149917,0.5839682975194367,B,550.4694999999629,Correct
10,18,150,A,40.064763407657765,70.91012460976158,2.0032381703828883,1.1138536326958188,A,587.5257910010987,Correct
10,18,151,B,67.95267676446346,47.72099234801496,3.3976338382231734,0.7495995949126927,B,468.67125000062515,Correct
10,18,152,B,43.727708535894116,35.685610451704086,2.186385426794706,0.5605482581697036,B,687.807623999106,Correct
10,18,153,A,65.27543506385291,76.63488213693742,3.2637717531926453,1.2037779136506115,A,454.8812069988344,Correct
10,18,154,B,58.41890737681473,26.51138871301169,2.9209453688407363,0.4164399200863044,B,715.6852490006713,Correct
10,18,155,B,64.3869275059837,41.9772665763021,3.2193463752991853,0.6593773614694551,B,804.1280409997853,Correct
10,18,156,A,17.01996994354645,35.574518590954455,0.8509984971773225,0.5588032313016802,A,566.1136239996267,Correct
10,18,157,A,33.521712400561796,58.650141697637956,1.6760856200280898,0.9212742714464988,A,860.4864999997517,Correct
10,18,158,B,43.711545621204024,33.00340727090928,2.185577281060201,0.5184163091286027,B,573.000624000997,Correct
10,18,159,B,67.1178193324778,44.82271852636688,3.3558909666238894,0.7040736161817865,B,665.6059159995493,Correct
10,18,160,A,34.779553167584595,58.76587033514733,1.7389776583792298,0.9230921326335461,A,562.1193749993836,Correct
10,18,161,A,48.59358021966688,65.02805857247273,2.429679010983344,1.0214583554424357,B,545.2432909987692,Incorrect
10,18,162,B,85.88053564677683,67.17557286136407,4.294026782338841,1.0551914310097363,A,483.52391600019473,Incorrect
10,18,163,A,29.486554442591807,55.29700099499547,1.4743277221295903,0.8686032604571263,A,604.9833320012112,Correct
10,18,164,B,78.01176631451388,66.07887798839091,3.9005883157256935,1.037964588228926,B,632.0354579984269,Correct
10,18,165,B,30.904976212479266,13.037279464995994,1.5452488106239632,0.2047891069501424,B,523.6222069997893,Correct
10,18,166,A,35.71900319863748,64.87107385563425,1.7859501599318741,1.0189924452767074,A,884.3408319989976,Correct
10,18,167,A,51.347208553876044,59.52845497798876,2.567360427693802,0.9350707841920013,A,843.5151249996125,Correct
10,18,168,B,47.97244877363414,36.0253442285922,2.398622438681707,0.5658847838579436,B,463.97920699928363,Correct
10,18,169,A,38.84640338694666,49.02781967033841,1.942320169347333,0.7701271904893014,A,553.746666000734,Correct
10,18,170,B,61.55608013509318,32.77476691504682,3.077804006754659,0.5148248348171445,B,477.2517080000398,Correct
10,18,171,B,55.540773889509914,27.783291660421817,2.7770386944754955,0.43641892486461864,B,599.6387079994747,Correct
10,18,172,A,46.07250916468006,73.47581138008557,2.3036254582340034,1.1541553462411307,A,482.9121250004391,Correct
10,18,173,A,24.426713145837926,52.535940612873326,1.2213356572918963,0.8252326253941624,A,461.8445409996639,Correct
10,18,174,A,66.43851297965806,82.66208713963825,3.321925648982903,1.2984530284414342,A,573.5914569995657,Correct
10,18,175,B,73.37360084802727,45.74756851399962,3.668680042401363,0.7186011258158845,B,588.1749159998435,Correct
10,18,176,B,74.41854598116726,57.76096365336899,3.7209272990583626,0.9073070953884554,B,905.117665999569,Correct
10,18,177,B,73.57084634594327,49.37300194701514,3.6785423172971634,0.7755493010120866,B,417.3372910008766,Correct
10,18,178,A,35.96078609574717,58.594412569405556,1.7980393047873582,0.9203988803472697,A,664.0263330009475,Correct
10,18,179,A,38.516517135649714,61.21838035786491,1.9258258567824855,0.9616160699846705,A,728.3944160008105,Correct
10,18,180,B,70.60422892374574,47.06655247370595,3.5302114461872867,0.7393196774059654,B,482.8301659999852,Correct
10,18,181,A,50.156442846925245,77.02417013718484,2.5078221423462623,1.2098928352591511,A,658.4709990002011,Correct
10,18,182,A,50.90690227378047,67.73528168847403,2.5453451136890233,1.0639833167067263,A,502.71895799960475,Correct
10,18,183,A,52.46161353281711,68.09336950715344,2.6230806766408556,1.0696081470092424,B,532.5457490016561,Incorrect
10,18,184,A,64.97143699325655,87.87257620940883,3.2485718496628273,1.3802991993574403,A,490.08870700163243,Correct
10,18,185,A,12.750408393071979,32.57715618596815,0.637520419653599,0.5117207727434241,A,631.6082080011256,Correct
10,18,186,B,33.66680471308452,15.07481893621792,1.6833402356542257,0.23679470212109258,B,1466.7530410006293,Correct
10,18,187,B,67.32434295459336,37.29348427546243,3.3662171477296683,0.5858046811327963,B,490.897457999381,Correct
10,18,188,B,58.70436722154757,25.932406293605716,2.9352183610773785,0.4073452855094872,B,428.71974899935594,Correct
10,18,189,B,70.70008703592471,53.170383715690676,3.5350043517962355,0.8351984343488209,B,880.3629570011253,Correct
10,18,190,B,57.45849184474941,36.768755805211995,2.872924592237471,0.5775622655964553,B,1396.584291000181,Correct
10,18,191,A,51.443892518959075,67.5554912528798,2.5721946259479536,1.0611591751484837,A,646.8502489988168,Correct
10,18,192,B,84.59457380283769,59.35487740517081,4.229728690141884,0.9323442340540371,B,772.3768329997256,Correct
10,18,193,A,18.396768297686503,48.61929237798928,0.9198384148843252,0.7637100587871267,A,739.1093739988719,Correct
10,18,194,A,26.00903887837031,41.864226402937376,1.3004519439185154,0.6576017305784396,A,705.9327909992135,Correct
10,18,195,B,71.86940637487695,40.24331909723792,3.593470318743847,0.6321405781597624,B,596.1242909997964,Correct
10,18,196,B,84.21066398152416,68.18161247071978,4.210533199076208,1.0709942642395975,B,775.2715820006415,Correct
10,18,197,B,38.85670171048621,23.997773343065678,1.9428350855243108,0.3769561421854405,A,473.0914160008979,Incorrect
10,18,198,A,30.558604657741327,49.987683053339616,1.5279302328870665,0.7852046892517338,A,549.9041240000224,Correct
10,18,199,B,59.522860296157845,34.208739342435166,2.9761430148078922,0.5373496210338122,B,500.44449900087784,Correct
10,18,200,B,57.02351175172274,36.57463026604465,2.8511755875861367,0.574512948757844,B,689.0615409993188,Correct
10,18,201,A,38.881284879418295,49.31772074518448,1.9440642439709148,0.7746809459243226,A,872.9210000001331,Correct
10,18,202,B,48.359029341086426,36.588996650478336,2.4179514670543214,0.5747386153968215,B,514.6152489996894,Correct
10,18,203,A,41.972159167506895,50.44242053283578,2.0986079583753448,0.7923476888762192,A,348.3636660002958,Correct
10,18,204,B,66.99942250537546,52.5870761316826,3.3499711252687736,0.8260358602453063,B,802.1573739988526,Correct
10,18,205,A,51.14265209938197,81.33791084894096,2.5571326049690986,1.2776529159068724,A,442.06220699925325,Correct
10,18,206,B,67.66237994310052,57.2228413029997,3.3831189971550257,0.8988542892751922,B,571.9817490007699,Correct
10,18,207,B,67.9098118067106,59.08870735381815,3.3954905903355295,0.9281632446643614,A,566.3762069998484,Incorrect
10,18,208,A,14.960175516821604,32.03008865902317,0.7480087758410803,0.5031274561250847,A,488.8937910000095,Correct
10,18,209,B,82.50722296209449,54.94347350836292,4.125361148104725,0.8630500636828917,B,728.647791000185,Correct
10,18,210,A,43.28275279609577,69.13315240587322,2.1641376398047885,1.0859410185889742,A,607.7078739999706,Correct
10,18,211,A,54.49579798481028,81.35624451399644,2.724789899240514,1.2779409004441304,A,491.3137490002555,Correct
10,18,212,B,46.956474563997915,25.635100151814775,2.347823728199896,0.40267521155489955,B,606.0294990002149,Correct
10,18,213,B,78.33609726741838,47.21696718612636,3.916804863370919,0.7416823861836245,B,586.5747080006258,Correct
10,18,214,B,46.752057381129426,19.961966026787845,2.337602869056471,0.3135618291048286,B,525.3452489996562,Correct
10,18,215,A,21.78316373734572,33.70585033964558,1.089158186867286,0.529450259050138,A,737.7586660004454,Correct
10,18,216,B,50.59200200635267,22.455462381698283,2.5296001003176336,0.3527295782565264,B,476.19354100061173,Correct
10,18,217,B,46.37777189219375,33.858873178752,2.3188885946096875,0.5318539361859789,B,565.2072079992649,Correct
10,18,218,B,57.06487818257004,47.24734020998191,2.8532439091285022,0.742159484526684,B,539.3153739987611,Correct
10,18,219,B,44.351969296394145,14.767822914737888,2.2175984648197073,0.23197241989227776,B,681.0601239994867,Correct
10,18,220,A,19.447255065330346,32.18486669600124,0.9723627532665173,0.5055587038446214,B,1473.4977910011366,Incorrect
10,18,221,A,59.42796743720568,86.98796827556978,2.9713983718602837,1.36640381042616,A,611.6544579999754,Correct
10,18,222,B,60.695628111282616,52.983132513937086,3.034781405564131,0.8322570993497963,B,657.0527079984458,Correct
10,18,223,B,68.6086363214219,42.41041214612884,3.4304318160710947,0.6661811961699685,B,510.4305820004811,Correct
10,18,224,B,52.03704661794509,34.704487755125015,2.6018523308972545,0.5451368188904884,B,574.3876239994279,Correct
10,18,225,B,50.33397002925829,31.690220245848494,2.5166985014629146,0.49778881557500076,B,596.7227490000369,Correct
10,18,226,A,55.5932544487673,68.7863215296339,2.779662722438365,1.0804930119248164,A,663.9699580009619,Correct
10,18,227,A,39.68911478234957,64.64059441209919,1.9844557391174786,1.0153720826436412,A,563.1355830009852,Correct
10,18,228,B,74.09851067999321,53.983416274578815,3.7049255339996603,0.8479695199194823,B,536.8053330003022,Correct
10,18,229,B,48.624412448305556,29.65122314010863,2.4312206224152777,0.4657603239345848,B,618.4017909999966,Correct
10,18,230,A,17.68101860651361,33.77308453743433,0.8840509303256806,0.5305063713593536,A,520.0952909999614,Correct
10,18,231,A,55.376882982547045,82.83774162768786,2.7688441491273523,1.301212202687568,A,634.2272910005704,Correct
10,18,232,A,54.69162297687586,62.30619263074691,2.734581148843793,0.9787033852095248,A,707.1215409996512,Correct
10,18,233,B,62.56043259667459,48.12017007075515,3.128021629833729,0.7558698639188792,B,613.7691659987468,Correct
10,18,234,B,47.56253055444555,34.85327109278249,2.3781265277222774,0.5474739020932949,B,634.3422490008379,Correct
10,18,235,A,52.023361538401275,82.58105355317724,2.6011680769200636,1.2971801558418345,A,805.4850820008141,Correct
10,18,236,B,49.557202003170275,25.61460593601302,2.477860100158514,0.4023532891658801,B,757.6404989995353,Correct
10,18,237,A,49.40530147427851,61.83079015256768,2.4702650737139256,0.9712357805447936,A,644.3639160006569,Correct
10,18,238,B,42.99201195083118,17.286546285820446,2.149600597541559,0.27153643408736716,B,475.4381660004583,Correct
10,18,239,A,33.12135315029653,62.14077016326869,1.6560676575148263,0.9761049351666836,A,499.6186240005045,Correct
10,18,240,A,44.49165406832804,65.75374562598745,2.224582703416402,1.0328574210230708,A,874.3884160012385,Correct
10,18,241,B,86.34309923284572,65.84275742141219,4.317154961642285,1.034255615036017,B,869.615249999697,Correct
10,18,242,B,31.47943126038838,12.298315464282272,1.5739715630194189,0.19318148757059464,B,508.1404989996372,Correct
10,18,243,B,55.06433716675676,30.071825031297333,2.7532168583378382,0.4723671229918067,B,543.4758329993201,Correct
10,18,244,B,47.047548633466775,29.57975605796986,2.3523774316733386,0.4646377216334815,B,642.486665999968,Correct
10,18,245,A,55.425606039081515,79.09283055927662,2.771280301954076,1.2423872771832287,A,500.7222490003187,Correct
10,18,246,A,25.508012339279563,37.03054481521974,1.2754006169639782,0.5816744377496097,B,388.08262400016247,Incorrect
10,18,247,A,15.414952918685671,42.22284401624442,0.7707476459342836,0.6632348828755061,A,490.75600000105624,Correct
10,18,248,A,47.81500693877169,77.41751215487031,2.3907503469385842,1.2160714372246955,A,725.9504579997156,Correct
10,18,249,B,76.86539048150692,50.57514274223446,3.8432695240753456,0.7944324844662947,B,765.7783749982627,Correct
10,18,250,B,73.00861557019383,42.95890199432145,3.650430778509691,0.6747968545582209,B,761.5627910017793,Correct
10,18,251,B,75.2452950149424,50.1141736589133,3.7622647507471196,0.7871915990378259,B,1257.8725410003244,Correct
10,18,252,B,64.20034131618283,52.303262982844764,3.210017065809142,0.8215777337284005,B,899.9099579996255,Correct
10,18,253,A,42.614169101965835,65.52555552902723,2.1307084550982918,1.0292730193619102,A,646.4312909993168,Correct
10,18,254,A,34.69755223569643,61.22824601244026,1.7348776117848215,0.9617710393243543,A,815.4894159997639,Correct
10,18,255,B,63.138965406479876,43.53788723059191,3.1569482703239937,0.6838915333822422,B,687.127707999025,Correct
10,18,256,B,37.74378337833778,20.65262294522215,1.8871891689168891,0.3244106426103495,B,534.6678749992861,Correct
10,18,257,B,70.0312836741781,40.126649603612336,3.501564183708905,0.6303079380394014,B,571.8538330002048,Correct
10,18,258,A,61.62927735173428,73.719675322666,3.081463867586714,1.1579859520935616,A,764.5820409998123,Correct
10,18,259,A,23.89965736199741,48.223693921895304,1.1949828680998704,0.757496012769945,A,575.5370409988245,Correct
10,18,260,A,47.21227233908451,58.533439333787875,2.3606136169542253,0.9194411150018592,B,936.77787499837,Incorrect
10,18,261,B,74.2009662298135,41.964230399570326,3.710048311490675,0.659172589684198,B,702.2330409999995,Correct
10,18,262,A,34.38525855567159,45.295977086320974,1.7192629277835794,0.7115075442577878,B,845.4058330007683,Incorrect
10,18,263,A,42.433954375953725,58.7082191923264,2.1216977187976864,0.9221865505997597,A,672.2131660008017,Correct
10,18,264,B,44.55909754309004,36.25826028336844,2.227954877154502,0.5695434206908844,B,483.88129100021615,Correct
10,18,265,B,42.33146150731557,16.51708624763056,2.1165730753657783,0.25944978407132585,B,585.9449159997894,Correct
10,18,266,B,77.4012218793531,59.414876026887285,3.870061093967655,0.933286690200087,B,568.7816240006214,Correct
10,18,267,A,31.79895889627316,53.55386873090655,1.589947944813658,0.8412222028816407,A,680.6097909993696,Correct
10,18,268,A,20.202804237192336,50.45654879039993,1.0101402118596168,0.7925696150270768,A,478.32420700069633,Correct
10,18,269,B,75.34164667386115,51.92705692164658,3.7670823336930574,0.8156683027379196,B,609.6320409997134,Correct
10,18,270,A,42.85434279202218,67.76361054759519,2.142717139601109,1.0644283053852244,A,527.1133740006917,Correct
10,18,271,A,13.834273323610208,33.49908933856719,0.6917136661805103,0.5262024648399541,A,755.6153329987865,Correct
10,18,272,A,56.113220521264594,63.628805742437486,2.8056610260632295,0.9994789433856681,A,939.46245799998,Correct
10,18,273,A,35.499581411259705,60.83586293137811,1.774979070562985,0.9556075003000656,A,519.8503740011802,Correct
10,18,274,B,57.7165791656555,47.14171357767954,2.885828958282775,0.7405003052663611,A,346.0140830011369,Incorrect
10,18,275,B,75.86201517341385,57.59920033574846,3.7931007586706924,0.9047661231371708,B,481.03170700051123,Correct
10,18,276,A,36.50349991070853,45.015129254344544,1.8251749955354262,0.707095996829219,A,829.8255819991027,Correct
10,18,277,A,46.759666260880465,58.08004009065048,2.337983313044023,0.9123191363449409,A,703.5426239999651,Correct
10,18,278,A,13.46983328413138,37.80754655539986,0.673491664206569,0.5938795525434913,A,1079.8028739991423,Correct
10,18,279,A,57.44560149622384,75.08370300598442,2.872280074811192,1.1794120488395925,A,661.3956249984767,Correct
10,18,280,A,47.17723879225336,66.40152185830082,2.358861939612668,1.0430326662860998,A,509.7712910010159,Correct
10,18,281,A,43.95810491121681,56.55655909124802,2.1979052455608405,0.8883883527669091,B,901.6235829985817,Incorrect
10,18,282,B,81.93184465730745,64.04508175887264,4.0965922328653726,1.00601779176116,B,577.4532069990528,Correct
10,18,283,A,46.72585181998289,57.193292241493765,2.3362925909991445,0.8983901337024547,B,516.7203330001939,Incorrect
10,18,284,B,53.97389826130997,22.349076973533755,2.6986949130654985,0.35105848017283225,B,484.7397909998108,Correct
10,18,285,B,74.06578848648138,45.97116319285579,3.703289424324069,0.7221133428182663,B,662.9574569997203,Correct
10,18,286,A,20.566068368787,47.66611963318039,1.02830341843935,0.7487376563236586,A,504.460748999918,Correct
10,18,287,B,36.72061121784474,17.05638966706604,1.8360305608922372,0.26792114237409764,B,714.5819580000534,Correct
10,18,288,A,32.18197384907264,47.58839994731862,1.6090986924536321,0.7475168383529455,A,969.6749569993699,Correct
10,18,289,A,56.27288453568235,63.82910655970302,2.8136442267841177,1.0026252612658155,A,1106.4775830000144,Correct
10,18,290,A,62.224249476978144,75.53718891112959,3.111212473848907,1.1865353887801453,A,715.8688740000798,Correct
10,18,291,B,79.26804666772934,59.90028808337503,3.9634023333864667,0.9409115249532161,B,585.8186250006838,Correct
10,18,292,A,39.07075488177116,56.31746386647024,1.953537744088558,0.8846326537585576,A,553.4602909992827,Correct
10,18,293,A,33.950800396157426,47.9819676225443,1.6975400198078714,0.7536989849388424,A,716.0279159998026,Correct
10,18,294,B,76.78744572833222,48.32490682559069,3.839372286416611,0.7590858613434349,B,646.0154570013401,Correct
10,18,295,B,40.10876716325478,22.94603626672102,2.0054383581627393,0.36043549482267867,B,528.0663740013551,Correct
10,18,296,A,34.01420064596293,67.03866632526966,1.7007100322981465,1.053040908169623,A,451.6604990003543,Correct
10,18,297,A,51.00329741289238,66.05652297936106,2.550164870644619,1.0376134365682304,A,485.12566600038554,Correct
10,18,298,B,42.61144738193758,14.664136927066476,2.130572369096879,0.23034372420653423,B,512.8527500000928,Correct
10,18,299,B,51.185721057101404,23.318162381331,2.5592860528550703,0.36628083816201673,B,686.0018330007733,Correct
