subject,day,trial,cat,x,y,xt,yt,resp,rt,fb
10,2,0,B,75.66812585957214,54.47352982414222,3.783406292978607,0.8556682055531484,B,1301.2643330002902,Correct
10,2,1,B,54.74770273182307,30.41661914911699,2.7373851365911537,0.47778313632952274,B,1644.4720829995276,Correct
10,2,2,B,79.93081490446528,60.983738673622454,3.9965407452232635,0.9579303270274604,B,911.7490409998936,Correct
10,2,3,A,44.705557080503205,55.95057614402091,2.2352778540251603,0.878869594890862,A,909.483165999518,Correct
10,2,4,B,61.854486952149266,31.861429535265597,3.0927243476074633,0.5004781648042963,B,756.0905410000487,Correct
10,2,5,B,76.42305435675193,46.119834100872964,3.821152717837597,0.7244486599804127,B,732.9832490004264,Correct
10,2,6,A,51.460284906848514,67.98896612741757,2.573014245342426,1.0679681825553016,B,788.460457999463,Incorrect
10,2,7,B,73.58751213856078,53.17625451388709,3.679375606928039,0.8352906526312437,B,567.6286249999976,Correct
10,2,8,A,10.483147487569287,34.99313209253814,0.5241573743784643,0.5496708335400753,A,637.4122079996596,Correct
10,2,9,A,37.21565640532369,61.4899330584739,1.8607828202661847,0.9658816098311489,A,993.4698319993913,Correct
10,2,10,B,40.447553785196774,14.535343580446686,2.0223776892598386,0.22832064304867433,B,718.5332080007356,Correct
10,2,11,B,78.87104075154873,66.59273404236141,3.9435520375774367,1.0460362202497078,B,571.9284580000021,Correct
10,2,12,A,21.470615999110343,46.40438095555232,1.0735307999555173,0.7289183115217264,A,718.69816599974,Correct
10,2,13,B,71.71882320854547,60.004938743458865,3.5859411604272737,0.9425553736777795,B,1170.5760830000145,Correct
10,2,14,A,26.831799705881117,37.94393673857989,1.3415899852940558,0.5960219645309922,A,749.2448740003965,Correct
10,2,15,B,79.00912643233485,55.938177995945395,3.9504563216167425,0.8786748452363013,B,680.8241239996278,Correct
10,2,16,A,30.53034031252674,53.90490448771672,1.5265170156263368,0.8467362596553515,A,610.9922069999811,Correct
10,2,17,A,53.37721643481817,60.803974835056806,2.6688608217409087,0.9551066032543656,B,667.6561660005973,Incorrect
10,2,18,A,32.98471117254279,60.153319640198205,1.6492355586271394,0.9448861353534265,A,622.9566239999258,Correct
10,2,19,B,62.121916659021785,36.127237511608755,3.1060958329510893,0.5674853198048184,B,537.9776239997227,Correct
10,2,20,A,64.00053395552695,74.97339611283414,3.2000266977763476,1.1776793522137863,A,513.7760409998009,Correct
10,2,21,B,67.32520980564261,45.757018435281715,3.3662604902821305,0.7187495648322689,B,498.9434990002337,Correct
10,2,22,A,29.504715975019053,55.56715824400228,1.4752357987509526,0.8728468806010953,A,511.7425409998759,Correct
10,2,23,A,65.78453134669248,87.43649862816616,3.2892265673346235,1.373449308729304,B,853.1027909994009,Incorrect
10,2,24,B,80.4697595934925,56.98985759744184,4.023487979674624,0.8951945897862588,B,501.4649990007456,Correct
10,2,25,A,55.76776787788772,75.5842646194025,2.788388393894386,1.187274852276509,A,689.95354100025,Correct
10,2,26,A,17.903693270329736,37.73542336141623,0.8951846635164868,0.5927466440616295,A,610.1613749997341,Correct
10,2,27,B,72.36178233273363,62.78153199400221,3.6180891166366815,0.9861699984673494,B,651.0107499998412,Correct
10,2,28,A,23.073049925681325,38.765405506754625,1.1536524962840662,0.6089255657672483,A,548.6078739995719,Correct
10,2,29,B,60.271669675185805,34.371757791371294,3.0135834837592905,0.5399103088416989,B,668.5964580001382,Correct
10,2,30,A,46.02206580751318,69.53722890585726,2.301103290375659,1.0922882374081648,A,643.0083329996705,Correct
10,2,31,A,27.77736738728187,40.97689895412405,1.3888683693640933,0.6436636236058371,A,634.9684159995377,Correct
10,2,32,A,47.89218233292463,68.70170630805569,2.3946091166462313,1.0791638791323566,A,710.0483319991326,Correct
10,2,33,A,12.316666558646993,39.29940314510003,0.6158333279323497,0.6173135810555495,A,524.8329569994894,Correct
10,2,34,A,44.90355533291037,76.00635516061516,2.2451777666455186,1.1939050349936262,A,784.653041000638,Correct
10,2,35,B,58.76330227590658,34.46625221598056,2.9381651137953293,0.5413946237924873,B,513.0722079993575,Correct
10,2,36,B,78.66611086311705,63.68500765796609,3.933305543155853,1.0003617610103799,B,628.0527069993695,Correct
10,2,37,B,76.45275863963867,49.77899185684224,3.8226379319819337,0.7819265756028084,B,560.7140820002314,Correct
10,2,38,A,69.25807116894357,84.18435684070869,3.4629035584471786,1.3223647849897602,A,733.36129099971,Correct
10,2,39,A,41.769986293180466,55.170612004748754,2.0884993146590234,0.8666179468408578,A,786.9241660000625,Correct
10,2,40,B,52.90982980515741,35.443271056628646,2.64549149025787,0.5567415998534815,B,635.9438740000769,Correct
10,2,41,A,65.70695135450065,80.15174155295387,3.285347567725032,1.2590206121759382,A,634.9704579997706,Correct
10,2,42,B,40.75391992068,24.519603456305795,2.037695996034,0.3851530304363259,B,715.4410829998596,Correct
10,2,43,B,62.84035225912617,55.087757305019224,3.1420176129563084,0.8653164682609293,B,562.0784579996325,Correct
10,2,44,B,57.41988008476536,31.690520917731035,2.870994004238268,0.49779353851788744,B,537.3353750001115,Correct
10,2,45,A,19.73301394656096,41.962167842069206,0.986650697328048,0.6591401911067323,A,596.0225830003765,Correct
10,2,46,B,58.50711133263033,43.8489240003687,2.925355566631516,0.6887772875368773,B,613.0922080001255,Correct
10,2,47,B,68.87240076230464,55.321055146852075,3.443620038115232,0.8689811021909315,B,790.4679989997021,Correct
10,2,48,B,87.31868880288779,67.48830419543681,4.36593444014439,1.0601038033180876,B,778.9031250003973,Correct
10,2,49,B,67.45570612788019,52.20007862301722,3.3727853063940096,0.8199569175944025,B,616.4512909999758,Correct
10,2,50,B,31.813487330921873,11.014185121194785,1.5906743665460936,0.1730104153101177,A,504.64912400002504,Incorrect
10,2,51,A,16.68656445014215,31.56153971073289,0.8343282225071076,0.49576750645610485,A,593.0115410001235,Correct
10,2,52,A,31.863081338434846,57.43371715556542,1.5931540669217423,0.9021667194213918,B,2422.47608299931,Incorrect
10,2,53,B,80.09277386583727,62.415210297284474,4.004638693291864,0.9804158307110545,B,670.870458000536,Correct
10,2,54,A,35.16364397515137,47.73456374631924,1.7581821987575688,0.7498127739387509,A,1194.3516239998644,Correct
10,2,55,B,68.87121565141089,35.53603308455849,3.443560782570545,0.558198702380864,B,581.3610410004912,Correct
10,2,56,A,23.252687928654073,51.00566232794399,1.1626343964327035,0.8011950703047526,A,598.3664990008037,Correct
10,2,57,B,86.08404839501144,65.76889752472064,4.304202419750572,1.0330954264918115,B,722.6369569998496,Correct
10,2,58,A,28.699265128731877,47.51640586833675,1.434963256436594,0.7463859580047882,A,661.3990409996404,Correct
10,2,59,B,49.18521217153956,19.33864487110733,2.4592606085769777,0.30377072328726357,B,651.7476660001194,Correct
10,2,60,A,46.997611211154116,70.66301578955147,2.3498805605577058,1.1099720564247721,A,613.6462080003184,Correct
10,2,61,B,36.36059957718987,10.959936085340651,1.8180299788594936,0.17215827344759935,B,550.2731659998972,Correct
10,2,62,B,51.9435100798466,44.644647847694074,2.59717550399233,0.7012764885020955,B,629.3616660004773,Correct
10,2,63,B,65.954451147518,50.397065411346034,3.2977225573759,0.7916352522938449,B,1126.4604159996452,Correct
10,2,64,A,33.84833146185396,67.16510056019213,1.6924165730926979,1.0550269324875965,A,588.7523330002296,Correct
10,2,65,B,38.34567052532325,12.09129276710571,1.9172835262661625,0.18992958264771354,B,633.4752909997405,Correct
10,2,66,A,21.22806440031514,48.0713416371119,1.061403220015757,0.7551028686767793,A,862.9789990000063,Correct
10,2,67,A,58.357124401689205,73.30540002254645,2.91785622008446,1.151478530896465,B,939.1639990008116,Incorrect
10,2,68,A,51.30454331307337,79.93099373842281,2.5652271656536687,1.2555531136138043,A,693.5004569995726,Correct
10,2,69,B,45.72834389831517,29.700379425773562,2.2864171949157583,0.4665324690641983,B,507.54687399967224,Correct
10,2,70,B,37.04672714579503,20.213629580687932,1.8523363572897518,0.31751495096537263,B,704.7939580006641,Correct
10,2,71,B,78.9827012590751,47.008319650352455,3.949135062953755,0.73840495835574,B,655.4866660007974,Correct
10,2,72,B,89.17622668546258,68.1123189690695,4.458811334273129,1.0699058044609673,B,762.9149989998041,Correct
10,2,73,B,67.97020709494143,55.147787833541784,3.3985103547470716,0.8662594255979171,B,530.5677910000668,Correct
10,2,74,A,57.886067539629,83.9273830650036,2.8943033769814503,1.3183282503601583,A,589.3669159995625,Correct
10,2,75,B,39.030620470124546,12.346677808640994,1.9515310235062273,0.19394116149933333,B,710.9694580003634,Correct
10,2,76,B,81.79006478680765,56.17488856902964,4.089503239340383,0.8823930862234438,B,545.6274580001264,Correct
10,2,77,B,32.37905611225624,13.849239940373423,1.618952805612812,0.21754335227239746,B,731.0261660004471,Correct
10,2,78,A,61.156312356863694,86.21311782720295,3.0578156178431843,1.35423248804506,A,655.1572079997641,Correct
10,2,79,A,32.57771998981697,53.915907802995136,1.6288859994908484,0.8469090993275705,A,739.2140820002169,Correct
10,2,80,A,59.49342622606417,80.71630169656063,2.974671311303209,1.2678887021742613,A,736.5197500002978,Correct
10,2,81,B,65.4765643947821,56.87366338428116,3.273828219739105,0.8933694153539826,B,789.4693329999427,Correct
10,2,82,A,35.870886985735446,56.52967285490039,1.7935443492867722,0.887966024753947,A,1770.742706999954,Correct
10,2,83,A,15.90422431188238,38.77198702515483,0.7952112155941191,0.609028948016526,A,595.9625410005174,Correct
10,2,84,B,50.08917097956516,37.158447793060326,2.504458548978258,0.583683533027391,B,655.137458000354,Correct
10,2,85,B,54.98865146741772,23.09736386631607,2.749432573370886,0.36281254319854445,B,645.2651240006162,Correct
10,2,86,B,55.237673178253765,29.328156887017595,2.761883658912688,0.4606856110979169,B,587.1392079998259,Correct
10,2,87,A,30.300822306125667,54.376639769825914,1.5150411153062833,0.8541462601389184,A,566.6084989998126,Correct
10,2,88,A,38.12789854133956,70.43670923418823,1.906394927066978,1.1064172413658304,A,557.5761660002172,Correct
10,2,89,B,70.63314913732293,42.79928915551356,3.5316574568661463,0.6722896619491335,B,514.6491250006875,Correct
10,2,90,B,45.53542300866997,33.89775745060996,2.2767711504334986,0.5324647289000246,B,576.050665999901,Correct
10,2,91,B,54.12844445135885,26.04430719051177,2.7064222225679426,0.40910302068773796,B,463.6490410002807,Correct
10,2,92,A,43.444781959922686,71.95474146651281,2.1722390979961346,1.1302624359107476,A,760.029332999693,Correct
10,2,93,A,30.30301230483866,62.787308332633515,1.515150615241933,0.9862607329823934,A,749.8533739999402,Correct
10,2,94,A,14.866769266671952,44.083666246099014,0.7433384633335975,0.692464610110245,A,542.5297080000746,Correct
10,2,95,B,34.82097495306472,20.41227917968093,1.741048747653236,0.3206353315695475,B,679.7428740001124,Correct
10,2,96,A,25.007834850982587,44.97484904201789,1.2503917425491293,0.7064632767335667,B,692.1959580004113,Incorrect
10,2,97,A,11.995992068231523,34.91443422904186,0.5997996034115761,0.5484346503910096,A,553.3413740004107,Correct
10,2,98,B,49.190523317856524,27.9778914778824,2.4595261658928265,0.4394756916492391,B,580.2607489995353,Correct
10,2,99,A,60.19917968027718,73.02646497896575,3.0099589840138594,1.1470970294777556,B,2003.210623999621,Incorrect
10,2,100,B,41.30949644302494,28.021407753721913,2.065474822151247,0.4401592437116842,B,557.5610409996443,Correct
10,2,101,B,77.17104579338353,62.94737011153456,3.8585522896691766,0.9887749775259735,B,691.5017500004979,Correct
10,2,102,A,57.32569217158985,71.99238130561612,2.8662846085794924,1.1308536811207939,A,721.2454569998954,Correct
10,2,103,B,78.12148804622811,60.17031326804623,3.906074402311406,0.9451530706354524,B,1050.2514580002753,Correct
10,2,104,B,73.75090737825892,58.27905210892723,3.687545368912946,0.9154452098179127,B,654.9084999996921,Correct
10,2,105,B,60.330348839532085,37.90876668545505,3.0165174419766045,0.5954695146283754,B,550.3803749998042,Correct
10,2,106,B,48.12078245900292,17.90186891875257,2.406039122950146,0.2812018994034027,B,499.3764999999257,Correct
10,2,107,B,52.75698804409763,37.97970853043114,2.637849402204882,0.5965838665234204,B,502.6534159997027,Correct
10,2,108,B,48.5066302009283,21.916111731989446,2.425331510046415,0.34425747806235557,B,440.4534989998865,Correct
10,2,109,A,46.01332303731378,74.10304722154166,2.3006661518656895,1.164007943799064,A,559.0719570000147,Correct
10,2,110,A,39.88868725907719,55.457126941054824,1.9944343629538595,0.8711185129360721,B,591.1902070001815,Incorrect
10,2,111,A,30.81701891578412,55.356509599221944,1.5408509457892061,0.8695380194264426,A,500.45154100007494,Correct
10,2,112,B,53.12511032123471,34.41330754807778,2.6562555160617354,0.5405629708938368,B,566.0404569998718,Correct
10,2,113,A,28.78470289432424,49.67310987087098,1.4392351447162122,0.7802633852564346,A,730.0752080000166,Correct
10,2,114,A,49.87543366216458,77.69128885759272,2.4937716831082293,1.2203719116146792,A,803.6872910006423,Correct
10,2,115,A,64.945553828622,86.63094551275721,3.2472776914311,1.3607957099820784,A,587.4157070002184,Correct
10,2,116,A,24.020024458217478,50.08994491842461,1.201001222910874,0.7868110148722007,A,610.5854160005038,Correct
10,2,117,B,56.85031136847292,33.135372319151955,2.842515568423646,0.5204892112590519,B,713.7418329994034,Correct
10,2,118,B,45.18617473540435,21.781297267193178,2.259308736770217,0.3421398174013476,B,629.1742499997781,Correct
10,2,119,A,46.41079165911142,70.27121919407479,2.320539582955571,1.103817729894517,A,722.6099569998041,Correct
10,2,120,A,54.355113502894994,69.3621482815038,2.71775567514475,1.0895380773918912,A,640.0026660003277,Correct
10,2,121,A,57.266262266439234,66.52265000664856,2.8633131133219614,1.0449353427910606,A,659.5621239994216,Correct
10,2,122,A,17.6081636909963,47.317484192045065,0.880408184549815,0.7432613036203999,A,641.3884990006409,Correct
10,2,123,A,46.95159886799473,76.49671609342651,2.3475799433997366,1.2016076065142642,A,573.4002910003255,Correct
10,2,124,A,24.289419016070045,36.65932127583867,1.2144709508035023,0.5758432720288139,A,572.5341239995032,Correct
10,2,125,B,61.680575240554944,30.78945578377333,3.0840287620277476,0.4836396404916503,B,891.1984579999626,Correct
10,2,126,A,37.92306605970607,62.42797673482498,1.8961533029853035,0.9806163654430033,A,538.4572910006682,Correct
10,2,127,B,73.25241663182352,61.48137182875415,3.662620831591176,0.9657471303491826,B,1219.5485829997779,Correct
10,2,128,B,55.255474850083644,32.80971826157672,2.7627737425041823,0.5153738492846015,B,582.8827080003975,Correct
10,2,129,A,64.7306154354316,87.25292904765155,3.23653077177158,1.370565804501468,A,624.3427909994352,Correct
10,2,130,B,65.9837010611527,46.590600929557425,3.299185053057635,0.7318434480331569,B,577.0215000002281,Correct
10,2,131,B,52.61632165635469,25.311211562673087,2.6308160828177347,0.39758758149375395,B,581.4406660001623,Correct
10,2,132,A,24.4977407889772,57.121173684428804,1.22488703944886,0.8972572980571407,A,534.9778330000845,Correct
10,2,133,B,53.87355207107371,43.780067782463775,2.6936776035536854,0.687695696595257,B,553.5824580001645,Correct
10,2,134,A,64.13505904068776,81.77895935656215,3.2067529520343885,1.2845808896639697,A,499.2223320004996,Correct
10,2,135,A,20.528097017683564,41.087776755351385,1.026404850884178,0.645405288034747,A,602.6096659998075,Correct
10,2,136,B,44.370430636277426,33.61727189476734,2.2185215318138716,0.5280588720916586,A,516.2782909992529,Incorrect
10,2,137,B,38.58427065288949,25.078308116200525,1.9292135326444741,0.39392914271158425,A,614.4523330003722,Incorrect
10,2,138,B,80.37533737263463,57.98620971635951,4.018766868631732,0.9108452522721606,B,1298.6981240001114,Correct
10,2,139,A,25.847825774406356,38.98956000421666,1.292391288720318,0.6124465763797274,A,1189.59141599953,Correct
10,2,140,B,38.23991351655202,13.457482597901354,1.9119956758276009,0.21138964232689691,B,582.3010829999475,Correct
10,2,141,B,76.63563440821001,58.242207542175606,3.8317817204105005,0.9148664567167546,A,649.2924999993193,Incorrect
10,2,142,B,74.59264479485263,56.311775279501305,3.7296322397426316,0.884543297643403,A,1003.0845410001348,Incorrect
10,2,143,A,19.94981547852792,47.21600902184674,0.9974907739263961,0.7416673353743156,A,631.4609160008331,Correct
10,2,144,A,32.17593170377853,49.765733885643684,1.6087965851889265,0.7817183198782143,B,659.9353739993603,Incorrect
10,2,145,B,77.30081286197557,47.35301877981585,3.8650406430987787,0.7438194796198448,B,656.8809159998636,Correct
10,2,146,B,36.29052581304852,12.32337880601888,1.814526290652426,0.19357518162196535,B,635.3435410001111,Correct
10,2,147,B,55.100577065923005,38.00286590016027,2.7550288532961504,0.5969476216365078,B,971.8654989992501,Correct
10,2,148,A,61.82477891415354,76.59921730448143,3.0912389457076768,1.203217691772435,B,779.9434160006058,Incorrect
10,2,149,B,72.64578111655732,58.26255359083335,3.632289055827866,0.9151860517017184,B,833.6799990001964,Correct
10,2,150,B,84.76777422167953,60.869348862025234,4.238388711083976,0.9561334960686636,B,620.7770829996662,Correct
10,2,151,A,52.690310251835555,63.0883875366615,2.634515512591778,0.9909900740600083,A,954.4021660003636,Correct
10,2,152,B,79.3815909013638,63.5241298032583,3.9690795450681895,0.9978346975780036,B,1180.2293330001703,Correct
10,2,153,B,80.97945092934563,62.29912356297456,4.048972546467281,0.9785923445526183,B,985.2826240003196,Correct
10,2,154,A,54.355722441806975,71.93647352673311,2.7177861220903488,1.1299754837837068,A,1009.1021660000479,Correct
10,2,155,A,60.39959321703543,71.81406541117057,3.0199796608517717,1.1280527016007518,A,963.923416000398,Correct
10,2,156,A,59.949939665661596,78.67626592583248,2.99749698328308,1.2358438952223614,A,603.6259160000554,Correct
10,2,157,A,31.808363947391726,51.72270710875435,1.5904181973695863,0.8124583833831961,A,721.3118319996283,Correct
10,2,158,A,64.03384803757757,73.97238553340019,3.2016924018788786,1.1619555148012095,B,841.2303320001229,Incorrect
10,2,159,B,79.42627770870138,66.9957224645083,3.9713138854350687,1.0523663475821998,B,616.5249580008094,Correct
10,2,160,A,29.48963203538827,50.31114200895934,1.4744816017694133,0.7902855706452974,A,651.1129989994515,Correct
10,2,161,A,44.00790272732007,66.20308665395119,2.2003951363660037,1.0399156533851077,A,616.1318739996204,Correct
10,2,162,A,27.512620715962058,49.02674289987415,1.3756310357981028,0.7701102766184009,A,753.2921249994615,Correct
10,2,163,B,67.95343432548948,48.680938995873326,3.397671716274474,0.7646784015964425,B,642.9720819996874,Correct
10,2,164,B,36.405898503142154,23.019501847538525,1.820294925157108,0.3615894894676185,A,666.1934989997462,Incorrect
10,2,165,A,59.110140973741146,81.80172720987153,2.9555070486870574,1.2849385262674433,A,971.5957500002332,Correct
10,2,166,B,41.794860946056474,28.040210168701797,2.089743047302824,0.4404545913555369,B,546.1076250003316,Correct
10,2,167,B,64.7924605724182,37.39412733960487,3.2396230286209096,0.5873855786875195,B,693.9727910003057,Correct
10,2,168,A,34.54183978096307,67.69265492981285,1.7270919890481538,1.0633137371474446,A,1167.302415999984,Correct
10,2,169,B,79.3980860318027,52.542636940864,3.969904301590135,0.8253378110682702,B,788.72654099996,Correct
10,2,170,A,51.97309262645354,76.72839014438361,2.5986546313226775,1.2052467339968354,A,634.2507489998752,Correct
10,2,171,B,72.91100154290123,57.671783208561,3.6455500771450615,0.905906252237192,B,1166.5597909995995,Correct
10,2,172,A,51.86248132993174,65.5958454361058,2.593124066496587,1.0303771306404077,A,686.4265410004009,Correct
10,2,173,B,67.55822880087254,46.70363020427102,3.377911440043627,0.733618907728561,B,645.8129579996239,Correct
10,2,174,A,41.214469091250784,49.766340415801956,2.060723454562539,0.7817278472316611,B,706.7913740002041,Incorrect
10,2,175,A,19.052184932310304,33.79414907114325,0.9526092466155152,0.5308372522811099,A,668.5134999997899,Correct
10,2,176,B,74.31711855869064,63.38861906422527,3.7158559279345322,0.9957060998668601,B,856.152123999891,Correct
10,2,177,B,57.711667768845416,33.54447973109936,2.885583388442271,0.5269154554585673,B,574.823791000199,Correct
10,2,178,A,51.74499123675791,79.98903010841943,2.5872495618378957,1.2564647467819163,A,674.249833000431,Correct
10,2,179,A,59.101891641287786,85.4421854254755,2.955094582064389,1.3421227101966535,A,644.6106659996076,Correct
10,2,180,B,75.89029444857653,52.24481919907202,3.7945147224288265,0.820659700919658,A,1041.5960000000268,Incorrect
10,2,181,B,60.48671029231142,41.98307475898156,3.024335514615571,0.6594685961896377,B,542.6259999994727,Correct
10,2,182,B,43.65828380662278,16.491015209883688,2.1829141903311386,0.2590402611680407,B,446.8940409997231,Correct
10,2,183,B,76.99347947073022,56.36520256793244,3.849673973536511,0.8853825315275856,B,613.5234160001346,Correct
10,2,184,A,63.03720936334918,84.96358697719934,3.1518604681674587,1.334604903351034,A,655.8049579998624,Correct
10,2,185,A,33.338730757775686,66.391147322936,1.6669365378887844,1.0428697034656669,A,653.3542489996762,Correct
10,2,186,A,15.31730183126647,33.3661769622545,0.7658650915633234,0.5241146821149787,A,712.8384580000784,Correct
10,2,187,B,73.01964172069461,57.10605307277565,3.6509820860347304,0.8970197840447041,B,871.383249000246,Correct
10,2,188,B,67.8630618854548,53.99697189294017,3.3931530942727397,0.848182451074777,B,626.5341660000558,Correct
10,2,189,B,61.69641574143825,51.09446627778663,3.0848207870719127,0.8025899994869294,B,591.7562909999106,Correct
10,2,190,B,56.1300331012529,25.68526866547448,2.806501655062645,0.4034632567246737,B,653.4422499998982,Correct
10,2,191,A,44.1478597408027,56.242595603909706,2.207392987040135,0.8834566258403217,B,611.9183740001972,Incorrect
10,2,192,A,41.196122615073676,50.30844287398865,2.059806130753684,0.7902431727323225,A,630.892958000004,Correct
10,2,193,B,83.88546360606549,56.06943734411581,4.1942731803032745,0.8807366622559373,B,666.5091240001857,Correct
10,2,194,B,68.22062899272267,53.627197810896746,3.411031449636133,0.8423740533765992,B,802.2662910007057,Correct
10,2,195,A,65.33468654048366,82.79265215456535,3.266734327024183,1.3005039388999882,A,630.0829159999921,Correct
10,2,196,A,40.37683149561807,60.11104854385337,2.0188415747809034,0.9442221425247459,A,667.2525829999358,Correct
10,2,197,B,67.94649048283517,59.514717160889525,3.397324524141759,0.9348549910656245,B,674.7544159998142,Correct
10,2,198,B,39.48313405670631,20.683208598950724,1.9741567028353157,0.32489108093564417,B,952.9191659994467,Correct
10,2,199,B,38.003165322469286,25.285180101728848,1.9001582661234642,0.3971786802614308,B,693.4930819998044,Correct
10,2,200,A,44.802226396935566,56.34982331340784,2.240111319846778,0.8851409547624246,A,800.8986660006485,Correct
10,2,201,B,85.98631962803302,66.42324050292113,4.299315981401651,1.043373821958025,B,728.8959159996011,Correct
10,2,202,A,20.10944919506073,44.689893257078595,1.0054724597530365,0.7019872017307508,A,592.0318739999857,Correct
10,2,203,B,52.550310072069855,36.13530059371787,2.6275155036034925,0.5676119744024147,B,563.2387079995169,Correct
10,2,204,B,34.06505101209121,22.100628666879032,1.7032525506045604,0.34715586329791576,B,533.7129579993416,Correct
10,2,205,A,58.1637048380891,80.97410434428303,2.9081852419044547,1.2719382566950648,A,712.6655000001847,Correct
10,2,206,A,46.10279500715409,66.45548993518133,2.305139750357705,1.0438803948553805,A,597.1953750004104,Correct
10,2,207,B,62.731626863621976,33.88739272743033,3.1365813431810987,0.5323019202090365,B,530.0240410006154,Correct
10,2,208,A,44.46016435051659,65.11928890340207,2.22300821752583,1.0228913981295964,A,621.1395830005131,Correct
10,2,209,A,34.38956977488063,46.51803348101834,1.7194784887440313,0.7307035612170563,B,639.1530410000996,Incorrect
10,2,210,A,39.430468563370894,64.58457160664818,1.9715234281685445,1.0144920784734495,A,585.0244160001239,Correct
10,2,211,A,63.52503094569796,80.71743475812815,3.176251547284898,1.2679065002637442,A,571.0886240003674,Correct
10,2,212,A,34.10498780162461,49.68499519568381,1.7052493900812307,0.780450079502022,A,616.9485819991678,Correct
10,2,213,B,74.04676718581071,50.95428152421267,3.7023383592905357,0.8003879825270633,B,616.7611239998223,Correct
10,2,214,A,31.793845974264418,62.64579404879876,1.589692298713221,0.9840378318100268,A,662.668207999559,Correct
10,2,215,A,13.996070224944944,33.699737399651795,0.6998035112472472,0.5293542372132564,A,693.9599159995851,Correct
10,2,216,A,56.00397934434211,85.30218112903175,2.8001989672171055,1.3399235278507602,A,635.8817909995196,Correct
10,2,217,B,46.846786956788236,38.02373036269986,2.342339347839412,0.5972753598476851,B,605.6654990006791,Correct
10,2,218,A,51.22983698238371,71.19244254212728,2.5614918491191854,1.1182882724073027,A,648.1156660001943,Correct
10,2,219,A,42.22129150286397,72.74455731163725,2.1110645751431987,1.1426688341944062,A,599.1284990004715,Correct
10,2,220,B,62.85067517302406,53.55868359031506,3.142533758651203,0.84129783451637,B,614.5259159993657,Correct
10,2,221,A,38.45393394730869,67.69009825144506,1.9226966973654345,1.0632735769375556,B,720.4757079998672,Incorrect
10,2,222,B,77.23541858760828,59.35080024290636,3.861770929380414,0.9322801901389497,B,588.0971240003419,Correct
10,2,223,B,57.70884166023443,37.43844515146848,2.8854420830117213,0.5880817212483889,B,589.7179990006407,Correct
10,2,224,A,53.86415248367155,68.33979980394572,2.693207624183578,1.0734790650593653,A,608.1338750000214,Correct
10,2,225,A,50.31929605225727,60.58133800821774,2.5159648026128636,0.9516094321562848,B,924.5615410000028,Incorrect
10,2,226,B,50.46326092998308,24.664168551095155,2.523163046499154,0.3874238536351048,B,472.10687400001916,Correct
10,2,227,A,51.54146794508081,81.2085838157423,2.5770733972540403,1.2756214516198348,A,537.7580829999715,Correct
10,2,228,B,43.5171934600987,24.997434249323135,2.175859673004935,0.3926587789813372,B,509.76300000002084,Correct
10,2,229,B,49.6892598261359,30.261373542402147,2.484462991306795,0.47534454404173565,B,442.48241599962057,Correct
10,2,230,A,38.84063270748346,56.443086477466714,1.942031635374173,0.8866059291177141,A,518.7113739993947,Correct
10,2,231,A,41.74640910325539,60.654912270609785,2.0873204551627693,0.9527651339674056,A,552.4462500006848,Correct
10,2,232,B,52.35555542481729,41.25990691564019,2.6177777712408647,0.6481091022698695,B,501.9397489995754,Correct
10,2,233,A,24.120469288574707,36.64576844588038,1.2060234644287353,0.5756303846736521,A,684.2039579996708,Correct
10,2,234,A,64.52513330851725,78.29466303093339,3.2262566654258626,1.2298496909663434,A,690.9919999998237,Correct
10,2,235,A,57.281745864448595,66.8331258864449,2.8640872932224295,1.0498122865064858,A,587.0561239999006,Correct
10,2,236,B,33.8747866649738,19.44827369838144,1.6937393332486896,0.3054927688791936,B,544.3645410005047,Correct
10,2,237,B,51.11436838835735,30.535308497931567,2.5557184194178673,0.4796475042609989,B,613.4756660003404,Correct
10,2,238,B,55.69317218273129,42.78152068995871,2.7846586091365646,0.6720105555448701,B,536.0414160004439,Correct
10,2,239,B,53.54210654318602,40.262475175902466,2.6771053271593015,0.6324414811397829,B,456.4310410005419,Correct
10,2,240,A,29.293458030940506,55.535053862896625,1.4646729015470255,0.8723425861619475,A,573.0118740002581,Correct
10,2,241,B,51.44071886777381,37.701582005929566,2.5720359433886903,0.5922150652927073,B,466.20975000041653,Correct
10,2,242,B,43.72561722248243,32.97365118091722,2.1862808611241213,0.5179489015600097,B,502.5669159995232,Correct
10,2,243,B,70.49744835297362,42.269200943488855,3.5248724176486808,0.6639630557858768,B,697.7995409997675,Correct
10,2,244,A,30.73202534157432,61.959641546652875,1.536601267078716,0.973259773510108,A,671.139291000145,Correct
10,2,245,A,23.48742826980684,54.98308690705085,1.174371413490342,0.8636723094944004,A,628.2992909991663,Correct
10,2,246,A,46.78219752001946,74.9748693373524,2.3391098760009728,1.1777024935704046,A,600.4618750002919,Correct
10,2,247,A,37.19756283772985,58.96916003457192,1.8598781418864923,0.92628539976486,A,736.4470819993585,Correct
10,2,248,B,62.775227398959125,43.982007696185114,3.138761369947956,0.6908677613423244,B,714.8260410003786,Correct
10,2,249,B,87.68495870443117,67.05091716873083,4.384247935221558,1.0532333439687127,B,666.4541660002214,Correct
10,2,250,A,68.06263787693436,84.64301251184273,3.4031318938467177,1.3295693314245705,A,684.9399990005622,Correct
10,2,251,A,34.50466023119177,45.357392573904384,1.7252330115595884,0.7124722564808312,A,862.4369159997514,Correct
10,2,252,A,33.97830228957813,42.91040382991328,1.6989151144789065,0.6740350471731344,B,933.1282490002195,Incorrect
10,2,253,A,46.38236392354118,60.4779515649006,2.3191181961770586,0.9499854417022553,B,752.1202080006333,Incorrect
10,2,254,B,47.96056873880102,33.20695472588011,2.398028436940051,0.5216136250745691,B,584.7898749998421,Correct
10,2,255,A,36.83897314005482,69.79710799313341,1.8419486570027408,1.0963704085652068,A,772.4319569997533,Correct
10,2,256,B,69.01961002553699,59.93145353037312,3.4509805012768493,0.9414010706498912,B,583.100290999937,Correct
10,2,257,A,21.61612271846277,39.63891638772279,1.0808061359231385,0.6226466425996497,A,642.4894159999894,Correct
10,2,258,A,16.497905362932748,44.01825529722896,0.8248952681466375,0.6914371373280724,A,561.4777910004705,Correct
10,2,259,B,54.46090129888513,37.719045404715686,2.7230450649442566,0.5924893797193732,A,493.44399999972666,Incorrect
10,2,260,A,19.458304961052413,38.66604819904724,0.9729152480526208,0.6073648648273783,A,516.6097910005192,Correct
10,2,261,A,49.87708957845159,64.02311912194303,2.4938544789225796,1.0056728034670022,A,989.6353329995691,Correct
10,2,262,A,60.38765343134199,84.26955076066938,3.019382671567099,1.3237030079551555,A,959.5241659999374,Correct
10,2,263,B,34.74251384790743,20.704997355748688,1.7371256923953717,0.3252333379270809,B,604.3792070004201,Correct
10,2,264,B,65.99292367186948,47.90637491142026,3.2996461835934734,0.7525115774091813,A,598.5334999995757,Incorrect
10,2,265,B,66.26809022774593,36.934536507255,3.3134045113872963,0.5801663427746816,B,579.5897489997515,Correct
10,2,266,B,58.50104182857549,31.60634589357418,2.9250520914287743,0.4964713203303528,B,602.2626659996604,Correct
10,2,267,A,54.62480737941136,82.27259795215312,2.731240368970568,1.2923349465911544,A,599.551123999845,Correct
10,2,268,A,60.66437620838654,82.73041552822446,3.0332188104193274,1.2995263282595044,A,588.6558740003238,Correct
10,2,269,A,39.488675043437034,63.96894034056074,1.9744337521718518,1.004821765159147,A,769.4754159992954,Correct
10,2,270,B,50.50286765044022,23.391934117696835,2.5251433825220113,0.3674396418870641,B,595.8159990004788,Correct
10,2,271,A,44.17819934500222,68.32416785879083,2.208909967250111,1.0732335190390656,A,704.8568319996775,Correct
10,2,272,B,47.99976425121523,38.176255698078414,2.3999882125607614,0.5996712222132432,B,567.7275409998401,Correct
10,2,273,B,64.32144480690626,43.08945672865002,3.2160722403453126,0.676847603529511,B,778.574624000612,Correct
10,2,274,B,65.81367717222919,53.14043069451313,3.2906838586114593,0.8347279333923999,B,910.1776659999814,Correct
10,2,275,A,46.51211466037438,64.27265876700778,2.325605733018719,1.0095925630455762,A,658.8687910007138,Correct
10,2,276,B,66.36465701254834,40.54018047916975,3.3182328506274166,0.6368036658428201,B,758.6559999999736,Correct
10,2,277,B,74.85889661456217,46.50486296671742,3.7429448307281086,0.7304966792621973,B,801.7172080008095,Correct
10,2,278,A,23.802545767297445,42.543423817670586,1.1901272883648724,0.6682705386207547,A,657.1897490002812,Correct
10,2,279,B,70.89357368674564,41.98311351912513,3.544678684337282,0.6594692050325491,B,686.5994159998081,Correct
10,2,280,B,33.87105787291485,10.837626013911471,1.6935528936457422,0.17023703133828957,A,802.2306240000034,Incorrect
10,2,281,B,49.53692720617705,21.589408077443753,2.476846360308852,0.3391256290572472,B,685.9636660001343,Correct
10,2,282,A,46.11553805120738,67.94846010721928,2.305776902560369,1.0673319154778962,A,717.0559570004116,Correct
10,2,283,B,31.851753478321108,11.861232615189511,1.5925876739160554,0.1863158062319951,B,567.801000000145,Correct
10,2,284,A,37.04665990088721,62.05578492536768,1.8523329950443606,0.9747699901714166,A,964.1864160003024,Correct
10,2,285,A,33.04820111879638,41.469954604589546,1.652410055939819,0.6514085236524036,B,577.8187489995616,Incorrect
10,2,286,B,44.65669607432288,29.23744632021139,2.2328348037161443,0.45926073284651014,B,515.2120409993586,Correct
10,2,287,B,62.61721484921478,30.263201488485542,3.130860742460739,0.4753732573516693,B,560.3514579997864,Correct
10,2,288,A,31.930867103657675,53.93922036585997,1.5965433551828838,0.8472752922087332,A,713.8429579999865,Correct
10,2,289,B,53.44667329623058,27.18373528547709,2.6723336648115286,0.42700111534992236,B,566.9996239994362,Correct
10,2,290,B,76.97111638320816,64.8846406063179,3.8485558191604077,1.0192055512981115,A,657.2966250005265,Incorrect
10,2,291,A,60.09908890116931,70.03009437069801,3.0049544450584653,1.100030150025924,B,547.2665409997717,Incorrect
10,2,292,A,41.349170111640746,72.61376700877675,2.0674585055820374,1.1406143849212695,B,722.6865410002574,Incorrect
10,2,293,A,33.4865298108184,42.10731034164968,1.6743264905409203,0.6614200841587609,A,1077.9597079999803,Correct
10,2,294,B,63.428464082129935,51.65048948228085,3.171423204106497,0.8113239915592518,B,1086.117249000381,Correct
10,2,295,A,26.312791118970544,37.63186097330021,1.3156395559485272,0.591119889873162,A,664.5253739998225,Correct
10,2,296,A,52.66100026266375,72.76002440586923,2.6330500131331873,1.1429117907424642,A,596.6311660004067,Correct
10,2,297,B,33.6163950067496,12.084274194251883,1.68081975033748,0.18981933516313212,B,651.6957070007265,Correct
10,2,298,A,18.600517214336595,34.293584487789666,0.9300258607168297,0.5386823654605045,A,627.8370829995765,Correct
10,2,299,A,66.39698607902703,83.52127421013095,3.3198493039513517,1.3119491073850302,A,608.1295829999362,Correct
