subject,day,trial,cat,x,y,xt,yt,resp,rt,fb,resp_key
10,24,0,A,30.886948650542802,57.380834219168754,1.5443474325271402,0.901336036198972,A,1219.5555000000127,Correct,k
10,24,1,B,39.518735402437486,16.093747209400753,1.9759367701218742,0.2527999900089232,B,597.3567919999709,Correct,d
10,24,2,A,26.91500343127688,52.99872554543337,1.345750171563844,0.832502034115776,A,1131.5464580000025,Correct,k
10,24,3,B,43.70880621887983,28.875170337498446,2.1854403109439913,0.45357011501719513,B,653.4929169999941,Correct,d
10,24,4,B,60.46923254986884,51.10821716253756,3.0234616274934423,0.8028059978794988,B,783.2827500000121,Correct,d
10,24,5,B,73.09628843814559,43.4624763140337,3.65481442190728,0.6827069814749432,A,967.0464580000271,Incorrect,k
10,24,6,A,30.592529102568836,39.79857130402763,1.5296264551284418,0.6251544961605138,A,666.2113339999678,Correct,k
10,24,7,A,17.636349662281148,44.66301618074559,0.8818174831140574,0.7015650176029621,A,577.0269999999869,Correct,k
10,24,8,A,16.95811394694222,40.42701880820832,0.847905697347111,0.6350261264720183,A,585.8316670000363,Correct,k
10,24,9,B,72.5615525691663,49.572250803080955,3.6280776284583145,0.7786790947243494,B,554.512834000036,Correct,d
10,24,10,A,21.019236129463437,52.31245896162195,1.0509618064731718,0.8217221838252452,A,528.8843749999614,Correct,k
10,24,11,B,71.24880704684195,54.18158270429186,3.5624403523420973,0.8510823109183556,B,787.5444169999923,Correct,d
10,24,12,B,49.56646437578818,34.67927710352603,2.478323218789409,0.5447408109012106,B,601.0903749999557,Correct,d
10,24,13,A,29.924452209012856,55.78419323618808,1.4962226104506429,0.8762560582862097,B,716.8867080000041,Incorrect,d
10,24,14,B,83.11512147814057,53.21032451469323,4.155756073907028,0.8358258229524456,B,549.4153749999668,Correct,d
10,24,15,A,23.425581876295322,44.167069189871796,1.1712790938147661,0.6937747004874666,A,440.2188340000066,Correct,k
10,24,16,A,39.056759374340146,66.57673991022095,1.9528379687170072,1.0457849850095426,A,490.7556659999841,Correct,k
10,24,17,A,35.58761139264578,53.7766913125361,1.779380569632289,0.8447222918091473,A,411.65704099995537,Correct,k
10,24,18,A,51.060452985756555,69.05123922411366,2.553022649287828,1.084654329338734,A,477.89245799998525,Correct,k
10,24,19,B,60.20492812618216,41.48418307295243,3.010246406309108,0.651632023910807,B,563.8635420000355,Correct,d
10,24,20,B,36.13579155310273,19.485291611790718,1.8067895776551364,0.3060742449032827,B,383.7944580000112,Correct,d
10,24,21,A,22.84740661007603,37.58459304572809,1.1423703305038015,0.590377407003107,A,525.7569999999987,Correct,k
10,24,22,B,67.14904233318727,37.29848920135451,3.3574521166593634,0.5858832983248679,B,420.54987500000607,Correct,d
10,24,23,B,63.30502359923091,31.993920382500267,3.1652511799615457,0.5025593261659979,B,375.1050000000191,Correct,d
10,24,24,A,16.080345391388875,31.11987878524008,0.8040172695694437,0.48882991286157546,A,506.8199170000298,Correct,k
10,24,25,A,55.463059399269795,84.08041273082694,2.77315296996349,1.320732034729818,A,491.5268340000125,Correct,k
10,24,26,A,49.029887356717495,67.34132711698624,2.451494367835875,1.0577950927685553,A,406.26920799996924,Correct,k
10,24,27,A,62.702816611534885,81.0008162947052,3.1351408305767445,1.2723578470311112,A,589.5443339999815,Correct,k
10,24,28,B,63.67609153147866,39.528364567851156,3.1838045765739333,0.6209100986739013,B,676.7316250000022,Correct,d
10,24,29,B,34.66058294151459,11.785065364853274,1.7330291470757293,0.18511937386149283,B,556.4053340000328,Correct,d
10,24,30,A,30.447694166306448,49.59350972850188,1.5223847083153226,0.7790130291439772,A,463.66475000002083,Correct,k
10,24,31,A,34.61160471973916,49.74621585203678,1.730580235986958,0.7814117313232541,A,810.8028749999789,Correct,k
10,24,32,B,52.69631619863746,33.4432935297377,2.6348158099318733,0.5253260263243551,B,506.46308299997145,Correct,d
10,24,33,B,47.735120247780735,17.58731962034524,2.386756012389037,0.2762609705780612,B,432.2956670000053,Correct,d
10,24,34,A,33.06472578984812,64.52939863593289,1.653236289492406,1.01362542347607,A,483.46370799998795,Correct,k
10,24,35,B,46.37708175747227,21.97514652206651,2.3188540878736132,0.34518479437641725,B,460.18845800000463,Correct,d
10,24,36,B,81.8003105056928,59.278398964623655,4.09001552528464,0.9311429135191323,B,716.1958340000183,Correct,d
10,24,37,B,59.31123556908087,46.02851134393317,2.9655617784540436,0.7230141654688746,B,335.2246250000235,Correct,d
10,24,38,A,30.84043729691678,49.32041528620932,1.542021864845839,0.7747232716757648,A,516.8137500000398,Correct,k
10,24,39,B,53.18600240682166,36.75494433366721,2.659300120341083,0.5773453155087535,B,444.22837499996604,Correct,d
10,24,40,A,22.883235054480178,34.3646407939068,1.1441617527240089,0.5397985153069486,A,500.42816600000606,Correct,k
10,24,41,A,21.6913738082538,36.631767301178144,1.08456869041269,0.5754104552069603,A,488.93254199998637,Correct,k
10,24,42,A,28.025070755537133,37.26185817058348,1.4012535377768567,0.5853078994390495,B,521.1232089999953,Incorrect,d
10,24,43,A,20.24828667360341,51.225560281328086,1.0124143336801705,0.8046492192792071,A,544.0075829999955,Correct,k
10,24,44,B,81.2179685958222,67.21772936331828,4.06089842979111,1.0558536237939384,B,581.6996249999988,Correct,d
10,24,45,B,85.90478552707532,61.11977069614467,4.295239276353766,0.9600671130405041,B,551.7887500000143,Correct,d
10,24,46,A,15.950833967363515,43.70095711599704,0.7975416983681757,0.6864530291522944,A,564.0661249999539,Correct,k
10,24,47,A,33.69572936767549,46.34812093192379,1.6847864683837743,0.7280345811371155,A,570.0087920000101,Correct,k
10,24,48,B,82.63666461747648,55.704406643420185,4.131833230873824,0.8750027734177367,B,601.9929999999931,Correct,d
10,24,49,A,51.357076323282286,70.75247346026578,2.5678538161641145,1.111377254230389,A,598.471791999998,Correct,k
10,24,50,A,34.112009891052736,57.857066547106996,1.7056004945526368,0.9088166761132355,A,870.8585409999614,Correct,k
10,24,51,A,27.097177715880285,42.53946689003112,1.3548588857940143,0.6682083833467402,A,756.2689999999748,Correct,k
10,24,52,A,59.73294940690319,73.44133032486549,2.9866474703451593,1.1536137190922935,A,760.7653750000054,Correct,k
10,24,53,A,34.85105321847902,66.31873195475093,1.742552660923951,1.041732205522181,A,524.0564170000539,Correct,k
10,24,54,B,78.48011435461102,57.88438659253012,3.924005717730551,0.9092458183832207,B,548.27179199998,Correct,d
10,24,55,B,55.35591454895952,46.327089086157095,2.7677957274479756,0.7277042136763552,B,496.0071670000161,Correct,d
10,24,56,A,49.41570428886226,73.9532003783155,2.470785214443113,1.1616541550898494,A,452.11708300001874,Correct,k
10,24,57,A,28.90593227969177,48.37666349786251,1.4452966139845884,0.7598988532503518,B,495.5387080000264,Incorrect,d
10,24,58,A,30.993274478438522,56.13529295289522,1.5496637239219262,0.8817711197396325,A,435.7542499999454,Correct,k
10,24,59,A,26.22035255761341,47.284831753793085,1.3110176278806704,0.7427484003197288,A,781.3217500000178,Correct,k
10,24,60,A,22.893631783379433,45.903067991381405,1.1446815891689717,0.721043705894783,A,738.9043750000042,Correct,k
10,24,61,A,44.252572710963484,55.81790236547375,2.212628635548174,0.8767855600508233,B,569.705416999966,Incorrect,d
10,24,62,A,27.835246947256845,53.600618365101454,1.3917623473628422,0.8419565444183643,A,484.21474999997827,Correct,k
10,24,63,A,46.35087671694082,56.16951537405423,2.317543835847041,0.8823086842741387,A,882.2350420000475,Correct,k
10,24,64,B,73.01254484916294,50.78284533650016,3.650627242458147,0.7976950691876781,B,503.4458339999901,Correct,d
10,24,65,A,67.0064036714154,84.3077256560696,3.35032018357077,1.3243026578098598,B,662.7540410000847,Incorrect,d
10,24,66,B,63.3878955776412,40.99712875338713,3.16939477888206,0.6439813925495794,B,784.5908329999247,Correct,d
10,24,67,B,66.79798253357946,49.63189239996487,3.3398991266789726,0.7796159427374435,B,502.75483300004,Correct,d
10,24,68,A,44.5917394344267,59.92638044224284,2.229586971721335,0.9413213827678859,A,857.2377909999886,Correct,k
10,24,69,A,54.14458306897917,68.1224667005627,2.7072291534489583,1.0700652046545154,A,626.4116659999672,Correct,k
10,24,70,B,85.55293218885265,59.395847088998394,4.277646609442632,0.9329877843427002,B,519.4912079999767,Correct,d
10,24,71,B,66.0802581759795,56.180773620418634,3.304012908798975,0.8824855283944922,B,540.1477500000738,Correct,d
10,24,72,A,14.375680643700058,39.84254301666441,0.718784032185003,0.6258452022074411,A,492.96529200000805,Correct,k
10,24,73,A,17.64321229262587,33.808634870621034,0.8821606146312934,0.5310647946872138,A,603.3381670000608,Correct,k
10,24,74,B,82.70565672271991,66.93290395939137,4.135282836135996,1.0513795968112756,B,579.8766670000077,Correct,d
10,24,75,B,86.79574054341197,59.97419541027062,4.3397870271705985,0.9420724585293243,B,476.49712500003716,Correct,d
10,24,76,A,34.88160474507261,48.04312463732477,1.7440802372536302,0.7546596370805915,A,537.8005840000242,Correct,k
10,24,77,A,31.2799353988457,42.78300887508291,1.5639967699422852,0.6720339319021369,A,663.7694170000259,Correct,k
10,24,78,B,56.11351593163425,36.166004437162584,2.805675796581712,0.5680942692474292,B,1151.7515829999638,Correct,d
10,24,79,B,66.76267971317361,51.43385260666278,3.3381339856586805,0.80792106747456,B,1089.5237080000015,Correct,d
10,24,80,A,66.78135277785478,80.92943903154531,3.3390676388927387,1.271236655603229,A,839.5605419999583,Correct,k
10,24,81,A,42.04725685979307,59.25254321034095,2.1023628429896535,0.9307367722805945,A,848.2887079999273,Correct,k
10,24,82,B,49.81966391226239,39.708309211881925,2.49098319561312,0.6237366625326008,B,585.8574159999534,Correct,d
10,24,83,B,56.76590566376132,35.501878667917396,2.8382952831880663,0.5576622060588274,B,611.6405419999182,Correct,d
10,24,84,B,43.491166071026306,20.23199304248746,2.1745583035513154,0.31780340354879205,B,494.6308340000769,Correct,d
10,24,85,A,11.815278505626413,38.13345846726605,0.5907639252813206,0.5989989648836727,A,543.2722499999727,Correct,k
10,24,86,A,27.88369560015314,60.016323166442945,1.394184780007657,0.9427341997758404,A,542.0436669999162,Correct,k
10,24,87,A,56.0496907702001,70.42279199846391,2.802484538510005,1.1061986299382813,B,1014.287749999994,Incorrect,d
10,24,88,B,51.11848462129533,42.39840173974307,2.5559242310647665,0.6659925371476276,B,976.6886250000653,Correct,d
10,24,89,B,51.718531803211725,30.8979076117282,2.5859265901605863,0.48534319782150726,B,540.9567919999745,Correct,d
10,24,90,A,29.97977491955084,50.91836578540332,1.498988745977542,0.7998238194211047,B,529.0400829999271,Incorrect,d
10,24,91,A,48.735222901782834,71.62803249300364,2.4367611450891418,1.125130503355556,A,621.0211249999702,Correct,k
10,24,92,B,50.596676309075534,35.90487385001422,2.5298338154537765,0.5639924395763648,B,501.219874999947,Correct,d
10,24,93,A,47.54632574000031,60.93832562350119,2.3773162870000157,0.9572169805042698,A,661.4848750000419,Correct,k
10,24,94,B,39.45412589287473,14.353764187170775,1.9727062946437366,0.22546840060887985,B,443.35750000004737,Correct,d
10,24,95,B,74.6273718797515,62.869538152121486,3.7313685939875745,0.9875523959664404,A,838.7472919999936,Incorrect,k
10,24,96,A,21.22966512830702,48.63927597026229,1.061483256415351,0.7640239603205128,A,651.99941700007,Correct,k
10,24,97,B,42.63580469080692,26.169544376869432,2.1317902345403463,0.41107024181082547,B,471.11595799992756,Correct,d
10,24,98,A,50.5009182339686,61.98131901930381,2.52504591169843,0.9736002824542508,B,1192.738540999926,Incorrect,d
10,24,99,B,78.74669187244136,48.22569884381798,3.9373345936220683,0.7575275060098617,B,609.7820410000168,Correct,d
10,24,100,A,19.45362913304463,43.2276418437108,0.9726814566522315,0.6790182102410629,A,516.6486250000162,Correct,k
10,24,101,B,59.06354973553756,40.040846889784405,2.953177486776878,0.628960152162302,B,536.1222919999591,Correct,d
10,24,102,A,29.962306659975724,42.683254015638376,1.4981153329987862,0.6704669862341829,B,988.1359159999192,Incorrect,d
10,24,103,B,79.52785011679788,57.717389408537855,3.976392505839894,0.9066226327512195,B,786.8995830000358,Correct,d
10,24,104,B,69.87821640437419,54.639392680137576,3.4939108202187095,0.8582735732026405,B,902.1657079999841,Correct,d
10,24,105,B,70.62197367605079,47.574919302380394,3.5310986838025396,0.7473050848774275,B,671.9619159999866,Correct,d
10,24,106,A,46.91802743706093,78.81846810494051,2.345901371853046,1.2380776018284125,A,682.3449160000337,Correct,k
10,24,107,A,23.230223182502378,43.927426690518246,1.161511159125119,0.6900104049101815,A,744.5694169999797,Correct,k
10,24,108,A,63.19026449119143,78.27956970296512,3.1595132245595714,1.2296126055250267,A,732.3672919999353,Correct,k
10,24,109,A,28.60875595500401,39.64770208639672,1.4304377977502005,0.6227846480317033,A,1131.2763330000735,Correct,k
10,24,110,B,38.76394898179045,28.978020747484713,1.9381974490895226,0.4551856854793529,B,619.0226249999569,Correct,d
10,24,111,B,41.58227333972383,25.601311602892387,2.079113666986191,0.4021444622695493,B,599.1612920000762,Correct,d
10,24,112,A,42.460486124354475,58.15518596533307,2.1230243062177236,0.9134995249841931,A,559.4355419999602,Correct,k
10,24,113,A,19.506271747273928,44.10680892024246,0.9753135873636964,0.6928281343856123,A,526.1906670000371,Correct,k
10,24,114,B,76.10756112142516,52.67255881992884,3.8053780560712585,0.8273786191723236,B,487.69766600003095,Correct,d
10,24,115,A,52.22093779104173,61.584970813534625,2.6110468895520866,0.967374459396711,B,558.5476659999813,Incorrect,d
10,24,116,B,46.15122295446389,22.19063407856169,2.3075611477231943,0.3485696649985436,B,578.7749999999505,Correct,d
10,24,117,B,42.3752149393643,19.44751714434512,2.118760746968215,0.30548088495618086,B,525.8555000000342,Correct,d
10,24,118,B,47.97575939215945,27.339575591466634,2.3987879696079726,0.429449049152072,B,472.9618329999994,Correct,d
10,24,119,B,41.97196657551535,18.48839338859796,2.0985983287757675,0.29041500423148725,B,626.0166669999307,Correct,d
10,24,120,B,75.97499612025486,50.63083070495742,3.7987498060127427,0.7953072289392138,B,1180.0914169999714,Correct,d
10,24,121,B,62.32416443073723,37.881071089572785,3.1162082215368616,0.5950344732255728,B,684.285333000048,Correct,d
10,24,122,A,55.290813792525014,65.38566931118179,2.7645406896262505,1.0270756917903012,A,637.4468750000233,Correct,k
10,24,123,B,70.6632394463751,50.139478438215534,3.533161972318755,0.7875890855816088,B,806.5732080000316,Correct,d
10,24,124,A,39.71304175003983,62.9613623259668,1.9856520875019914,0.9889947667163125,A,707.7159169999732,Correct,k
10,24,125,B,46.694028057740915,22.475078402312413,2.334701402887046,0.3530377059877965,B,556.0435419999976,Correct,d
10,24,126,B,55.317894483743295,44.72555909644964,2.7658947241871648,0.7025474394255118,B,884.7771250000278,Correct,d
10,24,127,B,89.17705318186361,66.75986898773678,4.45885265909318,1.0486615698324546,A,932.822500000043,Incorrect,k
10,24,128,B,79.59338127744851,64.84600384460367,3.979669063872426,1.018598646464312,B,516.4059589999397,Correct,d
10,24,129,A,60.41104829735613,69.7415266192873,3.0205524148678067,1.09549733838645,A,592.2004999999899,Correct,k
10,24,130,B,42.76251032055892,28.11622467686519,2.138125516027946,0.4416486244575986,B,1259.3100420000383,Correct,d
10,24,131,B,84.84125850426166,56.54408496958336,4.242062925213083,0.8881924097220006,B,928.0393750000258,Correct,d
10,24,132,A,62.1057812511977,81.98516390485437,3.105289062559885,1.2878199431342279,A,549.2511669999658,Correct,k
10,24,133,A,33.849518726699856,64.13268384340634,1.6924759363349926,1.0073938420872108,A,1190.1184170000079,Correct,k
10,24,134,B,82.736295795633,62.29848145265119,4.13681478978165,0.9785822583072448,B,515.0667499999599,Correct,d
10,24,135,B,75.25793890852262,47.812914948488185,3.762896945426131,0.7510435117444204,B,473.5654999999497,Correct,d
10,24,136,B,33.097389476959464,17.662827038481545,1.654869473847973,0.2774470383286039,B,515.4887080000208,Correct,d
10,24,137,A,34.26220196343921,63.076865865301365,1.7131100981719607,0.9908090920694977,A,620.6208329999754,Correct,k
10,24,138,A,28.43025400501545,48.99918067685922,1.4215127002507726,0.7696773302316994,A,505.4662909999479,Correct,k
10,24,139,B,61.36675348204225,47.69366816156654,3.0683376741021124,0.7491703875956344,B,548.7400410000873,Correct,d
10,24,140,B,42.305358321159844,19.349040864397523,2.1152679160579924,0.3039340231679998,B,567.9671249999956,Correct,d
10,24,141,B,62.871998549058404,51.539166089113145,3.14359992745292,0.8095753277885103,A,560.7222909999336,Incorrect,k
10,24,142,A,43.70058958244123,64.32795391879459,2.1850294791220617,1.010461137258739,A,506.82354200000646,Correct,k
10,24,143,A,62.10126006435402,83.84751368502953,3.1050630032177016,1.3170736650732917,A,554.959083999961,Correct,k
10,24,144,B,37.996182364285836,28.939070165333785,1.8998091182142918,0.45457385116566085,B,854.5635419999371,Correct,d
10,24,145,B,37.75671075938427,13.412577526087045,1.8878355379692136,0.2106842751082931,B,551.3524579999967,Correct,d
10,24,146,A,68.79404285750687,83.63115464043494,3.439702142875343,1.313675105148112,A,493.4479169999122,Correct,k
10,24,147,A,66.65542706962194,85.48692803454254,3.332771353481097,1.342825525456391,A,545.5507500000749,Correct,k
10,24,148,A,42.412989874179395,57.345633109552104,2.12064949370897,0.9007830984621226,A,486.65054100001726,Correct,k
10,24,149,B,33.273363736178695,20.603371568933742,1.6636681868089347,0.32363700380071525,B,568.3680000000777,Correct,d
10,24,150,B,48.07449680601843,26.42050947868467,2.4037248403009217,0.4150123924116763,B,397.1627079999962,Correct,d
10,24,151,A,43.31424266374936,51.47556063999285,2.165712133187468,0.8085762157300871,B,436.63358300000255,Incorrect,d
10,24,152,B,42.74611072814069,15.508857972638221,2.137305536407035,0.24361257136203868,B,473.9509999999427,Correct,d
10,24,153,B,48.15617511123742,34.56120672720776,2.407808755561871,0.5428861657669701,B,523.6429999999928,Correct,d
10,24,154,A,32.690721637896075,64.2955984892811,1.6345360818948038,1.0099528993604225,A,684.6678750000592,Correct,k
10,24,155,B,67.8205985581586,42.971958731215274,3.39102992790793,0.6750019493017483,B,634.9089580000964,Correct,d
10,24,156,B,53.9624612738066,31.927781477427395,2.69812306369033,0.5015204186745309,B,672.0905839999887,Correct,d
10,24,157,A,34.30406249135429,61.75231660718262,1.7152031245677142,0.9700031209763794,A,441.9727499999908,Correct,k
10,24,158,A,53.44046270990401,75.88616780854782,2.6720231354952007,1.1920171364820806,A,491.01695800004563,Correct,k
10,24,159,B,35.96304682889713,12.835274335997756,1.7981523414448564,0.20161601780390082,B,703.8917500000252,Correct,d
10,24,160,B,81.3470551614327,60.69148489360972,4.067352758071635,0.9533396153861009,B,664.2533749999302,Correct,d
10,24,161,A,30.316274213572402,55.34692656963087,1.5158137106786203,0.8693874895496303,A,858.1914169999436,Correct,k
10,24,162,A,40.27098950384065,70.23889839705186,2.0135494751920326,1.10331003600209,A,731.7339160000529,Correct,k
10,24,163,A,24.00718032430072,43.39891959923444,1.200359016215036,0.6817086349334449,A,922.5824589999547,Correct,k
10,24,164,A,53.04295147661494,64.39117146504536,2.652147573830747,1.0114541561531363,A,935.1922090000926,Correct,k
10,24,165,A,35.7644350254785,44.338947706603136,1.788221751273925,0.696474561914832,A,614.9560000000065,Correct,k
10,24,166,B,38.41105526256324,23.567533087302785,1.920552763128162,0.37019794405152395,B,425.77783299998373,Correct,d
10,24,167,B,59.60297013977824,30.029563136010793,2.9801485069889124,0.4717032746930118,B,485.23404099989875,Correct,d
10,24,168,B,84.09462021077465,63.63221224814443,4.204731010538733,0.9995324526521849,B,704.5735410000589,Correct,d
10,24,169,B,44.89352395872785,33.508751586673434,2.2446761979363923,0.5263542390782928,B,501.08033399999385,Correct,d
10,24,170,A,17.807170769541695,44.83800495918831,0.8903585384770848,0.7043137349070436,A,518.033833000004,Correct,k
10,24,171,B,63.26255888662432,38.20816757099053,3.163127944331216,0.6001724927407582,B,588.0359160000808,Correct,d
10,24,172,B,69.75958471453939,38.52014811109963,3.4879792357269697,0.6050730716051067,B,494.4272920000685,Correct,d
10,24,173,A,30.637744028316085,40.4825407723509,1.5318872014158043,0.6358982634453342,A,546.4518329999919,Correct,k
10,24,174,A,20.83157796459609,48.727260436594186,1.0415788982298044,0.7654060170858044,A,506.1364590000039,Correct,k
10,24,175,B,58.21686751786156,43.68190419682755,2.910843375893078,0.686153746597833,B,510.45058299996526,Correct,d
10,24,176,B,58.54047913034739,46.90968933945088,2.92702395651737,0.7368556770549916,B,555.156291000003,Correct,d
10,24,177,B,75.331502876141,51.16185952350767,3.7665751438070503,0.8036486101152235,B,565.7987910000202,Correct,d
10,24,178,A,50.08559231198587,65.73868157372215,2.5042796155992932,1.032620795443421,A,490.9189999999626,Correct,k
10,24,179,B,54.02186365985863,43.36311662649031,2.701093182992931,0.6811462431526969,B,479.22808300006636,Correct,d
10,24,180,B,47.6988284549996,20.907583518940267,2.3849414227499803,0.3284155539370889,B,456.81037499991817,Correct,d
10,24,181,A,27.421461641849078,58.4386496547345,1.371073082092454,0.9179521622051079,A,568.9685419999932,Correct,k
10,24,182,B,84.34058161703152,67.82876587753219,4.217029080851575,1.0654517629145857,B,627.1187919999193,Correct,d
10,24,183,A,27.23378692203872,50.04689032348305,1.3616893461019361,0.7861347148763422,A,513.6919590000844,Correct,k
10,24,184,A,28.570659362577594,58.643754210011494,1.4285329681288799,0.921173937025488,A,501.27999999995154,Correct,k
10,24,185,B,60.994490830620805,49.58341179517263,3.0497245415310403,0.7788544111781591,B,532.2150839999722,Correct,d
10,24,186,A,10.737953146201729,31.01689057067574,0.5368976573100865,0.4872121777701672,A,479.89224999992075,Correct,k
10,24,187,A,12.179206343485923,35.37623546901605,0.6089603171742961,0.5556886073056174,A,556.6265000001067,Correct,k
10,24,188,B,46.70271106821597,38.546777378540234,2.3351355534107983,0.605491363159916,B,515.131915999973,Correct,d
10,24,189,A,11.673250650348272,31.23162800484435,0.5836625325174136,0.49058526549834125,A,593.4406249999711,Correct,k
10,24,190,A,57.066018291033316,81.52940525130782,2.8533009145516655,1.2806609029452687,A,1129.5431670000653,Correct,k
10,24,191,A,37.65207678147316,52.608178476469654,1.8826038390736581,0.8263673351020887,B,644.0377500000523,Incorrect,d
10,24,192,A,63.254104873397246,73.63498578919311,3.1627052436698624,1.1566556520125895,B,991.2624579999374,Incorrect,d
10,24,193,B,62.454539598487806,51.8947274521168,3.12272697992439,0.8151604726180735,A,711.1205830000245,Incorrect,k
10,24,194,B,75.24133069499035,57.20401003831898,3.7620665347495175,0.8985584884612984,B,423.63816700003554,Correct,d
10,24,195,A,64.54357521799601,85.28552226966816,3.2271787608998004,1.339661851099791,A,495.1358749999599,Correct,k
10,24,196,B,70.7633090855617,41.79036921997009,3.5381654542780847,0.6564415846613152,B,504.8303749999832,Correct,d
10,24,197,B,65.54369294186472,49.892069424015375,3.277184647093236,0.7837027938743932,B,742.5964999999906,Correct,d
10,24,198,B,38.200011042379714,18.00410619207424,1.9100005521189858,0.28280783873735466,B,657.474208999929,Correct,d
10,24,199,B,81.2355561520573,64.06737791803202,4.061777807602865,1.0063680190102517,B,824.3279580000262,Correct,d
10,24,200,A,60.464921699656266,71.6205524334035,3.0232460849828136,1.125013006854115,A,520.2354589999914,Correct,k
10,24,201,A,31.682905296422877,40.79652351281602,1.5841452648211438,0.6408302927993303,B,578.3398329999727,Incorrect,d
10,24,202,A,62.346084447427444,76.46142861472896,3.117304222371372,1.2010533120950646,A,581.0887079999247,Correct,k
10,24,203,B,73.10125074807534,59.151937980101096,3.6550625374037673,0.9291564690194234,B,526.2101250000342,Correct,d
10,24,204,B,68.50897308277268,40.777227180938524,3.425448654138634,0.6405271867269925,B,522.775667000019,Correct,d
10,24,205,A,51.78181364587901,71.57947413807092,2.589090682293951,1.124367750499921,A,658.6320829999295,Correct,k
10,24,206,B,39.016565977119406,23.305446645972307,1.9508282988559702,0.3660810998580774,B,518.2235839999976,Correct,d
10,24,207,A,48.812270232604504,75.3603032216813,2.440613511630225,1.1837568748676661,A,676.904415999843,Correct,k
10,24,208,B,64.92952686303695,32.7851441760403,3.2464763431518473,0.5149878404516519,B,601.7315420001523,Correct,d
10,24,209,B,88.65410463980105,67.53841621460495,4.432705231990052,1.0608909610744635,B,616.9957500001146,Correct,d
10,24,210,A,52.00012873074139,79.3431503022225,2.6000064365370696,1.2463192905106648,A,623.0713750001087,Correct,k
10,24,211,B,61.56798898253244,34.11946569175899,3.078399449126622,0.5359473138081952,B,514.4227920000048,Correct,d
10,24,212,A,31.66075927754302,45.298849357524034,1.583037963877151,0.711552661788341,A,630.2951669999857,Correct,k
10,24,213,A,52.753619543966245,65.66255402590825,2.6376809771983125,1.031424986718681,B,715.2940419998686,Incorrect,d
10,24,214,A,56.541976220415634,64.92466068274324,2.8270988110207815,1.0198341851885813,A,632.957167000086,Correct,k
10,24,215,B,46.404595461321996,36.80020361528945,2.3202297730661,0.5780562466420094,B,738.3261669999683,Correct,d
10,24,216,B,55.85323767499642,35.62379857956399,2.792661883749821,0.5595773195526037,B,504.16833300005237,Correct,d
10,24,217,A,29.93449902031759,52.15638204744257,1.4967249510158793,0.8192705333903407,A,468.47974999991493,Correct,k
10,24,218,B,47.49403122723582,33.925904043444305,2.3747015613617912,0.5329068545463844,B,535.1787910001349,Correct,d
10,24,219,A,44.98852603615445,76.85566216804826,2.249426301807722,1.207245918269597,A,521.4222499998868,Correct,k
10,24,220,A,54.02635832205432,75.18935517629113,2.701317916102716,1.1810716292499495,A,497.6824170000782,Correct,k
10,24,221,A,46.301993371375275,66.09538261696461,2.3150996685687635,1.0382238423283128,A,642.4513330000536,Correct,k
10,24,222,B,37.590193664004715,16.361880740659537,1.8795096832002358,0.2570118216688417,B,400.0913329998639,Correct,d
10,24,223,B,53.87121007830281,36.49796851736674,2.6935605039151405,0.5733087488255546,B,513.3049160001519,Correct,d
10,24,224,B,40.511302921424786,18.764161937386284,2.025565146071239,0.2947467664663099,B,543.6784999999418,Correct,d
10,24,225,A,33.782861246648,44.61948207093852,1.6891430623323997,0.7008811854052096,B,883.0778330000157,Incorrect,d
10,24,226,A,20.63155437231987,36.217822057200095,1.0315777186159933,0.5689082185196109,A,507.07629099997575,Correct,k
10,24,227,B,77.31581550079136,55.58885132964919,3.865790775039568,0.8731876347936054,B,584.4612500000039,Correct,d
10,24,228,A,37.88966606166122,52.19279634687132,1.8944833030830608,0.8198425278681957,A,522.2979169998325,Correct,k
10,24,229,B,33.07092699379879,11.055984463370415,1.6535463496899396,0.17366699784163694,B,518.5402079998767,Correct,d
10,24,230,A,44.9281744332216,56.64517371762263,2.24640872166108,0.8897803080630045,A,775.6884579998768,Correct,k
10,24,231,B,69.74959461896215,54.302515211362405,3.4874797309481074,0.8529819142973205,B,729.4767079999929,Correct,d
10,24,232,A,26.32406122557646,46.42312139418239,1.3162030612788231,0.7292126856433528,A,559.5423329998539,Correct,k
10,24,233,A,62.42985169894925,85.90035684942617,3.121492584947463,1.3493196500944946,A,551.6009580001082,Correct,k
10,24,234,B,37.23818069205848,23.154946994287087,1.861909034602924,0.3637170568575669,B,430.7484580001528,Correct,d
10,24,235,B,73.53944923659641,60.162594223695464,3.6769724618298203,0.945031820170327,A,525.8917080000174,Incorrect,k
10,24,236,A,66.63326024947304,89.59703389105691,3.331663012473652,1.4073869172779006,A,641.1207909998211,Correct,k
10,24,237,A,36.4658413346268,54.13345123054903,1.8232920667313401,0.8503262634967707,A,538.4651249999024,Correct,k
10,24,238,B,34.38287825725664,21.317927451163573,1.719143912862832,0.33486122135167834,B,401.31737499996234,Correct,d
10,24,239,A,31.152558023849267,45.95315706074773,1.5576279011924634,0.721830503156515,A,619.1224169999714,Correct,k
10,24,240,A,45.191751126772274,72.94362581010576,2.2595875563386136,1.1457957948561555,A,699.3994160000057,Correct,k
10,24,241,A,25.24630054098585,44.85491050998825,1.2623150270492927,0.7045792866780335,A,496.67075000002114,Correct,k
10,24,242,B,69.29873893202075,55.90312054607967,3.4649369466010373,0.8781241641015427,A,495.5529999999726,Incorrect,k
10,24,243,B,57.03074865888675,29.156118595663195,2.8515374329443377,0.4579832399366412,B,367.31483399989884,Correct,d
10,24,244,B,37.313281784162065,17.37277029647765,1.8656640892081031,0.2728908376795858,B,475.82995800007666,Correct,d
10,24,245,B,48.45853145733696,28.45102123651508,2.422926572866848,0.4469075965188148,B,448.3704579999994,Correct,d
10,24,246,B,36.76249037725414,24.333640636000226,1.8381245188627071,0.3822319332857618,B,393.7584999998762,Correct,d
10,24,247,B,65.56219988889444,45.290514092539865,3.278109994444722,0.7114217317521413,B,473.85958400013806,Correct,d
10,24,248,B,49.06459518158758,31.82795367341371,2.453229759079379,0.4999523271959639,B,471.96470900007625,Correct,d
10,24,249,B,48.893505344870476,38.890805670190346,2.444675267243524,0.6108953469282913,B,685.4422499998236,Correct,d
10,24,250,B,65.31821709578972,33.69226285621835,3.2659108547894857,0.5292368273595591,B,505.9397079999144,Correct,d
10,24,251,B,57.63232702653841,29.04821452613997,2.8816163513269206,0.45628828677610817,B,563.2995410001058,Correct,d
10,24,252,A,59.90558136655403,82.13364788276874,2.9952790683277017,1.2901523240051858,A,608.8675830001193,Correct,k
10,24,253,A,47.4878200742981,74.69733046142362,2.374391003714905,1.1733429231018875,A,476.5283750000435,Correct,k
10,24,254,A,17.58526329797946,42.83362785323412,0.8792631648989729,0.6728290529515972,A,520.7707499998833,Correct,k
10,24,255,B,71.68478708380418,51.797703397505714,3.584239354190209,0.8136364223321351,B,597.7129580001019,Correct,d
10,24,256,B,68.47607743231052,51.03778532158108,3.4238038716155255,0.8016996571088606,B,574.1322079998099,Correct,d
10,24,257,A,22.122904109372726,44.67626164053924,1.1061452054686363,0.7017730767988677,A,568.746874999988,Correct,k
10,24,258,B,60.3650904501734,46.64136318631588,3.01825452250867,0.732640819697717,B,625.2549999999246,Correct,d
10,24,259,B,44.764749872351,37.432033941930484,2.2382374936175498,0.5879810142044629,B,564.2262910000682,Correct,d
10,24,260,A,56.702818165178755,83.27513065563238,2.835140908258938,1.3080826934723244,A,477.50870800018674,Correct,k
10,24,261,A,23.914824821466357,43.45539988740941,1.195741241073318,0.6825958252254607,B,441.0326669999449,Incorrect,d
10,24,262,A,10.82604392660756,36.00995812910881,0.541302196330378,0.5656430995724214,A,561.4784589999999,Correct,k
10,24,263,B,75.33377945864711,47.099068336403334,3.7666889729323554,0.7398304353828418,B,389.32100000010905,Correct,d
10,24,264,B,68.79324468459474,41.382645784234235,3.439662234229737,0.6500370799092945,B,416.91258300011214,Correct,d
10,24,265,B,55.31962350409403,30.743210900039262,2.765981175204702,0.48291322755662497,B,356.5299159999995,Correct,d
10,24,266,B,43.23931200625019,23.456968090986255,2.1619656003125094,0.36846119315066306,B,430.50575000006575,Correct,d
10,24,267,B,44.120978370960636,17.868536340924464,2.206048918548032,0.2806783124952527,B,356.54991699993843,Correct,d
10,24,268,A,33.5609227569152,44.516596276386366,1.6780461378457598,0.6992650591235907,B,512.0687920000364,Incorrect,d
10,24,269,B,67.42273212025738,46.741104353208264,3.3711366060128687,0.7342075502835649,B,532.384833000151,Correct,d
10,24,270,A,49.43346976752882,64.64297006739294,2.471673488376441,1.0154093993497326,A,622.9914999998982,Correct,k
10,24,271,A,11.692649292616672,36.736939704860646,0.5846324646308336,0.5770624994608069,A,565.7337080001525,Correct,k
10,24,272,A,24.7485061845644,41.13859570049799,1.23742530922822,0.6462035501584257,A,581.9394590000684,Correct,k
10,24,273,B,84.10556558164855,61.6937721652483,4.205278279082427,0.9690835070329327,B,617.7370830000655,Correct,d
10,24,274,B,32.485881044455525,11.132375261699636,1.6242940522227765,0.1748669416958016,B,611.1249170000974,Correct,d
10,24,275,A,22.692078444210384,47.87547628565255,1.134603922210519,0.752026222930592,A,458.63199999985227,Correct,k
10,24,276,B,80.93337603908189,67.83642298188954,4.046668801954095,1.06557204042857,B,654.7038749999956,Correct,d
10,24,277,B,57.82757320903106,50.66591400734545,2.891378660451553,0.7958583161644432,B,627.1586670000033,Correct,d
10,24,278,B,71.60778165278496,47.8131630152968,3.5803890826392486,0.7510474083687382,B,648.2834579999235,Correct,d
10,24,279,A,22.333613867461217,49.152745047466354,1.1166806933730609,0.7720895137244619,A,551.4705830000821,Correct,k
10,24,280,B,52.04681881866135,45.12147814926297,2.6023409409330673,0.7087665213641846,B,598.5583340000176,Correct,d
10,24,281,B,60.70557405050685,51.23673342563872,3.0352787025253423,0.8048247266196259,B,536.2259169999106,Correct,d
10,24,282,A,26.704271876189022,42.49804656044478,1.3352135938094511,0.6675577543310515,B,972.5717500000428,Incorrect,d
10,24,283,B,87.41616434882214,59.865679018468235,4.370808217441106,0.9403678870329222,B,2391.052875000014,Correct,d
10,24,284,A,35.22743437314985,67.80481653211378,1.7613717186574922,1.065075567476462,A,762.7855000000636,Correct,k
10,24,285,A,60.03925816999262,81.41588394890417,3.0019629084996313,1.2788777144969823,B,656.3822079999682,Incorrect,d
10,24,286,B,79.36101727857051,64.3208116278812,3.9680508639285255,1.0103489464154225,B,1203.3119590000751,Correct,d
10,24,287,B,75.56174889359578,56.10112310041147,3.778087444679789,0.8812343809519465,B,590.2022919999581,Correct,d
10,24,288,A,37.30726899403205,64.65028428498488,1.8653634497016025,1.015524290811001,A,725.0940000001265,Correct,k
10,24,289,B,83.61660555526637,65.25888801135655,4.180830277763318,1.0250842157895839,A,535.1442500000303,Incorrect,k
10,24,290,A,31.06900138882401,51.8347030879093,1.5534500694412006,0.81421761210992,A,831.1785840000994,Correct,k
10,24,291,A,50.51535869282753,62.12900310477543,2.525767934641377,0.9759200986440997,A,471.6855830001805,Correct,k
10,24,292,B,39.68743010225241,20.45879090691652,1.9843715051126203,0.321365936072493,B,463.90520900013144,Correct,d
10,24,293,A,60.10120941758785,75.44060035290272,3.005060470879392,1.1850181792554138,A,573.183292000067,Correct,k
10,24,294,B,47.16913523831538,24.554486762445457,2.358456761915769,0.3857009761278324,B,773.8908329999958,Correct,d
10,24,295,B,46.82336946842931,16.93545573642012,2.3411684734214657,0.26602151663366286,B,569.5338749999337,Correct,d
10,24,296,A,26.701970309306432,57.29041160442206,1.3350985154653217,0.8999156810879391,A,507.9260830000294,Correct,k
10,24,297,B,60.18267480643247,47.628253830478144,3.009133740321624,0.7481428616857003,B,1086.2615000000915,Correct,d
10,24,298,B,53.87490865443288,46.96382009888424,2.6937454327216437,0.737705961035837,A,978.7157920000027,Incorrect,k
10,24,299,A,24.568584126944202,49.771107804477595,1.2284292063472102,0.7818027331978622,A,591.0380410000471,Correct,k
10,24,300,B,48.98881627975476,39.434298191796394,2.4494408139877377,0.6194325074940841,B,550.0012919999335,Correct,d
10,24,301,A,55.80105361285755,78.12831708481545,2.7900526806428774,1.2272367349549507,A,647.4430840000878,Correct,k
10,24,302,A,40.108686479431846,60.87528834696004,2.0054343239715924,0.95622679327985,A,918.7598749999779,Correct,k
10,24,303,A,49.66431367377657,79.88389027553498,2.4832156836888286,1.2548132141489692,A,754.0600419999919,Correct,k
10,24,304,B,70.5584048073356,54.39006071672483,3.52792024036678,0.8543570758798276,B,548.0963329998758,Correct,d
10,24,305,A,32.5840249143826,55.49983757067965,1.6292012457191303,0.8717894099373699,A,1149.47870900005,Correct,k
10,24,306,B,73.71869172402945,58.895695868345584,3.6859345862014727,0.9251314273402661,B,718.3928749998358,Correct,d
10,24,307,A,27.644162538168406,56.53526423535804,1.3822081269084203,0.888053853952793,A,546.9887080000717,Correct,k
10,24,308,A,14.068729996460235,37.30634629650902,0.7034364998230117,0.5860067172869476,A,455.33879100003105,Correct,k
10,24,309,B,33.44717371909425,14.728933664838113,1.6723586859547126,0.231361548983334,B,533.9187080001011,Correct,d
10,24,310,B,45.479599570626284,16.049915936818167,2.273979978531314,0.25211148998920846,B,708.2881249998536,Correct,d
10,24,311,A,57.732732005507266,65.44886429637646,2.886636600275363,1.028068356296458,A,614.9623750000046,Correct,k
10,24,312,B,76.50809647874893,45.45008184570126,3.8254048239374465,0.7139282161575495,B,641.0952080000243,Correct,d
10,24,313,A,21.90360238692217,39.273417366362544,1.0951801193461086,0.6169053973976518,A,495.8386660000542,Correct,k
10,24,314,A,52.9259208190381,78.11357365901418,2.6462960409519045,1.2270051457640208,B,468.749667000111,Incorrect,d
10,24,315,B,57.89326196103614,42.73334355969088,2.8946630980518067,0.6712537909522679,B,985.8132920001026,Correct,d
10,24,316,A,34.52700954260452,51.35995099155688,1.7263504771302258,0.8067602236190345,A,579.6545419998438,Correct,k
10,24,317,A,48.71327971938963,79.84995422666728,2.4356639859694815,1.254280147939896,A,592.3353329999372,Correct,k
10,24,318,A,53.85988060905956,62.93268519123612,2.692994030452978,0.9885443073373327,A,1318.522792000067,Correct,k
10,24,319,B,67.58616823236167,37.08646379632503,3.3793084116180836,0.5825528110507926,B,480.901041999914,Correct,d
10,24,320,A,43.81006155187164,53.937103444261616,2.190503077593582,0.8472420396820252,A,917.6524590000099,Correct,k
10,24,321,A,32.18738422510234,52.167486359018454,1.609369211255117,0.8194449595086907,A,685.123916000066,Correct,k
10,24,322,B,49.63494218219389,37.89154752154606,2.4817471091096945,0.5951990366341883,B,507.63683399986803,Correct,d
10,24,323,B,55.486536586670624,33.54136779784195,2.7743268293335315,0.5268665733252677,B,748.7932079998245,Correct,d
10,24,324,A,47.075759529857145,64.95786733011767,2.3537879764928573,1.0203557939857903,A,533.3156669998971,Correct,k
10,24,325,A,44.192066643312565,66.838242899214,2.2096033321656283,1.0498926643551043,A,853.1924999999774,Correct,k
10,24,326,A,37.08999078076359,68.40331541448084,1.8544995390381798,1.0744767659365924,A,486.5205409998907,Correct,k
10,24,327,B,42.042046686214356,20.58631897573264,2.1021023343107177,0.3233691422930891,B,449.5977909998601,Correct,d
10,24,328,A,21.736811070661357,49.94989058069932,1.0868405535330679,0.784611046479695,A,440.5258750000485,Correct,k
10,24,329,A,50.55816956457091,59.07276476749303,2.5279084782285453,0.9279128191039703,B,663.0002500000955,Incorrect,d
10,24,330,A,19.911219408851977,51.4360507784715,0.9955609704425988,0.8079555962765881,A,415.298249999978,Correct,k
10,24,331,B,78.30798472378558,46.371337504924945,3.915399236189279,0.7283992662130253,B,434.2396249999183,Correct,d
10,24,332,B,58.61384235080189,31.02424470613868,2.930692117540094,0.4873276962598866,B,509.87004200010233,Correct,d
10,24,333,A,38.30120191364909,57.49942784053049,1.9150600956824544,0.903198900447135,A,468.9306249999845,Correct,k
10,24,334,B,64.94799941496268,32.60296063707898,3.247399970748134,0.5121261081136226,B,889.6746670000084,Correct,d
10,24,335,B,78.60993642017864,64.98110776929892,3.930496821008932,1.0207208539507806,B,435.1604169999064,Correct,d
10,24,336,B,50.42844951789135,38.43272024757461,2.5214224758945676,0.6036997579362604,B,648.0424999999741,Correct,d
10,24,337,A,57.55363959242417,81.41615620295008,2.8776819796212085,1.2788819910535352,A,725.5003749999105,Correct,k
10,24,338,A,37.362888098242664,46.998427606828635,1.868144404912133,0.7382495744994227,B,475.3436660000716,Incorrect,d
10,24,339,B,61.24282925936838,31.52634843840523,3.0621414629684187,0.4952147232430296,B,512.8403329999855,Correct,d
10,24,340,B,69.55842003192285,49.44966928555932,3.4779210015961426,0.77675358874979,B,656.2639999999647,Correct,d
10,24,341,A,43.65949103090829,59.24421548044043,2.182974551545415,0.9306059606052118,A,633.4373749998576,Correct,k
10,24,342,A,24.743294303594727,50.0176960561513,1.2371647151797363,0.7856761323974605,A,517.6344999999856,Correct,k
10,24,343,B,48.041018488734615,37.389243205007034,2.4020509244367307,0.587308858880661,B,552.70595900015,Correct,d
10,24,344,B,68.80171671831437,57.992732017628946,3.4400858359157183,0.9109477043409234,A,728.7544590001289,Incorrect,k
10,24,345,A,52.79198843246039,80.43129410883431,2.6395994216230196,1.2634118134551693,A,510.485208000091,Correct,k
10,24,346,B,70.48573905755026,53.86235459266993,3.5242869528775134,0.8460678874669014,B,604.7191669999847,Correct,d
10,24,347,B,85.1940095919742,69.67202108175232,4.25970047959871,1.0944055479559314,B,647.7242079999996,Correct,d
10,24,348,A,55.699596981896406,79.62250432750182,2.7849798490948205,1.2507073732785061,A,563.769332999982,Correct,k
10,24,349,B,69.98342796811355,49.63559804824433,3.4991713984056774,0.7796741509245014,B,452.2110830000656,Correct,d
10,24,350,B,57.242803240045255,29.659743229830795,2.862140162002263,0.4658941571909802,B,447.26462499988884,Correct,d
10,24,351,B,42.72173543725418,15.482955847280891,2.136086771862709,0.2432057017283639,B,879.8843329998363,Correct,d
10,24,352,A,40.04925476352417,72.89917524680558,2.0024627381762086,1.1450975670405965,A,587.3448750000989,Correct,k
10,24,353,A,49.82390998100339,60.45235696498669,2.4911954990501695,0.9495834026669498,B,962.4185830000442,Incorrect,d
10,24,354,A,27.564636547270627,48.62359374334219,1.3782318273635314,0.7637776244760922,A,1219.8858330000348,Correct,k
10,24,355,B,69.13597432392879,41.520805335775776,3.4567987161964395,0.6522072850700253,B,953.2634580000376,Correct,d
10,24,356,A,50.25425838125385,79.00456478630053,2.5127129190626927,1.2410008016635032,A,794.3567910001548,Correct,k
10,24,357,A,61.35251986838709,77.05621385573303,3.067625993419355,1.2103961768130744,A,758.359708999933,Correct,k
10,24,358,A,28.124829039797174,37.435976381668944,1.4062414519898587,0.5880429419030607,B,530.7093750000149,Incorrect,d
10,24,359,A,22.916090697300742,39.12440064256815,1.1458045348650372,0.6145646481739794,A,603.4983749998446,Correct,k
10,24,360,A,33.0955272982336,49.90111781296355,1.65477636491168,0.7838449256356252,A,971.6351669999312,Correct,k
10,24,361,A,45.32747232706669,55.69881785782403,2.2663736163533343,0.8749149849788798,A,696.2307499998133,Correct,k
10,24,362,A,40.720662399629546,66.35811592029975,2.036033119981477,1.0423508474063679,A,421.4640000000145,Correct,k
10,24,363,A,26.082980080997036,37.104574078455926,1.3041490040498518,0.582837286697277,A,693.1749170000785,Correct,k
10,24,364,A,28.90198677356668,41.71890944598708,1.4450993386783342,0.6553190971564542,A,673.0092919999606,Correct,k
10,24,365,B,58.72623284637598,29.347159450947323,2.936311642318799,0.460984102674122,B,899.3697079999947,Correct,d
10,24,366,B,88.6746850417756,65.72382920567054,4.43373425208878,1.0323874949916243,B,806.8315420000545,Correct,d
10,24,367,B,84.61291522821124,55.263456843012484,4.230645761410562,0.8680763501499229,B,531.0191250000571,Correct,d
10,24,368,B,76.80746808050405,48.9274331772434,3.8403734040252027,0.7685503231431667,B,827.6716670000042,Correct,d
10,24,369,A,15.939890203351482,44.21146947086743,0.796994510167574,0.6944721384704327,A,580.3348340000412,Correct,k
10,24,370,B,72.159992115911,48.10600426614731,3.6079996057955497,0.7556473479804383,B,723.7385000000813,Correct,d
10,24,371,B,86.00548880730044,65.5992528716329,4.300274440365022,1.0304306545125053,A,649.6224999998503,Incorrect,k
10,24,372,B,81.3231024776845,58.40771510694226,4.066155123884226,0.9174662434646769,B,546.6676249998272,Correct,d
10,24,373,A,48.808583078887374,62.215894647840045,2.4404291539443688,0.9772849878108542,A,1079.2647920000036,Correct,k
10,24,374,A,63.99437755831491,83.88541016208627,3.1997188779157453,1.317668941542884,A,520.7224999999198,Correct,k
10,24,375,B,63.000509109242024,38.5252074757077,3.150025455462101,0.6051525439185295,B,519.6647500001745,Correct,d
10,24,376,A,22.89802732059654,36.31994517476295,1.144901366029827,0.5705123646990967,A,892.8223749999233,Correct,k
10,24,377,A,15.978303137874658,33.24903794344422,0.7989151568937329,0.5222746667102632,A,558.158209000112,Correct,k
10,24,378,B,72.9756518067846,55.838959521284245,3.6487825903392297,0.8771163250808219,B,540.6840830000874,Correct,d
10,24,379,A,11.0602197664724,36.26053197121143,0.5530109883236201,0.5695791042800782,A,413.4117090000018,Correct,k
10,24,380,A,59.02326966275639,84.27318410089453,2.9511634831378193,1.3237600803299518,A,750.9977080001136,Correct,k
10,24,381,B,39.66685490750231,27.38866658208546,1.9833427453751156,0.43022016862949974,B,719.6164169999975,Correct,d
10,24,382,B,36.800180607351614,18.06219302835196,1.8400090303675807,0.2837202646279565,B,568.2839579999381,Correct,d
10,24,383,B,72.83304556297875,53.71333629545937,3.6416522781489378,0.8437271135280658,B,500.48800000013216,Correct,d
10,24,384,A,29.311295952028427,57.14287038267713,1.4655647976014214,0.8975981089962612,A,466.24150000002373,Correct,k
10,24,385,A,54.2945755743579,80.90633088111004,2.7147287787178946,1.2708736736250015,A,640.8433330000207,Correct,k
10,24,386,A,53.389400625113744,82.41282953612857,2.669470031255687,1.2945376991612472,A,481.5272499999992,Correct,k
10,24,387,B,82.11762708369919,66.03140051279311,4.10588135418496,1.0372188137861806,B,536.7328750000979,Correct,d
10,24,388,A,47.11627891141787,75.8318225712853,2.3558139455708935,1.191163483491373,A,834.1389170000184,Correct,k
10,24,389,B,59.189060338608684,47.16976929827102,2.959453016930434,0.7409410034948679,B,777.9781670001285,Correct,d
10,24,390,A,22.84421043079866,47.732575842605954,1.142210521539933,0.7497815480202424,A,648.6277920000703,Correct,k
10,24,391,A,27.32487303256377,58.15828243675096,1.3662436516281884,0.9135481642434856,A,642.5441250000858,Correct,k
10,24,392,A,57.626641156889555,78.36904764541273,2.881332057844478,1.2310181217582856,B,557.8384169998571,Incorrect,d
10,24,393,A,16.857826417069475,42.42225620842558,0.8428913208534737,0.6663672422654691,A,670.4277080000338,Correct,k
10,24,394,A,45.47150262157807,64.37032871072151,2.2735751310789034,1.011126758933814,A,721.7063330001565,Correct,k
10,24,395,A,45.70748630141199,69.61589572379202,2.2853743150705994,1.0935239328946904,A,393.73395899997377,Correct,k
10,24,396,A,67.15861936135389,81.3072814623455,3.357930968067694,1.277171790627311,A,691.6541250000137,Correct,k
10,24,397,B,86.4210150652629,64.50324951977103,4.321050753263146,1.01321467411991,B,833.0369580000934,Correct,d
10,24,398,B,46.88798604942575,25.51975140595468,2.3443993024712877,0.40086331769192507,B,700.9870839999621,Correct,d
10,24,399,A,23.146015265208902,43.63611788357028,1.157300763260445,0.685434536871013,A,515.4682089998914,Correct,k
10,24,400,B,41.272763828325324,19.32193006831283,2.063638191416266,0.3035081677789366,B,544.6569580001324,Correct,d
10,24,401,B,41.239179348487454,30.307808631521937,2.061958967424373,0.4760739447159732,B,431.8137499999466,Correct,d
10,24,402,B,56.34104025839638,29.917363765260873,2.817052012919819,0.46994085109858524,B,422.28337500000634,Correct,d
10,24,403,A,37.92673919546152,69.16678848440807,1.8963369597730761,1.0864693728750774,A,569.8320000001331,Correct,k
10,24,404,B,47.170095036959864,19.30141978570314,2.3585047518479936,0.30318599301308835,B,416.37137499992605,Correct,d
10,24,405,A,53.91658439774227,80.37444606958513,2.6958292198871137,1.2625188465427883,A,590.6844590001583,Correct,k
10,24,406,B,71.58204207560335,44.29640498126419,3.5791021037801674,0.6958063023478895,B,934.9092080001355,Correct,d
10,24,407,A,65.73316303257431,80.5839226206013,3.286658151628716,1.265809296511647,A,736.1595840000064,Correct,k
10,24,408,A,36.42571465756727,46.91522275435611,1.8212857328783634,0.7369425957330692,B,1119.7260839999217,Incorrect,d
10,24,409,A,32.134736196000354,40.67252977949265,1.6067368098000177,0.638882603790831,A,526.9185829999969,Correct,k
10,24,410,B,53.47986119492062,24.045184867420776,2.673993059746031,0.3777008806684879,B,561.7633330000444,Correct,d
10,24,411,A,19.447275015889467,36.01441364562916,0.9723637507944732,0.5657130866622628,A,618.0360840000958,Correct,k
10,24,412,A,56.192852857126866,79.49813992782146,2.8096426428563435,1.2487538618564866,A,1413.3415419998983,Correct,k
10,24,413,A,60.27584726567991,71.67096592508501,3.0137923632839954,1.1258049001296575,A,666.6140830000131,Correct,k
10,24,414,B,79.81722797429626,63.656205749356154,3.990861398714813,0.9999093416878883,B,500.3279590000602,Correct,d
10,24,415,A,25.978886232681297,40.620364775678894,1.2989443116340649,0.6380631978270521,A,965.7677080001577,Correct,k
10,24,416,B,75.05496360584122,53.708972778786176,3.7527481802920613,0.8436585715684443,B,472.7379590001419,Correct,d
10,24,417,A,17.649314196585546,44.35510829446041,0.8824657098292774,0.6967284118352826,A,451.27179099995374,Correct,k
10,24,418,A,45.73197873505296,75.98825389685405,2.286598936752648,1.1936207010073632,A,895.4925409998395,Correct,k
10,24,419,B,47.227129900765384,23.595616310803223,2.3613564950382693,0.3706390742947145,B,523.5169170000518,Correct,d
10,24,420,B,59.31887735422475,38.33402038510488,2.9659438677112377,0.6021493841220343,B,555.0138329999754,Correct,d
10,24,421,B,54.37826403448833,35.0726984015722,2.718913201724417,0.5509206581997486,B,531.4931660000184,Correct,d
10,24,422,A,25.339072860419115,37.81443081018635,1.2669536430209558,0.5939876901648049,B,726.4544590000241,Incorrect,d
10,24,423,A,22.619472831296857,38.1886791317773,1.1309736415648428,0.5998663690534471,A,686.7181669999809,Correct,k
10,24,424,B,72.46840740426518,61.49926946957905,3.623420370213259,0.9660282658338429,A,700.0138749999678,Incorrect,k
10,24,425,B,84.427657543344,54.611776914848384,4.2213828771672,0.8578397857758617,B,583.9525420001337,Correct,d
10,24,426,A,64.53142471711439,81.5308294610518,3.2265712358557197,1.2806832743796128,A,570.402334000164,Correct,k
10,24,427,B,49.936601436746614,25.427920462901366,2.496830071837331,0.3994208406115825,B,656.4445420001448,Correct,d
10,24,428,A,67.10663389780828,88.03902821360552,3.3553316948904137,1.382913821325238,A,558.7536250000085,Correct,k
10,24,429,B,68.1091583222644,39.35048779699512,3.4054579161132206,0.6181160168910733,B,655.6572919998871,Correct,d
10,24,430,B,81.42978768445238,62.65362202506685,4.071489384222619,0.9841607933737083,B,1104.6238750000157,Correct,d
10,24,431,A,63.99285538099616,87.21908041626432,3.199642769049808,1.3700341114429668,A,689.1160000000127,Correct,k
10,24,432,B,43.69318675626928,24.064872799486125,2.1846593378134638,0.37801013798219224,B,687.665041999935,Correct,d
10,24,433,B,53.824364554056665,37.56316256725703,2.691218227702833,0.590040777834469,B,600.6616249999297,Correct,d
10,24,434,A,37.76029980091637,45.11527212079848,1.8880149900458185,0.7086690372970246,B,1019.401875000085,Incorrect,d
10,24,435,B,87.397466755056,63.18475626999478,4.3698733377528,0.9925038305833861,B,557.7438749999146,Correct,d
10,24,436,B,41.271720004348815,16.01912141254402,2.0635860002174407,0.2516277707330562,B,848.2745410001371,Correct,d
10,24,437,B,56.49463555792238,48.1888192882574,2.824731777896119,0.7569482033057778,B,847.9961670000193,Correct,d
10,24,438,A,61.862898774349254,74.14914072750744,3.0931449387174625,1.1647319788976656,B,628.1944580000527,Incorrect,d
10,24,439,B,56.39898371028341,46.42358626518937,2.8199491855141705,0.7292199878200547,B,1228.0723750000107,Correct,d
10,24,440,B,67.98561434560123,55.11550358156647,3.3992807172800616,0.8657523057537558,B,1052.1247090000543,Correct,d
10,24,441,A,54.27415326138542,81.39167099869061,2.7137076630692714,1.2784973783644191,A,592.7407080000648,Correct,k
10,24,442,B,50.23805404156644,40.75193658059901,2.5119027020783222,0.6401299229058349,B,915.8432920000905,Correct,d
10,24,443,A,59.99996081781292,73.1591687925717,2.9999980408906457,1.1491815361073945,A,692.5058750000517,Correct,k
10,24,444,A,29.612590094475774,51.51045460794391,1.4806295047237887,0.8091243288969355,A,806.3010000000759,Correct,k
10,24,445,A,67.59969715515359,84.2139355593012,3.3799848577576794,1.3228294064149244,B,1887.0807499999955,Incorrect,d
10,24,446,A,64.14439992406818,82.92813997003817,3.207219996203409,1.3026321765286901,A,559.4476660000964,Correct,k
10,24,447,A,12.311594073199576,37.1452586457813,0.6155797036599787,0.5834763583863963,A,626.4599999999518,Correct,k
10,24,448,B,45.18173984516392,23.62056536953284,2.259086992258196,0.3710309731928092,B,496.4252079998914,Correct,d
10,24,449,B,71.21079982565516,44.98863882306259,3.560539991282758,0.7066798861076898,B,615.9453750001376,Correct,d
10,24,450,B,64.65697007185696,55.505107097976854,3.232848503592848,0.8718721834785939,B,586.9762090001132,Correct,d
10,24,451,B,68.52512561298961,36.13709664320262,3.4262562806494805,0.5676401866817486,B,593.943999999965,Correct,d
10,24,452,B,46.78033480851038,38.77978260196265,2.339016740425519,0.6091514006506757,B,628.7861250000333,Correct,d
10,24,453,B,87.31140887855163,67.45715494747185,4.365570443927582,1.0596145120752296,B,679.7863750000488,Correct,d
10,24,454,B,57.792022817669675,39.55733818312332,2.889601140883484,0.6213652151583362,B,626.9589999999425,Correct,d
10,24,455,A,36.86771047030394,65.6268232099987,1.843385523515197,1.0308637283748403,A,648.8959579999118,Correct,k
10,24,456,A,66.54947338646534,82.50285900685405,3.327473669323267,1.295951878780436,A,1109.2245840000032,Correct,k
10,24,457,B,80.5313583063049,59.8720432628115,4.026567915315245,0.9404678563492944,B,783.1609580000531,Correct,d
10,24,458,B,34.193053841568656,23.132245757100662,1.7096526920784327,0.3633604666577055,A,425.59462500003065,Incorrect,k
10,24,459,A,51.48401267440089,60.39170674419702,2.5742006337200447,0.9486307112265927,B,401.5576249998958,Incorrect,d
10,24,460,B,75.61343933936567,62.75032536223696,3.780671966968283,0.9856798058418645,B,535.9832080000615,Correct,d
10,24,461,A,33.70635735336183,59.31071060447669,1.6853178676680916,0.9316504635710712,A,612.4119579999387,Correct,k
10,24,462,A,24.411210010030075,49.28565601240023,1.2205605005015037,0.7741772742795509,A,596.9240419999551,Correct,k
10,24,463,B,51.212872002531405,33.19879006805742,2.56064360012657,0.5214853749293948,B,517.9055000000972,Correct,d
10,24,464,A,64.53236127165312,83.3422037631723,3.2266180635826562,1.3091362753818285,A,605.5635420000272,Correct,k
10,24,465,B,68.63672468932401,47.93405942723613,3.431836234466201,0.7529464447667079,B,536.4313750001202,Correct,d
10,24,466,A,33.71178175790896,46.15175467330192,1.685589087895448,0.7249500671596185,B,549.9714580000727,Incorrect,d
10,24,467,B,51.91041249255654,44.86207347624224,2.5955206246278273,0.7046918022888407,B,458.5514170000806,Correct,d
10,24,468,B,68.445339086994,46.6479704257106,3.4222669543497,0.7327446059714318,B,421.6173750000962,Correct,d
10,24,469,B,32.825473405885354,10.005376655299727,1.6412736702942679,0.1571640889834422,B,621.1917910000011,Correct,d
10,24,470,A,30.295411721989637,58.721972550210936,1.5147705860994818,0.9224025878402207,A,618.1815420000021,Correct,k
10,24,471,A,59.15687879952821,86.20309992986853,2.95784393997641,1.3540751272817086,A,676.6402079999807,Correct,k
10,24,472,A,43.58302183451485,74.54496885917204,2.1791510917257426,1.1709496326502742,A,474.20262499986165,Correct,k
10,24,473,A,61.19408097558454,77.57160937083265,3.059704048779227,1.218491990632725,A,560.3454160000183,Correct,k
10,24,474,B,80.43107724700995,66.65408520249478,4.021553862350498,1.0469999220195287,A,477.38683300008233,Incorrect,k
10,24,475,A,55.48167100283883,74.62124697753444,2.774083550141942,1.1721478065316588,A,608.6595829999624,Correct,k
10,24,476,A,63.31393604237444,75.41813528330465,3.165696802118722,1.1846652987673552,A,577.6701249999405,Correct,k
10,24,477,B,72.60491539158062,46.411517213963776,3.630245769579031,0.7290304076067241,B,467.799709000019,Correct,d
10,24,478,A,58.33915156140888,76.613201205554,2.916957578070444,1.2034373503768256,A,504.5162500000515,Correct,k
10,24,479,B,46.557815381888,24.117680072902996,2.3278907690943997,0.37883963269330495,B,478.9597920000688,Correct,d
10,24,480,B,54.233402769257374,23.37608092461049,2.7116701384628685,0.36719062051238405,B,452.1050410000953,Correct,d
10,24,481,A,45.09851823237929,75.62256372102638,2.2549259116189644,1.1878764531580126,A,533.3148330000768,Correct,k
10,24,482,A,40.882656421087,54.33947298112662,2.04413282105435,0.8535624455872421,A,512.2850000000199,Correct,k
10,24,483,A,25.675341226119578,50.11674901441173,1.2837670613059788,0.7872320526273971,A,547.6227920000838,Correct,k
10,24,484,B,56.44824680676969,37.47036797677334,2.8224123403384844,0.5885831638156868,B,551.7274169999382,Correct,d
10,24,485,A,26.780199700843646,55.799109840153484,1.3390099850421822,0.8764903677533806,A,595.9901249998438,Correct,k
10,24,486,A,12.567957972947099,34.98252191485554,0.628397898647355,0.5495041692587705,A,463.87595900000633,Correct,k
10,24,487,A,49.802778672093,76.12772263813733,2.4901389336046496,1.1958114708724683,A,680.7388749998609,Correct,k
10,24,488,A,18.989126964398384,34.255389980416304,0.9494563482199192,0.5380824075416463,A,550.6575839999641,Correct,k
10,24,489,B,79.84438427866202,52.74375360787451,3.992219213933101,0.8284969442862437,B,576.38883300001,Correct,d
10,24,490,B,70.27406677359575,59.68928397113266,3.5137033386797873,0.9375970801087268,B,835.1272919999246,Correct,d
10,24,491,A,19.943952668956666,38.40542339994283,0.9971976334478333,0.6032709800563296,B,660.2129170000808,Incorrect,d
10,24,492,B,66.10020540752066,55.219108478701344,3.305010270376033,0.86737972767233,B,511.588791000122,Correct,d
10,24,493,A,37.34392655004134,53.116532412110395,1.867196327502067,0.8343525400502508,A,701.9369579998056,Correct,k
10,24,494,B,51.58709824381711,42.28915461780895,2.579354912190855,0.6642764873691573,B,579.5961660001012,Correct,d
10,24,495,A,37.107241083770695,52.99043743625249,1.855362054188535,0.832371844801202,B,835.092541999984,Incorrect,d
10,24,496,A,28.041502042141317,58.36562256994775,1.4020751021070657,0.9168050554397125,A,562.4246249999487,Correct,k
10,24,497,B,62.21063643917916,44.18302347113931,3.110531821958958,0.6940253097515833,B,704.3135829999301,Correct,d
10,24,498,B,43.76418989635832,22.97421913159393,2.188209494817916,0.36087819022888784,B,590.3669170002104,Correct,d
10,24,499,B,39.539463908678286,18.148321855545237,1.9769731954339143,0.28507317308182,B,680.2261660000113,Correct,d
10,24,500,A,13.399580134392266,38.190302866884366,0.6699790067196133,0.5998918746248657,A,510.6409579998399,Correct,k
10,24,501,A,55.36082511227123,64.93454725728407,2.7680412556135616,1.0199894831383145,A,1129.9554160000298,Correct,k
10,24,502,A,69.56513968730043,87.55435623536627,3.4782569843650215,1.3753006116940518,A,635.7542089999697,Correct,k
10,24,503,A,48.69052775666047,64.30011016259533,2.4345263878330234,1.0100237685591194,A,516.8362920003347,Correct,k
10,24,504,A,50.6302758413211,63.821531581942125,2.531513792066055,1.0025062737933916,A,486.3926250000077,Correct,k
10,24,505,B,84.82950052341494,56.9051304122997,4.241475026170747,0.8938636982742493,B,560.1921669999683,Correct,d
10,24,506,B,72.52386863519597,46.38864784820214,3.6261934317597984,0.7286711764493791,B,710.4775829998289,Correct,d
10,24,507,B,86.25678987242748,59.88535566022809,4.312839493621373,0.9406769669989227,B,537.0094589998189,Correct,d
10,24,508,A,16.641852900969432,40.808648342772436,0.8320926450484717,0.6410207491829158,A,549.2920419997063,Correct,k
10,24,509,A,48.300186180349854,74.57055671125299,2.4150093090174924,1.171351565690867,A,479.4137080002656,Correct,k
10,24,510,A,29.037994412424176,50.9490890522713,1.451899720621209,0.8003064193685383,A,530.143500000122,Correct,k
10,24,511,A,52.55625214523771,78.2938258174678,2.6278126072618853,1.229836540047979,A,461.0294580002119,Correct,k
10,24,512,B,48.19580149724471,30.925685318326614,2.409790074862235,0.48577952901642313,B,706.6768750000847,Correct,d
10,24,513,B,80.9252873447228,56.570871194876105,4.04626436723614,0.888613166764986,B,560.4753749998963,Correct,d
10,24,514,B,83.47227750270606,62.417761446521766,4.173613875135303,0.980455904069565,B,505.27920900003664,Correct,d
10,24,515,B,43.86987205276164,32.1046676888411,2.1934936026380822,0.5042989407860239,B,423.42991600025925,Correct,d
10,24,516,B,89.5783581365435,67.28478664948028,4.478917906827175,1.0569069571818193,B,602.5176670000292,Correct,d
10,24,517,B,44.019571714556584,30.98678033421934,2.200978585727829,0.4867392072819207,B,468.71137500011173,Correct,d
10,24,518,B,56.44002837862499,45.64281171191364,2.8220014189312495,0.7169556098166503,B,502.74558299997807,Correct,d
10,24,519,A,47.73831872959626,62.4616852355402,2.386915936479813,0.9811458573340558,A,1118.4821249999004,Correct,k
10,24,520,A,44.51270196851167,76.63282077190644,2.2256350984255833,1.2037455338044227,A,688.9115409999249,Correct,k
10,24,521,A,54.92646500952186,76.65771245662677,2.746323250476093,1.204136531473687,A,533.6614580000969,Correct,k
10,24,522,A,35.6302937296693,59.33969363133744,1.7815146864834648,0.9321057278923935,A,443.1230830000459,Correct,k
10,24,523,B,54.26251257628899,38.375804150198476,2.713125628814449,0.6028057219693213,A,498.04295800004184,Incorrect,k
10,24,524,B,70.55379903317456,60.74133352149221,3.5276899516587275,0.9541226358018366,B,849.4530840002881,Correct,d
10,24,525,A,60.24904253667553,70.87071966986501,3.0124521268337765,1.1132346613473478,A,752.7515420001691,Correct,k
10,24,526,B,70.98435536009795,50.56101355112768,3.5492177680048975,0.7942105436513835,B,461.98716600019907,Correct,d
10,24,527,B,81.55577791111948,64.20245754091101,4.077788895555974,1.008489844764683,B,764.4157080003424,Correct,d
10,24,528,A,30.94434426746843,46.73688872558465,1.5472172133734217,0.7341413313597017,A,603.8443749998805,Correct,k
10,24,529,A,36.06859566718285,62.51562532192784,1.8034297833591424,0.9819931462297029,A,737.8416249998736,Correct,k
10,24,530,B,52.887960229196764,25.61154833062043,2.644398011459838,0.4023052604126854,B,674.7876250001354,Correct,d
10,24,531,B,54.34403300101526,30.595565054583425,2.7172016500507628,0.48059401203953944,B,413.8250830001198,Correct,d
10,24,532,B,74.0061665616054,46.53118438095189,3.7003083280802698,0.7309101350701529,B,893.970624999838,Correct,d
10,24,533,A,25.860949249247074,53.95766816249817,1.2930474624623536,0.8475650695207009,A,644.2727499998,Correct,k
10,24,534,A,37.10029337183444,47.74650739323748,1.855014668591722,0.7500003843058279,A,544.0980409998701,Correct,k
10,24,535,B,55.765590422528106,31.416039929320284,2.7882795211264058,0.493482001234181,B,670.4844589999084,Correct,d
10,24,536,B,76.15174899683463,59.90509077831053,3.8075874498417313,0.9409869655088501,B,715.7987909999974,Correct,d
10,24,537,B,69.14986424031187,53.3216729803538,3.457493212015594,0.8375748805609844,B,773.0029999997896,Correct,d
10,24,538,B,64.44523852263535,46.608297713970735,3.2222619261317673,0.7321214284726819,B,701.9987500002571,Correct,d
10,24,539,A,35.26895670924328,46.10033914512547,1.7634478354621637,0.7241424339316206,A,815.3865839999526,Correct,k
10,24,540,A,49.20233876060663,57.537498851363154,2.4601169380303314,0.9037969184868683,B,980.7045419997849,Incorrect,d
10,24,541,A,43.39591851104745,72.36101715878644,2.1697959255523727,1.136644199561642,A,831.7594169998301,Correct,k
10,24,542,A,60.06888901568024,82.89610359804416,3.0034444507840123,1.3021289503741698,B,513.2292919997781,Incorrect,d
10,24,543,A,17.207640618385632,32.27941098626651,0.8603820309192816,0.5070438020833027,A,466.97545799997897,Correct,k
10,24,544,B,35.88904944811618,15.721200846175066,1.794452472405809,0.24694804541976612,B,542.5703329997305,Correct,d
10,24,545,B,85.95050278264189,63.559007657798034,4.2975251391320946,0.9983825576359785,B,579.6788750003543,Correct,d
10,24,546,B,53.657175265128345,24.39540895885805,2.682858763256417,0.38320218783233534,B,735.4375830000208,Correct,d
10,24,547,A,35.1743077739454,51.69197783590428,1.75871538869727,0.8119756890940165,A,590.2113329998429,Correct,k
10,24,548,B,43.402249120892016,35.49987344967652,2.170112456044601,0.5576307081643554,B,577.6029170001493,Correct,d
10,24,549,B,71.89150870912022,54.26054809616154,3.5945754354560107,0.8523226963932836,B,543.7402499997006,Correct,d
10,24,550,A,51.99092600298094,70.92006300402657,2.599546300149047,1.1140097446278756,A,756.0266249997767,Correct,k
10,24,551,B,82.07930906450069,60.660962137934874,4.103965453225035,0.9528601650611239,B,605.2225410003302,Correct,d
10,24,552,A,43.950601439387015,69.15000634937503,2.197530071969351,1.0862057597144208,A,680.7452499997453,Correct,k
10,24,553,A,29.047591909479735,55.554324226997636,1.4523795954739867,0.8726452843334062,A,496.3032089999615,Correct,k
10,24,554,B,41.50679798028343,25.213680666052774,2.0753398990141716,0.396055569752152,B,415.3080000000955,Correct,d
10,24,555,A,63.2817806428613,86.96768719708732,3.1640890321430652,1.366085235990323,A,809.7060420000162,Correct,k
10,24,556,B,43.28817901297069,22.51862528746736,2.1644089506485344,0.35372173886024394,B,455.4521250001926,Correct,d
10,24,557,A,40.80791819667609,58.10020351431082,2.0403959098338045,0.9126358626631538,B,715.571749999981,Incorrect,d
10,24,558,A,59.577280165876374,72.01621690190909,2.9788640082938183,1.1312280897918336,B,1173.084624999774,Incorrect,d
10,24,559,B,42.91167412983607,16.817318456766134,2.1455837064918035,0.2641658205842826,B,745.1680829999532,Correct,d
10,24,560,A,58.104849130970116,73.64087981476897,2.9052424565485055,1.1567482351498353,A,749.3709999998828,Correct,k
10,24,561,B,80.63311595057382,59.06727755122432,4.031655797528691,0.9278266261123782,B,555.2334579997478,Correct,d
10,24,562,A,34.66316117374244,57.72749430306194,1.7331580586871218,0.9067813600632301,A,569.9371659998178,Correct,k
10,24,563,B,67.7622656152008,46.897281570492005,3.3881132807600403,0.7366607762759484,B,468.8162919997012,Correct,d
10,24,564,B,79.26832221182406,50.08906035879964,3.963416110591203,0.7867971202421035,B,520.9359579998818,Correct,d
10,24,565,A,36.71350604206526,51.7940151815378,1.835675302103263,0.8135784879711869,A,951.3258339998174,Correct,k
10,24,566,B,73.5777200338086,54.56453612011432,3.67888600169043,0.8570977291074303,B,1090.5079999997724,Correct,d
10,24,567,A,22.37570835692898,44.18330210693613,1.118785417846449,0.694029686552445,A,763.4675420003987,Correct,k
10,24,568,B,41.51917029486453,22.585874664131808,2.0759585147432262,0.3547780895986816,B,677.629292000347,Correct,d
10,24,569,B,47.29441444623144,25.64145509308269,2.364720722311572,0.4027750347389058,B,644.0598330000284,Correct,d
10,24,570,A,16.318945245262302,40.01064679483608,0.8159472622631151,0.628485770180165,A,522.284208000201,Correct,k
10,24,571,B,54.43156261343908,23.871444254182943,2.7215781306719538,0.37497176949759703,B,461.24266700007865,Correct,d
10,24,572,A,55.26856761030889,83.24459891482644,2.7634283805154443,1.307603102009238,A,680.6570829999146,Correct,k
10,24,573,A,33.74655865669628,63.794472950219905,1.6873279328348139,1.0020812378002182,A,550.8817499999168,Correct,k
10,24,574,B,47.82800635440542,22.381329517610155,2.391400317720271,0.35156510195048224,B,509.53354200009926,Correct,d
10,24,575,B,87.6211082474972,61.141998746500946,4.38105541237486,0.9604162704390187,B,607.3184169999877,Correct,d
10,24,576,A,62.169402111664255,86.48892678869666,3.1084701055832125,1.3585648850811742,A,496.4239159999124,Correct,k
10,24,577,A,17.560972416030047,42.6900966039,0.8780486208015023,0.6705744693592541,A,557.442458999958,Correct,k
10,24,578,B,85.02495775710813,60.12521106043038,4.251247887855406,0.9444446068149194,B,495.7816249998359,Correct,d
10,24,579,B,61.60948565134301,31.36412831628452,3.0804742825671503,0.4926665755234353,B,583.5247909999453,Correct,d
10,24,580,B,52.89706134303202,23.74610268105557,2.644853067151601,0.3730029086709654,B,501.0309999997844,Correct,d
10,24,581,B,55.633400134664136,41.67300530064512,2.7816700067332065,0.6545980365275761,B,362.6523749999251,Correct,d
10,24,582,B,69.06128386227189,42.94575340057581,3.453064193113595,0.6745903169306392,B,882.212332999643,Correct,d
10,24,583,B,59.9508290016063,45.209794376352875,2.9975414500803153,0.7101537894152766,B,915.7697919999919,Correct,d
10,24,584,A,18.621016342202704,37.8837590110092,0.9310508171101353,0.5950766949967631,A,569.8668329996508,Correct,k
10,24,585,A,24.08101579950626,52.42245401875378,1.204050789975313,0.8234499821423281,A,840.1268749998962,Correct,k
10,24,586,A,32.47643293569064,57.76625399674885,1.623821646784532,0.907390195907941,A,877.0587500002875,Correct,k
10,24,587,B,51.83950466885152,43.740163137335685,2.591975233442576,0.6870688758953644,B,533.7137079995955,Correct,d
10,24,588,B,33.44682345579757,16.52601894110835,1.6723411727898787,0.2595900984923588,B,496.6902910000499,Correct,d
10,24,589,B,82.90908282336443,53.01057014749357,4.145454141168221,0.832688088689861,B,569.4807080003557,Correct,d
10,24,590,B,39.84489247258162,18.07293700220644,1.992244623629081,0.2838890305746145,B,747.4761250000483,Correct,d
10,24,591,B,34.525104625485696,20.857000097953303,1.726255231274285,0.32762099141825846,B,945.9226670001044,Correct,d
10,24,592,A,50.897444253160685,70.20084999125585,2.5448722126580345,1.1027123730414423,A,1732.1526249997987,Correct,k
10,24,593,A,56.72192269628846,83.91167318387596,2.836096134814423,1.3180814801244618,A,576.7958339997676,Correct,k
10,24,594,B,72.03539306074529,51.99805730451587,3.6017696530372643,0.8167835741440407,B,740.3171249998195,Correct,d
10,24,595,A,44.59130993033109,55.4171069808719,2.2295654965165546,0.870489880871534,B,617.4531249998836,Incorrect,d
10,24,596,B,38.85926181495679,12.178021363674194,1.9429630907478395,0.19129191225689202,B,602.0212080002239,Correct,d
10,24,597,A,48.082092209845484,54.921243125660595,2.4041046104922743,0.8627008696479714,A,576.4610839996749,Correct,k
10,24,598,B,41.379441814735586,14.699296995498116,2.068972090736779,0.23089601726995698,B,2588.203541999974,Correct,d
10,24,599,A,28.195180496904484,46.25173890801549,1.409759024845224,0.7265206158458734,B,771.4047919998848,Incorrect,d
