subject,day,trial,cat,x,y,xt,yt,resp,rt,fb
3,19,0,B,47.284299992253295,27.051181969939712,2.3642149996126647,0.4249189727384163,B,950.6242490024306,Correct
3,19,1,B,59.371435992599615,32.82719427969802,2.9685717996299807,0.5156483619353208,B,567.5813330162782,Correct
3,19,2,B,53.474081179119196,30.201737887646182,2.67370405895596,0.4744077893673688,B,413.2603750040289,Correct
3,19,3,A,26.251906116013267,38.24681655083542,1.3125953058006632,0.6007795894965055,A,591.1179579852615,Correct
3,19,4,A,33.93525664093029,62.35012620318568,1.6967628320465145,0.979393492151623,A,521.3269160012715,Correct
3,19,5,A,39.312569304630166,49.75031762096111,1.9656284652315081,0.7814761617588513,A,584.1077920049429,Correct
3,19,6,A,50.930798148536844,79.17440168148029,2.546539907426842,1.2436685933745293,A,448.04883300093934,Correct
3,19,7,B,40.834928036484186,28.007314974596376,2.0417464018242093,0.4399378748548368,B,587.7001670014579,Correct
3,19,8,A,42.26536264672049,64.5400677666213,2.1132681323360245,1.0137930137890245,A,444.870292005362,Correct
3,19,9,B,83.18634102445493,58.74387739381891,4.159317051222747,0.9227466683190051,A,794.8268750042189,Incorrect
3,19,10,A,57.62058329737113,67.10248136469262,2.8810291648685564,1.0540433124648216,A,1094.9029990006238,Correct
3,19,11,B,74.66813296904553,43.64732253214503,3.7334066484522763,0.6856105390792554,B,543.8082919863518,Correct
3,19,12,A,28.96639219826639,45.81707836218201,1.4483196099133195,0.7196929839578944,A,590.9188750083558,Correct
3,19,13,B,55.59106791664374,32.28468108994362,2.779553395832187,0.507126584678281,B,387.80837500235066,Correct
3,19,14,A,30.261836087185756,44.73629851474782,1.513091804359288,0.7027161338136587,A,489.8121670121327,Correct
3,19,15,B,49.43221729322343,40.980931334696855,2.4716108646611716,0.6437269640917569,B,721.8297079962213,Correct
3,19,16,A,43.43971101119297,74.86482434887243,2.1719855505596484,1.1759739109335394,A,470.6562909996137,Correct
3,19,17,B,72.94430065270697,59.97728301749204,3.6472150326353483,0.9421209585501442,B,598.2593329972588,Correct
3,19,18,B,75.11042010301503,56.16832952314541,3.7555210051507517,0.8822900569716216,B,1504.5766660186928,Correct
3,19,19,B,64.9784166740252,48.860822518209204,3.24892083370126,0.7675040053578038,B,496.16170799708925,Correct
3,19,20,B,68.98051662676508,43.922951501356984,3.4490258313382536,0.6899401088032194,B,376.5619159967173,Correct
3,19,21,A,30.452943794928345,63.444268254105374,1.522647189746417,0.9965802352973878,A,439.9156250001397,Correct
3,19,22,A,65.46134994500675,82.16472095225576,3.2730674972503375,1.2906404186393101,A,524.724957998842,Correct
3,19,23,A,54.667970209612804,71.41282861056864,2.73339851048064,1.121750088675147,A,623.1114999973215,Correct
3,19,24,A,25.327576769212854,55.55248489106002,1.2663788384606427,0.8726163921120607,A,470.46545799821615,Correct
3,19,25,A,66.17350093871707,77.5676783660307,3.308675046935854,1.2184302425536901,A,964.2715420050081,Correct
3,19,26,A,47.26995803034244,55.2957375600989,2.3634979015171216,0.8685834144681794,A,2447.807124000974,Correct
3,19,27,B,54.0313278281688,30.116296219255336,2.70156639140844,0.4730656747787331,B,826.6366239986382,Correct
3,19,28,A,57.325955964987266,67.67853534441933,2.8662977982493634,1.0630919472187246,A,815.7406249956694,Correct
3,19,29,A,34.65542563082425,47.68466471834082,1.7327712815412124,0.7490289618401597,A,1201.8642080074642,Correct
3,19,30,A,45.16798766202868,70.84302417007044,2.258399383101434,1.1127996214538871,A,1020.0099170033354,Correct
3,19,31,A,68.95073280959446,84.86222855792047,3.447536640479723,1.3330127690241045,A,677.0803749968763,Correct
3,19,32,A,45.661213581660306,76.33164406898953,2.2830606790830155,1.199014661217842,A,555.909332993906,Correct
3,19,33,B,57.36842208638898,37.999100146378474,2.8684211043194487,0.5968884693144272,B,465.3628740052227,Correct
3,19,34,B,71.4461482667832,43.85201356172793,3.57230741333916,0.6888258182532222,B,522.407500015106,Correct
3,19,35,B,35.59803766236236,21.74909473874603,1.7799018831181177,0.3416339812673648,B,804.7229160147253,Correct
3,19,36,B,62.64548122129382,38.54226006144948,3.1322740610646913,0.6054204053089849,B,473.3460830175318,Correct
3,19,37,A,22.82376117349127,36.26296396280242,1.1411880586745635,0.5696173059146574,A,508.3789989876095,Correct
3,19,38,A,22.387829766488085,42.21709936671739,1.1193914883244043,0.6631446461317484,A,547.4272909923457,Correct
3,19,39,A,36.79718945172932,66.08130574926989,1.8398594725864656,1.0380027234076363,A,518.0993329850025,Correct
3,19,40,B,45.93541527740386,23.074619333306263,2.2967707638701933,0.36245527290947976,B,479.87579100299627,Correct
3,19,41,A,35.01359655153194,43.73442795953999,1.7506798275765971,0.6869787879332144,A,524.572458001785,Correct
3,19,42,A,63.86192963453152,76.59179640058916,3.193096481726576,1.2031011244866805,A,647.6027079916093,Correct
3,19,43,B,52.43872307035418,40.82527074232525,2.621936153517709,0.6412818532245167,B,701.6205409890972,Correct
3,19,44,A,49.47697520976227,76.13866697787427,2.4738487604881136,1.1959833841590477,A,732.323207979789,Correct
3,19,45,B,81.28869646462441,60.871311084320624,4.06443482323122,0.9561643185844031,B,519.6630829886999,Correct
3,19,46,B,53.84689329286781,42.70710020181031,2.6923446646433904,0.6708415612506522,B,580.4971669858787,Correct
3,19,47,B,62.07901919585867,40.04689387485895,3.1039509597929333,0.6290551379817348,B,431.5985410066787,Correct
3,19,48,A,37.919160112958096,48.68857072919896,1.8959580056479046,0.7647982805831923,A,562.6952910097316,Correct
3,19,49,A,37.00181632486305,55.12784568366397,1.8500908162431526,0.8659461750401527,A,726.0365000111051,Correct
3,19,50,B,52.37905312636931,31.736917791755047,2.6189526563184655,0.49852233891080433,B,410.2305420092307,Correct
3,19,51,B,81.46209495130695,53.82537981884788,4.073104747565347,0.845487089077864,B,569.8120000015479,Correct
3,19,52,A,59.84746085502044,87.05349246773815,2.992373042751022,1.367433062029903,A,1058.007498999359,Correct
3,19,53,B,59.2629711063979,49.728204215461275,2.9631485553198953,0.7811288051975306,B,932.4343750195112,Correct
3,19,54,B,69.69986004355798,40.65091175803682,3.484993002177899,0.6385430287038771,B,725.4500830022153,Correct
3,19,55,B,48.83447011633841,21.20582747910028,2.4417235058169204,0.33310035910817,B,1051.6242499870714,Correct
3,19,56,B,70.517411241812,51.03308112358238,3.5258705620906,0.8016257637394918,B,1008.8907909812406,Correct
3,19,57,A,29.874392702983098,49.566304873292246,1.4937196351491548,0.7785856962776345,A,870.0093330116943,Correct
3,19,58,B,61.461622337391596,50.651888902177646,3.07308111686958,0.7956380103276383,B,906.9134170131292,Correct
3,19,59,A,47.588662748891394,74.73439832613174,2.37943313744457,1.173925183759144,A,1078.0909580062144,Correct
3,19,60,A,33.10560698262142,42.54767570892978,1.655280349131071,0.6683373271724734,A,2004.4910830038134,Correct
3,19,61,B,79.1558516450182,50.67305346978833,3.9577925822509097,0.795970462578249,B,858.436000009533,Correct
3,19,62,B,43.728785628502195,27.264059460368422,2.1864392814251095,0.4282628445386436,B,1440.319624991389,Correct
3,19,63,B,63.10267060157407,39.522173076912594,3.155133530078704,0.6208128429616645,B,624.7966660012025,Correct
3,19,64,B,72.95933429531215,49.35341843943023,3.6479667147656074,0.7752416839942852,B,902.3247080040164,Correct
3,19,65,A,43.939685511716725,76.4191418068452,2.1969842755858364,1.2003890724701074,A,1279.9595830147155,Correct
3,19,66,B,89.47680786053158,64.43984153218913,4.473840393026579,1.0122186637800792,B,509.872540977085,Correct
3,19,67,A,24.580844632795507,44.2902750569196,1.2290422316397753,0.6957100137214494,A,475.1257500029169,Correct
3,19,68,A,32.12816407945182,53.85399164834907,1.606408203972591,0.8459365226446975,A,634.4948750047479,Correct
3,19,69,B,86.266220808368,67.40274769203178,4.313311040418401,1.058759884905267,B,1404.675791010959,Correct
3,19,70,A,52.294718176375596,69.97826257865448,2.6147359088187794,1.0992159781403923,A,1257.634333014721,Correct
3,19,71,B,72.53775004549409,41.36966926490809,3.6268875022747045,0.6498332452203736,B,484.2889170104172,Correct
3,19,72,A,47.25350820809646,77.97688999028547,2.3626754104048233,1.2248581237163014,A,1111.9522909866646,Correct
3,19,73,A,35.15720502087562,63.6376325937131,1.757860251043781,0.9996175952412771,A,567.4729580059648,Correct
3,19,74,A,37.9486993279528,47.14813340525516,1.89743496639764,0.7406011476821056,A,1166.0968330106698,Correct
3,19,75,A,14.524627537241045,38.0853813556369,0.7262313768620523,0.5982437713801727,A,481.3932079996448,Correct
3,19,76,B,79.31021666214752,64.97224006662,3.965510833107376,1.0205815604028292,B,477.8932080080267,Correct
3,19,77,A,54.019185447838375,62.01100310336219,2.700959272391919,0.9740665589562827,A,2980.0509579945356,Correct
3,19,78,B,53.45446036846518,34.135037714010615,2.672723018423259,0.5361919185617313,B,607.5726250128355,Correct
3,19,79,B,58.01471251580548,42.175804502030175,2.900735625790274,0.6624959879140866,B,447.60620800661854,Correct
3,19,80,B,53.048584616809286,42.332036052220424,2.6524292308404642,0.6649500673657698,B,1122.7323329949286,Correct
3,19,81,B,84.87088239967508,62.97022590064664,4.2435441199837545,0.989133995421806,B,450.52045802003704,Correct
3,19,82,B,79.41991462580275,58.207434576039255,3.970995731290137,0.9143202442419672,B,722.9665830091108,Correct
3,19,83,A,36.03844889149186,56.114176795239615,1.8019224445745932,0.8814394279108181,A,2112.880666012643,Correct
3,19,84,A,16.897693669819002,47.121625389693875,0.8448846834909501,0.7401847607473627,A,495.31574998400174,Correct
3,19,85,A,41.48980115746605,53.69485272419126,2.0744900578733025,0.8434367742695258,A,618.5401249967981,Correct
3,19,86,A,60.37111176825608,71.50609247704978,3.018555588412804,1.1232150740640598,A,950.7663330005016,Correct
3,19,87,B,62.516333981808025,49.407433333029964,3.125816699090401,0.776090147958872,B,621.32258299971,Correct
3,19,88,B,48.410735441893145,36.52918335000289,2.4205367720946573,0.5737990702700184,B,1385.7544579950627,Correct
3,19,89,B,66.69685826519444,56.53410035927618,3.334842913259722,0.8880355718300507,B,484.61158300051466,Correct
3,19,90,B,50.33262243210625,21.745925720794137,2.5166311216053123,0.34158420244978094,B,669.2097909981385,Correct
3,19,91,B,77.83497779650133,63.16324234577222,3.8917488898250667,0.9921658906519487,B,473.3790000027511,Correct
3,19,92,B,68.65154420564554,35.91086211143348,3.432577210282277,0.5640865029667773,B,590.0409579917323,Correct
3,19,93,B,44.79002124015169,16.533798744439444,2.2395010620075846,0.2597123033573155,B,1424.1088739945553,Correct
3,19,94,A,25.18053519880342,48.81479368367045,1.259026759940171,0.7667809861156027,A,1316.874457988888,Correct
3,19,95,A,27.139554219100987,45.302189191666606,1.3569777109550494,0.7116051237803738,A,1696.0896250093356,Correct
3,19,96,B,64.9051479298569,36.9118808040526,3.2452573964928444,0.5798104678209687,B,785.3936239844188,Correct
3,19,97,A,22.79764447814692,48.580430142100795,1.139882223907346,0.7630996122132799,A,1024.7516249946784,Correct
3,19,98,B,84.03767665541469,62.35221744053382,4.201883832770734,0.9794263412310721,B,1470.2932919899467,Correct
3,19,99,A,50.365326387611944,78.83037853026524,2.518266319380597,1.238264690351919,A,1225.5134989973158,Correct
3,19,100,A,45.460030150112246,71.59957382927072,2.273001507505612,1.1246834757109845,A,851.6254580172244,Correct
3,19,101,A,61.87348345128109,82.72417885224698,3.0936741725640546,1.2994283627823362,A,1073.0859159957618,Correct
3,19,102,A,34.60730878097637,62.11543101795324,1.7303654390488186,0.9757069088028274,A,885.646375012584,Correct
3,19,103,A,24.15905816290982,47.26536607144468,1.207952908145491,0.7424426340964143,A,756.5870829857886,Correct
3,19,104,B,43.328736974600744,23.97429958252278,2.1664368487300374,0.3765874172170721,B,648.8454159989487,Correct
3,19,105,B,38.5485168315735,29.488909343946105,1.927425841578675,0.46321070478658244,B,1252.4812500050757,Correct
3,19,106,B,47.13111847518145,17.477330275374086,2.3565559237590725,0.27453326198738853,B,1100.100207986543,Correct
3,19,107,A,16.003758414070198,36.0111373429346,0.80018792070351,0.5656616226198821,A,719.8450410214718,Correct
3,19,108,A,10.749837239541115,32.420522227580406,0.5374918619770558,0.509260372278556,A,617.7220829995349,Correct
3,19,109,A,58.32781377854549,73.58949410025208,2.916390688927274,1.1559410702337065,A,494.6816250158008,Correct
3,19,110,A,36.858698176925,45.27380048259353,1.84293490884625,0.7111591949810293,A,1232.4820409994572,Correct
3,19,111,A,39.23143208351159,50.42108181153915,1.9615716041755797,0.7920125010259066,B,672.5194159953389,Incorrect
3,19,112,A,54.25484133353246,79.22879407793884,2.7127420666766233,1.244522987140156,A,690.2504580211826,Correct
3,19,113,B,48.97575475743248,37.9571440858195,2.448787737871624,0.596229425056299,B,510.7481660088524,Correct
3,19,114,B,63.57846075709893,35.298851827663555,3.178923037854947,0.5544730679097124,B,559.8324160091579,Correct
3,19,115,A,38.88212467295451,55.76152876077762,1.9441062336477257,0.8759000455389747,A,557.6683330000378,Correct
3,19,116,B,79.54097054213804,52.260250693332004,3.977048527106902,0.8209020982646635,B,664.9334160028957,Correct
3,19,117,A,22.42888746927611,40.217092480744256,1.1214443734638053,0.6317286114312373,A,641.5527079952881,Correct
3,19,118,A,29.827664550568414,54.23326451789582,1.4913832275284207,0.8518941269480674,A,810.559748992091,Correct
3,19,119,B,48.25004158752133,34.9681599193015,2.4125020793760665,0.5492785715601533,B,568.8013329927344,Correct
3,19,120,A,36.25243025758435,54.99618132883862,1.8126215128792176,0.8638779961908578,A,594.5777500164695,Correct
3,19,121,A,24.172395687216806,42.340271280876706,1.2086197843608404,0.6650794260350058,A,651.815124991117,Correct
3,19,122,A,20.23461037326631,48.510320807609524,1.0117305186633154,0.7619983373623509,A,1607.5631669955328,Correct
3,19,123,A,59.17145309453876,72.28508366752061,2.958572654726938,1.1354514390700314,A,3223.645457997918,Correct
3,19,124,A,39.00828818137432,57.14805954688917,1.950414409068716,0.8976796201970952,A,1075.0129990046844,Correct
3,19,125,A,61.394069797867154,77.88012793582088,3.069703489893358,1.2233381889190404,A,555.3165829915088,Correct
3,19,126,B,59.757941942557856,28.93040135390472,2.9878970971278926,0.4544376817941564,B,558.6496659961995,Correct
3,19,127,A,49.966798197122856,71.36195187044831,2.4983399098561425,1.120950918710144,A,955.0630410085432,Correct
3,19,128,A,47.19152000453573,72.73604156107598,2.3595760002267867,1.1425350690973908,A,1162.6327499980107,Correct
3,19,129,A,33.13881942444283,61.830162584853184,1.6569409712221415,0.9712259227341864,A,1170.8721659961157,Correct
3,19,130,B,51.39108911976652,25.287936427464214,2.5695544559883263,0.3972219765248365,B,574.379208002938,Correct
3,19,131,A,47.419361383064185,60.18586698291754,2.3709680691532093,0.9453973878173311,A,990.3766659845132,Correct
3,19,132,B,55.170122435495564,46.0896034057863,2.7585061217747784,0.7239737973324267,B,802.9957489925437,Correct
3,19,133,A,27.51902566637144,55.96217220605797,1.375951283318572,0.8790517454073931,A,1628.0294159951154,Correct
3,19,134,B,75.10360656989835,58.81066120639965,3.7551803284949177,0.9237957059939169,B,448.09199997689575,Correct
3,19,135,A,44.954850075136065,60.65856437453353,2.247742503756803,0.9528225010816904,A,1456.0646250029095,Correct
3,19,136,B,72.37275427471626,44.77442141892921,3.618637713735813,0.7033149669922073,B,521.1445410095621,Correct
3,19,137,B,54.52273134420974,27.30936518165516,2.726136567210487,0.42897450514444374,B,483.2700830011163,Correct
3,19,138,A,39.182617906387385,57.907082060788106,1.9591308953193691,0.9096023179649662,A,654.2740410077386,Correct
3,19,139,A,60.5069982854864,84.97931210893167,3.0253499142743197,1.3348519131426693,A,627.8858749719802,Correct
3,19,140,A,27.91831033812591,42.267649397610924,1.3959155169062956,0.6639386841602177,A,589.7255830059294,Correct
3,19,141,B,57.80196054396577,27.748445170291994,2.890098027198288,0.4358715574776425,B,582.7562499907799,Correct
3,19,142,B,48.35950064532027,20.347547451159997,2.4179750322660136,0.3196185279556698,B,646.5184580010828,Correct
3,19,143,B,44.03062529274878,14.976765961496284,2.2015312646374388,0.23525448959585202,B,813.8592079922091,Correct
3,19,144,B,75.52358875846569,61.14158378595537,3.7761794379232843,0.960409752254011,B,1152.7224580058828,Correct
3,19,145,B,81.92955629616151,61.43382040908848,4.096477814808075,0.9650001943957354,B,633.5621670004912,Correct
3,19,146,B,88.67060895713904,64.02007518389118,4.433530447856952,1.0056249893998939,B,505.1581659936346,Correct
3,19,147,B,74.72718791633802,61.90794396531067,3.7363593958169012,0.9724477098013428,B,1011.914832983166,Correct
3,19,148,B,75.4486360495709,42.97945941879923,3.7724318024785446,0.6751197698268016,B,763.110041996697,Correct
3,19,149,A,58.03418714936117,71.29020658569033,2.9017093574680586,1.119823946412517,A,790.8625830023084,Correct
3,19,150,A,30.957425045517418,57.847043373785255,1.547871252275871,0.9086592324748693,A,496.1117079947144,Correct
3,19,151,A,31.975893095947825,50.39007346590932,1.598794654797391,0.7915254230717533,A,509.4707910029683,Correct
3,19,152,A,48.56229771798678,60.0471526417428,2.428114885899339,0.9432184680414205,A,509.2747910239268,Correct
3,19,153,B,39.64272098804142,21.699635340733195,1.982136049402071,0.3408570748601243,B,450.460499007022,Correct
3,19,154,B,47.8715726766717,22.971459534961586,2.393578633833585,0.3608348425863526,B,787.8680000139866,Correct
3,19,155,B,83.6465434454467,65.35034914437682,4.182327172272335,1.0265208839075113,B,1059.4085410120897,Correct
3,19,156,B,60.84636448754191,53.58809078115202,3.042318224377096,0.8417597615898504,B,550.7874159957282,Correct
3,19,157,A,44.58201028571577,71.95857990598114,2.2291005142857885,1.1303227299769223,A,521.3156660029199,Correct
3,19,158,A,22.07741578528944,34.282834309753,1.1038707892644721,0.5385135020587807,A,545.2809580019675,Correct
3,19,159,B,66.33071085301319,46.41883105985103,3.3165355426506595,0.7291452932292686,B,411.4081250154413,Correct
3,19,160,A,42.16722785417032,66.55247291166847,2.1083613927085163,1.045403799887657,A,786.0174579836894,Correct
3,19,161,A,55.91710474207371,79.37767253779224,2.7958552371036856,1.2468615645189218,A,944.3679579999298,Correct
3,19,162,A,47.239283680811276,64.54188918312181,2.3619641840405636,1.01382162453251,A,856.4179579843767,Correct
3,19,163,B,47.574951190628134,35.68461987838252,2.3787475595314067,0.560532698280354,B,680.1260830252431,Correct
3,19,164,A,47.57303585842458,69.54615372287223,2.378651792921229,1.092428428106009,A,789.7354580054525,Correct
3,19,165,A,49.31073206102851,64.34429558328213,2.4655366030514254,1.0107178315242464,A,1054.7408740094397,Correct
3,19,166,A,64.58554121991425,82.72352346436661,3.2292770609957127,1.299418067973585,A,868.7474579783157,Correct
3,19,167,B,56.285795747607466,42.30501341626495,2.8142897873803734,0.664525596792778,B,1247.4207500054035,Correct
3,19,168,A,60.05921516930621,76.82443944668461,3.0029607584653104,1.2067554729092913,A,923.011790990131,Correct
3,19,169,B,72.76643917459843,46.71198496115855,3.6383219587299216,0.7337501439428629,B,428.13037501764484,Correct
3,19,170,B,71.55538217001441,47.39349518917846,3.5777691085007204,0.7444552815713311,B,463.5752500034869,Correct
3,19,171,B,54.451652041647456,28.058750043313566,2.722582602082373,0.44074581502493093,B,460.46037500491366,Correct
3,19,172,A,22.82701397457372,47.28141138867518,1.1413506987286859,0.7426946733500938,A,605.2697080012877,Correct
3,19,173,A,31.338275502178362,40.58988802332077,1.5669137751089182,0.6375844701204842,A,1387.1394989837427,Correct
3,19,174,B,54.912167855941064,46.316321416910284,2.745608392797053,0.7275350755233447,B,402.12233300553635,Correct
3,19,175,B,32.72478282982949,15.025607757635136,1.6362391414914748,0.23602169473554177,B,683.9787079952657,Correct
3,19,176,A,24.7123587377722,37.65546175844459,1.23561793688861,0.5914906101393046,A,1396.6504999843892,Correct
3,19,177,B,80.94975106009782,63.45569209721412,4.047487553004891,0.9967596806053188,B,903.7445409921929,Correct
3,19,178,B,66.3584990410371,54.1539184554957,3.3179249520518557,0.8506477619144299,B,829.3222499778494,Correct
3,19,179,A,39.97658900539742,65.45759011299849,1.998829450269871,1.0282054211034395,A,722.7776250219904,Correct
3,19,180,B,39.973736216679605,19.389952968602632,1.9986868108339804,0.3045766689980681,B,403.5653330211062,Correct
3,19,181,A,41.42692520053282,66.280413310663,2.0713462600266412,1.04113029766837,A,768.6028749740217,Correct
3,19,182,B,56.52294203133429,48.20569679851275,2.8261471015667143,0.7572133146169233,B,576.143749000039,Correct
3,19,183,B,57.976244904922225,46.501821968386764,2.8988122452461114,0.7304489113721216,B,626.2806250015274,Correct
3,19,184,A,45.691997052264995,57.97790798172892,2.2845998526132494,0.910714848929523,A,1926.3542910048272,Correct
3,19,185,B,89.6085863115343,68.6981561492172,4.480429315576715,1.079108113367726,B,482.4917910154909,Correct
3,19,186,A,48.20219239692706,62.94601781486929,2.4101096198463527,0.9887537356996281,A,751.7261669854634,Correct
3,19,187,A,23.303790925661943,47.33243594957038,1.1651895462830972,0.7434961652783986,A,647.3924579913728,Correct
3,19,188,B,33.219055138630964,20.484490215670213,1.660952756931548,0.3217696198704077,B,736.5210409916472,Correct
3,19,189,B,57.23581332708772,49.23595141755262,2.861790666354386,0.7733965163294363,B,494.25537398201413,Correct
3,19,190,A,60.698967106812475,81.73293187678642,3.0349483553406236,1.2838578917023362,A,1222.4284169788007,Correct
3,19,191,A,39.971281132216475,55.01115224456532,1.9985640566108236,0.8641131587851802,A,1568.002499989234,Correct
3,19,192,A,60.856780431088815,70.12347738930308,3.0428390215544407,1.1014970070520225,A,2406.7638739943504,Correct
3,19,193,A,60.117586072545656,69.60593907919579,3.005879303627283,1.093367534287101,B,462.37579101580195,Incorrect
3,19,194,B,81.10073457178912,58.96741458713297,4.055036728589456,0.9262579823406029,B,510.22729100077413,Correct
3,19,195,A,39.827382893655205,64.61343099717863,1.9913691446827602,1.0149454007198369,A,1343.7492499942891,Correct
3,19,196,B,58.39401243641255,29.104909105544007,2.9197006218206276,0.4571788431468787,B,518.0382500111591,Correct
3,19,197,B,46.050376265098755,35.410532686142105,2.3025188132549377,0.5562273467324265,B,876.6489999834448,Correct
3,19,198,B,78.5062594325424,48.27515648141381,3.9253129716271196,0.7583043847645364,B,733.6912080063485,Correct
3,19,199,B,66.26244356896714,37.52994646364684,3.313122178448357,0.5895190204990557,B,499.0862080012448,Correct
3,19,200,B,48.052770144593424,31.29720449588716,2.402638507229671,0.49161533861088275,B,959.1613749798853,Correct
3,19,201,B,57.12008605933294,38.227310308069065,2.856004302966647,0.6004731861516357,B,670.5334169964772,Correct
3,19,202,A,25.157108129478345,44.0102037944226,1.2578554064739174,0.6913106646177384,A,1257.920790987555,Correct
3,19,203,B,79.51721699604241,51.374955965458476,3.97586084980212,0.8069959211979172,B,451.2896250234917,Correct
3,19,204,A,30.009279448008822,46.30189338556707,1.5004639724004412,0.7273084405369767,A,1551.0607500036713,Correct
3,19,205,B,41.464723768812334,27.135206638774886,2.073236188440617,0.4262388291500808,B,1369.8312909982633,Correct
3,19,206,A,29.373210448134984,57.52547722522301,1.4686605224067493,0.9036080832250377,A,984.2818330216687,Correct
3,19,207,B,52.946886094638614,21.491810106036507,2.6473443047319307,0.3375925637073558,B,594.6895829983987,Correct
3,19,208,B,50.728187668494215,27.009235060611008,2.536409383424711,0.42426007222747714,B,652.26345800329,Correct
3,19,209,B,79.89520381319667,54.15473582934467,3.9947601906598336,0.8506606011928258,B,479.0618330007419,Correct
3,19,210,B,42.54104786922882,18.872275314231477,2.1270523934614407,0.29644500741856805,B,462.7064169908408,Correct
3,19,211,B,36.18254071173327,26.443514430950156,1.8091270355866635,0.4153737533568434,B,1116.460332996212,Correct
3,19,212,A,33.76556931062952,42.606102383408356,1.6882784655314762,0.6692550912290512,B,1793.030124012148,Incorrect
3,19,213,B,65.93085299619386,45.53803958232463,3.296542649809693,0.7153098530535612,B,499.5067080017179,Correct
3,19,214,B,85.8413344448777,57.73231565331285,4.292066722243885,0.9068570936558733,B,406.32529198774137,Correct
3,19,215,A,65.94107573396968,81.77789241270995,3.297053786698484,1.2845641301491302,A,520.5407080065925,Correct
3,19,216,A,43.46106009693238,57.72927538447868,2.173053004846619,0.9068093372247014,A,597.0823329989798,Correct
3,19,217,B,54.078146899651216,35.5164788808017,2.7039073449825604,0.5578915456665183,B,484.3322079977952,Correct
3,19,218,A,26.053261915037417,40.66106119374641,1.3026630957518708,0.6387024556671939,A,972.9967080056667,Correct
3,19,219,A,24.851652696813694,51.170779160457734,1.2425826348406845,0.8037887194447985,A,863.0016240058467,Correct
3,19,220,B,74.82708178260145,43.92804256751338,3.7413540891300725,0.6900200790833987,B,606.3104579807259,Correct
3,19,221,B,80.17627311486164,55.242007857273116,4.008813655743082,0.8677394302697944,B,578.6879159859382,Correct
3,19,222,A,42.45622868454462,53.51393408035532,2.122811434227231,0.8405949108576637,A,914.4185830082279,Correct
3,19,223,B,31.43007112563351,15.34549569713101,1.5715035562816755,0.24104648273900284,B,411.0044169938192,Correct
3,19,224,A,32.55048811365289,58.57480613010301,1.6275244056826443,0.92009090311889,A,484.2650000064168,Correct
3,19,225,B,67.71319581827346,56.223194427075576,3.3856597909136728,0.8831518728672562,B,670.2016239869408,Correct
3,19,226,A,31.839007905651187,57.91696233947827,1.5919503952825593,0.9097575170197083,A,558.9217490050942,Correct
3,19,227,B,68.05389583203947,42.252894737704715,3.4026947916019736,0.6637069185043798,B,370.7199579803273,Correct
3,19,228,A,35.60961660962304,44.61928703030972,1.780480830481152,0.7008781217141768,A,639.8580410168506,Correct
3,19,229,B,73.8760990728656,61.05947127417171,3.69380495364328,0.9591199319350744,B,612.3227909847628,Correct
3,19,230,A,33.00781152013829,59.14718241001127,1.6503905760069144,0.9290817686991342,A,583.3416249952279,Correct
3,19,231,B,56.94690533845384,42.19766605788729,2.8473452669226917,0.6628393884304704,B,581.16445800988,Correct
3,19,232,A,64.18382709709562,88.27137382507243,3.209191354854781,1.3865634976556296,A,790.8712490170728,Correct
3,19,233,B,38.46216531282971,20.469513178166782,1.9231082656414855,0.3215343611154411,B,1301.9834989972878,Correct
3,19,234,B,60.64130529541325,29.75335465413265,3.0320652647706625,0.4673646020053741,B,929.7644159814809,Correct
3,19,235,B,54.66750560985508,29.28058585550017,2.7333752804927536,0.45993836708222274,B,583.5779159970116,Correct
3,19,236,B,40.09794806312732,27.424968947295277,2.0048974031563658,0.4307904048487552,B,556.3770410080906,Correct
3,19,237,A,46.81323490819188,57.93363243374002,2.340661745409594,0.910019370248045,A,978.7299580057152,Correct
3,19,238,A,26.114420064158015,47.60893902677599,1.3057210032079007,0.7478394654586192,A,1042.8389169974253,Correct
3,19,239,A,46.61684660362978,68.67602263546668,2.330842330181489,1.0787604409467424,A,989.1205829917453,Correct
3,19,240,A,38.65266642242559,52.18133940691585,1.9326333211212796,0.8196625626762122,A,898.1702080054674,Correct
3,19,241,A,35.507379144498636,68.04563970854836,1.7753689572249316,1.0688584090859672,A,756.9171659997664,Correct
3,19,242,B,67.4076783604478,43.61537203350808,3.37038391802239,0.6851086618202735,B,759.6663330041338,Correct
3,19,243,B,62.416283523645866,45.79076551158768,3.1208141761822934,0.7192796626672835,B,538.3985830121674,Correct
3,19,244,B,71.60476749285435,41.58174608609742,3.5802383746427178,0.653164540137599,B,464.87149997847155,Correct
3,19,245,B,44.459224279762736,21.167477660009915,2.2229612139881367,0.3324979615585661,B,786.0970000037923,Correct
3,19,246,B,47.06563708820827,39.769512635777026,2.3532818544104135,0.6246980436670178,B,651.7725829908159,Correct
3,19,247,B,72.88560350857985,45.659953370160665,3.6442801754289924,0.7172248703547464,B,605.8109579898883,Correct
3,19,248,A,50.87029790056971,57.68971154645476,2.5435148950284856,0.9061878699102828,A,722.4606660020072,Correct
3,19,249,B,67.02211272885103,37.43585559839875,3.3511056364425515,0.5880410446438892,B,525.2387499785982,Correct
3,19,250,B,82.5780101755658,67.48472501853973,4.1289005087782895,1.0600475817388588,B,804.333082982339,Correct
3,19,251,A,39.78769836907722,56.78075726220558,1.989384918453861,0.8919100494010517,A,809.6720830071718,Correct
3,19,252,A,20.359014431191493,38.949462230702416,1.0179507215595747,0.6118167220262392,A,599.5683329820167,Correct
3,19,253,B,80.9693308437971,63.13509177817829,4.048466542189854,0.9917237025702114,B,538.4301239973865,Correct
3,19,254,B,65.37851881962476,45.30776234550109,3.268925940981238,0.7116926666760924,B,488.7107500107959,Correct
3,19,255,B,43.071733830812164,15.78824078430825,2.153586691540608,0.24800110630544778,B,747.4116249941289,Correct
3,19,256,B,34.33712522955696,14.00070523031436,1.716856261477848,0.21992256348315892,A,1667.894125013845,Incorrect
3,19,257,B,62.869930426204206,40.63157155760951,3.14349652131021,0.6382392335459701,B,492.98350000754,Correct
3,19,258,B,38.41602622214401,21.120390727708106,1.9208013111072006,0.33175832175556885,B,581.3561670074705,Correct
3,19,259,A,18.609527092888726,43.87267161619778,0.9304763546444363,0.689150314214022,A,543.6624579888303,Correct
3,19,260,A,53.18956825446938,64.31701378764681,2.6594784127234687,1.0102892900805234,A,597.7112499822397,Correct
3,19,261,B,56.746486420467576,38.807562940405326,2.837324321023379,0.6095877731865045,B,463.91170797869563,Correct
3,19,262,A,64.52991571784406,89.5500474161471,3.226495785892203,1.4066488554559269,A,636.6887489857618,Correct
3,19,263,A,53.05797811779739,81.80974421449268,2.6528989058898698,1.2850644570815515,A,505.23654199787416,Correct
3,19,264,B,80.23123721824788,67.82045183379871,4.011561860912394,1.0653211662210125,B,719.0160419850145,Correct
3,19,265,A,53.23662672214796,64.89228349926836,2.6618313361073977,1.019325605579838,B,822.0836670079734,Incorrect
3,19,266,B,51.620721672107074,41.250386395879694,2.5810360836053534,0.6479595542951799,B,655.2320829941891,Correct
3,19,267,B,68.34984798502433,42.24587427673343,3.4174923992512163,0.6635966413613188,B,561.3817079865839,Correct
3,19,268,B,75.21804128904648,55.01998687320694,3.760902064452324,0.8642519328073689,B,390.7847079972271,Correct
3,19,269,B,52.90902043581984,31.664849698936237,2.645451021790992,0.49739029595601525,B,516.4958329987712,Correct
3,19,270,B,50.46380620212062,21.07317762356685,2.523190310106031,0.33101670004995215,B,855.4192489827983,Correct
3,19,271,A,61.137185366209685,74.64201714341247,3.0568592683104843,1.1724740635343402,A,997.9548330011312,Correct
3,19,272,A,41.07766171712697,60.739480111447726,2.0538830858563486,0.9540935225049376,A,549.8768739926163,Correct
3,19,273,A,38.95872571232928,55.664621684581974,1.9479362856164641,0.8743778327456891,A,739.5551670051645,Correct
3,19,274,A,60.17560712654476,81.29453776559508,3.008780356327238,1.2769716131068576,A,437.3665410093963,Correct
3,19,275,A,42.96599728980485,50.852767106111365,2.1482998644902422,0.7987933977763606,A,411.6814580047503,Correct
3,19,276,B,69.48656525889481,44.7161038549139,3.4743282629447405,0.7023989168387786,B,601.9905419962015,Correct
3,19,277,B,31.25344628326236,16.864581888981277,1.562672314163118,0.2649082328414353,B,579.7333749942482,Correct
3,19,278,B,61.58568472986536,34.08597156952671,3.079284236493268,0.5354211893664783,B,501.7531249905005,Correct
3,19,279,A,41.40189200050773,68.03283459832525,2.0700946000253864,1.0686572668849406,A,582.4294160120189,Correct
3,19,280,A,43.14236477827623,57.48701608376133,2.1571182389138115,0.9030039370277143,A,559.7732489986811,Correct
3,19,281,B,88.44467684540047,63.59286781950634,4.422233842270023,0.9989144318123394,B,407.2231659956742,Correct
3,19,282,A,68.07707566935093,81.39857565835453,3.403853783467547,1.2786058365047976,B,470.4989579913672,Incorrect
3,19,283,B,74.76338266624747,44.36526232759483,3.7381691333123737,0.6968879110147795,B,396.9704999763053,Correct
3,19,284,A,53.142502792907294,70.94320334775614,2.657125139645365,1.1143732322971875,A,645.7586660108063,Correct
3,19,285,A,39.070583429327414,65.37898885040842,1.9535291714663707,1.0269707553578604,A,925.3909999970347,Correct
3,19,286,B,50.41809360688438,21.490114191499128,2.520904680344219,0.3375659243440971,B,373.6578329990152,Correct
3,19,287,A,60.327038203702465,71.1950388577373,3.0163519101851235,1.118329055237537,A,486.3932489824947,Correct
3,19,288,A,32.55200480981181,42.91039137872498,1.6276002404905907,0.6740348515903258,A,609.1024159977678,Correct
3,19,289,B,64.20237123083307,55.44447878754701,3.2101185615416536,0.8709198362053641,A,1011.0419160046149,Incorrect
3,19,290,A,66.5011229910679,78.9944518942255,3.3250561495533955,1.2408419487262559,A,491.635498998221,Correct
3,19,291,A,38.99365034762337,54.625973137009694,1.9496825173811687,0.8580627795121152,A,467.0680419949349,Correct
3,19,292,B,35.28303890894928,20.062651157432448,1.764151945447464,0.3151433874386227,B,1305.2467080124188,Correct
3,19,293,A,48.13517928488666,57.859409310223064,2.4067589642443328,0.9088534761502084,A,805.8014159905724,Correct
3,19,294,B,54.64559472804508,44.00137500526232,2.732279736402254,0.6911719823219081,B,441.7788330174517,Correct
3,19,295,A,14.89858887066885,31.614534672698,0.7449294435334424,0.49659994937203916,A,470.67549999337643,Correct
3,19,296,A,47.57367202043973,54.36640800821924,2.3786836010219865,0.8539855400034344,B,1454.5519159873948,Incorrect
3,19,297,A,52.08659047865771,70.85127298621339,2.604329523932886,1.1129291935548646,A,694.0042079950217,Correct
3,19,298,A,40.68819541785968,58.30158467206499,2.034409770892984,0.9157991504920133,A,526.8734160054009,Correct
3,19,299,A,21.546393929835908,37.145015148339304,1.0773196964917955,0.5834725335375217,A,476.9659580197185,Correct
