subject,day,trial,cat,x,y,xt,yt,resp,rt,fb
3,7,0,A,58.323761532318,74.52211771609136,2.9161880766159003,1.170590687734132,B,701.9662910024635,Incorrect
3,7,1,B,41.41389213439771,15.458599732353967,2.0706946067198855,0.2428231167697418,B,1623.5491660190746,Correct
3,7,2,A,27.981307483513365,47.035440235712066,1.3990653741756682,0.738830967514374,A,657.8327080060262,Correct
3,7,3,A,12.023678070120202,30.46290332396895,0.60118390350601,0.4785101664479847,A,461.3013750058599,Correct
3,7,4,A,20.428245180853434,34.349082762659975,1.0214122590426717,0.5395541303236018,A,624.8223329894245,Correct
3,7,5,B,45.44995427929531,17.437539183754524,2.2724977139647655,0.27390822498183687,B,622.6107080001384,Correct
3,7,6,A,63.53697681802535,83.61969775809101,3.1768488409012674,1.313495140861088,A,620.4024580074474,Correct
3,7,7,A,41.842223201796116,62.77414796001591,2.092111160089806,0.9860540103327236,A,1119.3643329897895,Correct
3,7,8,A,57.11144509539259,64.98830687875505,2.85557225476963,1.0208339372976796,B,838.8024989981204,Incorrect
3,7,9,B,64.5003227122079,48.99879936289165,3.225016135610395,0.7696713405659031,B,535.4584160086233,Correct
3,7,10,A,58.3452490429226,84.60945875960972,2.9172624521461303,1.3290422703169924,A,518.8633329817094,Correct
3,7,11,A,36.410243924186005,50.905339623768846,1.8205121962093003,0.7996192049526282,B,658.3906659798231,Incorrect
3,7,12,B,55.150983244128426,38.81295447895852,2.7575491622064217,0.6096724632760556,B,471.6166659782175,Correct
3,7,13,A,50.06979168926205,79.8378053285973,2.5034895844631024,1.2540893134952666,A,503.2649580098223,Correct
3,7,14,A,21.34203680620893,49.67051103527485,1.0671018403104466,0.7802225628423511,A,404.12608202314004,Correct
3,7,15,A,28.41377815117523,58.40692036008751,1.4206889075587614,0.9174537596102752,A,511.8366250244435,Correct
3,7,16,B,61.06488361916805,40.19346360690602,3.0532441809584028,0.6313574499489233,B,547.8169989946764,Correct
3,7,17,A,37.38996568577474,47.42846808435087,1.869498284288737,0.7450046345240733,A,546.3775410025846,Correct
3,7,18,B,80.47295249798765,50.775852324146456,4.023647624899382,0.7975852232064937,B,457.54479098832235,Correct
3,7,19,B,79.13871817403232,64.93516702181599,3.956935908701616,1.0199992183768165,B,443.45362499007024,Correct
3,7,20,B,51.26014077045154,37.42604103009234,2.563007038522577,0.5878868777654414,B,604.499124980066,Correct
3,7,21,B,65.25116810046995,57.35255533687611,3.2625584050234977,0.9008918325546604,B,424.84512500232086,Correct
3,7,22,B,44.04967602431941,26.744724449772907,2.2024838012159704,0.42010514926844944,B,509.36316599836573,Correct
3,7,23,A,21.200758109410717,52.782064431000585,1.0600379054705358,0.8290987292886729,A,500.91379100922495,Correct
3,7,24,A,35.29180547168661,59.283828321988764,1.7645902735843304,0.9312281976651922,A,722.1249569847714,Correct
3,7,25,A,63.38697892481105,73.02502056737659,3.1693489462405524,1.1470743407135693,B,445.14416600577533,Incorrect
3,7,26,B,50.51735642801865,28.17009626525803,2.5258678214009325,0.4424948373892595,B,601.6823329846375,Correct
3,7,27,B,58.795350851895066,39.733099760459616,2.9397675425947534,0.6241260715590515,B,558.2606660027523,Correct
3,7,28,B,47.78600274021131,28.09744991760878,2.3893001370105655,0.4413537112288344,B,529.0239579917397,Correct
3,7,29,B,57.9918030086125,41.181638988979714,2.8995901504306247,0.6468796725528283,B,413.9283330005128,Correct
3,7,30,B,59.78618757732053,31.606678463877497,2.989309378866027,0.49647654433246136,B,478.4342079947237,Correct
3,7,31,A,63.590023294701496,75.1219641882295,3.1795011647350746,1.1800130540848865,A,562.4520409910474,Correct
3,7,32,A,27.42870374831184,42.41526331264337,1.3714351874155921,0.6662573981153855,A,622.6662910194136,Correct
3,7,33,A,51.086938065831625,60.462291448353334,2.5543469032915813,0.949739453166759,B,1274.9388329975773,Incorrect
3,7,34,A,50.538538300359264,76.86494783649273,2.526926915017963,1.2073917772084413,A,759.5540820038877,Correct
3,7,35,A,21.15289114805982,43.272061175038516,1.057644557402991,0.6797159474659455,A,526.4009569946211,Correct
3,7,36,B,65.58743674525603,57.44077538753979,3.279371837262801,0.902277589869982,B,693.4763739991467,Correct
3,7,37,A,44.68554466164659,51.8456179736831,2.2342772330823295,0.8143890627347288,B,606.9921240268741,Incorrect
3,7,38,A,61.9819941537357,74.03777122133579,3.0990997076867846,1.1629825907855516,A,1290.9877080237493,Correct
3,7,39,A,18.761728340433333,32.97241181788976,0.9380864170216667,0.5179294336910987,B,501.03487400338054,Incorrect
3,7,40,A,56.56545007755471,78.40437345095364,2.828272503877735,1.231573018214133,A,647.7355410170276,Correct
3,7,41,B,66.08140442540244,36.07997606345954,3.3040702212701216,0.5667429387133004,B,614.5289159903768,Correct
3,7,42,A,11.635147573506217,31.872305135854955,0.5817573786753109,0.5006489983388708,A,464.9478750070557,Correct
3,7,43,A,28.04174210015229,59.41671246980626,1.4020871050076147,0.933315536978002,A,666.1592909949832,Correct
3,7,44,B,63.70418189933105,34.07338121120664,3.1852090949665524,0.5352234204804563,B,455.66854102071375,Correct
3,7,45,A,44.67853104578449,75.12297467046324,2.2339265522892244,1.180028926702697,A,553.8358330086339,Correct
3,7,46,B,48.726037616427064,26.475543893248872,2.436301880821353,0.41587687097412385,B,712.3249580035917,Correct
3,7,47,B,84.99210709173009,64.84427043422541,4.249605354586504,1.0185714181177619,B,928.6705410049763,Correct
3,7,48,B,79.29292147214515,55.57514284221851,3.9646460736072577,0.8729723023765852,B,516.9018750020768,Correct
3,7,49,B,63.087970857991316,49.78873876639949,3.154398542899566,0.7820796797001098,B,486.9849160022568,Correct
3,7,50,A,38.41979459093376,71.40818824180657,1.920989729546688,1.1216771979330828,A,1273.3777909888886,Correct
3,7,51,B,56.21027272816158,44.58378798319144,2.810513636408079,0.7003205039859957,B,548.6229579837527,Correct
3,7,52,B,82.73000111084312,67.16279594404148,4.136500055542156,1.0549907316617555,B,600.0142489792779,Correct
3,7,53,A,25.066494676666558,52.90950687712884,1.253324733833328,0.831100590551233,A,477.8039160009939,Correct
3,7,54,A,15.53951316680758,41.07964681522411,0.7769756583403791,0.645277583233857,A,451.4079579967074,Correct
3,7,55,A,68.3062392132928,82.82720714837164,3.41531196066464,1.3010467274734216,A,709.0488740068395,Correct
3,7,56,B,45.31448126869143,23.842936510053455,2.2657240634345714,0.374523970899959,B,629.2695410083979,Correct
3,7,57,B,36.22364303057521,20.817264110480185,1.8111821515287605,0.326996819986615,A,892.7306660043541,Incorrect
3,7,58,A,28.979934028262967,46.36301868296944,1.4489967014131482,0.7282685944633157,A,578.6641250015236,Correct
3,7,59,A,28.362857853582483,41.92801661696219,1.4181428926791242,0.6586037449171959,A,514.0125830075704,Correct
3,7,60,B,59.37231128630219,45.50183310226396,2.9686155643151095,0.7147411229947065,B,463.5355829959735,Correct
3,7,61,B,86.83088370098434,64.80868201116915,4.341544185049218,1.01801239647563,B,628.4928329987451,Correct
3,7,62,A,38.359247816831164,49.42107182423264,1.9179623908415582,0.7763043808777139,A,525.7613320136443,Correct
3,7,63,A,36.89565875326987,66.23173326634519,1.8447829376634934,1.0403656333203437,A,527.0136659964919,Correct
3,7,64,B,83.1694692634733,55.87156498188412,4.158473463173665,0.8776284904582594,B,527.0345409808215,Correct
3,7,65,A,34.93703822091491,50.09550566568104,1.7468519110457452,0.7868983628858471,A,503.98191600106657,Correct
3,7,66,B,68.88500559995586,46.711457426205975,3.444250279997793,0.7337418574432054,B,519.6132910205051,Correct
3,7,67,B,59.0426056507376,29.37506594258235,2.9521302825368796,0.4614224568196622,B,542.2641659970395,Correct
3,7,68,B,64.36369172148562,54.672111909595785,3.218184586074281,0.8587875256571258,B,586.7721660179086,Correct
3,7,69,B,40.63326231535338,24.730852810745777,2.031663115767669,0.38847132753624714,A,862.9183740122244,Incorrect
3,7,70,A,29.601599542721452,57.350354685938015,1.4800799771360726,0.9008572648105593,A,496.81933302781545,Correct
3,7,71,A,59.0545659214912,76.67936570298808,2.95272829607456,1.2044766598721623,A,736.874206981156,Correct
3,7,72,B,63.4485292861087,40.17434500782396,3.172426464305435,0.6310571356968075,B,523.4719569853041,Correct
3,7,73,A,43.62607979231882,61.230859432214515,2.181303989615941,0.961812090826172,A,601.0451239999384,Correct
3,7,74,A,25.526328184505132,41.976830147967874,1.2763164092252566,0.6593705060692121,A,455.0501659978181,Correct
3,7,75,A,54.24600937370135,74.34575448280012,2.7123004686850676,1.1678203805437763,A,538.2460830151103,Correct
3,7,76,A,30.159920398169998,42.76190507355492,1.5079960199084999,0.6717024341629213,A,509.54454101156443,Correct
3,7,77,B,82.14445768776889,67.87666492680833,4.107222884388444,1.066204159421185,B,502.95595699572004,Correct
3,7,78,B,56.430331551057364,39.64822008411882,2.821516577552868,0.6227927847208949,B,890.6379580148496,Correct
3,7,79,B,77.74881560332481,49.2210267840924,3.8874407801662407,0.7731620807352557,B,565.369499992812,Correct
3,7,80,A,24.26505834014513,48.463538352012385,1.2132529170072566,0.7612634802682466,A,480.57520799920894,Correct
3,7,81,B,50.079009533685266,40.543406221519675,2.5039504766842633,0.6368543356851646,A,502.7357079961803,Incorrect
3,7,82,B,82.48425499486113,59.98914504653595,4.124212749743057,0.9423072868666493,B,538.2001240213867,Correct
3,7,83,A,20.339219197656373,34.934196639568,1.0169609598828186,0.5487450776096404,A,628.8101240061224,Correct
3,7,84,A,59.776841780757486,75.81209274889727,2.9888420890378744,1.1908535681660184,A,579.2204570025206,Correct
3,7,85,A,27.649288803978557,54.475383840938925,1.3824644401989277,0.8556973283808893,A,450.5292910034768,Correct
3,7,86,A,34.28465877440381,67.34122856346094,1.7142329387201902,1.0577935446934004,A,869.9109159933869,Correct
3,7,87,B,44.07097941023858,27.709808509554676,2.203548970511929,0.4352646542299845,B,705.337582010543,Correct
3,7,88,A,55.942355473355235,73.51762268163246,2.797117773667762,1.1548121166300145,A,662.7625830005854,Correct
3,7,89,A,49.244710020136736,69.2184354897569,2.4622355010068366,1.0872806421379964,A,615.4032910126261,Correct
3,7,90,B,67.96800447171515,39.62176244837819,3.3984002235857576,0.6223771891505243,B,537.3819569940679,Correct
3,7,91,B,68.88361805904285,58.75871215259029,3.4441809029521426,0.9229796921648747,A,650.0664159830194,Incorrect
3,7,92,B,69.83929175288227,47.64634636831091,3.4919645876441137,0.7484270586054014,B,484.03195801074617,Correct
3,7,93,A,67.08438178846029,86.82714467154706,3.3542190894230144,1.363877599161552,A,614.4829989934806,Correct
3,7,94,A,35.52966176789796,43.65799816504352,1.776483088394898,0.6857782315286869,B,1296.7857490002643,Incorrect
3,7,95,B,72.26687681210338,47.278366221387465,3.6133438406051686,0.7426468399741933,B,386.4193740009796,Correct
3,7,96,A,50.97522439366748,66.14628552533381,2.548761219683374,1.0390234233432076,B,2560.6875410012435,Incorrect
3,7,97,A,51.3638977488835,59.5157348310679,2.568194887444175,0.9348709765914055,A,604.2872079997323,Correct
3,7,98,B,54.83390521415804,38.267439535194285,2.741695260707902,0.6011035345772898,B,589.1937080014031,Correct
3,7,99,B,44.70099786957263,35.38377389877877,2.2350498934786316,0.5558070206834282,B,546.7217499972321,Correct
3,7,100,B,73.734656191928,58.366171389423585,3.6867328095964003,0.9168136762758795,B,526.3273330056109,Correct
3,7,101,B,67.59019246386347,35.87435326676034,3.3795096231931736,0.5635130233756963,B,468.61337500740774,Correct
3,7,102,A,18.981946401179563,39.57600937148122,0.9490973200589781,0.621658501499231,A,492.97824897803366,Correct
3,7,103,B,37.69394513665172,26.113881202738984,1.8846972568325862,0.4101958867162069,A,707.2767489880789,Incorrect
3,7,104,B,61.35806183997149,28.191423312533068,3.067903091998575,0.44282984186446955,B,433.0400830076542,Correct
3,7,105,B,78.98341542914184,51.9745137580757,3.949170771457092,0.8164137529813614,B,458.22500000940636,Correct
3,7,106,B,53.04099980531003,22.14573137989919,2.6520499902655015,0.34786433505732123,B,528.9043750090059,Correct
3,7,107,A,31.976666970203688,56.878864472003194,1.5988333485101844,0.8934511138488737,A,581.6711240040604,Correct
3,7,108,B,64.99590315348703,43.74037584373883,3.2497951576743516,0.6870722170797318,B,412.9221659968607,Correct
3,7,109,B,62.11936399479521,37.75411587562024,3.1059681997397606,0.5930402653881317,B,440.5640829936601,Correct
3,7,110,B,40.68722529187805,20.084162527481855,2.034361264593903,0.31548128724920205,B,801.0712910036091,Correct
3,7,111,B,51.0863141341531,38.95069283745788,2.554315706707655,0.6118360523519512,B,479.7502080036793,Correct
3,7,112,B,60.924688832272885,34.263623670971015,3.0462344416136444,0.5382117420504394,B,498.97974901250564,Correct
3,7,113,B,83.0327666526253,68.56008920595744,4.151638332631265,1.0769393628944839,B,1260.0354159949347,Correct
3,7,114,B,61.69102529825641,53.91216231685206,3.0845512649128204,0.8468502653688147,B,473.3687910193112,Correct
3,7,115,B,44.27947691480428,20.37551167742584,2.2139738457402136,0.3200577889946703,B,701.101707003545,Correct
3,7,116,B,60.95849878623859,30.86852604272564,3.0479249393119296,0.48488167321486036,B,472.59862400824204,Correct
3,7,117,B,61.33149739424637,33.772570762330176,3.0665748697123183,0.5304983009988896,B,553.5295830050018,Correct
3,7,118,A,60.78928812790846,86.7189789750309,3.039464406395423,1.362178536373824,A,589.4556659914088,Correct
3,7,119,A,32.78939254447634,56.803515789359054,1.6394696272238172,0.8922675395096111,A,801.4765820116736,Correct
3,7,120,A,22.354544971444952,51.241595978097415,1.1177272485722476,0.8049011074150355,A,530.3372489870526,Correct
3,7,121,A,55.05981109207913,78.81835971578306,2.7529905546039566,1.2380758992555088,A,668.7628319778014,Correct
3,7,122,A,40.77825304136228,52.38341063338936,2.038912652068114,0.8228366900791673,A,1156.4382910146378,Correct
3,7,123,A,44.16760359752497,70.12141958095384,2.208380179876249,1.1014646830740602,A,844.3349580047652,Correct
3,7,124,A,51.263977686033755,78.45522057051656,2.5631988843016877,1.2323717229005082,A,840.3065000020433,Correct
3,7,125,B,51.0948343404177,36.76548461380563,2.554741717020885,0.5775108818420017,B,725.7248329988215,Correct
3,7,126,A,43.37800111401117,70.14418351236827,2.1689000557005587,1.1018222580725523,B,968.9096660003997,Incorrect
3,7,127,B,75.1392825280623,64.20069283271484,3.7569641264031146,1.008462124793159,B,463.33945798687637,Correct
3,7,128,A,24.51916665239512,53.73692639027796,1.225958332619756,0.8440976658709636,A,465.8166660228744,Correct
3,7,129,A,27.393268448347296,39.85110349839535,1.3696634224173647,0.6259796699400266,A,627.8430829988793,Correct
3,7,130,B,77.26154715795953,57.12559981442632,3.8630773578979762,0.8973268235445608,B,476.6116249957122,Correct
3,7,131,B,68.2930217701854,41.992166930516134,3.4146510885092702,0.6596114156861286,B,468.82933197775856,Correct
3,7,132,A,38.12554458133302,56.11210026492983,1.906277229066651,0.8814068098489872,A,680.6424999958836,Correct
3,7,133,B,49.55887950585878,33.97413917253823,2.477943975292939,0.5336645301824166,B,472.60425001149997,Correct
3,7,134,A,45.25979052336133,73.9920012498272,2.2629895261680666,1.1622636377543196,A,561.2824159907177,Correct
3,7,135,A,32.14547866983998,55.21376683186683,1.607273933491999,0.8672958212800629,A,713.3102079969831,Correct
3,7,136,A,60.48903550940199,74.71514286091121,3.0244517754700997,1.1736227196187528,A,1435.1515409944113,Correct
3,7,137,B,53.53567659304533,32.53640171324444,2.676783829652267,0.5110806029828754,B,868.463040998904,Correct
3,7,138,A,55.8618047643571,72.82607069671947,2.793090238217855,1.1439492434531238,A,756.815998989623,Correct
3,7,139,A,57.02018943167011,67.82372372356261,2.8510094715835055,1.0653725609452402,A,621.2241659814026,Correct
3,7,140,A,50.728248153940534,73.42620257237094,2.5364124076970267,1.1533760929117824,A,1136.5080410032533,Correct
3,7,141,A,50.748193895174744,63.29788595229067,2.5374096947587375,0.9942808674774047,A,1853.9372909872327,Correct
3,7,142,B,53.36134362341634,21.86516917857982,2.6680671811708168,0.34345727430462164,B,638.4469159820583,Correct
3,7,143,A,58.336777962955274,84.8667685818257,2.9168388981477635,1.3330840835528435,A,601.2210409971885,Correct
3,7,144,A,69.11237671572934,87.08723551728494,3.455618835786467,1.3679630966127323,A,641.663624002831,Correct
3,7,145,A,38.898664123460904,71.53879833617347,1.944933206173045,1.1237288164978214,A,472.0080829865765,Correct
3,7,146,A,50.058967041186335,59.844835493941915,2.5029483520593168,0.940040477715288,B,917.1503749967087,Incorrect
3,7,147,B,89.95621230952408,66.42430000141603,4.497810615476204,1.0433904645214656,B,610.0248330039904,Correct
3,7,148,B,37.55725280080874,18.714900754470804,1.8778626400404368,0.2939729736145378,A,604.0843740047421,Incorrect
3,7,149,A,66.54434287586838,80.53565872860942,3.327217143793419,1.2650511690690702,A,572.0521659823135,Correct
3,7,150,A,58.21351758699085,85.80394567514509,2.9106758793495424,1.3478052269102674,A,751.2418330006767,Correct
3,7,151,A,42.309804180921404,69.77739373043143,2.11549020904607,1.0960607376508293,A,1638.0174990044907,Correct
3,7,152,A,58.02663759154622,76.0535955792533,2.901331879577311,1.1946470857543567,A,688.7681240041275,Correct
3,7,153,A,32.704309394463706,61.578652910197086,1.6352154697231853,0.9672752180031545,A,571.1388329800684,Correct
3,7,154,B,69.0065117128395,40.40344334839934,3.450325585641975,0.6346558040153139,B,558.2874999963678,Correct
3,7,155,B,55.14495669096773,25.298081531994626,2.7572478345483864,0.3973813354541497,B,582.8880830085836,Correct
3,7,156,A,37.42819599595172,69.40675110238999,1.8714097997975858,1.0902386968640183,A,1080.6249160086736,Correct
3,7,157,A,49.57118833510204,62.542941910958675,2.478559416755102,0.9824222342068049,B,681.5571240149438,Incorrect
3,7,158,A,69.48338731800153,88.34197700975582,3.4741693659000763,1.3876725298872365,A,626.3547079870477,Correct
3,7,159,A,50.394597978333195,81.02047217581725,2.5197298989166597,1.2726666008896186,A,1613.0181239859667,Correct
3,7,160,A,39.08217727773535,51.22275719202187,1.9541088638867674,0.8046051884553482,A,923.4982070047408,Correct
3,7,161,B,60.74210566777747,44.92918453321183,3.0371052833888736,0.7057459803065923,B,501.85758198495023,Correct
3,7,162,A,55.53394165206538,76.51919810453121,2.776697082603269,1.2019607531188865,A,1338.981540990062,Correct
3,7,163,B,71.43928150569636,47.17572123851081,3.5719640752848183,0.7410344963535276,B,543.5092909901869,Correct
3,7,164,B,61.120992225064185,37.73457737767054,3.056049611253209,0.5927333553800268,B,845.9019159781747,Correct
3,7,165,B,75.92387424865444,50.21695556508233,3.7961937124327223,0.7888060934445386,B,531.5733330207877,Correct
3,7,166,A,42.908137445414155,54.12434742065694,2.1454068722707076,0.8501832611853875,A,592.9479990154505,Correct
3,7,167,B,53.720264644095394,29.067427582188472,2.6860132322047696,0.4565900847547831,B,581.864832987776,Correct
3,7,168,A,38.6902779737209,60.90548814155977,1.934513898686045,0.9567011705441222,A,682.1156659862027,Correct
3,7,169,A,46.407551736162304,68.05515223796012,2.320377586808115,1.0690078315485523,A,667.7540829987265,Correct
3,7,170,B,73.16265664473455,43.81508414258935,3.6581328322367277,0.6882457322938867,B,456.9732069794554,Correct
3,7,171,B,82.56205097887573,63.882408391939734,4.128102548943787,1.003462524488704,B,472.8633319900837,Correct
3,7,172,A,26.326412031663267,45.68199830561357,1.3163206015831634,0.7175711513910847,A,487.6103750139009,Correct
3,7,173,A,28.960961819204947,57.215750175417575,1.4480480909602473,0.8987429021036039,A,544.1107080259826,Correct
3,7,174,B,87.12883232925776,67.50038786656144,4.356441616462888,1.0602936131802552,B,489.4515829801094,Correct
3,7,175,B,67.0838614926397,54.59170457820211,3.354193074631985,0.85752449024912,B,451.6106660012156,Correct
3,7,176,B,71.21142681978611,60.94245208164428,3.560571340989305,0.9572817987572083,B,610.1902080117725,Correct
3,7,177,A,39.683037570706674,58.235864455320296,1.9841518785353338,0.914766819741426,A,640.9742080140859,Correct
3,7,178,A,68.73115321090137,84.13501528039463,3.4365576605450685,1.3215897295727637,A,650.9037069918122,Correct
3,7,179,A,21.854136287105543,51.844128227563736,1.0927068143552772,0.8143656618574073,A,464.7112910170108,Correct
3,7,180,A,18.619525657942148,46.185119181999,0.9309762828971074,0.7254741556366854,A,451.83245799853466,Correct
3,7,181,B,71.1974360502144,58.683519126286996,3.55987180251072,0.9217985628696966,B,498.2074160070624,Correct
3,7,182,A,68.54008526531426,86.02502971058007,3.427004263265713,1.3512780068180104,A,643.9127910125535,Correct
3,7,183,A,40.93853212761085,50.6748346004417,2.0469266063805422,0.7959984405131275,A,1228.3107490220573,Correct
3,7,184,B,62.835105599063155,45.13049114598307,3.1417552799531574,0.7089080971855982,B,618.5053320077714,Correct
3,7,185,A,56.582635302778684,75.88435786714214,2.829131765138934,1.191988705988963,B,850.9057909832336,Incorrect
3,7,186,B,79.15382473695414,56.67743997898102,3.9576912368477064,0.890287145311216,B,591.4673740044236,Correct
3,7,187,B,43.24190190962116,22.442665447109544,2.162095095481058,0.3525285644780642,A,2460.419456998352,Incorrect
3,7,188,A,26.80510264442825,47.18466788179347,1.3402551322214125,0.7411750298975832,A,582.7111250255257,Correct
3,7,189,A,41.27373697413721,69.94351061781778,2.06368684870686,1.0986700956160802,A,676.5288739989046,Correct
3,7,190,B,48.4485692604172,33.89794869775871,2.42242846302086,0.5324677330032123,B,818.0545000068378,Correct
3,7,191,A,53.47547919853403,67.08028137435869,2.6737739599267014,1.0536945958321076,B,757.1832909889054,Incorrect
3,7,192,B,42.07187924178851,33.14558920865747,2.1035939620894255,0.5206496977841172,A,940.1997069944628,Incorrect
3,7,193,B,83.46897313496171,61.947974159174166,4.173448656748086,0.9730765026161595,B,560.0019159901422,Correct
3,7,194,A,40.7442790236704,69.31543354432388,2.03721395118352,1.088804284016197,A,636.9073330133688,Correct
3,7,195,A,61.111363701002105,79.11045474600508,3.0555681850501055,1.2426641172609865,A,653.8941659964621,Correct
3,7,196,A,18.85704362779445,36.80460201247464,0.9428521813897226,0.5781253365034322,A,503.67725000251085,Correct
3,7,197,B,80.5449574464564,60.47932396481909,4.02724787232282,0.9500069993097638,B,653.4782490052748,Correct
3,7,198,B,50.082842658239116,35.14854884208892,2.504142132911956,0.5521121141332428,B,1984.5199160045013,Correct
3,7,199,B,49.79672800361142,39.83317140742517,2.489836400180571,0.6256979933137494,B,684.3576240062248,Correct
3,7,200,A,42.10971805720647,66.76259898616794,2.1054859028603237,1.0487044525475329,A,638.649416010594,Correct
3,7,201,B,55.89009193613092,36.951778503106304,2.794504596806546,0.5804371794121801,B,836.2073329917621,Correct
3,7,202,B,84.35252930514676,64.62179110878398,4.217626465257338,1.0150767210458498,B,706.6817080194596,Correct
3,7,203,B,81.69250037139086,55.09603919697294,4.084625018569543,0.8654465599155273,B,598.1082490179688,Correct
3,7,204,A,38.55274506302877,60.99508840874243,1.9276372531514385,0.9581086082498258,A,652.3537070024759,Correct
3,7,205,B,66.40633878847807,40.071972738596926,3.3203169394239036,0.6294490758521328,B,595.921416010242,Correct
3,7,206,B,37.683427200050076,22.120504205414214,1.8841713600025036,0.34746806752715714,B,1251.7780830094125,Correct
3,7,207,B,87.33238748749154,66.72497841781401,4.366619374374577,1.04811351004171,B,516.0034570144489,Correct
3,7,208,B,86.3531986184093,65.60822675970888,4.317659930920465,1.0305716160167735,B,505.9532909945119,Correct
3,7,209,B,69.49467250034596,43.50760223140635,3.4747336250172975,0.6834158177274655,B,450.4745829908643,Correct
3,7,210,A,17.039843725733977,37.923681938014454,0.8519921862866988,0.5957038028677107,A,476.58079100074247,Correct
3,7,211,A,57.46319061526049,80.6375778942423,2.8731595307630244,1.2666521115791316,A,552.0750409923494,Correct
3,7,212,A,42.4689226877224,75.06101028767655,2.12344613438612,1.179055592453963,A,685.5584570148494,Correct
3,7,213,A,46.38871347175637,61.950839144145725,2.3194356735878183,0.973121505694856,A,573.981707013445,Correct
3,7,214,B,49.023246774722814,32.4756208231541,2.451162338736141,0.5101258589939431,B,812.688290985534,Correct
3,7,215,A,32.15429556786037,41.291449243815286,1.6077147783930186,0.6486045680022297,A,688.2811249815859,Correct
3,7,216,A,29.050928012038234,39.29183419629969,1.4525464006019118,0.6171946882858166,A,699.4268330163322,Correct
3,7,217,B,62.67056675336108,47.751885509319,3.133528337668054,0.7500848635556873,B,692.7485820197035,Correct
3,7,218,B,30.451791255389875,11.740733859083651,1.5225895627694936,0.1844230161972507,A,661.17020798265,Incorrect
3,7,219,B,42.68204647090604,33.13409222945164,2.134102323545302,0.5204691036570596,A,1017.8229990124237,Incorrect
3,7,220,B,68.59950565170467,57.60311308278388,3.429975282585234,0.9048275844238797,B,581.8334579817019,Correct
3,7,221,B,49.22521822807713,31.660773070986984,2.4612609114038566,0.49732626043393124,B,969.2149159964174,Correct
3,7,222,A,62.97516516093551,78.5016460236872,3.1487582580467754,1.2331009722136106,A,610.8856660139281,Correct
3,7,223,B,43.10410836865828,14.51700650295832,2.155205418432914,0.22803260490904556,B,911.1672910221387,Correct
3,7,224,B,70.22136888873197,42.41440915299306,3.5110684444365985,0.6662439810069734,B,532.8320830012672,Correct
3,7,225,B,58.276701903236955,49.030557673510316,2.9138350951618475,0.7701701989425535,B,464.0170830243733,Correct
3,7,226,B,73.48506338892567,56.50252509812047,3.674253169446283,0.8875395887876408,B,463.97441599401645,Correct
3,7,227,A,49.3995232676826,64.64585923588852,2.46997616338413,1.0154547823023363,A,1279.2074580211192,Correct
3,7,228,B,65.89042961677404,54.41212706093265,3.294521480838702,0.854703693204102,B,583.9329579903278,Correct
3,7,229,A,33.08329481944452,63.869899636753175,1.654164740972226,1.003266037421706,A,511.8213740061037,Correct
3,7,230,B,71.09131431395053,56.84301333955611,3.5545657156975268,0.8928879655772805,B,502.053625008557,Correct
3,7,231,A,54.04490129138778,72.43575781008514,2.702245064569389,1.1378182229668647,A,1609.0147079958115,Correct
3,7,232,A,57.633435426889946,75.32308514912546,2.8816717713444975,1.183172254751055,A,717.6762500021141,Correct
3,7,233,A,31.67853820734929,62.48787881156629,1.5839269103674645,0.9815573050641297,A,529.8577079956885,Correct
3,7,234,A,42.41342184611143,74.32496748917022,2.1206710923055714,1.1674938592113868,A,632.6305830152705,Correct
3,7,235,A,21.36760647239213,33.84900154932238,1.0683803236196063,0.5316988729935036,A,472.2606659925077,Correct
3,7,236,B,45.363711418261424,28.21367079043566,2.2681855709130714,0.443179304430168,A,428.6329990136437,Incorrect
3,7,237,A,34.59479566629565,48.05507879373411,1.7297397833147827,0.7548474125303688,A,902.1642070147209,Correct
3,7,238,A,55.05399745199405,67.53091034685825,2.7526998725997025,1.060773059179604,A,567.2523330140393,Correct
3,7,239,A,36.077405624911236,64.22696039855995,1.803870281245562,1.0088747347525926,A,617.0233740122057,Correct
3,7,240,A,62.42612598266198,82.58058152333692,3.1213062991330993,1.2971727412144414,A,665.3631249791943,Correct
3,7,241,A,58.50742754693554,82.10423327300279,2.9253713773467767,1.2896902803954413,A,704.7662079858128,Correct
3,7,242,B,59.63727428853822,36.84282245107002,2.981863714426911,0.5787257017489734,B,584.4893329776824,Correct
3,7,243,B,66.36965913322776,41.165420466478345,3.318482956661388,0.6466249125971165,B,545.2247910143342,Correct
3,7,244,A,29.783062395800254,58.6870838853076,1.4891531197900127,0.9218545579734515,A,594.4943739741575,Correct
3,7,245,A,36.686216967016165,53.15840796804259,1.8343108483508082,0.8350103197446588,A,614.4044989778195,Correct
3,7,246,B,51.79524861382585,34.22783541876682,2.5897624306912923,0.5376495814993919,B,1089.250290999189,Correct
3,7,247,A,32.51611627646882,42.79516907603252,1.6258058138234412,0.6722249438919844,A,608.1517069833353,Correct
3,7,248,B,61.122871631558446,30.8151168287677,3.0561435815779223,0.48404272324383907,B,520.8569160022307,Correct
3,7,249,B,45.27554553563506,22.346722794372383,2.263777276781753,0.3510215008130393,B,1015.078666008776,Correct
3,7,250,A,40.77214460619781,52.453142049733806,2.0386072303098906,0.8239320286057279,B,734.3340830120724,Incorrect
3,7,251,A,43.89125816144195,55.374450303939035,2.1945629080720974,0.8698198313571398,A,3343.0828739947174,Correct
3,7,252,B,69.97409221206708,54.74884934049812,3.498704610603354,0.8599929144030163,B,537.556499009952,Correct
3,7,253,B,76.74765570660344,63.45285983185062,3.837382785330172,0.9967151914850239,B,685.8563740097452,Correct
3,7,254,B,52.86486555813754,46.068969626190366,2.6432432779068766,0.7236496826804548,B,677.6329989952501,Correct
3,7,255,A,16.769170007041982,37.1232291982903,0.838458500352099,0.5831303206343946,A,553.9401660207659,Correct
3,7,256,B,66.14789168204328,48.012958316523026,3.307394584102164,0.7541857856215085,B,617.1653740166221,Correct
3,7,257,A,20.5033617518893,46.6440830634529,1.025168087594465,0.7326835434278786,A,514.8099159996491,Correct
3,7,258,B,77.47218057636206,56.28995065585758,3.873609028818103,0.8842004772568708,B,604.4769999862183,Correct
3,7,259,B,62.96548375680643,34.33061154307455,3.1482741878403213,0.5392639850848399,B,796.333540987689,Correct
3,7,260,B,52.50090093064402,40.72631033736875,2.6250450465322013,0.6397273868184786,B,499.29699901258573,Correct
3,7,261,B,73.19478298388425,53.30060354451129,3.6597391491942126,0.8372439226366938,B,1201.1958740185946,Correct
3,7,262,A,53.853474311808064,81.73129552635224,2.6926737155904035,1.2838321879698225,A,587.5789990241174,Correct
3,7,263,A,21.752190508122304,33.72944922063726,1.0876095254061153,0.52982094940592,A,523.0537909956183,Correct
3,7,264,B,70.77454339799391,52.013151694653004,3.5387271698996954,0.8170206762698669,B,742.3932079982478,Correct
3,7,265,B,53.707448106865,45.373943038972435,2.68537240534325,0.7127322305781877,B,436.5755830076523,Correct
3,7,266,B,38.21220797384949,23.36944947568133,1.9106103986924745,0.36708645395619144,B,612.5889989780262,Correct
3,7,267,A,65.34211866430051,86.11018688091532,3.267105933215026,1.3526156525216386,A,547.2668329894077,Correct
3,7,268,A,34.17685909428114,54.86059593662119,1.7088429547140571,0.861748225830236,A,957.3137080005836,Correct
3,7,269,B,79.50189109469277,57.81843213428134,3.9750945547346386,0.9082098081756912,B,473.94475000328384,Correct
3,7,270,B,53.09557508054851,40.732698353031594,2.6547787540274252,0.6398277295338656,B,541.4319569827057,Correct
3,7,271,B,48.70450286844148,41.392236180660085,2.4352251434220737,0.6501877255040769,B,497.9718319955282,Correct
3,7,272,B,84.70356011547123,61.70641465503517,4.2351780057735615,0.9692820947981202,B,498.1458330003079,Correct
3,7,273,B,52.50545929101187,37.263779008644434,2.6252729645505934,0.5853380718927544,B,520.3944579989184,Correct
3,7,274,A,30.214781676295512,49.44364410750121,1.5107390838147756,0.7766589454741702,A,589.1308749851305,Correct
3,7,275,A,28.02518019449229,38.414547059735256,1.4012590097246145,0.6034142941692183,A,508.74499999918044,Correct
3,7,276,B,84.28652102204877,59.32718705439406,4.2143260511024385,0.9319092750411593,B,530.481998983305,Correct
3,7,277,B,67.55680258513009,39.08944966703294,3.377840129256504,0.6140156395340932,B,499.183541018283,Correct
3,7,278,A,42.08445830527776,71.96301246299205,2.104222915263888,1.1303923564196325,A,559.8700819828082,Correct
3,7,279,B,62.722930250205835,43.634431155000435,3.1361465125102916,0.6854080418005947,B,421.318248991156,Correct
3,7,280,B,72.83182851707929,45.18213325713319,3.6415914258539646,0.7097192895706235,B,527.7014570019674,Correct
3,7,281,A,54.68041709964088,75.6967437175619,2.7340208549820435,1.1890416698188089,A,519.6292079926934,Correct
3,7,282,B,53.461616905591725,25.729328830457938,2.673080845279586,0.40415535217781356,A,580.5312489974312,Incorrect
3,7,283,A,28.337941077567162,42.62720236101643,1.416897053878358,0.6695865289022735,A,695.8766239986289,Correct
3,7,284,B,52.3959442956826,42.09909880613771,2.61979721478413,0.6612910976605653,B,498.8025829952676,Correct
3,7,285,B,40.49846492832095,21.105881779005895,2.0249232464160474,0.3315304157222979,B,650.531082006637,Correct
3,7,286,A,39.00350000510511,63.57446349727297,1.9501750002552556,0.9986253373947263,A,621.6932910028845,Correct
3,7,287,B,67.97646330668562,38.792355464657284,3.3988231653342806,0.6093488947160559,B,592.9635410138872,Correct
3,7,288,B,47.651206800876196,29.709312728173682,2.38256034004381,0.4666727930501608,B,688.684833003208,Correct
3,7,289,B,78.78682003386906,48.82800695043581,3.939341001693453,0.7669885396246025,B,525.2613739867229,Correct
3,7,290,A,14.47891918029158,37.5434430161364,0.723945959014579,0.5897310238498057,A,465.8177499950398,Correct
3,7,291,B,81.57142994349255,51.369984692953594,4.078571497174627,0.8069178326320158,B,1055.8572909794748,Correct
3,7,292,B,63.477859440086185,46.5585090812171,3.173892972004309,0.7313393504582267,B,549.2340409837198,Correct
3,7,293,B,49.480818972682286,24.17149729480667,2.4740409486341144,0.37968499163815095,B,952.8413320076652,Correct
3,7,294,B,41.88146386410001,16.189503730241668,2.0940731932050003,0.2543041299209589,B,1002.9956660000607,Correct
3,7,295,B,54.18130421616864,33.75069459718697,2.7090652108084323,0.5301546710003765,B,539.4582500157412,Correct
3,7,296,A,11.852085783415184,34.69923257203925,0.5926042891707592,0.5450542706676108,A,487.6102069974877,Correct
3,7,297,A,62.616324976705926,77.23479394758343,3.130816248835296,1.2132013063362475,A,572.6899570145179,Correct
3,7,298,A,47.72818885506444,75.8195765084793,2.386409442753222,1.1909711227866393,A,582.0460820104927,Correct
3,7,299,A,49.75904207992518,66.08589067071526,2.4879521039962587,1.0380747431852866,A,446.1877080029808,Correct
