subject,day,trial,cat,x,y,xt,yt,resp,rt,fb
13,8,0,A,61.1813922895779,76.9689007116997,3.059069614478895,1.20902466515379,A,549.7587000136264,Correct
13,8,1,B,50.95768076465863,30.925343288307584,2.5478840382329313,0.4857741564214476,B,384.46899998234585,Correct
13,8,2,B,60.34767511549793,31.84541265338212,3.0173837557748966,0.5002265722120035,B,378.5255000111647,Correct
13,8,3,B,86.16078174797588,57.792269730402985,4.308039087398794,0.9077988500965689,B,497.6078000036068,Correct
13,8,4,B,45.948532495768475,29.814044200924762,2.2974266247884234,0.46831791117713306,A,537.8729000221938,Incorrect
13,8,5,B,59.3432155721862,37.833121738788876,2.96716077860931,0.5942812865847371,B,501.06540002161637,Correct
13,8,6,B,53.611344741606025,27.750404232364417,2.680567237080301,0.4359023303527158,B,357.551799970679,Correct
13,8,7,A,59.885570539476035,71.19857860007957,2.9942785269738015,1.1183846573802272,A,411.6414000163786,Correct
13,8,8,A,34.16229763178327,54.0157353365087,1.7081148815891636,0.8484771865571314,A,384.0282000019215,Correct
13,8,9,B,57.66428847655467,29.900241861246027,2.8832144238277335,0.46967190085924265,B,453.78530002199113,Correct
13,8,10,B,74.8837737204442,44.58141531422467,3.74418868602221,0.7002832341890186,B,432.62009997852147,Correct
13,8,11,A,39.67283240409175,54.36341994887512,1.9836416202045877,0.8539386036770144,A,409.2287999810651,Correct
13,8,12,B,43.79476872139478,29.50205503717453,2.189738436069739,0.46341719685294624,A,598.0096000130288,Incorrect
13,8,13,B,66.07413213812265,46.72597735235965,3.3037066069061325,0.7339699359098807,B,803.950099973008,Correct
13,8,14,A,45.00332914416104,69.42050770834314,2.2501664572080524,1.0904547851250221,A,374.7336000087671,Correct
13,8,15,A,30.56096608386433,45.41040040670366,1.5280483041932167,0.7133049015713557,A,391.0315000102855,Correct
13,8,16,B,77.14995822441712,50.668774675409615,3.8574979112208556,0.795903251433317,B,607.7357000322081,Correct
13,8,17,B,68.18777653289183,37.760003462251156,3.4093888266445913,0.593132747382667,B,632.0876000099815,Correct
13,8,18,B,39.700279885155716,24.321108562874095,1.9850139942577858,0.38203507994142527,A,391.5197000023909,Incorrect
13,8,19,A,22.140363742445576,50.8486830412303,1.1070181871222788,0.7987292454352249,B,431.63420003838837,Incorrect
13,8,20,A,26.838166430472576,53.984192068973194,1.3419083215236287,0.8479817060693328,A,546.5155999991111,Correct
13,8,21,A,27.86198603553441,37.143516007480954,1.3930993017767204,0.5834489850879853,A,358.24610001873225,Correct
13,8,22,A,35.84529445075735,51.88738966859381,1.7922647225378676,0.8150452109840263,A,490.22199999308214,Correct
13,8,23,B,61.13609705928233,36.28760107983286,3.0568048529641163,0.5700043048439999,B,398.3441000455059,Correct
13,8,24,A,63.32305028133153,88.05411205771152,3.1661525140665763,1.3831507577943947,A,424.9656000174582,Correct
13,8,25,B,85.63762609960844,67.2387248763269,4.281881304980422,1.0561834205410692,B,472.9681999888271,Correct
13,8,26,B,89.00226724750561,63.036960307191165,4.450113362375281,0.9901822570285158,B,372.9767000186257,Correct
13,8,27,B,41.97420032713906,26.265382832116735,2.0987100163569528,0.4125756687455071,A,418.0549999582581,Incorrect
13,8,28,B,53.69554786017365,27.693042635290404,2.684777393008682,0.43500129649288627,B,374.4289000169374,Correct
13,8,29,B,45.24782350339791,24.650924363331526,2.2623911751698955,0.3872158144201999,B,408.57200004393235,Correct
13,8,30,B,42.04254498559554,16.11998630235518,2.102127249279777,0.25321215271723563,B,681.4223999972455,Correct
13,8,31,A,40.736494554214524,66.31730621167361,2.036824727710726,1.041709810002293,A,504.2261999915354,Correct
13,8,32,A,46.28481584355346,70.77801263425098,2.314240792177673,1.1117784226372422,A,383.34040000336245,Correct
13,8,33,B,42.933548644052266,29.637063189356347,2.1466774322026136,0.4655378999482919,B,609.1295999940485,Correct
13,8,34,A,48.64395657843085,72.6526156860272,2.4321978289215425,1.141224618516528,A,386.1904999939725,Correct
13,8,35,B,78.17630098864649,47.810484593330315,3.9088150494323246,0.7510053358148726,A,362.28809994645417,Incorrect
13,8,36,B,78.34437458058915,58.13769187324145,3.9172187290294573,0.9132247284282117,B,430.3061999962665,Correct
13,8,37,A,19.06082601319569,38.80133893378087,0.9530413006597845,0.609490006719068,A,453.3555000089109,Correct
13,8,38,B,81.73917100142069,66.19818091101165,4.086958550071034,1.0398385941552113,B,660.9908000100404,Correct
13,8,39,B,72.72583301516951,60.968679752762085,3.636291650758476,0.9576937820517306,B,345.09459999389946,Correct
13,8,40,A,30.27722541936367,43.626365927557316,1.5138612709681833,0.6852813535041706,B,363.46010002307594,Incorrect
13,8,41,A,63.48416923507254,80.56518900912461,3.1742084617536275,1.265515029630695,A,346.5400999994017,Correct
13,8,42,B,48.28629739646691,30.616162473116184,2.4143148698233454,0.4809175555332666,B,584.9134000018239,Correct
13,8,43,B,53.80292853202721,30.265367007118936,2.6901464266013604,0.4754072732388188,B,338.12630001921207,Correct
13,8,44,A,52.32607853197959,62.27738715436976,2.6163039265989796,0.978250909844677,A,585.3351000114344,Correct
13,8,45,B,64.56653654947014,42.91149252680386,3.228326827473507,0.6740521483839016,B,462.7446999656968,Correct
13,8,46,A,21.620311190467056,52.27831447981367,1.0810155595233528,0.8211858435591978,A,359.8561999970116,Correct
13,8,47,B,53.087739594115966,21.75729803783106,2.6543869797057984,0.34176283838806837,B,395.36629995564,Correct
13,8,48,B,84.37783422060238,60.6566022937855,4.218891711030119,0.9527916807893716,B,378.2198000117205,Correct
13,8,49,B,79.72259081003784,62.266181162463226,3.986129540501892,0.9780748865354281,B,363.46650001360103,Correct
13,8,50,B,53.82801715784418,24.757544652683613,2.691400857892209,0.38889060200896053,B,377.29079998098314,Correct
13,8,51,A,52.87221126174503,70.67284676246216,2.6436105630872517,1.1101264809861415,A,429.7546000452712,Correct
13,8,52,B,46.10375857305378,34.464184302264414,2.305187928652689,0.5413621410797926,B,389.52189998235554,Correct
13,8,53,B,77.29924682065635,48.749460517444405,3.8649623410328173,0.7657547351403451,B,403.89239997603,Correct
13,8,54,A,42.84439474129609,54.21392734904842,2.1422197370648046,0.8515903794101064,A,402.7015999890864,Correct
13,8,55,A,22.732023735642205,44.19789767311342,1.1366011867821102,0.6942589531698325,A,487.7896999823861,Correct
13,8,56,A,24.75282988754339,44.597910385398635,1.2376414943771694,0.7005423381611214,A,439.35130001045763,Correct
13,8,57,A,27.85245531496362,38.178129812735754,1.392622765748181,0.5997006607374405,A,486.78099998505786,Correct
13,8,58,A,21.88666466357337,36.96955385536701,1.0943332331786686,0.580716393992566,A,441.0711000091396,Correct
13,8,59,A,52.46180821173831,65.43338511867425,2.6230904105869155,1.0278252099416936,B,358.9299999875948,Incorrect
13,8,60,A,23.318680743768283,43.218281097322716,1.1659340371884142,0.6788711719806383,A,472.47280000010505,Correct
13,8,61,B,43.70049517597093,16.784929055359253,2.1850247587985465,0.2636570490567125,A,503.6672999849543,Incorrect
13,8,62,B,60.29493099169795,48.300691293004526,3.0147465495848973,0.7587054846470574,A,682.6962000341155,Incorrect
13,8,63,A,36.90559407176796,60.130230416240195,1.8452797035883979,0.9445234506716086,A,787.8496000193991,Correct
13,8,64,A,30.95218359692823,60.15959122639963,1.5476091798464113,0.9449846491991102,A,517.0044000260532,Correct
13,8,65,A,36.85173018657157,62.76208408514158,1.8425865093285785,0.9858645114293283,A,494.3896000040695,Correct
13,8,66,B,34.09622641452246,15.996403830134117,1.704811320726123,0.25127092378302485,B,466.0170000279322,Correct
13,8,67,B,85.74694324879506,63.619506707759356,4.287347162439753,0.9993328744905169,B,732.155799982138,Correct
13,8,68,A,46.74909609279068,58.13855932858951,2.3374548046395343,0.9132383543849556,A,566.8779999832623,Correct
13,8,69,A,56.472663046892876,72.28444132285178,2.8236331523446436,1.135441349143568,A,477.083700010553,Correct
13,8,70,B,68.62500246608928,47.91013115836335,3.4312501233044643,0.7525705803981887,B,707.9419000074267,Correct
13,8,71,A,15.450481563294602,36.27225069741138,0.7725240781647301,0.5697631816007742,A,443.2290999684483,Correct
13,8,72,B,54.46406460836258,26.392494783060968,2.7232032304181293,0.41457233860185644,B,460.3897000197321,Correct
13,8,73,A,58.93041891505419,84.41356154093977,2.9465209457527095,1.3259651240018313,A,457.0086000021547,Correct
13,8,74,A,45.17327063068837,60.52668523360202,2.2586635315344186,0.9507509483801295,A,415.17600003862754,Correct
13,8,75,B,86.36861766982067,61.869877213043594,4.318430883491033,0.9718497586550014,B,609.71409996273,Correct
13,8,76,B,57.522767057112915,37.13286135642849,2.8761383528556457,0.5832816222206203,B,543.5363000142388,Correct
13,8,77,A,26.376090101233565,36.68675674114838,1.3188045050616781,0.5762742273101379,A,408.16130000166595,Correct
13,8,78,A,36.29314502152111,49.2098866936981,1.8146572510760557,0.7729870926045402,A,457.1099000168033,Correct
13,8,79,B,39.40213889078761,25.843234917036096,1.9701069445393806,0.4059445848017791,A,480.0153999822214,Incorrect
13,8,80,B,62.02497483156036,47.76633368381492,3.101248741578018,0.7503118149499581,B,490.17050000838935,Correct
13,8,81,A,60.84855968520401,73.58612392556702,3.0424279842602004,1.1558881316535472,B,505.7981999707408,Incorrect
13,8,82,B,47.30600039999801,27.347619139944342,2.365300019999901,0.42957539691610375,B,460.5518000316806,Correct
13,8,83,A,22.429256480255972,50.75638747889573,1.1214628240127986,0.797279470132279,A,426.00079998373985,Correct
13,8,84,B,45.84684118263605,33.49638695108023,2.2923420591318022,0.5261600158365733,B,560.1305000018328,Correct
13,8,85,A,56.94870057862975,72.63085703763305,2.8474350289314874,1.1408828344667925,A,425.4936999641359,Correct
13,8,86,A,40.387736446407125,57.62983992241526,2.019386822320356,0.9052474086390778,A,530.2917000371963,Correct
13,8,87,B,33.67898680709497,22.48571027821716,1.6839493403547487,0.35320471110397766,B,501.2749999877997,Correct
13,8,88,B,77.93029355016687,57.408351514241225,3.8965146775083435,0.9017682768592036,B,615.6238000257872,Correct
13,8,89,B,75.53611223439094,52.29826803753091,3.776805611719547,0.821499273310885,B,567.0732000144199,Correct
13,8,90,A,22.753869655010714,41.84884803882372,1.1376934827505358,0.6573601677998211,A,455.71089995792136,Correct
13,8,91,A,51.824179015003274,75.55809925820402,2.591208950750164,1.1868638477439108,A,729.3136000516824,Correct
13,8,92,B,41.425272568264134,20.88244060614645,2.0712636284132064,0.32802060998647437,B,477.9096000129357,Correct
13,8,93,A,16.44360304508882,32.27225726245522,0.8221801522544411,0.5069314316524458,A,409.600600018166,Correct
13,8,94,B,51.03370592960649,21.83422205564183,2.5516852964803247,0.3429711580342631,B,460.6315999990329,Correct
13,8,95,B,53.81198469462421,43.003821493916114,2.6905992347312107,0.6755024484078685,B,458.30260001821443,Correct
13,8,96,B,60.16755238279933,31.37720555585919,3.0083776191399663,0.4928719923223203,B,336.5899000200443,Correct
13,8,97,B,76.68106033330976,59.850179058994115,3.8340530166654876,0.940124414238848,B,666.1161999800242,Correct
13,8,98,A,29.16517804196338,51.831571898407454,1.4582589020981689,0.81416842750024,A,367.23040003562346,Correct
13,8,99,B,63.06397370128061,42.16758768753405,3.1531986850640306,0.662366918493802,B,442.14040000224486,Correct
13,8,100,A,58.04395912006656,70.80938066681239,2.902197956003328,1.1122711505405045,A,443.2090999907814,Correct
13,8,101,A,32.54672359520556,54.67997661058583,1.6273361797602781,0.858911064091391,B,937.46960000135,Incorrect
13,8,102,A,43.267602890474926,71.40266549415408,2.1633801445237464,1.1215904468158193,B,384.46770003065467,Incorrect
13,8,103,B,36.479012909026146,18.166438773457152,1.8239506454513075,0.28535775296290883,B,548.9988999906927,Correct
13,8,104,A,28.178667023672045,54.21669156689529,1.4089333511836022,0.8516337996425098,A,482.4466000427492,Correct
13,8,105,B,45.36488893051521,21.354984280185764,2.2682444465257605,0.3354433086607856,B,520.329600025434,Correct
13,8,106,B,65.32817516514511,42.520823146641476,3.266408758257256,0.6679155281103986,B,491.3704000064172,Correct
13,8,107,B,71.37982877852849,48.35583623796065,3.568991438926424,0.7595716994168413,B,508.45969998044893,Correct
13,8,108,B,68.74729801240926,38.025784219249985,3.437364900620463,0.5973076217509322,B,414.4069000030868,Correct
13,8,109,A,10.947663114915194,32.850572180302926,0.5473831557457597,0.5160155811393045,A,374.618100002408,Correct
13,8,110,B,67.89890225337102,45.39711409016299,3.3949451126685513,0.7130962005991687,B,487.7429000334814,Correct
13,8,111,A,18.404620701638322,47.83533047337247,0.9202310350819161,0.7513956139859347,A,502.64269998297095,Correct
13,8,112,A,44.67729735713828,53.91359338450098,2.233864867856914,0.8468727445268779,A,689.8913999903016,Correct
13,8,113,B,71.89179708322465,54.34976844239285,3.5945898541612324,0.8537241663146389,B,547.5330000044778,Correct
13,8,114,A,10.731557000759128,32.36132823531122,0.5365778500379563,0.5083305552223084,A,434.36009995639324,Correct
13,8,115,B,60.27095556259883,43.43426179653491,3.0135477781299413,0.6822637888704495,B,428.54029999580234,Correct
13,8,116,B,54.40924667630954,34.53832019852199,2.7204623338154774,0.5425266650150432,B,497.91340000228956,Correct
13,8,117,A,35.81261827342901,58.89656683672346,1.7906309136714504,0.9251451084795532,A,418.3947000419721,Correct
13,8,118,B,48.94631627102972,37.45802885409996,2.4473158135514863,0.5883893413299747,B,483.8410000083968,Correct
13,8,119,B,44.099033546977054,27.521825468881055,2.204951677348853,0.4323118235320859,B,644.7462000069208,Correct
13,8,120,A,64.98337374325735,80.18800403342448,3.249168687162867,1.259590221887175,A,453.5124999820255,Correct
13,8,121,A,52.14143867124193,71.68111998262715,2.6070719335620964,1.12596439969255,A,480.31559999799356,Correct
13,8,122,A,59.73608370524589,83.14478931309745,2.9868041852622946,1.3060352964514903,A,488.85090003022924,Correct
13,8,123,A,49.495659555090896,56.911020091486975,2.4747829777545447,0.893956213138583,A,620.4004000173882,Correct
13,8,124,B,45.54053140560359,22.528384167997554,2.2770265702801793,0.3538750309971486,B,391.5934999822639,Correct
13,8,125,A,35.25787414213164,67.7133051140963,1.762893707106582,1.0636381094836456,A,447.4033999722451,Correct
13,8,126,A,17.488584225543985,35.73710230311977,0.8744292112771993,0.5613570902803398,A,621.145399985835,Correct
13,8,127,A,47.10086795646798,54.52536936792327,2.3550433978233993,0.8564824992026883,B,541.8976999935694,Incorrect
13,8,128,A,21.129629778518726,36.640193248305884,1.0564814889259364,0.5755428096749405,A,536.9612000067718,Correct
13,8,129,B,70.43059311846284,46.94770909831159,3.521529655923142,0.7374528900306317,B,466.8567999615334,Correct
13,8,130,B,46.808831858609096,21.37489627430138,2.3404415929304547,0.3357560855329453,B,520.9281999850646,Correct
13,8,131,B,62.12378991682339,51.0775071414735,3.1061894958411695,0.8023236059966666,B,385.72919997386634,Correct
13,8,132,A,53.557785434576985,79.76855203018289,2.6778892717288496,1.2530014852275886,A,460.5384999886155,Correct
13,8,133,A,43.68203799559944,69.0820674544543,2.184101899779972,1.085138578048541,A,474.25219998694956,Correct
13,8,134,A,23.962113613546478,47.38018370937818,1.1981056806773238,0.7442461853355864,A,557.398600038141,Correct
13,8,135,A,59.979097527786784,73.46149687951588,2.998954876389339,1.1539304945919828,A,555.0359000335447,Correct
13,8,136,B,84.72422135573551,69.08656061299699,4.236211067786775,1.0852091564178867,B,654.8158000223339,Correct
13,8,137,A,54.12139581269807,72.51092950434611,2.7060697906349036,1.1389990171791056,A,461.2972000031732,Correct
13,8,138,A,12.772344325648763,32.35166627986847,0.6386172162824382,0.5081787855811171,A,474.09949998836964,Correct
13,8,139,A,25.398730180966005,39.7972995990607,1.2699365090483001,0.6251345202656057,A,521.79609995801,Correct
13,8,140,A,32.98354823316156,43.13413727342129,1.649177411658078,0.67754944388557,B,689.9161000037566,Incorrect
13,8,141,B,70.27692550492334,50.04803052508131,3.5138462752461668,0.7861526251211657,B,600.5487000220455,Correct
13,8,142,A,65.19038584260458,80.99503671575913,3.2595192921302294,1.2722670616173222,A,583.8800000492483,Correct
13,8,143,A,11.671704400142382,35.96714205837621,0.5835852200071191,0.5649705463060759,A,425.88430002797395,Correct
13,8,144,B,85.48148607984817,67.39850851119186,4.274074303992409,1.0586932960083475,B,594.6467000176199,Correct
13,8,145,A,39.039169687229446,54.70272556968593,1.9519584843614723,0.8592684039053193,B,817.7741999970749,Incorrect
13,8,146,B,70.50700349057648,57.76445135758944,3.5253501745288243,0.9073618801182396,B,479.4475000235252,Correct
13,8,147,B,41.70408308824574,30.840224593205583,2.085204154412287,0.48443711508536963,B,638.7401999672875,Correct
13,8,148,A,28.096809526853757,40.81444042704304,1.4048404763426878,0.6411117310298833,A,690.757299948018,Correct
13,8,149,A,12.94387558153148,30.39456544488037,0.6471937790765739,0.4774367175534518,A,426.1968999635428,Correct
13,8,150,A,19.932624325270414,48.8085370619118,0.9966312162635207,0.7666827073308362,A,393.03139998810366,Correct
13,8,151,A,60.86613472264451,76.38398451508579,3.0433067361322252,1.19983682302255,A,670.6998000154272,Correct
13,8,152,B,46.229765006193155,22.664997918940475,2.3114882503096577,0.3560209547788567,B,442.47439998434857,Correct
13,8,153,B,75.16945011374882,58.94723524927055,3.7584725056874415,0.9259410060426883,B,604.0412000147626,Correct
13,8,154,B,44.37424085494271,24.16232555186199,2.2187120427471356,0.37954092223687286,B,403.821500018239,Correct
13,8,155,B,40.4020459303827,32.2174491752644,2.020102296519135,0.5060705082320658,B,360.3887000354007,Correct
13,8,156,B,70.69746238439906,54.16823140698702,3.5348731192199527,0.8508725892307116,B,645.8035999676213,Correct
13,8,157,A,17.324305134443115,41.51363385389358,0.8662152567221557,0.652094635696043,A,442.1365999733098,Correct
13,8,158,B,73.45994380503898,60.17586976950062,3.6729971902519485,0.9452403519561964,B,356.592099997215,Correct
13,8,159,B,59.72787094165033,35.52238677416032,2.9863935470825163,0.5579843466383865,B,354.88190001342446,Correct
13,8,160,A,49.23476509480247,75.8612599750208,2.4617382547401236,1.1916258851479538,B,296.4116000221111,Incorrect
13,8,161,A,40.645189049471085,58.636084867067865,2.032259452473554,0.9210534672682402,B,394.6721000247635,Incorrect
13,8,162,A,15.739629685413476,38.32083937965666,0.7869814842706738,0.6019423373726192,A,543.999099987559,Correct
13,8,163,B,40.24983439113251,21.314009571861174,2.0124917195566256,0.334799679447508,B,456.48290001554415,Correct
13,8,164,B,55.03886621961285,44.85839748915105,2.7519433109806424,0.7046340600186388,B,354.2907999944873,Correct
13,8,165,A,22.810548882041065,46.731227650407554,1.1405274441020532,0.734052407398763,A,484.6471999771893,Correct
13,8,166,A,26.783640347748843,42.97700175818335,1.3391820173874422,0.6750811649841222,A,456.82630001101643,Correct
13,8,167,B,45.87716727033613,36.78111118799922,2.2938583635168066,0.5777563434954386,B,394.8184000328183,Correct
13,8,168,A,57.60111996352905,85.77035866971019,2.8800559981764526,1.347277643462616,A,448.6456000013277,Correct
13,8,169,B,75.94317748140756,62.61533632307905,3.7971588740703783,0.9835594029731963,B,454.7661999822594,Correct
13,8,170,A,43.209987859906704,51.36040951956086,2.160499392995335,0.8067674261600785,B,721.514200035017,Incorrect
13,8,171,B,48.76476969074818,41.21295937675163,2.438238484537409,0.6473716520534875,B,533.6227000225335,Correct
13,8,172,A,26.059258660577107,47.8729651925161,1.3029629330288555,0.7519867787718424,A,419.7122000041418,Correct
13,8,173,A,50.72551470615751,78.29044288365898,2.5362757353078758,1.2297834010479718,A,707.4386000167578,Correct
13,8,174,B,66.79475105634658,58.374274231293114,3.339737552817329,0.9169409554183321,B,430.552700010594,Correct
13,8,175,A,59.79356181931014,87.42353576183802,2.9896780909655067,1.3732456885011746,A,578.0078999814577,Correct
13,8,176,B,62.65586339955664,35.019631129187296,3.132793169977832,0.5500870794343962,B,374.7948999516666,Correct
13,8,177,B,50.035847125343835,42.0527422072673,2.5017923562671918,0.6605629299082819,B,639.1159000340849,Correct
13,8,178,A,42.56090265542679,63.54863055886057,2.1280451327713394,0.998219554547041,A,449.10570001229644,Correct
13,8,179,A,26.29817199222419,39.885277012072,1.3149085996112095,0.6265164662375964,A,447.8108999901451,Correct
13,8,180,B,41.88454341279916,23.847617609181153,2.0942271706399582,0.37459750143311055,B,345.26370000094175,Correct
13,8,181,B,61.32570562654173,46.761828164165365,3.0662852813270867,0.734533079144851,B,390.0611000135541,Correct
13,8,182,B,67.14166374466618,41.60930664180773,3.3570831872333087,0.6535974603343409,B,350.5878000287339,Correct
13,8,183,B,86.81573872698522,67.39140437042204,4.340786936349261,1.0585817044260848,B,647.9402999975719,Correct
13,8,184,A,40.75064906105934,54.30741909748718,2.037532453052967,0.8530589443604387,A,463.30780000425875,Correct
13,8,185,A,41.89055976644179,74.3484725024077,2.0945279883220893,1.1678630750959338,A,533.0779000069015,Correct
13,8,186,A,25.505065279343526,54.344912631810175,1.2752532639671763,0.85364789142037,B,414.3855000147596,Incorrect
13,8,187,A,53.275113310238225,78.45112670104382,2.6637556655119115,1.2323074165492065,A,675.5623000208288,Correct
13,8,188,A,40.067670569403816,48.10250447883105,2.0033835284701906,0.7555923734498287,B,432.6379999984056,Incorrect
13,8,189,A,65.08781698894092,82.39877276994933,3.254390849447046,1.2943168959944376,A,686.7732999962755,Correct
13,8,190,B,65.28581017862923,56.22965771939215,3.2642905089314613,0.8832533980255549,A,564.6500999573618,Incorrect
13,8,191,B,87.09860392680875,59.489863518170544,4.354930196340438,0.9344645909587201,B,684.6176999970339,Correct
13,8,192,A,61.53468977204464,71.17285717966226,3.0767344886022325,1.1179806262531125,B,749.4534999714233,Incorrect
13,8,193,A,52.65213661741517,68.74513061537617,2.6326068308707584,1.0798459865566827,A,464.4292000448331,Correct
13,8,194,B,33.31922194606671,13.131623415195179,1.6659610973033354,0.20627105825442446,A,512.0569000137039,Incorrect
13,8,195,B,62.60269448797807,48.927814235629654,3.1301347243989035,0.7685563087943013,A,619.9609999894165,Incorrect
13,8,196,B,44.07368326699472,20.950455881653422,2.203684163349736,0.32908899143579734,B,550.7395000313409,Correct
13,8,197,B,57.58707694373737,25.98048206709781,2.8793538471868687,0.40810045799357914,B,416.9196000439115,Correct
13,8,198,B,77.0473760388573,45.33520981870173,3.852368801942865,0.7121238105769259,B,418.82939997594804,Correct
13,8,199,B,41.6762509747888,18.026782618677064,2.0838125487394397,0.28316403921348016,B,453.2446000375785,Correct
13,8,200,B,85.32610874696476,64.80294209889928,4.2663054373482385,1.0179222341445333,A,393.71909998590127,Incorrect
13,8,201,B,59.37720326302664,27.96636006189996,2.968860163151332,0.4392945565905595,B,373.3456000336446,Correct
13,8,202,B,56.531428390587216,39.32217836982204,2.8265714195293605,0.6176713334489019,B,491.7972999974154,Correct
13,8,203,A,35.37542932431241,53.3345823580539,1.7687714662156202,0.8377776605917097,A,716.7730000219308,Correct
13,8,204,B,68.01296993247604,43.893327259588425,3.400648496623802,0.6894747723016781,B,522.2322000190616,Correct
13,8,205,B,46.905994011787286,28.24092419947052,2.3452997005893645,0.4436073999782139,B,559.0817999909632,Correct
13,8,206,B,77.31102460479819,46.08578044607925,3.8655512302399098,0.7239137464217735,B,502.7269000420347,Correct
13,8,207,A,33.605014525538586,66.41950204576275,1.6802507262769293,1.0433150984103026,A,515.5748999677598,Correct
13,8,208,B,62.31926494509835,46.49818982102901,3.1159632472549172,0.7303918577348423,B,406.46709996508434,Correct
13,8,209,B,72.41059614500708,52.13023291760873,3.6205298072503536,0.8188597838194218,B,372.42349999723956,Correct
13,8,210,B,79.40609460962762,57.115561010273495,3.970304730481381,0.897169134377674,B,357.7770999982022,Correct
13,8,211,B,71.00436695943323,52.388019074926454,3.5502183479716614,0.8229090793095545,B,360.885199974291,Correct
13,8,212,A,51.89115916374787,80.08890738017243,2.594557958187394,1.2580336152979155,A,667.1400999766774,Correct
13,8,213,A,19.393175350862123,40.68033334222614,0.9696587675431061,0.6390051818676079,A,459.92500003194436,Correct
13,8,214,B,45.825409908858404,18.20563555803334,2.2912704954429204,0.2859734546152533,B,423.59940003370866,Correct
13,8,215,A,42.18739193274991,63.37770778780332,2.1093695966374955,0.9955347059376175,A,780.2506000152789,Correct
13,8,216,A,44.423475798597096,53.39824345012421,2.221173789929855,0.8387776466875475,A,370.3582999878563,Correct
13,8,217,A,19.01459401845917,48.14931709693088,0.9507297009229586,0.7563277043354173,B,398.0578999617137,Incorrect
13,8,218,B,39.9218360060339,21.093443691113656,1.9960918003016952,0.33133503869456316,B,453.21940002031624,Correct
13,8,219,B,85.50211772541337,68.91444690167214,4.275105886270668,1.0825056005624853,B,614.0129999839701,Correct
13,8,220,A,13.120930466082871,31.611644526438514,0.6560465233041435,0.49655455106075613,A,516.5533000254072,Correct
13,8,221,A,45.83906763265647,57.48382345801074,2.291953381632824,0.9029537873796958,B,552.7442999882624,Incorrect
13,8,222,A,22.01148108910944,44.811156585079885,1.100574054455472,0.7038920016327442,A,466.5137000265531,Correct
13,8,223,B,41.75913562015848,30.36338988955458,2.087956781007924,0.4769470130755363,B,499.87329996656626,Correct
13,8,224,B,56.462256528631194,26.316744551183092,2.8231128264315597,0.41338245674198015,B,410.0841000326909,Correct
13,8,225,A,42.44233914994039,72.61475513408595,2.122116957497019,1.1406299063573306,A,433.83019999600947,Correct
13,8,226,B,49.772403117417994,41.59468903392459,2.4886201558708994,0.6533678474866471,B,459.2148999799974,Correct
13,8,227,A,23.880858305717418,35.28743338664444,1.194042915285871,0.5542937074576068,B,340.69559996714815,Incorrect
13,8,228,B,38.86052063139769,15.525383494190582,1.9430260315698846,0.24387215364756681,B,787.6751000294462,Correct
13,8,229,B,72.06541530850755,47.34240573947533,3.603270765425378,0.7436527703720148,A,459.653600002639,Incorrect
13,8,230,B,67.18498263248469,48.6991399506611,3.3592491316242343,0.7649643015256905,B,480.0972000230104,Correct
13,8,231,B,48.78673581537386,33.73434872437018,2.4393367907686927,0.5298979106305878,B,472.6607000338845,Correct
13,8,232,A,24.875817636835173,47.08110766391281,1.2437908818417585,0.7395483097990928,A,454.155899991747,Correct
13,8,233,A,54.89282737196828,72.61956653286936,2.744641368598414,1.140705483632688,A,623.0553000350483,Correct
13,8,234,A,50.60981250004589,65.15481908795107,2.5304906250022947,1.0234495049633956,A,448.5329000162892,Correct
13,8,235,A,38.72076069816054,53.93966902691825,1.936038034908027,0.8472823397601565,A,545.8002000232227,Correct
13,8,236,B,32.683920456534366,12.543396068747224,1.6341960228267183,0.19703120470321683,B,444.2112999968231,Correct
13,8,237,B,66.61398352392862,37.94215312681126,3.330699176196431,0.5959939476228463,B,420.7507999963127,Correct
13,8,238,A,20.924778807473775,43.168982596121225,1.0462389403736887,0.6780967929346003,A,446.609900041949,Correct
13,8,239,A,35.04212335681754,61.34532812499506,1.7521061678408771,0.963610160847699,A,443.8339000334963,Correct
13,8,240,B,37.20074450678051,12.132166966797836,1.8600372253390254,0.1905716330750842,B,393.2218999834731,Correct
13,8,241,A,58.723058137680816,81.19310332381522,2.9361529068840406,1.2753782846212747,A,399.8988999519497,Correct
13,8,242,B,56.774790986679214,49.84501983138225,2.838739549333961,0.7829637406015402,A,739.3265999853611,Incorrect
13,8,243,B,40.99058933545216,15.68499135769418,2.049529466772608,0.24637926810475716,B,424.2849000147544,Correct
13,8,244,B,54.95652642382745,44.29010092060387,2.7478263211913725,0.6957072783945982,B,434.35320002026856,Correct
13,8,245,B,56.776825765631685,40.42875114934054,2.838841288281584,0.6350533380228907,B,434.91070001618937,Correct
13,8,246,B,72.07357864875932,61.98012220750003,3.6036789324379663,0.9735814829783984,B,455.97180002368987,Correct
13,8,247,A,21.104432093222457,48.69174213724949,1.055221604661123,0.7648480969443577,A,429.70619996776804,Correct
13,8,248,B,85.71778778712336,61.96424664266351,4.285889389356168,0.9733321101890885,B,443.6818999820389,Correct
13,8,249,A,58.30875229590964,72.97336978626143,2.915437614795482,1.1462630121410513,A,517.350600042846,Correct
13,8,250,B,70.658064026424,45.75286200882573,3.5329032013212,0.7186842758381723,B,694.8299000505358,Correct
13,8,251,B,55.39537857606598,38.63216956623491,2.769768928803299,0.6068327005075939,B,420.8225999609567,Correct
13,8,252,B,82.49565937797081,60.8525895874611,4.124782968898541,0.9558702419994126,B,423.07389999041334,Correct
13,8,253,B,44.73292652370687,26.042092291077672,2.2366463261853435,0.409068229128785,B,418.0161000113003,Correct
13,8,254,B,33.74657681635497,20.859403978493454,1.6873288408177485,0.3276587514854837,B,456.7815000191331,Correct
13,8,255,B,68.11342497820863,59.45094165739978,3.4056712489104313,0.9338532077994128,B,441.2877999711782,Correct
13,8,256,A,32.12549910714737,61.55632891953701,1.6062749553573683,0.966924553577872,A,580.0364000024274,Correct
13,8,257,A,26.485493033383566,36.51408368856026,1.3242746516691783,0.5735618853427191,A,597.7995999855921,Correct
13,8,258,B,48.86787633323141,25.47297400252052,2.4433938166615703,0.40012853995701125,B,401.18109999457374,Correct
13,8,259,A,38.86861667159251,50.013242186079346,1.9434308335796258,0.78560617116997,A,485.0792000070214,Correct
13,8,260,A,64.20322754745251,82.50848874301872,3.210161377372626,1.2960403104693186,A,585.9576999791898,Correct
13,8,261,A,25.779099202217182,54.08290044073474,1.2889549601108592,0.8495322135472023,A,519.3631000001915,Correct
13,8,262,A,65.99300927177879,81.3068671669788,3.299650463588939,1.2771652828909088,B,421.21560004306957,Incorrect
13,8,263,A,31.186235416506335,63.45482302806536,1.5593117708253168,0.9967460292990528,A,466.96469996823,Correct
13,8,264,A,66.11931208380463,80.68316225259439,3.3059656041902317,1.2673681490057191,A,702.0712000085041,Correct
13,8,265,A,46.80299141541098,74.99311634437501,2.340149570770549,1.1779891168864658,A,430.8943999931216,Correct
13,8,266,B,69.88262061697327,41.93937935248488,3.4941310308486635,0.6587822303494096,B,523.8556999829598,Correct
13,8,267,A,26.06440849704246,56.05314059888696,1.303220424852123,0.8804806735804953,A,382.34680000459775,Correct
13,8,268,A,50.36696111770971,62.73972969053296,2.518348055885485,0.985513369419939,B,497.58029996883124,Incorrect
13,8,269,B,65.79230857801102,53.05425944270591,3.2896154289005506,0.833374358534259,B,578.2665999722667,Correct
13,8,270,A,22.915416222266362,36.92447290050815,1.145770811113318,0.5800082640095591,A,474.8325999826193,Correct
13,8,271,B,70.39481160812709,59.1669570392995,3.5197405804063546,0.9293923878496311,B,554.9590999726206,Correct
13,8,272,A,26.88452590582723,42.00526302729257,1.3442262952913615,0.6598171286932465,A,430.5964999948628,Correct
13,8,273,A,10.590348215408486,33.23637224356183,0.5295174107704242,0.5220757143617478,A,526.6076000407338,Correct
13,8,274,A,37.0897948707338,44.91230993632006,1.8544897435366898,0.7054809147584548,B,459.24990001367405,Incorrect
13,8,275,B,57.43376064582084,45.323983684561185,2.8716880322910416,0.7119474708742053,B,628.8536000065506,Correct
13,8,276,B,51.34281807279654,22.312117285209702,2.5671409036398267,0.3504779187462432,B,644.072099996265,Correct
13,8,277,B,87.25094240088048,66.88607713566935,4.362547120044024,1.0506440427842954,B,646.1303000105545,Correct
13,8,278,A,25.67399571957033,37.80392494842225,1.2836997859785162,0.5938226644741162,A,447.1124000265263,Correct
13,8,279,A,46.91681168832744,63.14089577864924,2.345840584416372,0.991814871596416,A,719.1054000286385,Correct
13,8,280,A,68.81518583922369,82.30689144450201,3.440759291961184,1.2928736275093005,A,495.3848000150174,Correct
13,8,281,A,41.120616294131565,50.25648769980632,2.0560308147065784,0.7894270627646865,B,422.45810001622885,Incorrect
13,8,282,A,31.343431064963433,51.49890736448274,1.5671715532481716,0.8089429452208013,B,391.61689998582006,Incorrect
13,8,283,B,37.41480930401275,15.442118633945945,1.8707404652006374,0.2425642322813332,B,642.927199951373,Correct
13,8,284,A,24.149972257056355,45.83429471099345,1.2074986128528178,0.7199634177326326,A,426.3665999751538,Correct
13,8,285,B,80.90208783265491,50.76425039744265,4.045104391632745,0.7974029805679929,B,485.586799972225,Correct
13,8,286,B,88.42479928230614,62.66128187848045,4.421239964115307,0.984281114069767,B,388.6816000449471,Correct
13,8,287,B,61.78501012972891,49.813926226909686,3.0892505064864455,0.782475323404617,B,532.3706000344828,Correct
13,8,288,A,33.330326780698776,59.551672429519414,1.666516339034939,0.9354354830678201,A,400.04909998970106,Correct
13,8,289,A,67.42526270170302,88.10926752504781,3.3712631350851505,1.3840171378493396,A,525.2747000195086,Correct
13,8,290,B,45.04162841374993,35.36789750101154,2.252081420687497,0.5555576348104734,B,381.96719996631145,Correct
13,8,291,A,21.398994823520933,38.75591860089443,1.0699497411760468,0.6087765457984697,A,332.05359999556094,Correct
13,8,292,A,44.44964640673669,58.57210232837359,2.2224823203368347,0.9200484319006405,A,472.0425000414252,Correct
13,8,293,A,21.52766944196118,42.169341691758476,1.076383472098059,0.6623944703277311,A,512.1372999856248,Correct
13,8,294,A,24.40903783065756,50.49796227546301,1.220451891532878,0.7932201365292457,A,386.5824000095017,Correct
13,8,295,B,62.12522622327892,45.832356688715265,3.106261311163946,0.7199329753498744,B,389.72029997967184,Correct
13,8,296,A,53.17297343780306,82.1758851305213,2.6586486718901527,1.2908157851414224,A,377.54119996679947,Correct
13,8,297,A,31.07706244882815,54.98814598942783,1.5538531224414074,0.8637517773745477,A,442.8615000215359,Correct
13,8,298,A,29.644847678191212,50.53066235001131,1.4822423839095606,0.7937337880991097,A,470.3668000292964,Correct
13,8,299,A,63.16460216231903,85.19351305599565,3.158230108115952,1.3382165737511102,A,382.74020003154874,Correct
