subject,day,trial,cat,x,y,xt,yt,resp,rt,fb
13,15,0,B,60.60988694595021,49.761819229034074,3.0304943472975108,0.7816568285959838,A,714.1199000179768,Incorrect
13,15,1,A,23.62059520113144,45.48657775628447,1.181029760056572,0.714501492580421,A,549.2997001856565,Correct
13,15,2,B,56.514261161754455,25.139239291804657,2.8257130580877226,0.3948862473798469,B,402.1956999786198,Correct
13,15,3,B,55.876056055562444,42.562875963718,2.7938028027781225,0.6685760922163503,B,460.51889983937144,Correct
13,15,4,A,28.30549668150259,46.52662020287643,1.4152748340751293,0.7308384411285952,A,416.15530010312796,Correct
13,15,5,B,31.57332713827625,15.073947671158802,1.5786663569138124,0.23678101632154733,B,583.67699990049,Correct
13,15,6,A,53.50059387077082,79.22217250826039,2.675029693538541,1.2444189757668704,A,460.81179985776544,Correct
13,15,7,B,46.1058083407461,16.857526746000737,2.305290417037305,0.2647974109146468,B,467.52080018632114,Correct
13,15,8,A,10.982450670092,35.002807007986256,0.5491225335045999,0.5498228067565548,A,447.5725998636335,Correct
13,15,9,A,40.33941441348482,59.53911342184979,2.016970720674241,0.9352382066366638,A,419.8896999005228,Correct
13,15,10,B,51.98436577261182,26.504481816933968,2.599218288630591,0.41633142681642005,B,713.8797999359667,Correct
13,15,11,B,74.8181884283723,47.04253153476981,3.740909421418615,0.7389423573794951,B,373.5107001848519,Correct
13,15,12,A,46.28329049647527,61.988956760840445,2.3141645248237634,0.9737202558177582,A,325.79020014964044,Correct
13,15,13,B,74.98899413473252,61.28555084452332,3.7494497067366264,0.962671181521791,B,425.8032999932766,Correct
13,15,14,B,38.20940574950619,18.576225938765,1.9104702874753092,0.29179467470324144,A,438.2100999355316,Incorrect
13,15,15,A,49.62907889339072,75.70938661996094,2.481453944669536,1.1892402640652933,B,450.3691999707371,Incorrect
13,15,16,B,43.84064933056543,23.957879185637783,2.1920324665282713,0.37632948622595735,B,439.1359998844564,Correct
13,15,17,A,52.16636563003662,70.17113762135173,2.6083182815018313,1.1022456522263846,B,416.9854000210762,Incorrect
13,15,18,B,52.67227906098661,30.678549475971554,2.6336139530493305,0.4818975282825161,B,463.40660005807877,Correct
13,15,19,A,44.17275274992194,71.95577459192391,2.2086376374960968,1.1302786642067562,A,457.6037998776883,Correct
13,15,20,A,51.27506378853369,72.02543439283338,2.5637531894266847,1.1313728778006948,A,450.4881000611931,Correct
13,15,21,B,60.195975864865616,43.158132347934355,3.009798793243281,0.6779263576346328,B,333.7145000696182,Correct
13,15,22,A,66.29186890762898,88.36374016718814,3.3145934453814494,1.3880143847647777,A,486.4098001271486,Correct
13,15,23,B,75.41766293195751,51.47784194511697,3.7708831465978756,0.80861205038718,B,418.10590005479753,Correct
13,15,24,B,59.39050860824503,48.57096000015025,2.969525430412251,0.7629508555713785,B,442.43220007047057,Correct
13,15,25,B,59.78737385312663,34.86309803518549,2.9893686926563316,0.5476282633435973,B,423.87539986521006,Correct
13,15,26,A,54.03452629088366,61.09160429996598,2.701726314544183,0.9596246763239388,B,428.01689985208213,Incorrect
13,15,27,A,20.623922557172143,45.65292223893583,1.031196127858607,0.7171144256037345,A,489.54139999113977,Correct
13,15,28,B,36.04748856295397,23.582202589294322,1.8023744281476985,0.37042837204996615,B,396.5571001172066,Correct
13,15,29,A,25.23685872594201,52.326510332141055,1.2618429362971006,0.8219429022372235,B,457.3297998867929,Incorrect
13,15,30,A,38.235632963916366,70.3746654459648,1.9117816481958183,1.1054426598194123,A,510.07500011473894,Correct
13,15,31,A,55.49374293975123,73.35518557783794,2.7746871469875614,1.152260560570258,A,441.9011001009494,Correct
13,15,32,B,64.26995137081323,43.644425596215584,3.213497568540662,0.685565034116086,B,458.2356000319123,Correct
13,15,33,A,47.3452753037851,62.83884385833909,2.3672637651892554,0.9870702511271708,A,384.14609991014004,Correct
13,15,34,B,51.29580693056843,42.00141939121231,2.564790346528422,0.6597567529988824,A,434.44409989751875,Incorrect
13,15,35,B,86.74860915045528,66.94280938517772,4.337430457522764,1.0515351908756807,B,571.068599820137,Correct
13,15,36,A,54.1038383527726,66.9470924771296,2.7051919176386297,1.0516024695267343,A,451.0375999379903,Correct
13,15,37,B,56.59313936042443,28.515829449424864,2.8296569680212214,0.4479256015466631,B,444.38409991562366,Correct
13,15,38,A,50.81135718165285,57.98040822226268,2.5405678590826426,0.9107541226159883,A,445.36649994552135,Correct
13,15,39,A,24.245250593993163,36.46854187444448,1.212262529699658,0.5728465161994326,A,515.2857000939548,Correct
13,15,40,A,34.327087352718706,54.44944875683355,1.7163543676359354,0.8552899410324108,A,395.7189000211656,Correct
13,15,41,B,77.619873768091,45.46515813952544,3.88099368840455,0.7141650340271566,B,360.7119000516832,Correct
13,15,42,B,32.79653181590473,17.67271252967879,1.6398265907952365,0.27760231926121587,B,411.6012000013143,Correct
13,15,43,A,52.10955905995667,73.47413136314718,2.605477952997834,1.154128956596773,A,427.6221999898553,Correct
13,15,44,A,24.83500040365376,49.055341774582736,1.241750020182688,0.770559506691828,A,511.5690000820905,Correct
13,15,45,A,45.965059297497426,53.03711607354704,2.2982529648748713,0.8331050711212225,B,488.3224000222981,Incorrect
13,15,46,A,45.286307049976166,66.39813847925572,2.264315352498808,1.0429795202923378,A,644.4465999957174,Correct
13,15,47,A,23.593183207403726,49.16018554717681,1.1796591603701863,0.7722063888206089,A,782.5376999098808,Correct
13,15,48,B,58.471859079875216,35.235616520329714,2.923592953993761,0.5534797700248748,B,490.7314998563379,Correct
13,15,49,A,26.522291684292057,50.04372763728096,1.3261145842146027,0.786085035517652,A,389.10440006293356,Correct
13,15,50,B,32.15524160651083,15.863639636709426,1.6077620803255415,0.2491854687094109,A,326.10049983486533,Incorrect
13,15,51,A,52.71647166970604,69.38587188922837,2.635823583485302,1.089910726950612,A,478.7401999346912,Correct
13,15,52,A,40.32038874551252,54.02548272449351,2.0160194372756255,0.8486302981695554,B,357.5786000583321,Incorrect
13,15,53,A,16.249923453463694,35.89024117843454,0.8124961726731847,0.5637625901086791,A,500.8294000290334,Correct
13,15,54,A,36.1481951504846,65.14056612055656,1.8074097575242296,1.0232256198751033,A,417.85389999859035,Correct
13,15,55,A,31.8217398570821,54.53155144079874,1.591086992854105,0.8565796069763361,B,455.84900001995265,Incorrect
13,15,56,B,83.13806907787873,62.494442760610546,4.1569034538939365,0.9816604113346095,A,439.60419995710254,Incorrect
13,15,57,A,42.92657084218007,54.292538891849695,2.1463285421090035,0.8528252066368656,A,642.9862000513822,Correct
13,15,58,B,38.4874496357475,16.723511179873036,1.9243724817873753,0.2626922993245795,B,384.6297001000494,Correct
13,15,59,B,34.83957069200801,19.033876512507884,1.7419785346004004,0.2989834331051504,B,348.28800009563565,Correct
13,15,60,B,42.46353461105156,25.33028296791133,2.123176730552578,0.3978871544267045,B,354.70100003294647,Correct
13,15,61,A,49.62256027877806,66.64232043366087,2.481128013938903,1.0468151214628296,A,377.8254999779165,Correct
13,15,62,A,39.07568511254012,62.76313982800012,1.9537842556270062,0.9858810949993707,A,424.3467999622226,Correct
13,15,63,A,33.05164263020032,63.981704043912124,1.652582131510016,1.0050222569425533,A,320.5391999799758,Correct
13,15,64,A,62.76952076097016,77.77386233057828,3.1384760380485077,1.2216689726952434,A,350.3341998439282,Correct
13,15,65,B,66.40240940201615,43.469657419133135,3.3201204701008074,0.6828197820100684,B,469.18529993854463,Correct
13,15,66,B,61.22699226202265,49.68323259747916,3.0613496131011324,0.7804223926741674,B,405.63439996913075,Correct
13,15,67,B,82.46752187568012,64.72605380219233,4.123376093784006,1.0167144756041255,B,403.09179993346334,Correct
13,15,68,B,39.751202910470205,14.245422684422437,1.9875601455235101,0.2237665762633146,A,348.83260005153716,Incorrect
13,15,69,B,63.200873462572154,44.760819672222134,3.160043673128608,0.7031013112545528,A,621.0666999686509,Incorrect
13,15,70,B,59.039384472355245,37.772328185317754,2.951969223617762,0.5933263436798846,B,481.3190000131726,Correct
13,15,71,A,52.58387571520157,63.3175327613899,2.6291937857600782,0.9945894788330676,A,510.33609989099205,Correct
13,15,72,A,19.18834617443845,38.010574961512866,0.9594173087219225,0.5970687152890648,A,536.0801999922842,Correct
13,15,73,B,66.18694024243328,33.31841855279098,3.309347012121664,0.52336449477339,B,399.7258997987956,Correct
13,15,74,B,45.460851368136844,37.51828438832824,2.2730425684068423,0.5893358330483232,B,382.1874998975545,Correct
13,15,75,A,55.12913359768346,70.53964925727229,2.756456679884173,1.1080342194672366,A,447.56100000813603,Correct
13,15,76,B,83.92943025819145,56.929051401673995,4.196471512909572,0.8942394482966737,A,517.7187998779118,Incorrect
13,15,77,A,69.09759098008882,87.05893660606799,3.4548795490044415,1.3675185783548136,A,552.0268999971449,Correct
13,15,78,A,19.73475430238767,42.30916811658915,0.9867377151193836,0.6645908586728599,A,484.2256000265479,Correct
13,15,79,A,39.08280905583432,52.195504036318944,1.954140452791716,0.81988506015458,A,441.2529000546783,Correct
13,15,80,A,42.86029697544879,62.76912222003357,2.1430148487724394,0.9859750661936866,A,688.3370999712497,Correct
13,15,81,A,60.903124077610784,78.07182167705491,3.045156203880539,1.2263493071650404,A,486.5445999894291,Correct
13,15,82,A,49.690521387581505,59.830740959667715,2.484526069379075,0.9398190812886301,A,423.3083000872284,Correct
13,15,83,A,16.843195342323302,46.090135589035015,0.842159767116165,0.7239821568473492,A,393.1152999866754,Correct
13,15,84,A,51.20186594667119,61.046462299126816,2.5600932973335597,0.9589155874329154,A,376.89359998330474,Correct
13,15,85,A,61.393165579663744,82.30306722299619,3.069658278983187,1.2928135567783587,A,388.88529990799725,Correct
13,15,86,A,39.32403546090489,70.29922717959188,1.9662017730452446,1.1042576783022289,A,367.41099995560944,Correct
13,15,87,B,85.16642850526921,64.03460399232519,4.2583214252634605,1.0058532073891022,B,433.36340016685426,Correct
13,15,88,B,75.86389349356442,46.59569865046372,3.793194674678221,0.7319235228459035,B,441.19580020196736,Correct
13,15,89,A,24.400607262220817,41.90785451992441,1.2200303631110407,0.6582870394375218,A,418.4471000917256,Correct
13,15,90,B,36.50508005694084,26.579067823937315,1.825254002847042,0.4175030210747316,B,441.12599990330637,Correct
13,15,91,A,26.360007856363133,42.95524136344338,1.3180003928181565,0.6747393535028506,B,608.3255000412464,Incorrect
13,15,92,B,74.02033601770898,43.27659344165288,3.701016800885449,0.6797871401434444,A,431.19340017437935,Incorrect
13,15,93,A,19.831106146413074,40.93017215485746,0.9915553073206538,0.6429296407593286,A,484.1177000198513,Correct
13,15,94,B,73.89725076479735,60.342256801761444,3.694862538239868,0.9478539533472123,A,375.47089997678995,Incorrect
13,15,95,A,24.095032979978093,45.59017429132773,1.2047516489989047,0.7161287831475672,A,434.612600132823,Correct
13,15,96,A,32.43149650099805,47.62114351373442,1.6215748250499025,0.7480311730914664,A,522.2106999717653,Correct
13,15,97,B,37.82521183217513,28.144252787511572,1.8912605916087564,0.442088888990102,B,337.89450000040233,Correct
13,15,98,B,73.72035187946892,42.05600995720227,3.686017593973446,0.6606142596042293,B,386.98309985920787,Correct
13,15,99,B,32.72741520085741,16.939876865975894,1.6363707600428705,0.26609096357432777,A,604.9726000055671,Incorrect
13,15,100,B,57.59567163834583,41.06989018880956,2.879783581917291,0.6451243265045182,B,466.3690999150276,Correct
13,15,101,B,53.399902032910816,22.672480717665625,2.6699951016455405,0.3561384943063728,B,365.19799986854196,Correct
13,15,102,A,63.90485709729133,79.42695344497639,3.195242854864566,1.2476356671987818,A,411.94380004890263,Correct
13,15,103,A,15.12988864347334,34.4470831706457,0.756494432173667,0.5410935171324857,A,428.9094000123441,Correct
13,15,104,B,66.54235510254712,41.789190986971924,3.3271177551273556,0.6564230770206589,B,325.68720006383955,Correct
13,15,105,B,54.80823899605612,30.34870188866661,2.7404119498028057,0.4767162944971085,B,348.943900084123,Correct
13,15,106,B,72.83574958769684,40.566781832437954,3.641787479384842,0.6372215189228347,B,487.0331999845803,Correct
13,15,107,B,81.79832631994027,54.717638690536056,4.089916315997013,0.8595026586598434,B,415.0136997923255,Correct
13,15,108,B,63.70129691218816,30.499745920430257,3.185064845609408,0.47908888859989485,B,398.25500012375414,Correct
13,15,109,A,50.3087667591784,74.68706616162612,2.51543833795892,1.1731816918576974,A,346.23730019666255,Correct
13,15,110,B,86.49629523427731,67.63747788604839,4.324814761713866,1.0624470181707586,A,369.32529998011887,Incorrect
13,15,111,A,52.24611915104914,72.29570496570318,2.612305957552457,1.1356182780317412,A,378.60779999755323,Correct
13,15,112,B,71.53619448832872,53.7930374305681,3.5768097244164356,0.8449790560307674,B,353.6698999814689,Correct
13,15,113,A,59.72876998447296,80.83105178223698,2.986438499223648,1.2696911923050593,A,429.5659000054002,Correct
13,15,114,B,50.15144507002401,28.285708821975753,2.5075722535012006,0.44431087518349516,A,338.80560006946325,Incorrect
13,15,115,B,70.02259808718952,53.07540815949911,3.501129904359476,0.8337065618008108,B,408.9003000408411,Correct
13,15,116,B,78.141751429603,64.55681954314426,3.90708757148015,1.01405615007932,B,411.40900016762316,Correct
13,15,117,B,47.86536669693635,35.90119427844702,2.3932683348468173,0.5639346410013455,B,459.54630011692643,Correct
13,15,118,B,59.913944552392636,31.3615066239172,2.995697227619632,0.49262539407602957,B,348.8376000896096,Correct
13,15,119,A,50.686330623644636,64.60759168272862,2.534316531182232,1.0148536769829464,B,396.48160012438893,Incorrect
13,15,120,B,54.65810496207441,40.68534468884997,2.732905248103721,0.6390838999162979,B,440.9447000361979,Correct
13,15,121,A,44.77093464456163,74.58420848861829,2.2385467322280816,1.1715660073082634,A,388.96479993127286,Correct
13,15,122,B,73.85538271187673,61.58976622622839,3.6927691355938363,0.9674497855631594,B,364.9518999736756,Correct
13,15,123,A,41.28297159511573,55.21408853011048,2.0641485797557864,0.8673008745042579,A,384.97989997267723,Correct
13,15,124,A,67.35652711931137,81.9054526561471,3.367826355965568,1.286567841767492,A,460.6334001291543,Correct
13,15,125,B,71.26255493610519,49.68562443282396,3.563127746805259,0.7804599635359063,B,338.22889998555183,Correct
13,15,126,A,11.0161447100386,32.94880266703187,0.55080723550193,0.5175585820166355,A,435.6625999789685,Correct
13,15,127,B,77.49133375486103,52.27811294805809,3.8745666877430516,0.8211826779057838,B,493.2518000714481,Correct
13,15,128,A,48.254947209346646,54.96448952480149,2.4127473604673324,0.8633801824971475,B,406.5077998675406,Incorrect
13,15,129,B,70.94837739091801,61.39116977476483,3.547418869545901,0.9643302397984248,B,570.9900998044759,Correct
13,15,130,B,43.39510683689238,29.95154631261869,2.169755341844619,0.47047778929688655,B,405.32030002214015,Correct
13,15,131,A,44.10960376196104,57.40975974707493,2.205480188098052,0.9017903973288282,A,505.4937999229878,Correct
13,15,132,B,50.700578688013,37.789083382609334,2.5350289344006502,0.5935895337034881,B,636.024700012058,Correct
13,15,133,A,62.75555563747018,79.45410315623946,3.1377777818735093,1.2480621338660374,A,412.50000009313226,Correct
13,15,134,A,48.66754682094265,71.87177366259047,2.4333773410471324,1.128959180694313,A,365.2675000485033,Correct
13,15,135,B,60.040891426017,33.3186194352708,3.0020445713008495,0.5233676502280042,B,347.77350001968443,Correct
13,15,136,B,62.38076646118872,48.301732092453044,3.119038323059436,0.7587218334865641,B,385.05009980872273,Correct
13,15,137,B,39.13411435846999,15.313777614803449,1.9567057179234997,0.2405482562668717,B,522.6903001312166,Correct
13,15,138,B,80.01062284928534,59.896376570709194,4.0005311424642676,0.940850083055939,A,567.4143000505865,Incorrect
13,15,139,A,63.60767533703003,83.9098003256836,3.180383766851502,1.31805206133677,A,456.252200063318,Correct
13,15,140,B,74.95171425080186,63.07584288084552,3.7475857125400927,0.9907930230672417,B,406.4976000227034,Correct
13,15,141,A,34.565588383239266,64.40244279820327,1.7282794191619633,1.0116312058403614,A,390.78240003436804,Correct
13,15,142,A,50.560992759512104,63.05927645116151,2.528049637975605,0.9905327981982842,A,408.8208999019116,Correct
13,15,143,A,69.54623524790742,86.59636901609133,3.477311762395371,1.3602525836425166,A,510.3945001028478,Correct
13,15,144,B,63.998786031286194,36.536517480153414,3.1999393015643096,0.573914274517025,B,476.4560000039637,Correct
13,15,145,A,58.459172279860695,86.54071929445666,2.9229586139930346,1.3593784398592077,A,330.8153999969363,Correct
13,15,146,A,41.23151789566278,49.07029354179523,2.061575894783139,0.7707943685019927,B,456.11660019494593,Incorrect
13,15,147,A,62.37865091219929,88.45326629835566,3.118932545609965,1.3894206579446788,A,314.6744999103248,Correct
13,15,148,A,21.041715496020252,47.62652896935781,1.0520857748010126,0.7481157676305797,A,549.6616000309587,Correct
13,15,149,A,53.68836173661238,77.56092122171081,2.6844180868306187,1.218324101578917,A,391.8113000690937,Correct
13,15,150,B,69.37151117577744,56.618753007949095,3.468575558788872,0.8893652925259394,A,449.62440012022853,Incorrect
13,15,151,B,87.3557792534653,63.437358017293676,4.367788962673265,0.996471689551377,B,334.3803999014199,Correct
13,15,152,A,56.84841675876696,64.72927338013866,2.842420837938348,1.016765048616245,A,431.8850999698043,Correct
13,15,153,B,79.26712394168926,52.086789568041745,3.963356197084463,0.8181773772801871,B,375.9804000146687,Correct
13,15,154,B,42.2730342592416,19.284339488703488,2.11365171296208,0.3029176963352121,B,381.93790009245276,Correct
13,15,155,B,69.37301308801695,51.19675118547781,3.468650654400847,0.8041966870598082,B,926.0299000889063,Correct
13,15,156,A,41.959394819551285,50.881001706581,2.097969740977564,0.7992369058434231,A,392.3398000188172,Correct
13,15,157,A,60.08681128966606,75.59313418700238,3.0043405644833028,1.1874141751185705,A,404.6046999283135,Correct
13,15,158,A,40.709246674470066,69.80621217813207,2.0354623337235034,1.0965134167687505,A,347.81519998796284,Correct
13,15,159,B,51.77560365972541,24.423687417860457,2.588780182986271,0.38364638482761937,B,341.73749992623925,Correct
13,15,160,A,64.5092533424898,76.88239631698737,3.2254626671244897,1.2076658572991326,B,469.677799846977,Incorrect
13,15,161,A,41.68696657130667,51.3980584328312,2.0843483285653335,0.8073588139068071,A,488.1012998521328,Correct
13,15,162,A,22.569339122110645,44.49309951097729,1.1284669561055323,0.6988959727956293,A,463.4965001605451,Correct
13,15,163,A,37.67103304235608,70.23752421704317,1.883551652117804,1.10328845043299,A,369.5074999704957,Correct
13,15,164,A,27.18087264694115,45.39989279062968,1.3590436323470576,0.713139848324032,A,341.81679994799197,Correct
13,15,165,A,53.9048547645361,72.3503596809245,2.6952427382268045,1.1364767922908579,A,412.30369987897575,Correct
13,15,166,A,63.97682267024064,87.0437697603307,3.1988411335120315,1.3672803380990817,A,470.1696000993252,Correct
13,15,167,A,25.056683262448292,48.4349109560622,1.2528341631224145,0.7608138021842039,A,399.4569999631494,Correct
13,15,168,A,31.354254622663717,52.874386879612196,1.5677127311331858,0.8305489269202712,A,370.2557000797242,Correct
13,15,169,B,76.32720913353842,57.43875845670193,3.8163604566769207,0.902245907994467,A,511.8563000578433,Incorrect
13,15,170,B,74.21579799220243,47.28062737313182,3.710789899610121,0.742682358062737,A,404.2007001116872,Incorrect
13,15,171,A,48.44392393007737,61.987384031094,2.4221961965038683,0.973695551436671,A,459.65109998360276,Correct
13,15,172,B,51.470676953491434,30.320426728175576,2.5735338476745717,0.47627214931472,B,396.17040008306503,Correct
13,15,173,A,18.77155561173748,40.666632856792006,0.938577780586874,0.6387899751456554,A,505.03620016388595,Correct
13,15,174,A,36.09202395467,65.0729209701232,1.8046011977335,1.0221630523368412,A,421.21320008300245,Correct
13,15,175,A,52.81048277333548,66.16393288753339,2.640524138666774,1.039300627460415,A,374.01920021511614,Correct
13,15,176,A,18.93691417300641,44.84855701008492,0.9468457086503206,0.704479486134929,A,404.59379996173084,Correct
13,15,177,B,34.63593010158137,16.79817463625811,1.7317965050790687,0.26386511015493436,B,1037.4435000121593,Correct
13,15,178,B,61.638838477356686,42.38033710575721,3.0819419238678343,0.6657087785405288,B,355.5587998125702,Correct
13,15,179,A,35.140564391437024,58.41326993286086,1.7570282195718512,0.9175534984661662,A,408.6694000288844,Correct
13,15,180,A,20.74723299291379,42.77212911581084,1.0373616496456897,0.6718630330431272,B,424.0280999802053,Incorrect
13,15,181,A,17.57734178309203,32.294785847503405,0.8788670891546017,0.5072853098388616,A,716.9524999335408,Correct
13,15,182,B,64.21408931115447,44.457236098568416,3.2107044655577233,0.6983326316308475,B,480.74909998103976,Correct
13,15,183,B,66.17206013091773,33.212780118687746,3.3086030065458862,0.5217051301308128,B,404.4601998757571,Correct
13,15,184,B,58.790144812219346,40.747172919554366,2.939507240610967,0.6400550954931248,B,397.49359991401434,Correct
13,15,185,B,56.020238214564785,46.61806124833197,2.801011910728239,0.7322747937117938,B,357.35559999011457,Correct
13,15,186,B,64.69988123453402,39.51140809009476,3.234994061726701,0.6206437469441501,B,408.4673000033945,Correct
13,15,187,B,63.273603519081746,40.01606541550283,3.163680175954087,0.6285708856745614,B,402.7926998678595,Correct
13,15,188,B,60.18775535444592,50.27019393119106,3.0093877677222958,0.7896423597438202,B,422.9363000486046,Correct
13,15,189,B,44.69702586723318,20.22365491188626,2.234851293361659,0.31767242849958505,B,546.0158998612314,Correct
13,15,190,B,77.19314205447463,46.90528222924973,3.8596571027237316,0.736786450329834,B,420.2424001414329,Correct
13,15,191,A,37.734682864526256,45.196273173803654,1.886734143226313,0.709941398862295,B,450.78059984371066,Incorrect
13,15,192,B,71.49688906922404,58.07503128664102,3.574844453461202,0.9122404582355442,A,391.1071000620723,Incorrect
13,15,193,B,51.94242843307978,39.80531223017848,2.597121421653989,0.6252603823808832,B,756.0382001101971,Correct
13,15,194,A,59.691822420411405,68.26141188294852,2.98459112102057,1.0722477504756904,A,634.5493998378515,Correct
13,15,195,B,73.7140030738926,60.297920418154234,3.68570015369463,0.9471575190620766,B,436.69430003501475,Correct
13,15,196,A,48.44501596871674,69.71691353914554,2.422250798435837,1.095110717027672,A,442.61639984324574,Correct
13,15,197,B,81.16300530442254,61.31230120859215,4.058150265221127,0.9630913752579885,A,438.5732999071479,Incorrect
13,15,198,A,64.39005521952436,77.62922533243297,3.219502760976218,1.2193970200411903,A,393.93869997002184,Correct
13,15,199,A,54.45427207292438,70.4108760729,2.722713603646219,1.1060114550172198,A,313.3602000307292,Correct
13,15,200,B,85.11465089223101,58.75846121149229,4.255732544611551,0.922975750391325,B,443.9172998536378,Correct
13,15,201,A,43.22784236195419,74.75551662133947,2.161392118097709,1.1742569091645487,A,417.3012000974268,Correct
13,15,202,B,59.929367324864735,52.94140330130984,2.9964683662432368,0.8316016184106471,A,344.6339999791235,Incorrect
13,15,203,B,53.95730433612647,46.565638040009134,2.6978652168063233,0.7314513318810705,B,441.0530000459403,Correct
13,15,204,A,67.037314833474,86.2250684903105,3.3518657416737,1.354420208622181,A,393.9183000475168,Correct
13,15,205,A,66.1431877587641,84.77904632365174,3.307159387938205,1.3317061455436652,A,454.37789987772703,Correct
13,15,206,B,59.227274854478495,47.01151667340196,2.9613637427239246,0.7384551770763683,B,587.2015999630094,Correct
13,15,207,B,59.21950557961669,27.34102353029371,2.9609752789808343,0.42947179332198193,B,477.30170004069805,Correct
13,15,208,A,15.441759049613793,41.81903370213536,0.7720879524806896,0.6568918452942621,A,494.15269983001053,Correct
13,15,209,B,57.459721665307484,27.16160785407038,2.872986083265374,0.4266535384701716,B,369.3363999482244,Correct
13,15,210,A,36.56798318632167,44.179411183216665,1.8283991593160835,0.6939685680655812,B,517.9620999842882,Incorrect
13,15,211,B,44.540651392893494,33.17164857686821,2.227032569644675,0.5210590373827574,B,409.36600021086633,Correct
13,15,212,A,17.312014470499527,42.06613520766151,0.8656007235249763,0.6607733066665218,A,488.6825999710709,Correct
13,15,213,A,28.983761676480395,54.41076471083507,1.4491880838240199,0.854682293458811,A,387.9448000807315,Correct
13,15,214,A,68.511321132857,89.28591198904788,3.4255660566428503,1.4024998258692882,A,465.7447999343276,Correct
13,15,215,B,50.34455998336466,40.70369044571468,2.517227999168233,0.6393720743912515,A,401.8970001488924,Incorrect
13,15,216,B,64.28294587461033,37.57951899480756,3.214147293730517,0.5902977039976275,B,527.8712001163512,Correct
13,15,217,A,20.96137754203589,48.03874543383562,1.0480688771017945,0.754590848713041,A,438.12600011006,Correct
13,15,218,A,51.573708976585635,60.116750689827285,2.578685448829282,0.9443117116242525,A,426.58609990030527,Correct
13,15,219,B,85.78713311475568,65.68914259425597,4.289356655737784,1.0318426389736346,A,444.47379978373647,Incorrect
13,15,220,A,65.69152223567345,81.70412255553876,3.2845761117836725,1.2834053559424035,A,415.674899937585,Correct
13,15,221,A,45.33495079306989,56.137948972006015,2.2667475396534944,0.8818128403902639,B,444.8148999363184,Incorrect
13,15,222,B,73.2789578635373,41.63997051233998,3.663947893176865,0.6540791272863145,B,476.90810007043183,Correct
13,15,223,A,52.972453024911296,66.63649584973001,2.6486226512455646,1.0467236291123927,A,553.8945998996496,Correct
13,15,224,A,62.40256396472258,71.66854068899653,3.120128198236129,1.1257668046102633,A,395.0322000309825,Correct
13,15,225,B,42.51954577375812,27.91817553276996,2.125977288687906,0.4385376757769021,B,325.53860009647906,Correct
13,15,226,A,52.86356423091942,80.33812989855117,2.643178211545971,1.2619483934621543,A,448.6978999339044,Correct
13,15,227,A,34.94633161287163,53.91100868769057,1.7473165806435815,0.846832144204321,B,431.64069997146726,Incorrect
13,15,228,B,57.396119181024346,31.695308405532543,2.8698059590512175,0.4978687402004193,B,501.94820016622543,Correct
13,15,229,B,60.76595554370975,49.55702774034767,3.0382977771854875,0.7784399714141091,B,336.8637999519706,Correct
13,15,230,B,31.61052347950258,14.38467100403415,1.580526173975129,0.22595388375289902,A,457.90029992349446,Incorrect
13,15,231,B,78.55579927857268,48.2984279951983,3.927789963928634,0.7586699328482529,B,421.71770008280873,Correct
13,15,232,A,65.05411451329263,77.6307117047694,3.2527057256646317,1.2194203679232536,A,391.1772998981178,Correct
13,15,233,A,50.15128547573883,73.56043862538598,2.5075642737869415,1.1554846679017774,A,407.8534001018852,Correct
13,15,234,A,59.92777404592253,77.07115910497981,2.9963887022961266,1.2106309362392733,A,411.41739999875426,Correct
13,15,235,B,58.371912104372875,33.77800831990094,2.9185956052186435,0.5305837139534785,B,331.66630007326603,Correct
13,15,236,A,34.65200920936098,45.76155931189602,1.7326004604680492,0.7188208927553307,B,402.3108999244869,Incorrect
13,15,237,B,70.0548939488227,38.06350552787101,3.502744697441135,0.5979001466811702,B,440.6702001579106,Correct
13,15,238,A,62.19643432559009,87.66241400968941,3.1098217162795043,1.3769979792439362,A,417.7411000709981,Correct
13,15,239,A,47.106733004847996,71.24784344421187,2.3553366502424,1.1191585077422586,A,400.15699993819,Correct
13,15,240,A,47.44914711801805,75.73444783071182,2.3724573559009023,1.1896339246432184,A,379.2358001228422,Correct
13,15,241,A,53.97107673503052,80.00997795395924,2.6985538367515263,1.2567937947701981,A,328.80429993383586,Correct
13,15,242,A,50.46696041267355,67.0613451171137,2.523348020633678,1.053397145798871,B,428.101500030607,Incorrect
13,15,243,B,49.343975569578774,28.869249631544733,2.467198778478939,0.4534771127855539,B,474.47980009019375,Correct
13,15,244,B,66.77717248171491,52.283557706039915,3.3388586240857454,0.8212682039641651,B,359.53249991871417,Correct
13,15,245,A,12.103851219596404,35.65198614269026,0.6051925609798202,0.5600200887588043,A,397.6680999621749,Correct
13,15,246,B,86.17942356439849,62.27876719618794,4.308971178219924,0.9782725874908653,B,323.56969988904893,Correct
13,15,247,A,46.67437796346191,77.8911507232387,2.333718898173095,1.22351133445891,A,333.6557000875473,Correct
13,15,248,A,55.13894328660283,75.98336993933819,2.7569471643301413,1.193543983982102,A,411.5194999612868,Correct
13,15,249,B,32.03771918614291,16.595331570855546,1.6018859593071455,0.26067885873443275,B,391.9424000196159,Correct
13,15,250,B,49.59656340754547,41.2946298650524,2.479828170377273,0.6486545290837914,B,427.41969996131957,Correct
13,15,251,B,67.59264503089524,40.19362500701735,3.3796322515447623,0.6313599852159435,A,401.5705001074821,Incorrect
13,15,252,A,53.207783668643174,78.69851111367748,2.6603891834321587,1.2361933218159193,A,426.44109996035695,Correct
13,15,253,B,50.97762155578042,24.033633201446207,2.548881077789021,0.3775194275236757,B,346.451299963519,Correct
13,15,254,A,34.3435237548606,54.87513617902997,1.7171761877430298,0.8619766234239001,A,383.70030000805855,Correct
13,15,255,B,79.31196750923716,53.36795474992643,3.965598375461858,0.838301872897407,B,364.77490002289414,Correct
13,15,256,B,56.21341891898365,33.213377116674934,2.810670945949182,0.5217145077532666,B,417.2248998656869,Correct
13,15,257,B,35.374617725334296,11.673464600731393,1.7687308862667148,0.18336635315799124,B,427.43470007553697,Correct
13,15,258,A,19.152750431736475,49.4453666416644,0.9576375215868238,0.7766860029775334,A,496.60709989257157,Correct
13,15,259,A,14.448507647281634,36.72014388671204,0.7224253823640816,0.5767986713662735,A,470.279400004074,Correct
13,15,260,B,41.49436056339641,23.24743163464251,2.0747180281698205,0.3651698021911193,B,347.4677000194788,Correct
13,15,261,B,48.91305586378525,17.872403830911303,2.4456527931892627,0.2807390628859051,B,433.3769001532346,Correct
13,15,262,B,62.53586386700666,48.676000085097,3.1267931933503332,0.7646008213673844,B,425.11770012788475,Correct
13,15,263,A,37.33125640251661,70.155237586932,1.8665628201258304,1.1019958950697604,A,431.2950999010354,Correct
13,15,264,B,40.82940970803202,21.91905164927765,2.041470485401601,0.34430365817512953,B,407.7318001072854,Correct
13,15,265,A,37.26018679786682,52.38983594972609,1.8630093398933412,0.8229376187121696,B,468.76040007919073,Incorrect
13,15,266,B,56.661229243549144,35.98004321298324,2.833061462177457,0.5651731971687571,B,433.1712999846786,Correct
13,15,267,B,45.79739300308391,32.07196526857201,2.2898696501541957,0.503785252369664,B,357.6463998761028,Correct
13,15,268,A,25.994252225134808,57.97199002169239,1.2997126112567403,0.9106218898306482,A,370.74699997901917,Correct
13,15,269,B,75.89048793771873,57.78607751200042,3.7945243968859366,0.9077015829573543,B,352.84460010007024,Correct
13,15,270,B,39.251556065917704,28.49765638512445,1.9625778032958852,0.4476401397201662,A,483.46729995682836,Incorrect
13,15,271,A,16.936717183061777,31.564454050323757,0.8468358591530888,0.4958132847953485,B,364.82209991663694,Incorrect
13,15,272,B,76.37510507909448,59.68612543613075,3.8187552539547243,0.9375474659569363,B,486.59899993799627,Correct
13,15,273,A,18.515167516996545,36.596135675450086,0.9257583758498272,0.5748507549388466,A,460.3798999451101,Correct
13,15,274,B,57.45402973459441,34.758710977297014,2.8727014867297203,0.545988555272636,B,442.0422001276165,Correct
13,15,275,B,51.11439282873951,40.53778581011445,2.5557196414369754,0.6367660504692606,B,406.592900166288,Correct
13,15,276,B,80.71301727713488,59.57063420120595,4.035650863856744,0.9357333338809675,A,341.4028000552207,Incorrect
13,15,277,B,69.21523635744641,39.74852968696767,3.4607618178723207,0.6243684442778672,B,468.5282001737505,Correct
13,15,278,B,85.6962283763196,67.31339941802955,4.28481141881598,1.0573564054991855,A,460.5614999309182,Incorrect
13,15,279,B,41.84748713763766,18.245452134739644,2.0923743568818827,0.28659889193961136,B,428.97579981945455,Correct
13,15,280,A,65.7875111945554,78.0404093604317,3.2893755597277705,1.2258558836493618,A,469.1876999568194,Correct
13,15,281,B,41.827048485642074,29.09562546640467,2.0913524242821038,0.45703301608428504,B,347.1449001226574,Correct
13,15,282,A,37.38479821971249,52.93396233741973,1.8692399109856246,0.8314847360231832,B,693.6280999798328,Incorrect
13,15,283,B,45.80690178701253,16.575056570039592,2.2903450893506263,0.2603603797663581,B,455.9390000067651,Correct
13,15,284,B,47.12779005677559,39.13131870400708,2.356389502838779,0.6146733168289474,A,393.6851001344621,Incorrect
13,15,285,B,62.41397335834008,53.9532969981035,3.120698667917004,0.847496407430951,B,447.62759981676936,Correct
13,15,286,B,43.40880782329911,14.47483737408934,2.1704403911649552,0.22737021378173025,B,363.1016002036631,Correct
13,15,287,B,87.10613308559047,64.97889248407928,4.355306654279524,1.0206860563319224,B,457.11740013211966,Correct
13,15,288,A,55.952058797551004,79.56770766611974,2.79760293987755,1.2498466293343102,B,322.2783000674099,Incorrect
13,15,289,A,22.653806687393146,44.818259104149554,1.1326903343696573,0.7040035677414005,A,356.46499996073544,Correct
13,15,290,A,46.63928534475269,61.44416994282014,2.331964267237635,0.9651627644914326,B,497.5177999585867,Incorrect
13,15,291,A,32.433274198319715,46.80879835471197,1.6216637099159856,0.7352708851726455,A,357.73749998770654,Correct
13,15,292,B,70.23671270904688,53.519735157955736,3.511835635452344,0.8406860339715256,B,517.7472000941634,Correct
13,15,293,B,72.91577855163071,40.42324087527229,3.645788927581535,0.6349667828402304,B,381.7769999150187,Correct
13,15,294,A,56.16462066584435,72.53594105085335,2.808231033292218,1.139391897632916,A,404.69100000336766,Correct
13,15,295,B,56.52935714718643,33.067654873370444,2.8264678573593214,0.5194255081081166,B,397.1552001312375,Correct
13,15,296,A,47.030668275907075,67.6112283249673,2.351533413795354,1.0620346910294969,A,390.0505001656711,Correct
13,15,297,B,85.93128157597744,64.30423217265772,4.2965640787988715,1.0100885169417695,B,375.43269991874695,Correct
13,15,298,B,71.56100007811213,38.59721489663358,3.5780500039056062,0.6062836338414529,B,408.6631000973284,Correct
13,15,299,A,38.848486945757735,59.13297510074754,1.9424243472878868,0.928858600807083,A,411.0578999388963,Correct
