subject,day,trial,cat,x,y,xt,yt,resp,rt,fb,resp_key
13,24,0,B,61.490880853518085,52.73664408412849,3.074544042675904,0.8283852681483885,B,1322.6705999695696,Correct,d
13,24,1,B,46.295043813224744,18.388046114605473,2.314752190661237,0.2888387529375745,B,574.0448000142351,Correct,d
13,24,2,A,12.961304747549978,32.04242081317135,0.6480652373774989,0.503321169149459,A,678.038599959109,Correct,k
13,24,3,A,40.71900595205036,50.45314076521965,2.035950297602518,0.7925160818927289,B,683.603800018318,Incorrect,d
13,24,4,A,56.93307226736808,75.07313533629221,2.8466536133684044,1.1792460522722394,A,601.4702999964356,Correct,k
13,24,5,A,32.43518100754166,65.61081678844566,1.6217590503770827,1.0306123000930336,A,492.39899998065084,Correct,k
13,24,6,A,58.847954364043744,83.31984920437893,2.942397718202187,1.308785130793431,A,495.62199995853007,Correct,k
13,24,7,B,64.71328172895237,38.63252237794968,3.2356640864476187,0.60683824246105,B,491.92800000309944,Correct,d
13,24,8,A,30.096755864348385,47.52649409838188,1.5048377932174193,0.7465444235517761,B,753.0752000166103,Incorrect,d
13,24,9,B,53.95090042657195,45.73925001032967,2.6975450213285974,0.7184704590657928,A,1273.2596999849193,Incorrect,k
13,24,10,B,54.35073548926652,29.27279774214402,2.717536774463326,0.45981603168369767,B,519.2026000004262,Correct,d
13,24,11,A,50.88246697083464,65.02500080944701,2.544123348541732,1.0214103242131454,B,502.33679998200387,Incorrect,d
13,24,12,B,48.043918626450306,25.55806419482673,2.4021959313225154,0.4014651335722199,B,831.0019000200555,Correct,d
13,24,13,A,32.487297626530406,52.50425343103011,1.6243648813265201,0.8247348843057044,A,603.7525999709032,Correct,k
13,24,14,A,50.867264145838064,65.99638156116916,2.5433632072919035,1.0366687373803896,A,520.8621000056155,Correct,k
13,24,15,A,47.33976267250726,57.43613402121265,2.3669881336253633,0.9022046834582022,A,480.93899997184053,Correct,k
13,24,16,B,61.152685185054374,33.85129604972681,3.0576342592527186,0.5317349149215747,B,531.684200046584,Correct,d
13,24,17,B,82.83945741007858,53.56778966956399,4.141972870503929,0.8414408724747272,B,547.4984999746084,Correct,d
13,24,18,B,85.31518101777893,67.69258995197104,4.2657590508889465,1.0633127164778924,A,580.5942000006326,Incorrect,k
13,24,19,A,51.92021778125147,76.75341929577654,2.5960108890625735,1.2056398909875432,A,503.7811999791302,Correct,k
13,24,20,B,56.57322387741349,39.03462989552029,2.8286611938706745,0.6131545325768154,B,630.2628999692388,Correct,d
13,24,21,B,56.128821286828746,46.937722959411744,2.8064410643414375,0.7372960281276045,B,608.3116000518203,Correct,d
13,24,22,B,87.70208295049736,64.92485037821291,4.385104147524868,1.0198371649180507,A,556.464999972377,Incorrect,k
13,24,23,A,17.89110532526493,46.55624899555761,0.8945552662632466,0.7313038491157049,A,590.6350000295788,Correct,k
13,24,24,B,56.92860890282861,33.693228963157935,2.84643044514143,0.529252002931879,B,607.9876000294462,Correct,d
13,24,25,B,79.36717225218365,55.536499153337246,3.9683586126091823,0.8723652887311002,A,563.3507000165991,Incorrect,k
13,24,26,A,32.00407933922006,51.528875059888975,1.600203966961003,0.8094136766794675,A,512.2408000170253,Correct,k
13,24,27,B,71.33351491617222,47.33643579792401,3.5666757458086114,0.7435589947494149,B,568.1977000203915,Correct,d
13,24,28,B,64.85439274762034,53.92176817588587,3.242719637381017,0.8470011538496748,B,608.5459999740124,Correct,d
13,24,29,B,84.63732739475888,60.39461049327406,4.231866369737944,0.948676323210434,A,492.0165999792516,Incorrect,k
13,24,30,A,18.60171363159162,40.146288474379375,0.9300856815795809,0.6306164247000341,A,478.92419999698177,Correct,k
13,24,31,A,24.45033973810694,35.06205815166094,1.2225169869053472,0.5507535215449807,A,539.5355999935418,Correct,k
13,24,32,A,35.92187972524233,65.33808253312593,1.7960939862621164,1.0263282004285599,A,512.8712999867275,Correct,k
13,24,33,B,49.46752136786523,30.296749135435093,2.4733760683932617,0.47590022255767905,B,848.7161999801174,Correct,d
13,24,34,B,52.915575930874,45.5036949363257,2.6457787965437003,0.7147703686157594,B,386.4632000331767,Correct,d
13,24,35,B,76.19168894363658,50.82854488105556,3.8095844471818285,0.7984129159549161,A,487.03820002265275,Incorrect,k
13,24,36,B,52.53294210929369,36.282085194743445,2.6266471054646847,0.569917661523625,B,457.5475000310689,Correct,d
13,24,37,A,43.64977996845347,55.922426027755236,2.1824889984226736,0.8784274138985726,A,535.2872000075877,Correct,k
13,24,38,A,38.487864952486234,62.69073050041985,1.9243932476243117,0.9847436919414829,A,652.928100025747,Correct,k
13,24,39,A,27.31604289790078,55.7508825671655,1.365802144895039,0.875732815520772,A,467.61039999546483,Correct,k
13,24,40,A,61.28570363221745,75.44051183433058,3.0642851816108725,1.185016788808934,A,503.3789000008255,Correct,k
13,24,41,B,41.021541922182784,23.108723888056566,2.051077096109139,0.36299098600276736,B,384.353099972941,Correct,d
13,24,42,A,32.489654044641355,58.736139604544896,1.6244827022320678,0.9226251234093138,A,433.78910003229976,Correct,k
13,24,43,B,41.22155386025311,30.181749766748474,2.0610776930126553,0.47409381669851225,B,464.6093000192195,Correct,d
13,24,44,A,56.002647757850994,83.90405861454526,2.8001323878925497,1.3179618707491139,A,403.1457999954,Correct,k
13,24,45,A,49.2472343397592,77.60457159254423,2.46236171698796,1.2190097600006005,A,574.7661999776028,Correct,k
13,24,46,B,53.90522196178828,28.183481641497032,2.695261098089414,0.44270509438754946,B,455.7472000014968,Correct,d
13,24,47,B,51.80241837384805,39.072869922755075,2.5901209186924024,0.6137552055199846,B,395.38010000251234,Correct,d
13,24,48,A,50.237319762129076,74.59106694070348,2.511865988106454,1.1716737396216925,A,401.27059997757897,Correct,k
13,24,49,B,53.4599181640747,33.006913424684065,2.672995908203735,0.5184713836633089,B,437.0624999864958,Correct,d
13,24,50,B,69.49587854076343,39.962705775164075,3.4747939270381716,0.6277327144041291,B,522.2751999972388,Correct,d
13,24,51,B,41.0307353729192,18.930608972735172,2.0515367686459602,0.2973613103836292,B,483.3883999963291,Correct,d
13,24,52,B,76.43747813556573,48.49871248248585,3.821873906778286,0.7618159942177057,B,439.3567999941297,Correct,d
13,24,53,A,32.198586201971565,57.71515980695588,1.6099293100985783,0.9065876102514674,A,491.17250001290813,Correct,k
13,24,54,A,36.40546496579205,53.73518609764816,1.8202732482896025,0.8440703294182593,A,469.1412999527529,Correct,k
13,24,55,A,57.73721944820538,73.61225956981158,2.886860972410269,1.156298669393325,A,590.5247000046074,Correct,k
13,24,56,B,61.28768649321043,33.37958937309102,3.0643843246605216,0.5243253637717334,B,634.5212999731302,Correct,d
13,24,57,B,43.735394605487194,36.27517277210833,2.1867697302743596,0.5698090814427801,B,530.9820999973454,Correct,d
13,24,58,B,51.5751499459131,37.55057842340124,2.578757497295655,0.5898431065650237,B,435.35540002631024,Correct,d
13,24,59,B,67.60373854101958,49.89426160888859,3.3801869270509792,0.7837372286338583,B,371.60700000822544,Correct,d
13,24,60,A,12.541009532587712,37.25960027774008,0.6270504766293855,0.5852724325412022,A,424.47219998575747,Correct,k
13,24,61,B,56.437334480104745,32.513646862850536,2.821866724005237,0.5107231706287203,B,362.45090002194047,Correct,d
13,24,62,A,62.29764361134342,76.59073799372685,3.1148821805671707,1.2030844990705645,A,367.88929998874664,Correct,k
13,24,63,A,65.04016127142448,77.73550126030099,3.2520080635712243,1.2210663984124086,A,662.758800026495,Correct,k
13,24,64,A,37.142456443786045,56.537196578494914,1.8571228221893024,0.8880842071278081,A,554.2075000121258,Correct,k
13,24,65,B,39.57340977952169,23.551534522181356,1.9786704889760844,0.36994663917825676,B,536.0893000033684,Correct,d
13,24,66,A,57.49628093928201,84.47664880061001,2.8748140469641004,1.3269560963594071,A,367.8982999990694,Correct,k
13,24,67,B,36.19416656843695,24.66504555357634,1.8097083284218474,0.38743762955786515,B,522.2360000479966,Correct,d
13,24,68,A,37.5325510040442,45.51132387969375,1.87662755020221,0.714890203777958,B,484.93210005108267,Incorrect,d
13,24,69,A,54.79971190963376,75.81781128436867,2.739985595481688,1.1909433947111496,A,608.5804000031203,Correct,k
13,24,70,A,29.7746836422118,43.41333506108673,1.48873418211059,0.6819350724787113,A,831.7340000066906,Correct,k
13,24,71,A,30.910401010364456,62.19194173086948,1.5455200505182227,0.9769087362709202,A,486.1232999828644,Correct,k
13,24,72,A,36.98434156325014,62.324003982249636,1.8492170781625072,0.9789831652646822,A,445.30600000871345,Correct,k
13,24,73,A,11.936863275904198,31.673255094671763,0.59684316379521,0.4975223276034815,B,452.53070001490414,Incorrect,d
13,24,74,B,63.09021345782121,47.693147884786626,3.1545106728910604,0.7491622151070861,B,729.6450000139885,Correct,d
13,24,75,A,45.35632758977004,76.39056461804084,2.2678163794885022,1.1999401830380674,A,457.5833000126295,Correct,k
13,24,76,B,39.47737697731817,12.383346626997966,1.9738688488659084,0.19451715395116378,B,435.558500001207,Correct,d
13,24,77,B,55.64822346940493,38.465994222507014,2.782411173470247,0.6042224243122774,B,683.1303000217304,Correct,d
13,24,78,A,24.14804631800633,49.39730301639038,1.2074023159003164,0.7759310213172047,A,418.02819998702034,Correct,k
13,24,79,A,38.70537665479197,47.9980843758123,1.9352688327395984,0.7539521463071746,A,498.04259999655187,Correct,k
13,24,80,B,70.6433944121392,59.10786862381249,3.53216972060696,0.9284642291895998,B,544.7080000303686,Correct,d
13,24,81,B,50.49811030702308,31.670507964057567,2.524905515351154,0.4974791757767014,B,453.70130002265796,Correct,d
13,24,82,A,32.89076598309305,62.25526547466387,1.6445382991546524,0.9779034233124315,A,419.68790005194023,Correct,k
13,24,83,A,10.319044624871172,32.16933398233799,0.5159522312435585,0.5053147165489476,A,386.2223000032827,Correct,k
13,24,84,A,34.931608834866296,56.52516546634092,1.7465804417433148,0.8878952228600204,A,458.8860999792814,Correct,k
13,24,85,B,56.95608435060967,36.70862628938476,2.8478042175304834,0.5766177533705216,B,519.8245000210591,Correct,d
13,24,86,A,31.469378654489923,53.66043431653422,1.5734689327244962,0.8428961311863077,A,494.4849000312388,Correct,k
13,24,87,B,60.57939129965544,48.81231636080807,3.0289695649827717,0.7667420724190775,A,524.976400018204,Incorrect,k
13,24,88,A,15.068317023619777,41.165620362177286,0.7534158511809889,0.6466280525514128,A,506.40610000118613,Correct,k
13,24,89,B,72.94104203930733,54.31256336464986,3.6470521019653663,0.8531397503200706,A,518.7761000124738,Incorrect,k
13,24,90,A,62.48614158211002,78.31816280167567,3.1243070791055008,1.2302188245019683,B,525.4728000145406,Incorrect,d
13,24,91,A,23.626525034724224,42.86066885552151,1.1813262517362113,0.6732538120222561,A,587.4433999997564,Correct,k
13,24,92,A,67.16167908665344,84.11565163823474,3.3580839543326717,1.3212855661929823,A,381.6462000249885,Correct,k
13,24,93,B,62.556817142288665,32.70739843904971,3.127840857114433,0.5137666132707642,B,482.38970001693815,Correct,d
13,24,94,A,53.00363059733314,72.89006891516186,2.650181529866657,1.1449545251176312,B,382.4976999894716,Incorrect,d
13,24,95,A,51.33983252525709,82.06972612756525,2.5669916262628543,1.2891482434224264,A,416.7924000066705,Correct,k
13,24,96,A,61.225876853409304,88.15458412726679,3.0612938426704654,1.3847289693724236,A,364.0758999972604,Correct,k
13,24,97,B,30.927487354904407,14.701473826888261,1.5463743677452202,0.23093021085747395,A,339.03660002397373,Incorrect,k
13,24,98,B,46.72987000423863,26.16485087285101,2.3364935002119314,0.41099651642210605,B,682.3345999582671,Correct,d
13,24,99,A,47.494218776751374,55.23964564823767,2.374710938837569,0.8677023247770342,A,491.72579997684807,Correct,k
13,24,100,A,15.374330804995118,32.46702774254098,0.7687165402497559,0.5099908791993137,A,436.9470999808982,Correct,k
13,24,101,A,15.847897430361343,45.12403133367643,0.7923948715180671,0.7088066266911676,A,413.78140001324937,Correct,k
13,24,102,B,33.11299419618555,19.577530959852105,1.6556497098092775,0.30752313719449054,A,452.431500016246,Incorrect,k
13,24,103,B,50.53422845661693,32.12560847791266,2.5267114228308465,0.5046278779315618,B,467.2648000414483,Correct,d
13,24,104,A,56.6055715989193,81.99954580257763,2.830278579945965,1.288045853455388,A,293.12669998034835,Correct,k
13,24,105,B,52.31899256601429,28.004495878413696,2.615949628300714,0.4398935925955506,B,470.31399997649714,Correct,d
13,24,106,B,81.4987712661364,64.51316245724018,4.074938563306819,1.0133703861775532,A,435.7854000409134,Incorrect,k
13,24,107,B,59.87637726135366,36.849115312204646,2.993818863067683,0.5788245497805263,B,613.8845999957994,Correct,d
13,24,108,A,49.01320710185071,70.49705578540983,2.4506603550925354,1.1073651627757666,A,497.3199999658391,Correct,k
13,24,109,B,59.1789166951002,33.40067739617994,2.95894583475501,0.5246566136638077,B,514.4435000256635,Correct,d
13,24,110,A,30.096423573547177,47.65816454889346,1.5048211786773589,0.748612698151886,B,384.1573999961838,Incorrect,d
13,24,111,A,54.22249308783725,74.43190151310522,2.711124654391863,1.169173574931452,A,426.67959997197613,Correct,k
13,24,112,A,23.460068915333437,35.083612722398016,1.1730034457666718,0.551092099950375,B,479.85699999844655,Incorrect,d
13,24,113,A,35.633888781845926,50.66207546942838,1.7816944390922964,0.7957980205518393,A,435.1204000413418,Correct,k
13,24,114,B,38.702444976287076,23.85278133015629,1.9351222488143538,0.3746786129725138,B,464.04710004571825,Correct,d
13,24,115,A,45.12175462890841,76.35660772817197,2.2560877314454206,1.1994067894593132,A,316.89899996854365,Correct,k
13,24,116,A,49.65967712758971,74.86503116885258,2.4829838563794855,1.1759771596541906,A,323.4249000088312,Correct,k
13,24,117,B,49.37889680256991,28.294783152333586,2.4689448401284952,0.4444534144314372,B,631.8436000146903,Correct,d
13,24,118,B,73.7828548849831,47.124561225974354,3.6891427442491547,0.7402308767558172,B,432.1356000145897,Correct,d
13,24,119,A,53.442346127682214,82.62481704653595,2.6721173063841106,1.2978675911879902,A,352.74780000327155,Correct,k
13,24,120,B,35.96237536571923,23.64915378607433,1.7981187682859616,0.37148003898973175,B,534.2941000126302,Correct,d
13,24,121,A,43.572241266376196,55.44178641438164,2.1786120633188095,0.8708775445065787,A,366.91440001595765,Correct,k
13,24,122,B,56.97161089219859,46.61252912207653,2.8485805446099293,0.7321878952757795,B,494.48380002286285,Correct,d
13,24,123,B,76.853652058497,55.69355086992792,3.8426826029248504,0.874832251326475,A,580.6711000041105,Incorrect,k
13,24,124,A,33.987017477522606,57.818341899724714,1.6993508738761305,0.9082083907745905,A,387.79389997944236,Correct,k
13,24,125,B,64.74398830912727,56.15642816401426,3.237199415456364,0.8821031108595508,B,445.85750001715496,Correct,d
13,24,126,B,31.551277097398877,16.58285372501148,1.577563854869944,0.26048285719025094,B,496.39649997698143,Correct,d
13,24,127,B,34.621138694756695,10.4698556537567,1.7310569347378348,0.16446010802993802,B,387.109600007534,Correct,d
13,24,128,B,56.757474273313626,35.10729914470163,2.8378737136656813,0.5514641654018693,B,566.3175000227056,Correct,d
13,24,129,B,55.53086400546637,35.99233853268013,2.776543200273318,0.5653663315989237,A,2821.6958999983035,Incorrect,k
13,24,130,A,34.097810244862295,66.6096003917088,1.7048905122431148,1.0463011562457207,A,570.6550999893807,Correct,k
13,24,131,B,55.378662093232506,32.37550317032212,2.7689331046616252,0.5085532145807851,B,630.4485999862663,Correct,d
13,24,132,B,38.621380980131185,27.686816628285357,1.9310690490065594,0.434903498603545,B,369.50739996973425,Correct,d
13,24,133,B,83.38007444953068,67.64042456065738,4.169003722476535,1.0624933044272793,A,344.10420001950115,Incorrect,k
13,24,134,B,57.89148509368759,29.532484893142485,2.89457425468438,0.46389518791273987,B,405.37039999617264,Correct,d
13,24,135,A,43.47766150882076,75.40198077175766,2.173883075441038,1.1844115442933638,A,469.66879995306954,Correct,k
13,24,136,A,55.266015857714784,77.86163690802687,2.7633007928857394,1.2230477325336655,B,772.9664999642409,Incorrect,d
13,24,137,A,28.008184274275994,53.801642788616576,1.4004092137137996,0.8451142286789004,A,388.437999994494,Correct,k
13,24,138,B,30.434005191555787,11.234429980324752,1.5217002595777893,0.17647001346728583,B,506.0183000168763,Correct,d
13,24,139,B,79.0854468397149,64.51724504009873,3.954272341985745,1.0134345152391335,A,342.5983999622986,Incorrect,k
13,24,140,B,36.28227511435198,14.175788323358454,1.8141137557175993,0.22267276227753444,B,1030.8759000035934,Correct,d
13,24,141,B,88.17801722896476,67.26655591573717,4.408900861448238,1.0566205894858347,A,490.91389996465296,Incorrect,k
13,24,142,A,11.573877214032525,31.47223383516491,0.5786938607016262,0.49436469304307096,A,464.82619998278096,Correct,k
13,24,143,B,43.671555218868974,14.624650093378026,2.183577760943449,0.22972346647338845,B,388.93009995808825,Correct,d
13,24,144,B,68.60873708043553,59.155416390992706,3.4304368540217762,0.9292111077699394,A,381.3827999983914,Incorrect,k
13,24,145,A,58.20148671687885,70.02914805773409,2.9100743358439423,1.1000152853766467,A,343.6307999654673,Correct,k
13,24,146,B,45.32006199060662,32.75369883916265,2.266003099530331,0.5144938982550297,B,489.11310004768893,Correct,d
13,24,147,B,39.43419353703269,16.530235211466504,1.9717096768516345,0.25965632751227247,B,482.7015999471769,Correct,d
13,24,148,A,43.564265858646124,59.95288942634632,2.1782132929323064,0.941737784916454,B,421.0538000334054,Incorrect,d
13,24,149,A,56.413606040516214,68.29838434390388,2.820680302025811,1.0728285125343027,A,381.46589999087155,Correct,k
13,24,150,A,20.553633929267097,41.75093126645234,1.0276816964633548,0.6558220947360953,A,424.0079000010155,Correct,k
13,24,151,A,53.43942072670435,71.01871350713205,2.6719710363352176,1.1155593431070212,A,449.79779998539016,Correct,k
13,24,152,A,50.33345223148785,62.3476665567529,2.5166726115743923,0.9793548561158048,A,344.20709998812526,Correct,k
13,24,153,B,66.75261461423518,58.1827324505429,3.3376307307117594,0.9139322241620301,A,434.1170999687165,Incorrect,k
13,24,154,A,18.174830769397193,33.511960525576086,0.9087415384698596,0.5264046449727048,B,361.0356000135653,Incorrect,d
13,24,155,A,36.199539697609914,60.90532520390939,1.8099769848804956,0.9566986111254951,A,436.2350999726914,Correct,k
13,24,156,B,75.1676779377468,56.13117763663143,3.75838389688734,0.881706476502925,A,384.9470000131987,Incorrect,k
13,24,157,B,39.23582861750266,21.74260387551364,1.961791430875133,0.3415320230261331,B,541.9067000038922,Correct,d
13,24,158,A,67.08683992563675,84.81728446016471,3.3543419962818377,1.3323067887874458,A,403.60670001246035,Correct,k
13,24,159,B,72.9740880641749,44.13485664661974,3.648704403208745,0.6932687070412962,B,470.3752999776043,Correct,d
13,24,160,A,65.5954067447822,82.30136262683418,3.2797703372391096,1.292786781044459,A,406.9524999940768,Correct,k
13,24,161,A,68.27383838627843,85.68738571355283,3.4136919193139215,1.3459743073150627,A,426.64740001782775,Correct,k
13,24,162,A,35.04260598889642,54.80344321304304,1.752130299444821,0.8608504729476072,A,335.84900002460927,Correct,k
13,24,163,A,38.957641795992664,58.59793722848127,1.9478820897996332,0.920454245562563,A,387.90199998766184,Correct,k
13,24,164,B,39.00013870307824,15.296778020582316,1.9500069351539122,0.2402812272652761,B,444.0232000197284,Correct,d
13,24,165,A,25.34549826013898,38.195107718116304,1.2672749130069492,0.5999673490515249,A,419.91779999807477,Correct,k
13,24,166,B,40.167560074075354,21.64100208554397,2.008378003703768,0.3399360658413316,A,379.8111999640241,Incorrect,k
13,24,167,A,26.750632460935833,55.36373878639145,1.3375316230467917,0.8696515752329584,B,384.7279000328854,Incorrect,d
13,24,168,B,68.42207180020473,37.16733707482556,3.4211035900102367,0.5838231655388377,B,391.7270999518223,Correct,d
13,24,169,B,61.3057406699124,48.89945654630978,3.06528703349562,0.7681108672521006,B,450.84000000497326,Correct,d
13,24,170,B,53.5008606388236,40.5327961868673,2.67504303194118,0.6366876736505734,A,433.0742000020109,Incorrect,k
13,24,171,B,30.404984712160353,13.477600993796525,1.5202492356080177,0.2117056613506283,B,436.4805000368506,Correct,d
13,24,172,B,46.37586881947959,18.54723396043176,2.3187934409739794,0.2913392697725177,B,416.01149999769405,Correct,d
13,24,173,B,59.25202031424985,46.23599746327433,2.9626010157124925,0.7262733498100947,B,365.90869998326525,Correct,d
13,24,174,B,66.85164139593411,48.85710689708116,3.3425820697967055,0.767445640517607,A,337.83689996926114,Incorrect,k
13,24,175,B,51.91322876463656,39.2164365523385,2.5956614382318275,0.6160103448639843,A,748.1486999895424,Incorrect,k
13,24,176,B,66.03101147720326,37.76508817037026,3.301550573860163,0.5932126177910301,B,481.2273000134155,Correct,d
13,24,177,B,42.28979533155159,28.484238477387272,2.1144897665775795,0.4474293717182978,B,426.4197999727912,Correct,d
13,24,178,A,34.48625217296857,66.78436791084995,1.7243126086484284,1.0490463980168205,A,441.619899997022,Correct,k
13,24,179,A,52.538125696082304,78.56443426964299,2.6269062848041154,1.234087247674743,A,460.60120000038296,Correct,k
13,24,180,B,53.182118956973106,30.668903412024374,2.659105947848655,0.4817460082643536,B,610.2889000321738,Correct,d
13,24,181,B,58.90934485864375,51.94481373780094,2.9454672429321875,0.8159472261538281,A,429.1351000429131,Incorrect,k
13,24,182,A,60.28129576937619,70.2558420177646,3.0140647884688097,1.103576185773872,A,491.0750999697484,Correct,k
13,24,183,B,61.373441397014396,41.8417268399654,3.0686720698507197,0.6572483082697309,A,313.7589999823831,Incorrect,k
13,24,184,B,34.29929000729629,10.171827241644024,1.7149645003648146,0.15977868867966696,B,477.6440999703482,Correct,d
13,24,185,B,47.46218418407891,27.577373112840704,2.3731092092039456,0.43318436388302517,B,449.24190000165254,Correct,d
13,24,186,B,76.67614470524394,57.76707237250646,3.833807235262197,0.907403050924281,A,387.8938999841921,Incorrect,k
13,24,187,B,81.12080851149169,63.68119838551385,4.056040425574585,1.0003019250986225,B,541.6447999887168,Correct,d
13,24,188,B,41.681721487135725,32.86806582887096,2.084086074356786,0.5162903707284336,B,586.39440004481,Correct,d
13,24,189,B,81.44365050629514,53.114603891114264,4.072182525314758,0.8343222469132822,B,460.3388999821618,Correct,d
13,24,190,A,34.32870340001805,45.55652745924962,1.7164351700009024,0.7156002599452014,A,503.4730000188574,Correct,k
13,24,191,B,50.37287154520505,34.07025526122453,2.5186435772602525,0.5351743181729599,A,457.88260002154857,Incorrect,k
13,24,192,B,62.97982394586961,37.560191300075786,3.1489911972934808,0.5899941052787268,B,551.6789000248536,Correct,d
13,24,193,A,32.33166154677614,56.46533637261828,1.6165830773388068,0.8869554296534706,A,392.3064999980852,Correct,k
13,24,194,A,45.405126398659746,60.70414304552313,2.2702563199329875,0.953538449171397,A,558.6394999991171,Correct,k
13,24,195,A,41.4796843199598,63.76082241875514,2.07398421599799,1.0015526564880226,A,321.04139996226877,Correct,k
13,24,196,B,88.91729528802469,65.63981090649719,4.445864764401234,1.0310677386343738,B,534.3225999968126,Correct,d
13,24,197,B,51.748308052688486,21.939903543056644,2.587415402634424,0.3446311989566771,A,408.2627999596298,Incorrect,k
13,24,198,B,73.26220861183371,47.97984047130108,3.663110430591686,0.7536655717252486,B,515.5995000386611,Correct,d
13,24,199,B,53.39694210865994,27.766696447585083,2.669847105432997,0.43615824787095553,B,403.63940002862364,Correct,d
13,24,200,A,56.651546931247736,75.95211776557647,2.8325773465623865,1.1930530759846092,A,525.7938000140712,Correct,k
13,24,201,B,82.56650844903326,61.511204234057466,4.128325422451663,0.9662157366758817,B,499.24850004026666,Correct,d
13,24,202,B,57.07073769242585,49.75874687379171,2.8535368846212923,0.7816085681526904,A,358.0122999846935,Incorrect,k
13,24,203,B,69.81972404067442,49.4954346983365,3.490986202033721,0.7774724701726365,A,391.6662000119686,Incorrect,k
13,24,204,A,36.754058084038284,58.93160512449746,1.8377029042019144,0.9256954886168791,A,411.97750001447275,Correct,k
13,24,205,B,55.44109888210732,45.08615304528291,2.7720549441053657,0.7082116359284294,A,416.2173999939114,Incorrect,k
13,24,206,A,49.47277445788295,72.26299818787984,2.4736387228941474,1.1351045211670794,A,368.41230001300573,Correct,k
13,24,207,A,40.572883960674645,62.88318219045771,2.028644198033732,0.9877667160194523,A,502.8106999816373,Correct,k
13,24,208,A,27.659512491584962,38.254414626913736,1.3829756245792482,0.6008989397964506,A,495.5722999875434,Correct,k
13,24,209,A,39.46004273018932,62.66941240362882,1.973002136509466,0.9844088280601467,A,367.1663000131957,Correct,k
13,24,210,B,66.02850641515435,33.21146973859965,3.3014253207577178,0.5216845467285218,B,511.78959995741025,Correct,d
13,24,211,A,59.785804565353544,72.77683912995084,2.989290228267677,1.1431759158106989,B,427.1567999967374,Incorrect,d
13,24,212,B,75.93332916197464,62.14588187939221,3.7966664580987324,0.9761852298157881,B,566.4667999953963,Correct,d
13,24,213,B,79.57634099760449,49.185575688999,3.978817049880224,0.77260521623572,B,411.5837999852374,Correct,d
13,24,214,B,58.489102007912294,29.914606318659125,2.9244551003956145,0.4698975372286516,B,418.4854999766685,Correct,d
13,24,215,A,40.24441743364597,57.791611923332134,2.0122208716822985,0.9077885172872625,A,395.65160003257915,Correct,k
13,24,216,B,85.74272145159593,63.61496708785735,4.287136072579796,0.9992615663078457,B,630.7675000280142,Correct,d
13,24,217,A,56.71977131667774,83.93792890043736,2.8359885658338873,1.318493903955782,A,370.71310001192614,Correct,k
13,24,218,A,47.46924191102946,64.02895967802095,2.373462095551473,1.0057645467073386,B,534.9915000260808,Incorrect,d
13,24,219,B,46.04830849838996,20.724899646895587,2.3024154249194977,0.3255459623853643,B,488.64510003477335,Correct,d
13,24,220,B,60.3147682156043,28.465236116403002,3.0157384107802154,0.44713088332995266,B,441.3134000496939,Correct,d
13,24,221,B,48.05273058599088,17.64236805387302,2.402636529299544,0.2771256693498737,B,423.3531999634579,Correct,d
13,24,222,A,30.04861398363775,53.06973070361643,1.5024306991818874,0.8336173805323502,A,350.25930003030226,Correct,k
13,24,223,B,41.46833593080384,21.559561536494613,2.073416796540192,0.3386568006883427,B,471.50110005168244,Correct,d
13,24,224,B,66.24105576333454,50.95694628738018,3.312052788166727,0.8004298405290162,A,353.3217000076547,Incorrect,k
13,24,225,A,16.246489752982043,44.97786092444826,0.8123244876491021,0.7065105872721503,A,535.1847999845631,Correct,k
13,24,226,A,48.24861447564936,68.42741532604498,2.4124307237824683,1.0748553264622025,A,566.9918999774382,Correct,k
13,24,227,B,43.86824987875875,30.9256586642518,2.1934124939379376,0.4857791103351949,B,498.08749998919666,Correct,d
13,24,228,B,73.18666032313598,62.30606095862046,3.659333016156799,0.9787013169085993,A,428.5094999941066,Incorrect,k
13,24,229,A,65.9107073173362,84.90213212644457,3.2955353658668103,1.333639572812741,A,486.1119000124745,Correct,k
13,24,230,A,19.561559299917704,38.76591937558529,0.9780779649958852,0.6089336375999648,A,463.33290002075955,Correct,k
13,24,231,A,42.93489808575385,74.99213040921636,2.1467449042876923,1.1779736298532093,A,359.8126000142656,Correct,k
13,24,232,A,29.742086885535144,51.22346091037704,1.4871043442767573,0.8046162424374222,A,416.1557999905199,Correct,k
13,24,233,A,17.341939465928352,41.507037212976286,0.8670969732964176,0.6519910159028223,A,370.61819998780265,Correct,k
13,24,234,A,44.74114871871046,66.68346628378654,2.2370574359355233,1.0474614389652324,A,470.6629999564029,Correct,k
13,24,235,B,63.05091739504182,30.74566278580774,3.152545869752091,0.4829517416882135,A,322.09859997965395,Incorrect,k
13,24,236,B,36.17236274234048,22.9173910655021,1.808618137117024,0.3599855370541288,B,467.4603000166826,Correct,d
13,24,237,B,77.86591086298563,54.46978473631931,3.8932955431492813,0.855609377851191,B,1611.6596999927424,Correct,d
13,24,238,A,10.735841981168196,35.31715085922477,0.5367920990584097,0.5547605084253149,B,547.0035999896936,Incorrect,d
13,24,239,A,62.51726512001802,81.18805516336062,3.125863256000901,1.275298988302283,B,442.7478999714367,Incorrect,d
13,24,240,A,48.719963940670866,68.27917991803271,2.4359981970335434,1.0725268501181364,A,496.38929998036474,Correct,k
13,24,241,A,41.655559294285275,50.451222967596365,2.0827779647142637,0.7924859571981069,A,386.8429000140168,Correct,k
13,24,242,B,62.91754124743887,34.832780367050596,3.1458770623719436,0.5471520345261647,B,488.20880003040656,Correct,d
13,24,243,A,57.984528960608245,66.3965709472285,2.8992264480304124,1.0429548975568326,A,377.8571999864653,Correct,k
13,24,244,B,43.908187288548014,35.95520614726254,2.195409364427401,0.5647830574527327,B,468.5555000323802,Correct,d
13,24,245,A,41.74023409508646,53.25502906316271,2.087011704754323,0.8365280403577146,A,616.4378000539728,Correct,k
13,24,246,A,56.28122750516926,81.88813543831657,2.814061375258463,1.2862958235459065,A,579.9464000156149,Correct,k
13,24,247,B,52.13118037062789,34.880125403842705,2.606559018531394,0.5478957286250148,B,417.30650002136827,Correct,d
13,24,248,A,48.67538052611491,77.44332640377282,2.4337690263057454,1.2164769264982456,A,336.29830001154914,Correct,k
13,24,249,A,42.038223670284616,53.827457523595676,2.101911183514231,0.845519725587724,A,425.14299997128546,Correct,k
13,24,250,B,57.32324938960437,39.26279929495573,2.8661624694802184,0.6167386091220171,B,378.2037000055425,Correct,d
13,24,251,A,28.005527776967998,39.28477815962307,1.4002763888484,0.617083852320883,A,411.5315999952145,Correct,k
13,24,252,A,42.89880088850149,62.99373379279281,2.1449400444250744,0.989503256528145,A,408.5655999951996,Correct,k
13,24,253,B,63.414331358208116,33.363496456519414,3.170716567910406,0.5240725768293524,B,498.3396999887191,Correct,d
13,24,254,A,56.95659206826199,73.2965183409909,2.8478296034130994,1.1513390177688327,A,345.42720002355054,Correct,k
13,24,255,B,44.28939862862961,33.806708222061005,2.2144699314314806,0.5310345309624026,B,351.9588999915868,Correct,d
13,24,256,B,56.18241874607465,27.210851373678672,2.809120937303733,0.42742705386736324,B,413.7688000337221,Correct,d
13,24,257,B,72.33427406790435,45.229444430506035,3.6167137033952175,0.7104624517441277,A,344.5843000081368,Incorrect,k
13,24,258,B,51.64324737941077,28.124484375234815,2.582162368970538,0.4417783674961931,B,411.21940000448376,Correct,d
13,24,259,B,61.74674810357159,39.62874944851982,3.0873374051785794,0.6224869406921022,B,400.19389998633415,Correct,d
13,24,260,A,57.885365789337044,82.64676605681016,2.894268289466852,1.2982123654351454,A,363.21409995434806,Correct,k
13,24,261,B,33.947841505194205,10.425021561989897,1.6973920752597105,0.16375585576331325,B,474.18040002230555,Correct,d
13,24,262,B,43.77679787234929,35.794741432235185,2.1888398936174642,0.5622624836032812,B,396.523299976252,Correct,d
13,24,263,B,68.41000811392259,40.13782211374447,3.4205004056961292,0.6304834354181679,B,531.1295000137761,Correct,d
13,24,264,B,54.08647074610759,35.86483039552937,2.7043235373053793,0.5633634384641949,A,358.48340002121404,Incorrect,k
13,24,265,A,64.20449845324438,79.38027746141768,3.210224922662219,1.246902482563546,A,616.5897999890149,Correct,k
13,24,266,B,50.763715972660535,38.91433990076298,2.5381857986330267,0.6112650217576658,B,420.8515000063926,Correct,d
13,24,267,A,20.458730740620194,52.0474927640803,1.0229365370310097,0.8175601045270129,B,358.9038999634795,Incorrect,d
13,24,268,B,74.72668244248644,49.599378484761566,3.7363341221243216,0.7791052153517329,B,439.9544000043534,Correct,d
13,24,269,A,37.18429401010657,47.99045822450477,1.8592147005053283,0.7538323550025603,B,457.8046000096947,Incorrect,d
13,24,270,A,47.79442209580792,76.95073762139207,2.389721104790396,1.2087393599984049,A,346.2048000073992,Correct,k
13,24,271,A,34.81874310517585,43.306961332562665,1.7409371552587924,0.6802641578583805,B,395.10389999486506,Incorrect,d
13,24,272,A,35.89425516247355,54.21232351627694,1.7947127581236773,0.8515651864638442,A,741.2479000049643,Correct,k
13,24,273,A,60.1128750024953,84.70323229014224,3.005643750124765,1.330515261490103,B,489.20140002155676,Incorrect,d
13,24,274,B,44.39357932573372,27.276204932490174,2.219678966286686,0.428453625168604,B,512.6915000146255,Correct,d
13,24,275,B,54.63556415435432,42.62762041466481,2.731778207717716,0.6695930956736263,B,420.4387000063434,Correct,d
13,24,276,A,47.49735250198231,69.21330596242008,2.3748676250991156,1.0872000677110079,A,547.9514000471681,Correct,k
13,24,277,A,17.005026069929116,41.84814057427545,0.8502513034964558,0.6573490549726835,A,485.79080001218244,Correct,k
13,24,278,B,52.26303571522483,45.27046749607024,2.613151785761241,0.7111068405511489,B,428.3222000231035,Correct,d
13,24,279,A,11.677772911710814,35.39791997189646,0.5838886455855408,0.5560292266803467,A,566.6958999936469,Correct,k
13,24,280,A,46.338054356916,67.4414102825129,2.3169027178458,1.0593671954563886,A,483.41000004438683,Correct,k
13,24,281,B,56.00556447219697,30.943054676138303,2.800278223609849,0.48605236625091697,B,447.95650005107746,Correct,d
13,24,282,A,16.35238962644123,36.77836346732113,0.8176194813220615,0.5777131823999564,A,379.245100019034,Correct,k
13,24,283,B,41.355996792134704,15.829046083603004,2.067799839606735,0.24864207444790737,B,522.2311000106856,Correct,d
13,24,284,B,56.826797960225626,45.4295759333066,2.841339898011281,0.7136061100388784,B,606.1540999799035,Correct,d
13,24,285,A,37.25256962613949,62.979758071635395,1.8626284813069744,0.9892837264135612,A,345.51170002669096,Correct,k
13,24,286,A,39.721209430988544,66.574596331818,1.9860604715494272,1.045751313758727,A,369.3090000306256,Correct,k
13,24,287,A,24.377991982191816,38.92396986408801,1.2188995991095908,0.611416288867847,A,442.6085000159219,Correct,k
13,24,288,B,49.32376871266918,32.38471288419151,2.466188435633459,0.5086978804279538,B,412.97449998091906,Correct,d
13,24,289,A,47.47124842164506,75.32512067402915,2.373562421082253,1.1832042287014732,A,338.76060001784936,Correct,k
13,24,290,B,38.19017018348008,29.232229638244387,1.9095085091740038,0.4591787893977919,A,349.0662999683991,Incorrect,k
13,24,291,A,37.463425652185826,70.39941146018478,1.8731712826092914,1.105831369301808,A,415.354699944146,Correct,k
13,24,292,B,34.530891117949444,21.113516019430968,1.7265445558974721,0.3316503340904737,B,343.1632000138052,Correct,d
13,24,293,B,84.40463125060943,54.6273358237227,4.220231562530471,0.8580841845449488,A,344.05859996331856,Incorrect,k
13,24,294,A,57.51493953950934,74.72845242298347,2.875746976975467,1.1738317857308962,A,482.99869999755174,Correct,k
13,24,295,B,49.77330813899468,25.729116823005178,2.488665406949734,0.4041520219725331,B,483.05929999332875,Correct,d
13,24,296,A,22.052428214532966,43.796390934876456,1.1026214107266483,0.6879521000737724,A,556.0000999830663,Correct,k
13,24,297,B,54.74299348867283,38.19211015773501,2.737149674433642,0.5999202634831621,B,515.4542999807745,Correct,d
13,24,298,B,67.57813162099505,44.350637195158654,3.378906581049753,0.6966581799716832,A,364.71669998718426,Incorrect,k
13,24,299,A,35.39931869577594,61.71216104709233,1.769965934788797,0.9693723589134772,A,416.28340003080666,Correct,k
13,24,300,A,30.72115423028404,60.933550820008776,1.5360577115142018,0.9571419780663996,A,438.03289998322725,Correct,k
13,24,301,B,87.08539556874732,64.84289222675845,4.3542697784373665,1.0185497692854952,B,878.3269000123255,Correct,d
13,24,302,A,50.80822860151619,76.66769749906236,2.5404114300758094,1.2042933761534942,A,454.712999984622,Correct,k
13,24,303,B,46.33151963090201,27.402664736738434,2.3165759815451,0.4304400511286077,B,411.683099984657,Correct,d
13,24,304,B,44.30763162644213,24.036321416184638,2.2153815813221063,0.3775616539020434,B,424.7378999716602,Correct,d
13,24,305,A,19.837601389269658,34.139166280440165,0.9918800694634828,0.536256769931556,A,503.70010000187904,Correct,k
13,24,306,B,70.46248187458563,38.8522345445775,3.523124093729282,0.6102894731039612,B,364.5971000078134,Correct,d
13,24,307,A,60.01434240137473,68.60855227434564,3.0007171200687366,1.0777006189925777,A,402.4617000250146,Correct,k
13,24,308,B,80.05286235957334,58.885897705529146,4.002643117978667,0.9249775181586523,B,460.00399999320507,Correct,d
13,24,309,B,43.93086110600498,15.488192982949347,2.196543055300249,0.2432879664630733,B,441.76150002749637,Correct,d
13,24,310,A,30.00947716984708,56.15899617010841,1.500473858492354,0.8821434490049497,A,343.9485999988392,Correct,k
13,24,311,B,56.98895713269929,38.16349611347316,2.849447856634965,0.5994707951269496,B,421.23500001616776,Correct,d
13,24,312,B,52.7969331579941,20.886284793011637,2.639846657899705,0.32808099433254784,B,378.1512000132352,Correct,d
13,24,313,A,62.70459394310714,74.93104543812423,3.1352296971553573,1.1770141093710704,A,334.0446000220254,Correct,k
13,24,314,B,54.0080931689361,43.70579151904511,2.7004046584468053,0.686528967777796,A,537.0116999838501,Incorrect,k
13,24,315,B,41.65996022066908,28.065925838352328,2.0829980110334536,0.4408585321498181,B,354.6174999792129,Correct,d
13,24,316,B,34.94665658006901,17.48282335485529,1.7473328290034504,0.27461954707810726,B,439.1555999754928,Correct,d
13,24,317,B,43.668973664231444,20.272789999743086,2.183448683211572,0.31844424065480753,B,544.4562999764457,Correct,d
13,24,318,A,47.4448030215334,63.02700267026037,2.37224015107667,0.9900258428333713,A,423.7610999844037,Correct,k
13,24,319,B,44.07329652828716,36.54811626174997,2.203664826414358,0.5740964677522967,B,507.41410005139187,Correct,d
13,24,320,B,62.612404270612025,38.97545739582946,3.130620213530601,0.6122250531251989,B,370.2193000353873,Correct,d
13,24,321,A,55.697272302572436,83.60423963119764,2.784863615128622,1.3132523251716557,A,392.17820001067594,Correct,k
13,24,322,B,59.13857926331048,50.584477024653815,2.9569289631655242,0.7945791070316705,A,448.2463999884203,Incorrect,k
13,24,323,B,77.2174612811277,65.50221402814928,3.8608730640563853,1.0289063719235003,B,630.0173999625258,Correct,d
13,24,324,A,48.48931656624885,66.3921761839984,2.4244658283124427,1.042885864777443,A,389.40759998513386,Correct,k
13,24,325,A,63.69917791304876,77.7355688932101,3.1849588956524375,1.2210674607876606,A,386.7651000036858,Correct,k
13,24,326,A,31.83856527433418,53.755468584801676,1.591928263716709,0.8443889259814493,B,430.8817000128329,Incorrect,d
13,24,327,A,42.86432479747332,67.56489193375165,2.143216239873666,1.0613068406983122,A,392.06849999027327,Correct,k
13,24,328,A,41.15041803004484,60.748253480746996,2.057520901502242,0.9542313342676267,A,351.8970999866724,Correct,k
13,24,329,B,77.78511254344667,63.24409559543038,3.8892556271723335,0.9934359305276733,B,522.3414999782108,Correct,d
13,24,330,B,57.611003095263335,32.855605962916805,2.8805501547631667,0.5160946516117021,B,401.497200015001,Correct,d
13,24,331,A,63.75330355950401,76.54730014120369,3.1876651779752008,1.2024021788786923,A,359.74260000512004,Correct,k
13,24,332,B,58.41876231077375,43.81843768409837,2.9209381155386875,0.688298409600728,B,410.0736000109464,Correct,d
13,24,333,B,68.54738652922613,43.23512708123339,3.4273693264613065,0.6791357880771196,B,484.29019999457523,Correct,d
13,24,334,B,35.5816451037995,13.444221405020226,1.7790822551899752,0.21118133599623093,B,375.6352999480441,Correct,d
13,24,335,B,62.51748223711364,41.56611407166132,3.125874111855682,0.6529189930290326,B,437.7612000098452,Correct,d
13,24,336,B,43.84778335293564,27.776063711386165,2.192389167646782,0.4363053885066641,A,400.671900017187,Incorrect,k
13,24,337,A,46.95203920934163,54.97388059689908,2.3476019604670815,0.863527697112703,B,506.79130002390593,Incorrect,d
13,24,338,B,43.83518919840141,29.31139030820299,2.1917594599200703,0.4604222422937679,B,397.1958000329323,Correct,d
13,24,339,B,67.83268050041094,39.62938224088443,3.3916340250205472,0.6224968805713218,B,429.59209997206926,Correct,d
13,24,340,A,62.44919708304289,87.84394081136017,3.1224598541521447,1.3798493955767286,A,351.333899947349,Correct,k
13,24,341,B,63.98894568684327,31.719629964013286,3.1994472843421637,0.4982507823476541,A,340.3076000395231,Incorrect,k
13,24,342,A,23.216601663018093,34.46122426971725,1.1608300831509046,0.54131564499727,A,597.6890999590978,Correct,k
13,24,343,A,54.91811603666717,79.07172564806372,2.745905801833359,1.242055762013123,A,415.28690000995994,Correct,k
13,24,344,B,72.34678457163089,60.227625724010494,3.6173392285815447,0.9460533325885351,B,490.33760000020266,Correct,d
13,24,345,A,59.71447650082304,82.50127906456383,2.985723825041152,1.2959270611049758,A,381.8785999901593,Correct,k
13,24,346,B,67.82386767685698,46.05258427314957,3.391193383842849,0.7233923021567576,B,485.36470002727583,Correct,d
13,24,347,B,38.59352519933066,24.643732727110013,1.929676259966533,0.3871028484625959,B,372.78680002782494,Correct,d
13,24,348,B,40.50472930787778,27.102632040275413,2.025236465393889,0.42572714855338284,B,392.62509997934103,Correct,d
13,24,349,A,27.643819659583738,46.123672682506786,1.382190982979187,0.7245089562797176,A,388.54339998215437,Correct,k
13,24,350,B,57.643617089019486,28.547523485717957,2.882180854450974,0.4484234503045681,B,332.187200023327,Correct,d
13,24,351,B,86.17686267605174,66.99517411894232,4.308843133802587,1.052357734190191,A,328.16679996903986,Incorrect,k
13,24,352,B,74.71018427375036,50.77838018152314,3.735509213687518,0.7976249306973132,A,489.41119998926297,Incorrect,k
13,24,353,A,48.911070816342246,65.99753985192426,2.4455535408171123,1.0366869317690242,A,409.0967999654822,Correct,k
13,24,354,A,26.451603066810218,57.91894719722261,1.322580153340511,0.9097886950922485,A,457.445599953644,Correct,k
13,24,355,A,33.156622682178565,65.44292212684688,1.6578311341089285,1.0279750169157553,A,384.3543999828398,Correct,k
13,24,356,A,15.85309122192935,42.84938680013188,0.7926545610964675,0.6730765939106089,B,363.6570000089705,Incorrect,d
13,24,357,A,19.696356064685475,39.09977011996837,0.9848178032342737,0.6141777528297117,A,483.6302000330761,Correct,k
13,24,358,A,57.631593465611594,86.44489514057378,2.8815796732805796,1.357873237569833,A,380.0831999978982,Correct,k
13,24,359,B,39.640823678601706,22.278733378906168,1.982041183930085,0.3499535255722866,B,408.2373999990523,Correct,d
13,24,360,A,61.371015323936824,76.74052405991058,3.068550766196841,1.2054373330962291,A,403.24479999253526,Correct,k
13,24,361,B,66.87897182022338,58.58035763330527,3.3439485910111695,0.920178105927273,B,618.2357000070624,Correct,d
13,24,362,B,40.36362473768611,13.891787787934462,2.0181812368843053,0.21821169229901652,B,457.33290002681315,Correct,d
13,24,363,A,39.771868203850396,60.64342148079474,1.9885934101925198,0.9525846370630711,A,396.3281000033021,Correct,k
13,24,364,A,54.335103349827804,83.82083079502914,2.7167551674913906,1.316654531217283,A,392.62800000142306,Correct,k
13,24,365,A,32.17804174735751,43.509913871508395,1.6089020873678754,0.683452128885277,B,495.11130002792925,Incorrect,d
13,24,366,A,59.40245540531453,69.0204254884773,2.9701227702657262,1.08417030831121,A,395.4890999593772,Correct,k
13,24,367,A,64.44904390213422,78.98142670845873,3.2224521951067113,1.2406373495866732,A,386.01630000630394,Correct,k
13,24,368,A,69.13264620536239,88.67561475709351,3.4566323102681196,1.392913299367218,A,343.9436999615282,Correct,k
13,24,369,A,28.090743902216264,48.38710709127843,1.4045371951108132,0.7600629008321145,A,400.3509999602102,Correct,k
13,24,370,A,44.32384740680576,66.38063376675692,2.216192370340288,1.0427045569113906,A,346.5955999563448,Correct,k
13,24,371,B,69.41913657212957,45.893042696344445,3.4709568286064787,0.7208862289285921,A,472.4176999880001,Incorrect,k
13,24,372,A,49.107662798330544,68.34649651280574,2.455383139916527,1.0735842567161547,A,353.70370000600815,Correct,k
13,24,373,A,37.65000003153488,58.416915020492546,1.8825000015767441,0.9176107553687931,A,442.4686999991536,Correct,k
13,24,374,A,37.72085794829959,54.3826247919244,1.8860428974149794,0.8542402726461992,A,289.1904000425711,Correct,k
13,24,375,A,31.22505624383242,56.570767251217276,1.5612528121916212,0.8886115340218114,A,353.324799973052,Correct,k
13,24,376,B,64.63047561300804,48.510857425585144,3.2315237806504022,0.7620067665378006,A,374.6071999776177,Incorrect,k
13,24,377,A,22.31409184031194,51.04382195044225,1.1157045920155968,0.801794480253274,A,340.71269998094067,Correct,k
13,24,378,B,70.85765633960283,44.851223330391186,3.5428828169801414,0.7045213685963605,B,455.21839999128133,Correct,d
13,24,379,B,73.70858149784077,55.556262051313695,3.6854290748920384,0.8726757236065825,B,598.2232999522239,Correct,d
13,24,380,A,35.3090077835282,54.14694695205496,1.7654503891764102,0.8505382537944605,A,401.43389999866486,Correct,k
13,24,381,A,21.472442238923758,45.773678307144095,1.073622111946188,0.7190112574875319,A,459.0107999974862,Correct,k
13,24,382,B,55.7093139449005,27.7243853866497,2.7854656972450247,0.4354936272799546,B,428.5362000227906,Correct,d
13,24,383,A,55.99242243275452,82.18564531287778,2.7996211216377263,1.2909690977273662,A,397.7061999612488,Correct,k
13,24,384,A,66.23927844637669,83.26798263162483,3.3119639223188346,1.3079704125737752,A,361.8531000101939,Correct,k
13,24,385,A,50.13244279193754,77.36619155137092,2.506622139596877,1.215265295070038,A,346.3780999882147,Correct,k
13,24,386,B,70.53894377233425,51.14510565878139,3.5269471886167127,0.8033854410235068,B,504.1276999982074,Correct,d
13,24,387,B,56.327693472522554,27.232885033747465,2.816384673626128,0.4277731577903823,B,356.25379998236895,Correct,d
13,24,388,A,47.70995216205119,54.55729173417412,2.3854976081025594,0.8569839345591829,A,409.66390003450215,Correct,k
13,24,389,A,51.101895702738,65.29544616064099,2.5550947851369,1.025658469855688,A,360.6110999826342,Correct,k
13,24,390,A,29.447971771364795,62.507818427745136,1.4723985885682398,0.9818705158226441,A,321.77570002386346,Correct,k
13,24,391,B,46.104693097992424,32.49393965480736,2.305234654899621,0.5104136105286644,A,363.30999998608604,Incorrect,k
13,24,392,B,45.43226512380115,17.966025419231848,2.2716132561900575,0.2822096673563313,B,452.6165000279434,Correct,d
13,24,393,A,69.88021129562344,87.71440047779697,3.494010564781172,1.3778145807754,A,331.3127000001259,Correct,k
13,24,394,B,38.5357394970427,27.581786552623797,1.926786974852135,0.4332536900330233,B,325.6268000113778,Correct,d
13,24,395,A,41.47464882305623,69.35922429901656,2.0737324411528113,1.0894921475823856,A,345.1820000191219,Correct,k
13,24,396,A,57.86003425588051,77.44288266637935,2.8930017127940255,1.2164699562875685,A,308.69009997695684,Correct,k
13,24,397,A,49.30671231114769,56.10104126123396,2.4653356155573847,0.8812330954251523,A,335.7235000003129,Correct,k
13,24,398,A,42.769269138305454,51.86727023634878,2.1384634569152725,0.8147291756813492,A,345.48900002846494,Correct,k
13,24,399,A,43.59994377279552,75.47334912649578,2.179997188639776,1.1855325957880838,A,333.7088999687694,Correct,k
13,24,400,A,44.81654550498806,59.78729998870428,2.240827275249403,0.9391367121124125,A,366.669200011529,Correct,k
13,24,401,A,22.541519251880512,46.6089446421082,1.1270759625940256,0.7321315903961023,A,376.97350000962615,Correct,k
13,24,402,A,44.97509399377022,54.963071056168225,2.248754699688511,0.8633579012439594,A,333.71219999389723,Correct,k
13,24,403,B,65.71101370301777,48.71044766517394,3.2855506851508887,0.7651419226899026,A,331.34759997483343,Incorrect,k
13,24,404,B,57.72973550653787,45.289385404598676,2.8864867753268935,0.71140400236342,A,504.8102999571711,Incorrect,k
13,24,405,B,38.207784702837614,14.287590584540187,1.9103892351418807,0.22442894808945077,B,529.3982999864966,Correct,d
13,24,406,B,73.69507416824166,55.21286502979896,3.684753708412083,0.867281655806306,A,410.6331000220962,Incorrect,k
13,24,407,B,80.34826349212487,56.20025409471836,4.017413174606244,0.8827915269692344,A,388.80999997491017,Incorrect,k
13,24,408,A,24.063050921358183,44.321147445738255,1.2031525460679091,0.6961949560710067,A,552.9014999628998,Correct,k
13,24,409,A,18.304067740305218,45.66980311583701,0.9152033870152608,0.7173795897980288,B,479.4740999932401,Incorrect,d
13,24,410,A,32.937138016556254,51.40824101836607,1.6468569008278127,0.8075187615863615,A,632.1768999914639,Correct,k
13,24,411,A,30.68779691265983,46.00315794754286,1.5343898456329916,0.7226159152496578,A,411.5463000489399,Correct,k
13,24,412,A,19.076551018390617,31.985735647108456,0.9538275509195309,0.5024307606431054,A,369.1281999927014,Correct,k
13,24,413,B,88.4545984452625,61.59023802247388,4.422729922263125,0.9674571965212534,B,485.67090003052726,Correct,d
13,24,414,A,18.188510686793602,44.37053018479294,0.9094255343396802,0.6969706583221483,A,404.24430003622547,Correct,k
13,24,415,A,65.32291316202291,87.00841966118848,3.266145658101146,1.366725060040237,A,356.306699977722,Correct,k
13,24,416,A,58.10129214783242,76.31868184008665,2.905064607391621,1.1988110510023648,A,354.2563000228256,Correct,k
13,24,417,B,68.49098121452633,46.563045118435795,3.4245490607263163,0.7314106023642397,B,413.4198999963701,Correct,d
13,24,418,B,83.69616496316625,68.38695287398644,4.184808248158313,1.074219743751536,A,351.0829999577254,Incorrect,k
13,24,419,A,51.44083069354945,75.73241963786312,2.5720415346774725,1.1896020658644508,A,441.7892000055872,Correct,k
13,24,420,A,63.64230028105861,75.96128489632446,3.182115014052931,1.193197072937671,A,338.380400033202,Correct,k
13,24,421,B,42.335104072241506,34.58569399199017,2.116755203612075,0.5432708108227048,A,338.34030001889914,Incorrect,k
13,24,422,B,56.141982898421425,36.14970089483249,2.8070991449210716,0.5678381738033706,B,583.8211000082083,Correct,d
13,24,423,B,34.727138101423705,10.983381657371467,1.7363569050711851,0.17252655563185543,B,392.5718999817036,Correct,d
13,24,424,A,62.52088160309669,87.24881362031738,3.1260440801548346,1.370501159520071,A,330.77649999177083,Correct,k
13,24,425,B,66.18885382364135,50.95936017483824,3.309442691182068,0.8004677577845404,B,450.81730000674725,Correct,d
13,24,426,A,37.763539622929024,49.851178269873316,1.888176981146451,0.7830604771271457,A,468.3366999961436,Correct,k
13,24,427,A,66.38849294314993,83.91393112646779,3.319424647157496,1.3181169478037555,A,366.9895000057295,Correct,k
13,24,428,B,50.1653605241509,24.141581956637467,2.508268026207545,0.3792150826050409,B,444.16429998818785,Correct,d
13,24,429,A,47.29058249266732,77.31107555139026,2.364529124633366,1.2143995349668657,A,331.6593000199646,Correct,k
13,24,430,A,45.08171611998817,59.33239481145492,2.254085805999409,0.9319910782977795,A,335.60079999733716,Correct,k
13,24,431,A,60.633241344377794,72.43111717131039,3.0316620672188894,1.137745327983451,A,431.93830002564937,Correct,k
13,24,432,B,67.79797742571529,37.38024721629478,3.3898988712857645,0.5871675502204099,B,404.1888999636285,Correct,d
13,24,433,B,51.43564771728671,27.093117387979525,2.571782385864336,0.42557769274461177,B,395.2881000004709,Correct,d
13,24,434,A,48.581486338849885,78.05349635959789,2.4290743169424944,1.226061453751552,A,363.63259999779984,Correct,k
13,24,435,A,44.2233365247426,65.9229619548698,2.21116682623713,1.0355154649014922,A,468.7497999984771,Correct,k
13,24,436,A,38.495805465548145,64.50404581669626,1.9247902732774071,1.0132271823227619,A,354.76489999564365,Correct,k
13,24,437,A,65.96128205154923,83.32447079414662,3.2980641025774617,1.3088577265557413,A,331.4684000215493,Correct,k
13,24,438,B,53.44947740736323,34.4642480312971,2.6724738703681616,0.5413631421330973,B,425.56409997632727,Correct,d
13,24,439,B,68.20697196582006,52.74860750252389,3.410348598291003,0.8285731890851025,B,405.57979996083304,Correct,d
13,24,440,B,68.4048062575566,40.11296182051819,3.4202403128778305,0.630092930845339,B,418.56950003420934,Correct,d
13,24,441,B,45.344951508668984,18.199608355003,2.2672475754334496,0.2858787795314442,B,499.2283000028692,Correct,d
13,24,442,A,58.33790950563796,73.34643890860742,2.916895475281898,1.1521231682112683,A,405.7631000177935,Correct,k
13,24,443,B,56.34404953939409,33.379462676593306,2.817202476969704,0.5243233736278011,A,394.0386999747716,Incorrect,k
13,24,444,A,25.861593280416443,48.63360145874493,1.2930796640208222,0.7639348253020346,A,449.35930002247915,Correct,k
13,24,445,B,81.27768235461245,61.42695556326606,4.063884117730622,0.9648923616497167,B,450.13839995954186,Correct,d
13,24,446,A,21.55166437018884,36.63115785698829,1.0775832185094418,0.5754008820800122,B,353.9351000217721,Incorrect,d
13,24,447,B,39.238456655439094,19.08051700711415,1.961922832771955,0.2997160602812246,A,556.8492999882437,Incorrect,k
13,24,448,B,65.72376272617142,37.90117376479034,3.2861881363085708,0.5953502453094778,B,415.92599998693913,Correct,d
13,24,449,A,15.734511720372996,42.21298185795389,0.7867255860186497,0.6630799684553358,A,428.78570000175387,Correct,k
13,24,450,B,63.17626184996366,48.586686619110026,3.1588130924981828,0.7631978887243279,A,576.7442000214942,Incorrect,k
13,24,451,B,63.562393187620415,47.29097132400669,3.1781196593810206,0.7428448404631249,B,402.13319996837527,Correct,d
13,24,452,B,48.88553801698605,25.462160608104682,2.4442769008493026,0.39995868355472547,B,435.3624999639578,Correct,d
13,24,453,B,43.02472582545702,20.82928279382466,2.1512362912728507,0.3271856090231191,B,392.8809000062756,Correct,d
13,24,454,B,35.897674066442036,23.13466074302547,1.794883703322102,0.363398401167905,B,378.784500004258,Correct,d
13,24,455,A,54.92387962059658,76.25832839362909,2.7461939810298293,1.1978630212823154,A,377.0265000057407,Correct,k
13,24,456,A,55.195299971525856,70.10268253168472,2.759764998576293,1.1011703621923912,A,428.2217000145465,Correct,k
13,24,457,B,84.14432487912042,60.519323786252116,4.207216243956021,0.9506353150355582,A,417.32389997923747,Incorrect,k
13,24,458,B,70.93928165666556,56.62292883356355,3.546964082833278,0.8894308862413047,B,415.3840999933891,Correct,d
13,24,459,B,77.66104951258829,62.61348021015549,3.8830524756294147,0.9835302472195718,B,403.6809999961406,Correct,d
13,24,460,B,57.00224083771114,24.394369062931148,2.8501120418855574,0.3831858531853131,B,361.43449996598065,Correct,d
13,24,461,B,43.58682503310435,26.308258600400606,2.179341251655217,0.41324915973879517,B,334.26549995783716,Correct,d
13,24,462,A,46.710316158486854,53.99969555250987,2.3355158079243425,0.8482252342192522,A,323.2399999978952,Correct,k
13,24,463,B,42.59172299148667,23.582484276138878,2.1295861495743336,0.37043279677657354,A,354.66390004148707,Incorrect,k
13,24,464,B,72.9628359702837,57.67393043977496,3.6481417985141853,0.9059399808662288,A,525.2717999974266,Incorrect,k
13,24,465,B,85.36764060671787,56.424975555360774,4.268382030335894,0.8863214434185253,B,388.58260004781187,Correct,d
13,24,466,A,68.24155902448443,86.63864213360185,3.4120779512242216,1.3609166082195934,B,355.897500005085,Incorrect,d
13,24,467,B,58.64840775029673,28.787170776591687,2.9324203875148362,0.45218782114687617,A,434.02689998038113,Incorrect,k
13,24,468,A,36.19575189773345,59.32380995769678,1.8097875948866726,0.9318562277302861,A,427.773299976252,Correct,k
13,24,469,A,32.29791807517664,62.437537996067526,1.6148959037588322,0.9807665533833966,A,445.2363000018522,Correct,k
13,24,470,B,73.27448624463811,56.260613555671156,3.663724312231906,0.8837396511647542,A,348.8587000174448,Incorrect,k
13,24,471,A,64.82144645448685,77.05354315588215,3.241072322724342,1.2103542255579172,B,375.5302000208758,Incorrect,d
13,24,472,B,73.65281625098869,60.94468603762731,3.6826408125494345,0.9573168896557318,A,575.2716999850236,Incorrect,k
13,24,473,A,25.673301672125994,54.16874618279746,1.2836650836062997,0.8508806753102333,B,514.4847999908961,Incorrect,d
13,24,474,B,86.49922781969815,58.02792470327754,4.324961390984908,0.911500509754392,B,565.9070999827236,Correct,d
13,24,475,B,88.06227806840582,67.97234876277082,4.403113903420291,1.0677071576018202,B,459.5124000334181,Correct,d
13,24,476,A,20.325691385453087,50.96592612047617,1.0162845692726543,0.8005708954174404,A,329.53759998781607,Correct,k
13,24,477,B,60.875126630688534,33.76077447357067,3.0437563315344267,0.5303130053283571,B,680.5644999840297,Correct,d
13,24,478,B,64.74243763816312,55.683735596578074,3.237121881908156,0.8746780733732307,B,409.3667999841273,Correct,d
13,24,479,A,54.09955840009558,68.71030982356054,2.704977920004779,1.079299022837882,B,364.8380000377074,Incorrect,d
13,24,480,B,47.85724877264282,32.4194037437542,2.3928624386321413,0.5092428031756983,B,384.1129000065848,Correct,d
13,24,481,B,79.06499343294361,59.68788976095075,3.95324967164718,0.9375751799064016,B,336.58560004550964,Correct,d
13,24,482,A,49.135756314910125,71.43950189122414,2.456787815745506,1.1221690715879196,A,407.717699999921,Correct,k
13,24,483,B,44.497956808901186,30.105772763579473,2.2248978404450592,0.4729003727235248,B,453.7504999898374,Correct,d
13,24,484,A,53.462813862672704,75.63902486671468,2.673140693133635,1.1881350242298327,A,418.490500014741,Correct,k
13,24,485,B,73.33583843388612,52.948524033764954,3.666791921694306,0.8317134706144929,B,552.8513999888673,Correct,d
13,24,486,A,12.210975468508142,32.186227178455596,0.610548773425407,0.5055800742530412,A,386.5955999935977,Correct,k
13,24,487,A,53.47793214557174,74.17983368130082,2.673896607278587,1.1652141026884368,A,394.89499997580424,Correct,k
13,24,488,B,33.30728875900838,13.91970599654529,1.6653644379504189,0.21865023049438234,B,363.08629997074604,Correct,d
13,24,489,B,65.91881478664813,51.60799013959699,3.2959407393324063,0.8106564134454618,A,451.80909999180585,Incorrect,k
13,24,490,B,76.14706500180432,52.91347320451896,3.807353250090216,0.8311628934761857,B,513.9419999904931,Correct,d
13,24,491,B,85.68048970355179,57.646265860335184,4.284024485177589,0.9055054266685656,B,446.16460002725944,Correct,d
13,24,492,B,60.61045417410229,31.984302542522876,3.0305227087051145,0.502408249488916,B,354.19320000801235,Correct,d
13,24,493,A,18.540205636026602,34.294592469751706,0.92701028180133,0.5386981988041389,A,391.8223999789916,Correct,k
13,24,494,B,66.85084712422245,52.58156186759446,3.3425423562111227,0.8259492423875597,B,416.34230001363903,Correct,d
13,24,495,A,64.59130727239534,87.30913276707925,3.229565363619767,1.3714486504617602,B,349.7980000101961,Incorrect,d
13,24,496,A,16.83772264777524,38.459842458616706,0.841886132388762,0.6041257926310553,A,337.39590004552156,Correct,k
13,24,497,A,19.178700373178593,31.983602688885313,0.9589350186589297,0.5023972562136843,A,410.95300001325086,Correct,k
13,24,498,B,63.16662439584439,50.91494722769035,3.158331219792219,0.7997701208421201,A,343.2617000071332,Incorrect,k
13,24,499,A,55.73172876796303,80.67236677825615,2.7865864383981513,1.267198574091354,A,464.0674000256695,Correct,k
13,24,500,A,11.241429014778678,32.23250337275435,0.5620714507389338,0.5063069790132665,A,509.56310000037774,Correct,k
13,24,501,B,64.59243007154214,38.141737146475144,3.229621503577107,0.5991290060725961,B,387.25450000492856,Correct,d
13,24,502,B,40.72741629508931,29.495949019403092,2.0363708147544655,0.4633212837500791,B,482.2262999950908,Correct,d
13,24,503,B,34.02044699103773,17.464104079158812,1.7010223495518864,0.2743255053830643,A,698.1991999782622,Incorrect,k
13,24,504,A,58.0682829516669,79.29186712106168,2.9034141475833453,1.2455137361847275,A,460.27400001185015,Correct,k
13,24,505,A,57.606816803537455,66.7867582007383,2.880340840176873,1.0490839446025866,A,426.0116000077687,Correct,k
13,24,506,A,30.656438961361808,52.17322768927305,1.5328219480680902,0.819535144113439,A,398.62799999536946,Correct,k
13,24,507,B,65.22726055328205,41.21317838819178,3.261363027664103,0.6473750922771445,B,383.59219999983907,Correct,d
13,24,508,B,57.40519599249578,28.624703263644776,2.870259799624789,0.44963578742127097,B,358.02389995660633,Correct,d
13,24,509,B,60.402493364943474,33.49554246633465,3.0201246682471736,0.5261467507012094,B,410.30309995403513,Correct,d
13,24,510,A,37.88701849685754,63.610063271143716,1.8943509248428771,0.999184537335035,A,329.58570000482723,Correct,k
13,24,511,A,43.83255551695288,62.50600133005715,2.191627775847644,0.981841972918907,A,376.7634999821894,Correct,k
13,24,512,B,75.45027796090613,61.53233665908667,3.7725138980453066,0.966547684032003,A,300.1235999981873,Incorrect,k
13,24,513,A,20.80673947244163,51.5247397261713,1.0403369736220816,0.8093487190093296,A,498.235700011719,Correct,k
13,24,514,B,50.63470762171515,26.37709313067768,2.531735381085758,0.4143304100119539,B,516.1427999846637,Correct,d
13,24,515,A,13.36988862320424,31.60368339566496,0.668494431160212,0.4964294979109938,A,332.60349999181926,Correct,k
13,24,516,A,57.77914425441372,74.79928342508393,2.888957212720686,1.1749443965101223,A,351.2965999543667,Correct,k
13,24,517,B,62.84499786119557,29.80099559726267,3.1422498930597786,0.46811294419011085,B,505.37919998168945,Correct,d
13,24,518,A,47.269056786529646,57.563170440964605,2.363452839326482,0.9042001668733578,A,454.51609999872744,Correct,k
13,24,519,A,30.01283576788913,50.79058932640048,1.5006417883944565,0.7978167114965796,B,328.97349999984726,Incorrect,d
13,24,520,A,52.798381203641995,77.17726390181865,2.6399190601821,1.212297626490571,A,349.6908000088297,Correct,k
13,24,521,B,32.41255856771243,16.242215550267296,1.6206279283856215,0.2551321252537082,B,444.2177999881096,Correct,d
13,24,522,A,42.67790787785801,58.0654053142464,2.133895393892901,0.912089253814751,A,481.3735000207089,Correct,k
13,24,523,A,54.09366779364919,62.16162180937926,2.7046833896824594,0.9764324720578649,A,430.4013000219129,Correct,k
13,24,524,B,44.5092613491185,24.915534121300276,2.2254630674559253,0.3913722947787137,B,511.2917000078596,Correct,d
13,24,525,A,17.478442485432737,39.83216376484378,0.8739221242716368,0.6256821653010938,A,617.7786999614909,Correct,k
13,24,526,A,55.967590711384105,71.20758923633252,2.798379535569205,1.1185261961235093,B,402.1233000094071,Incorrect,d
13,24,527,A,41.08176053658632,72.35662703179041,2.0540880268293162,1.1365752396080469,A,370.5123999970965,Correct,k
13,24,528,B,86.89155165868982,62.38371193180364,4.344577582934491,0.9799210555430812,B,474.48450000956655,Correct,d
13,24,529,A,48.26214842615214,67.06657491242021,2.4131074213076067,1.0534792952314442,A,422.06489999080077,Correct,k
13,24,530,B,62.15906523902299,32.52542105358875,3.10795326195115,0.5109081191843461,B,405.23850003955886,Correct,d
13,24,531,B,65.46590439237733,40.415019285100236,3.273295219618866,0.6348376384038036,B,432.3640000075102,Correct,d
13,24,532,A,41.22446058073468,73.17804625498522,2.061223029036734,1.149478062593578,A,369.7409000014886,Correct,k
13,24,533,B,31.762030468903447,16.20653939972761,1.5881015234451723,0.254571725591489,B,362.08089999854565,Correct,d
13,24,534,A,31.62067506612656,58.673988471566545,1.581033753306328,0.9216488556954283,A,335.8503000345081,Correct,k
13,24,535,B,49.826896512997706,35.21320882601971,2.491344825649885,0.5531277907857338,B,555.1123000332154,Correct,d
13,24,536,A,23.493467834318555,36.25361580176174,1.1746733917159278,0.5694704653444076,B,456.82530000340194,Incorrect,d
13,24,537,A,58.626396507498,72.98529900587633,2.9313198253748998,1.1464503958845773,A,441.11610000254586,Correct,k
13,24,538,A,53.42133882488113,64.67600128495016,2.671066941244056,1.0159282525018172,A,339.3231999943964,Correct,k
13,24,539,A,24.400184943572462,49.16406175044984,1.2200092471786232,0.7722672760792406,A,350.27709999121726,Correct,k
13,24,540,B,32.34194019982573,11.70042475043876,1.6170970099912865,0.18378984219929298,B,373.20710002677515,Correct,d
13,24,541,A,51.9759115764394,67.21862040622939,2.59879557882197,1.055867620263256,A,385.156599979382,Correct,k
13,24,542,A,20.601398603711623,45.14152831118835,1.0300699301855811,0.7090814685712249,A,401.2974000070244,Correct,k
13,24,543,B,44.33537635197236,28.99753174098217,2.2167688175986178,0.45549216344853216,B,447.5459000095725,Correct,d
13,24,544,A,58.19262485519471,69.1481629248857,2.9096312427597355,1.0861768032702548,A,359.60009996779263,Correct,k
13,24,545,A,23.007533240239532,42.727813304717706,1.1503766620119764,0.6711669219102868,A,328.2075999886729,Correct,k
13,24,546,A,53.632914389581785,77.10141994622151,2.6816457194790893,1.2111062724219552,B,346.66809998452663,Incorrect,d
13,24,547,B,52.445125903854944,29.870151521754003,2.6222562951927473,0.4691992429117818,B,379.7328000073321,Correct,d
13,24,548,A,53.657114894333226,66.84564190184047,2.682855744716661,1.0500088876165803,A,356.0042000026442,Correct,k
13,24,549,A,59.60180314962985,73.03994559135734,2.9800901574814924,1.147308782442032,A,348.5889000003226,Correct,k
13,24,550,B,82.81632042895417,62.18766279249667,4.1408160214477086,0.9768415228641344,B,687.3208999750204,Correct,d
13,24,551,A,25.440029068575104,43.35481375654288,1.2720014534287551,0.6810158219765441,A,397.74990000296384,Correct,k
13,24,552,A,51.73175552508664,80.42280716275354,2.586587776254332,1.2632785008178755,B,326.1003000079654,Incorrect,d
13,24,553,B,35.27072505757828,21.7228250247961,1.7635362528789142,0.3412213375655797,A,430.751700012479,Incorrect,k
13,24,554,B,39.00457606001473,13.168230618395693,1.9502288030007364,0.20684608285764045,B,472.3105999873951,Correct,d
13,24,555,B,63.84308561029121,56.37299426960121,3.1921542805145604,0.8855049232911933,A,402.79899997403845,Incorrect,k
13,24,556,B,39.01687574504541,21.890409151109264,1.9508437872522706,0.34385374286599824,A,392.4424999859184,Incorrect,k
13,24,557,B,54.650513184606474,45.29287362937528,2.7325256592303235,0.7114587952700812,A,532.6963000115938,Incorrect,k
13,24,558,A,20.771501805778698,49.10291521038419,1.0385750902889348,0.7713067884739274,A,607.4728000094183,Correct,k
13,24,559,A,35.7757386111686,57.27699389924021,1.78878693055843,0.8997049162678021,A,479.9280999577604,Correct,k
13,24,560,B,68.1895551959488,38.779949028586294,3.40947775979744,0.6091540148739666,B,500.1441999920644,Correct,d
13,24,561,B,33.83901493536327,17.450913676981596,1.6919507467681631,0.27411831103017514,B,426.0399999911897,Correct,d
13,24,562,A,59.440573994696734,73.56058027343944,2.9720286997348366,1.155486892904198,A,463.4747999953106,Correct,k
13,24,563,B,82.96384349254915,57.44816056290222,4.148192174627457,0.9023935959333023,B,513.2733000209555,Correct,d
13,24,564,B,85.12386216722018,66.28255302320363,4.256193108361009,1.0411639081943624,B,515.2389999711886,Correct,d
13,24,565,A,68.93601723442889,83.99855181201474,3.4468008617214445,1.3194461664240356,A,451.75240002572536,Correct,k
13,24,566,A,35.622878927873536,47.731713249406525,1.7811439463936767,0.7497679984379505,A,579.947899968829,Correct,k
13,24,567,A,24.507612858957742,46.98109248260441,1.225380642947887,0.7379772750048633,A,312.7894999925047,Correct,k
13,24,568,B,55.23930302045794,32.38212847465864,2.7619651510228973,0.5086572846179422,B,416.53789998963475,Correct,d
13,24,569,B,63.94931297572334,41.56306168372778,3.1974656487861672,0.6528710462314931,B,355.96309998072684,Correct,d
13,24,570,A,50.02293069224383,63.18208273905003,2.5011465346121917,0.9924618348575103,A,435.49020000500605,Correct,k
13,24,571,B,30.127311816260306,12.555295911037415,1.5063655908130154,0.19721812698880556,A,467.2814999939874,Incorrect,k
13,24,572,B,60.215154723572766,49.712165393829636,3.0107577361786384,0.7808768679764796,A,563.4944000048563,Incorrect,k
13,24,573,A,41.86289760273154,71.26670741840155,2.093144880136577,1.1194548223559175,A,456.4461999689229,Correct,k
13,24,574,A,44.48958939418536,73.00267660767959,2.224479469709268,1.146723362615388,A,302.5785000063479,Correct,k
13,24,575,A,30.379018063994028,56.346081266940786,1.5189509031997013,0.8850821748339732,B,382.91009998647496,Incorrect,d
13,24,576,A,29.79205324090195,43.02669032077389,1.4896026620450977,0.6758616711001315,A,542.8550000069663,Correct,k
13,24,577,A,37.52662042935564,56.89630401957017,1.8763310214677817,0.8937250536214653,A,351.0763999656774,Correct,k
13,24,578,B,73.13611574894594,47.99149200367887,3.656805787447297,0.7538485935678542,B,353.74200000660494,Correct,d
13,24,579,A,50.026927212341235,78.67978897328369,2.501346360617062,1.2358992351223164,A,341.7483000084758,Correct,k
13,24,580,A,35.30277898613555,58.20432948889215,1.7651389493067773,0.9142714696471168,B,392.0215999823995,Incorrect,d
13,24,581,B,74.7531389948723,50.66082373090161,3.737656949743615,0.7957783582890399,B,430.7526999618858,Correct,d
13,24,582,A,64.13845108300454,80.11570955327849,3.206922554150227,1.2584546228485665,A,368.10089997015893,Correct,k
13,24,583,B,47.00574112152728,21.193345783812333,2.350287056076364,0.3329042970970652,B,475.8099999744445,Correct,d
13,24,584,A,34.968940863948774,61.27332662059007,1.7484470431974386,0.9624791638612684,A,376.82570004835725,Correct,k
13,24,585,A,35.38471541891316,55.46613678551305,1.769235770945658,0.8712600392418719,A,334.2155999853276,Correct,k
13,24,586,B,76.29614174151844,53.92792424680088,3.814807087075922,0.8470978531854827,A,325.3320999792777,Incorrect,k
13,24,587,B,68.78659367663047,46.72670179932067,3.4393296838315233,0.733981315496134,B,445.66290004877374,Correct,d
13,24,588,B,70.64187396750467,45.841386660872686,3.5320936983752333,0.720074817820834,B,420.134500018321,Correct,d
13,24,589,A,57.55870522576754,78.29794552971825,2.877935261288377,1.229901252336683,B,398.352199990768,Incorrect,d
13,24,590,B,62.60061933224372,37.01859869433953,3.130030966612186,0.5814867885216289,B,380.866099963896,Correct,d
13,24,591,A,27.038671393692173,50.19199047126917,1.3519335696846086,0.7884139426679406,A,352.5215999688953,Correct,k
13,24,592,B,58.08833412825625,27.50211837867677,2.904416706412812,0.43200226528303887,B,430.8517000172287,Correct,d
13,24,593,B,38.88167629564498,27.60147027609657,1.944083814782249,0.43356288123831016,A,398.73469999292865,Incorrect,k
13,24,594,B,81.84796442271261,57.062770230506025,4.09239822113563,0.8963398987482004,B,514.6375999902375,Correct,d
13,24,595,A,17.44328024258593,34.02009059946623,0.8721640121292965,0.5343863335087115,A,365.5079999589361,Correct,k
13,24,596,A,52.386011511797584,68.32230055871544,2.6193005755898793,1.0732041875580713,A,448.80760001251474,Correct,k
13,24,597,A,36.50901218028474,64.03387756260338,1.825450609014237,1.0058417966577153,A,413.0168000119738,Correct,k
13,24,598,B,50.595239819401414,32.33828771720525,2.5297619909700706,0.5079686356102252,B,385.62749995617196,Correct,d
13,24,599,B,60.4765056750267,49.009154096364824,3.0238252837513353,0.7698339923389494,A,352.9987999936566,Incorrect,k
