subject,day,trial,cat,x,y,xt,yt,resp,rt,fb
19,4,0,A,58.75477291233635,80.66307690281744,2.9377386456168177,1.267052649069199,B,1115.900499979034,Incorrect
19,4,1,A,41.93866329511414,64.38096011026778,2.096933164755707,1.0112937565673739,A,982.7441000379622,Correct
19,4,2,B,53.97080473988935,22.36855490980649,2.6985402369944675,0.35136443888033986,B,573.3582000248134,Correct
19,4,3,B,54.019362905402275,28.434739662328262,2.7009681452701138,0.4466518461495439,B,1200.4761999705806,Correct
19,4,4,B,79.37385693502804,47.80524206328287,3.9686928467514018,0.7509229863454563,B,604.3288999935612,Correct
19,4,5,A,57.27691078143553,76.95625559000194,2.8638455390717765,1.208826036046643,A,618.7783000059426,Correct
19,4,6,B,50.88407471427826,29.198653093361322,2.544203735713913,0.4586513702641041,B,562.5115999719128,Correct
19,4,7,B,46.07454807571948,27.789346703630525,2.303727403785974,0.43651403726092697,B,642.6663000020199,Correct
19,4,8,A,40.194965674529136,50.085249987929345,2.0097482837264566,0.7867372670764355,A,571.8229999765754,Correct
19,4,9,A,45.94137064153637,77.41630069922758,2.2970685320768185,1.2160524077239585,A,985.0536999874748,Correct
19,4,10,A,65.07359232811339,87.00931925102722,3.253679616405669,1.3667391907643804,B,683.5797000094317,Incorrect
19,4,11,A,52.89333088761023,69.32498726805498,2.6446665443805113,1.0889543535576374,B,717.2531000105664,Incorrect
19,4,12,A,27.284748189313504,56.07292932889801,1.3642374094656753,0.8807915142246282,A,570.2882999903522,Correct
19,4,13,A,42.94854728542073,58.86417940180621,2.1474273642710364,0.92463636784153,A,1909.567299997434,Correct
19,4,14,A,51.54228244626541,61.63217464994207,2.5771141223132705,0.9681159355251056,A,805.7231000275351,Correct
19,4,15,A,40.162738310521426,56.750994867440134,2.0081369155260713,0.8914425427973098,A,647.3854000214487,Correct
19,4,16,A,36.840083776116586,55.148221913309015,1.8420041888058294,0.8662662441069563,A,591.3933999836445,Correct
19,4,17,A,13.3332373992526,33.15365725382219,0.6666618699626299,0.5207764303412087,A,2124.4479999877512,Correct
19,4,18,B,73.0985082499991,51.485918406202515,3.654925412499955,0.8087389151412466,B,1375.6675000186078,Correct
19,4,19,A,45.3014455583705,70.90122647325396,2.2650722779185255,1.1137138610944037,B,691.8346000020392,Incorrect
19,4,20,B,67.13663928996539,37.61258477973902,3.3568319644982694,0.5908171001327568,B,1063.1690999725834,Correct
19,4,21,B,52.691160407691626,41.01193867687926,2.6345580203845818,0.644214026283795,B,1214.832599973306,Correct
19,4,22,B,60.071684703062026,45.431655965143854,3.003584235153101,0.7136387831025742,B,1920.0559000018984,Correct
19,4,23,B,53.069004757550886,34.4722026382572,2.653450237877544,0.5414880928070375,B,745.673600002192,Correct
19,4,24,A,18.421134023129515,35.998344183409685,0.9210567011564756,0.5654606681399836,A,566.9814999564551,Correct
19,4,25,B,61.118765789058976,52.70294056630427,3.055938289452949,0.827855854528405,B,1343.990599969402,Correct
19,4,26,B,52.02841843798363,33.42245804383284,2.601420921899182,0.5249987432770916,B,1008.4396000020206,Correct
19,4,27,B,86.56187100767377,58.76056255744379,4.328093550383688,0.9230087582563443,B,1066.3849999546073,Correct
19,4,28,A,52.59377698443923,66.35952118972878,2.6296888492219614,1.0423729213269406,B,598.5211000079289,Incorrect
19,4,29,B,63.96733488174634,41.781093714069534,3.198366744087317,0.6562958853553377,B,836.478499986697,Correct
19,4,30,B,65.10640289903066,45.463813781539,3.2553201449515323,0.7141439169012865,B,1601.6643000184558,Correct
19,4,31,A,37.10442859346942,58.42688423667349,1.8552214296734713,0.9177673514503735,A,1943.1357000139542,Correct
19,4,32,B,81.76977648757897,66.00291022215603,4.088488824378948,1.0367712893473602,B,1200.4834999679588,Correct
19,4,33,B,69.36771292512876,48.62073572820245,3.468385646256438,0.7637327308792579,B,1099.2497999686748,Correct
19,4,34,B,63.209890955312986,44.04604210467797,3.160494547765649,0.6918736114788152,B,641.8822999694385,Correct
19,4,35,A,27.497077463907225,43.95478221432994,1.3748538731953612,0.6904401044733911,A,1894.2154999822378,Correct
19,4,36,B,74.11073326785167,61.477760835772884,3.705536663392584,0.965690409004072,B,515.0181000353768,Correct
19,4,37,B,75.76723791737027,58.615447260827,3.7883618958685132,0.9207292925074702,B,604.1408000164665,Correct
19,4,38,A,49.08309086448082,55.81130757450846,2.4541545432240413,0.8766819693165808,B,832.9042000113986,Incorrect
19,4,39,A,52.404247914456874,65.68382438964908,2.6202123957228434,1.031759100811018,A,771.9679000438191,Correct
19,4,40,B,64.31558275405271,33.233862507142575,3.2157791377026355,0.5220362915142619,B,702.4574999813922,Correct
19,4,41,A,67.21584510405738,79.56400407368135,3.360792255202869,1.2497884534403285,A,909.1249000048265,Correct
19,4,42,A,38.252950894849725,55.4562029407266,1.9126475447424864,0.8711039987728567,A,845.1466999831609,Correct
19,4,43,B,56.02882776544279,39.536098163335495,2.80144138827214,0.6210315777076985,B,1100.5621000076644,Correct
19,4,44,A,58.777084953794265,78.27849192347898,2.9388542476897133,1.2295956758044477,A,911.3310999819078,Correct
19,4,45,A,32.41121263646458,57.796290243375324,1.6205606318232293,0.9078620041666567,A,610.2422999683768,Correct
19,4,46,A,21.96825694947146,54.204189412704594,1.0984128474735728,0.851437416263712,A,588.4531000046991,Correct
19,4,47,A,20.38836182645521,48.63388091511457,1.0194180913227604,0.7639392149924237,A,553.2487999880686,Correct
19,4,48,A,65.58941298385454,89.22263927976275,3.2794706491927275,1.4015059404759738,A,1270.070599974133,Correct
19,4,49,B,50.68788510336297,36.8793609188828,2.5343942551681486,0.5792996466592436,B,1294.3978999974206,Correct
19,4,50,B,47.80426169805251,30.371461609610463,2.390213084902625,0.47707380335768335,B,803.5727000096813,Correct
19,4,51,B,42.230397958533636,15.064006518467231,2.111519897926682,0.23662486106022707,A,809.0858000214212,Incorrect
19,4,52,A,54.60400495205299,82.41822635519932,2.7302002476026495,1.2946224721969746,A,1744.4224000209942,Correct
19,4,53,A,22.9105876364117,47.13102071231138,1.1455293818205852,0.740332342129929,A,787.3881999985315,Correct
19,4,54,B,37.33314752125983,26.867785399520507,1.8666573760629916,0.4220381861468036,A,880.9033000143245,Incorrect
19,4,55,B,61.91599710635256,47.24647341032685,3.0957998553176282,0.7421458688695416,B,932.9309999593534,Correct
19,4,56,B,81.602005236161,66.74977641612153,4.080100261808051,1.0485030360882432,B,721.6243000002578,Correct
19,4,57,A,39.51186598450986,54.02733506575483,1.975593299225493,0.848659394678048,A,1159.3893999815919,Correct
19,4,58,A,61.374024189148166,76.07470268270671,3.068701209457408,1.1949786353600955,B,799.8906000284478,Incorrect
19,4,59,A,27.526023284714675,52.848759587838835,1.376301164235734,0.8301463743624382,A,819.0123999956995,Correct
19,4,60,A,57.06965918050126,67.40834869936653,2.8534829590250634,1.0588478653227449,B,1074.223300034646,Incorrect
19,4,61,B,68.64721469147037,56.10167558199947,3.4323607345735185,0.8812430593124371,B,661.9268000358716,Correct
19,4,62,B,71.3339017461982,55.20398435448095,3.5666950873099097,0.8671421584846163,B,808.1610000226647,Correct
19,4,63,A,35.29695371024054,58.06160474706538,1.7648476855120268,0.9120295546450744,A,593.1487000198103,Correct
19,4,64,B,33.24048982982741,12.889359871695685,1.6620244914913707,0.20246559141197124,A,577.2342000273056,Incorrect
19,4,65,A,49.231648631714044,58.95958264780326,2.4615824315857022,0.9261349585252948,B,607.8946000197902,Incorrect
19,4,66,A,48.78567507796964,64.82261687109816,2.439283753898482,1.0182312847435389,A,1564.0102999750525,Correct
19,4,67,A,52.3680865701872,65.13209277884533,2.61840432850936,1.0230925209347466,A,845.1856000465341,Correct
19,4,68,A,64.38497103503485,85.96017860734942,3.2192485517517424,1.350259328070577,B,643.5422000358813,Incorrect
19,4,69,B,49.44501799389788,32.86983278536677,2.4722508996948935,0.5163181260161658,B,1240.453400008846,Correct
19,4,70,A,23.768840635745832,34.90515284966475,1.1884420317872917,0.5482888588246781,A,518.7627999694087,Correct
19,4,71,A,58.73274376114222,80.94032736756971,2.936637188057111,1.2714076891855493,A,1873.4075999818742,Correct
19,4,72,B,77.36111611674912,46.96999125484293,3.868055805837456,0.7378028973269568,B,1560.9400999965146,Correct
19,4,73,B,80.7650286208684,53.30999567705389,4.03825143104342,0.8373914539096806,B,1378.0861000414006,Correct
19,4,74,A,24.304383272418207,50.73167541809477,1.2152191636209104,0.7968912939889421,A,568.6958999722265,Correct
19,4,75,A,39.246541807311765,62.23177780371423,1.962327090365588,0.9775344798399048,B,2285.3820999735035,Incorrect
19,4,76,B,87.02860804903139,63.91030309264731,4.3514304024515695,1.0039006934227892,B,641.9765999889933,Correct
19,4,77,B,60.263684298076264,35.34793538199868,3.013184214903813,0.5552440705782689,B,907.5578000047244,Correct
19,4,78,B,70.89067241437749,61.69417199463513,3.5445336207188745,0.9690897875382544,B,1004.6305000432767,Correct
19,4,79,A,67.62638912892444,87.08462246987808,3.381319456446222,1.367922050960048,A,847.9187999619171,Correct
19,4,80,A,47.10197833284911,74.94646709247874,2.3550989166424556,1.177256352151202,B,1021.0703000193462,Incorrect
19,4,81,A,21.364160256400734,38.08166990598613,1.0682080128200366,0.5981854720653876,A,530.5287000373937,Correct
19,4,82,A,33.002849322200895,52.90107745864955,1.6501424661100446,0.8309681815553903,A,572.0010999939404,Correct
19,4,83,A,25.4482843527965,44.0809982785527,1.2724142176398248,0.6924227017740274,A,571.3690999546088,Correct
19,4,84,B,39.797723744381074,28.892473281109417,1.9898861872190536,0.45384190901986365,A,555.3196999826469,Incorrect
19,4,85,A,41.299204737709516,67.4336671611222,2.064960236885476,1.0592455667900038,B,715.2948000002652,Incorrect
19,4,86,A,21.800668991963526,39.047834715942464,1.0900334495981765,0.6133619534109666,A,514.0992000233382,Correct
19,4,87,B,69.4643594590366,58.25587938759551,3.4732179729518298,0.9150812135624155,B,657.7407000004314,Correct
19,4,88,A,43.55725884695134,68.99372344184852,2.1778629423475673,1.0837508735435861,A,2051.784500014037,Correct
19,4,89,A,32.766391723953674,44.76838980326797,1.6383195861976838,0.7032202225949543,A,537.8006999962963,Correct
19,4,90,B,44.27068323416235,36.33969659490442,2.2135341617081172,0.5708226192811687,B,1624.6070000343025,Correct
19,4,91,A,45.26561227897497,51.92896236538864,2.2632806139487487,0.8156982333782291,B,671.3305999874137,Incorrect
19,4,92,B,44.187114391416834,24.482640940664005,2.2093557195708415,0.3845724245983337,B,995.9184000035748,Correct
19,4,93,B,59.32359299042103,38.466379607792895,2.966179649521051,0.6042284779301919,B,920.3173000132665,Correct
19,4,94,B,53.76546107919096,43.04248719842609,2.688273053959548,0.6761098078740406,B,705.3839999716729,Correct
19,4,95,A,50.49934323515493,62.020826613042885,2.5249671617577465,0.9742208662855093,B,2339.0797000029124,Incorrect
19,4,96,A,50.03758670618972,69.06986146259727,2.501879335309486,1.0849468467768018,A,2720.064099994488,Correct
19,4,97,A,56.78772716193602,67.91050478508767,2.839386358096801,1.0667357146720295,A,2486.471200012602,Correct
19,4,98,B,49.743673190114876,21.95674601620579,2.4871836595057437,0.3448957599062454,B,1050.6531999562867,Correct
19,4,99,B,78.43929813473139,53.21400953256044,3.92196490673657,0.8358837070777454,B,1214.5753999939188,Correct
19,4,100,A,54.944026947847306,81.59042367652383,2.747201347392365,1.2816193781272298,A,2075.3217000165023,Correct
19,4,101,A,19.943886119627226,39.657614057992646,0.9971943059813613,0.622940344917445,A,555.9794000000693,Correct
19,4,102,B,52.725185189211984,24.242217781742927,2.636259259460599,0.38079586644923713,B,768.2659999700263,Correct
19,4,103,B,81.44447312050384,53.97062308400952,4.0722236560251925,0.8477685649519401,B,1653.0174000072293,Correct
19,4,104,B,44.011142377624026,35.7382574158853,2.200557118881201,0.561375234749231,A,747.6075000013225,Incorrect
19,4,105,A,66.75499602091276,82.24765124822028,3.337749801045638,1.2919430846821212,B,795.4153000027873,Incorrect
19,4,106,A,16.933192120014045,36.9898465975114,0.8466596060007022,0.5810351516407761,A,552.1733000059612,Correct
19,4,107,A,27.625365331724964,50.150415157594026,1.3812682665862481,0.7877608791678778,A,450.5087999859825,Correct
19,4,108,B,48.968332474080206,24.28382975182599,2.44841662370401,0.3814495057468089,B,681.6747999982908,Correct
19,4,109,A,38.19184694500479,49.44907989819244,1.9095923472502394,0.7767443306746803,A,1050.6127999979071,Correct
19,4,110,B,73.24816317059083,55.4286504170183,3.6624081585295416,0.8706712047425075,B,638.1209000246599,Correct
19,4,111,A,26.385856668168245,48.23001700747269,1.3192928334084122,0.7575953355659348,A,530.3538999869488,Correct
19,4,112,A,34.322764046200845,53.197891417727256,1.7161382023100424,0.8356305243219974,A,537.1188999852166,Correct
19,4,113,B,77.95859156347191,51.86504759965896,3.897929578173596,0.8146942625858677,B,501.85810000402853,Correct
19,4,114,A,54.94503486939291,80.71636088056599,2.7472517434696453,1.2678896318344435,B,588.0233999923803,Incorrect
19,4,115,A,45.84782362892855,77.09102424949397,2.2923911814464275,1.2109429771996143,A,1265.3527000220492,Correct
19,4,116,A,18.85640745817724,44.5387759560813,0.9428203729088621,0.6996134567175336,A,522.9862999985926,Correct
19,4,117,B,50.1371010905867,19.122234454848527,2.5068550545293347,0.30037135641786883,B,1038.4786000358872,Correct
19,4,118,A,27.99229519242757,56.11551704295157,1.3996147596213786,0.8814604804726475,A,498.4202000196092,Correct
19,4,119,B,59.69702149062187,29.854640671290824,2.9848510745310937,0.46895559904245154,B,604.289399983827,Correct
19,4,120,A,21.322444858875304,36.388882346120425,1.0661222429437651,0.5715952272545761,A,538.2027000305243,Correct
19,4,121,B,64.88109944547179,46.42432314957408,3.24405497227359,0.7292315627729025,B,590.3953000088222,Correct
19,4,122,B,48.04156826162125,28.671470128448785,2.4020784130810626,0.4503703996157695,A,2765.142599993851,Incorrect
19,4,123,A,52.54472462663825,77.92023083559577,2.6272362313319126,1.2239681237956426,B,948.8938999711536,Incorrect
19,4,124,B,41.114022571166586,29.672315492386343,2.0557011285583293,0.4660916418293976,A,511.9360000244342,Incorrect
19,4,125,B,56.007761308903746,33.55635311155237,2.800388065445187,0.5271019620825896,B,1414.572399982717,Correct
19,4,126,B,60.96327111068463,37.50340509798715,3.0481635555342312,0.589102109702192,B,2455.526099947747,Correct
19,4,127,B,82.26873208137147,55.82080682476712,4.113436604068573,0.8768311831907168,B,559.1555000282824,Correct
19,4,128,A,19.816908152235186,48.18280470422417,0.9908454076117593,0.7568537264407117,A,535.5821999837644,Correct
19,4,129,A,42.0139601338084,56.95185079189972,2.10069800669042,0.8945975802808712,B,1495.8462999784388,Incorrect
19,4,130,B,47.494493564328224,36.96697764740738,2.374724678216411,0.5806759270125657,A,671.2378999800421,Incorrect
19,4,131,A,50.73557153477535,79.05815762898212,2.5367785767387674,1.2418426360677703,B,2989.1425000387244,Incorrect
19,4,132,A,61.33911965285854,76.37143208068741,3.066955982642927,1.1996396498440973,B,1563.7183000217192,Incorrect
19,4,133,B,54.78962658399953,29.68971983548095,2.7394813291999767,0.4663650286114306,A,1868.5795000055805,Incorrect
19,4,134,A,39.74581734438596,64.34905095794598,1.987290867219298,1.0107925287747916,A,2344.8361000046134,Correct
19,4,135,B,57.1993136613377,38.37932128448473,2.8599656830668847,0.602860968985498,A,1608.8562999502756,Incorrect
19,4,136,B,76.81714661744212,58.77285360779349,3.840857330872106,0.9232018256237622,B,639.2786999931559,Correct
19,4,137,B,45.20789488603256,31.825838855412897,2.260394744301628,0.4999191077124888,B,906.2494999961928,Correct
19,4,138,B,52.9986906780299,37.39860063740115,2.649934533901495,0.5874558450849902,B,889.9898999952711,Correct
19,4,139,B,55.1491620595156,27.234941513848803,2.7574581029757796,0.4278054609042754,B,543.2953999843448,Correct
19,4,140,B,56.21102682109052,33.10602720990272,2.810551341054526,0.5200282593608709,B,459.6534000011161,Correct
19,4,141,B,50.71680718102476,37.98456210699079,2.535840359051238,0.5966601063257375,B,746.4787000208162,Correct
19,4,142,B,46.173686665193685,38.87534360525752,2.3086843332596843,0.6106524693802797,B,1245.264799974393,Correct
19,4,143,B,36.563256091309725,16.038132816606044,1.828162804565486,0.25192640116973464,A,563.7087000068277,Incorrect
19,4,144,A,61.00882303606135,78.10156472098171,3.050441151803067,1.2268165098065196,A,1101.3411000021733,Correct
19,4,145,A,61.777316580013874,75.63270324214685,3.0888658290006936,1.1880357243833273,A,1130.8192000142299,Correct
19,4,146,B,63.80773384851283,56.26559776161298,3.1903866924256414,0.8838179428886084,B,1811.4971999893896,Correct
19,4,147,A,50.85620113349065,77.35906234717805,2.5428100566745324,1.2151533097924467,B,1646.38340001693,Incorrect
19,4,148,B,70.76447053339184,57.295536968629825,3.538223526669592,0.8999961901206495,B,2155.7107000262477,Correct
19,4,149,B,65.86269334675401,38.61915179009518,3.2931346673377004,0.6066282177581607,B,2538.6117000016384,Correct
19,4,150,B,51.56688295159411,35.1618604293655,2.5783441475797053,0.5523212120572215,B,792.3227999708615,Correct
19,4,151,A,18.614748325189538,41.58048369192067,0.9307374162594769,0.6531447104962409,A,587.174899992533,Correct
19,4,152,B,64.88219049956507,55.57059681235314,3.2441095249782537,0.8729008935064451,B,751.4757000026293,Correct
19,4,153,B,61.00370984850919,45.080638630139795,3.0501854924254594,0.7081250156979171,B,861.142799956724,Correct
19,4,154,B,62.95494264198137,29.921601414422383,3.1477471320990684,0.4700074159359566,B,1214.9782999767922,Correct
19,4,155,B,87.49222511779138,65.66942075142097,4.374611255889569,1.0315328489908062,B,1681.587099970784,Correct
19,4,156,B,69.12000824046272,54.705130921979105,3.456000412023136,0.859306187090787,B,1195.7428000168875,Correct
19,4,157,A,38.78446831317679,67.89985216832449,1.9392234156588393,1.066568383759206,B,1180.6987000163645,Incorrect
19,4,158,B,88.44230603225235,68.90725440031513,4.422115301612617,1.0823926210153647,B,590.4677999787964,Correct
19,4,159,B,74.32889480937924,59.83630349397975,3.716444740468962,0.9399064573732803,B,951.2951000360772,Correct
19,4,160,B,71.72330180203299,50.55145049351741,3.58616509010165,0.7940603274937119,B,1277.2698999615386,Correct
19,4,161,A,39.65404151721804,54.7366787178854,1.9827020758609022,0.8598017387100678,A,728.3285000012256,Correct
19,4,162,B,40.484051492596606,28.5784689776,2.0242025746298307,0.44890954095435986,A,852.5367999682203,Incorrect
19,4,163,A,37.864092796899506,51.96790279158288,1.8932046398449753,0.8163099081625264,A,679.9618999939412,Correct
19,4,164,B,68.5830817470379,39.63263560493844,3.429154087351895,0.6225479842943794,B,691.9059000210837,Correct
19,4,165,A,51.016321877110514,81.39780107041068,2.5508160938555253,1.2785936693058277,A,1531.4721000031568,Correct
19,4,166,A,14.677993753496462,34.404390720661596,0.7338996876748232,0.5404229056963165,A,530.7583999820054,Correct
19,4,167,A,52.05249015702241,63.543413196460094,2.6026245078511203,0.9981376004100988,B,972.7534000412561,Incorrect
19,4,168,B,36.669437782619134,14.507182560095671,1.8334718891309567,0.22787829077541266,B,769.5701000047848,Correct
19,4,169,A,60.10669095122613,75.03344192771168,3.0053345475613065,1.178622549668277,B,1280.5864000110887,Incorrect
19,4,170,A,24.400479295797766,51.99705384327777,1.2200239647898883,0.8167678118117717,A,542.9204999818467,Correct
19,4,171,A,20.394966099864067,45.93063454413726,1.0197483049932032,0.7214767202928959,A,501.87879998702556,Correct
19,4,172,B,66.71546343336897,50.907716763894086,3.3357731716684484,0.7996565449823982,B,1156.138500024099,Correct
19,4,173,B,58.29696388632403,34.32217946623828,2.9148481943162015,0.5391315343316232,B,635.1786999730393,Correct
19,4,174,B,82.32259791332908,52.58117203813296,4.116129895666454,0.8259431189606977,B,556.4742999849841,Correct
19,4,175,A,48.89073512055604,64.16913270513164,2.444536756027802,1.0079663794683507,A,1255.4485999862663,Correct
19,4,176,A,47.72120700087937,78.60533734035556,2.386060350043968,1.2347297516070423,A,1035.2084999904037,Correct
19,4,177,B,34.99680001013324,17.59881464529017,1.7498400005066623,0.2764415340076603,B,816.8326999875717,Correct
19,4,178,A,41.32745828666358,50.183942534741036,2.066372914333179,0.7882875259765738,A,1955.975299992133,Correct
19,4,179,B,31.169778407225436,10.893544154759049,1.5584889203612717,0.17111539144073531,B,799.2938000243157,Correct
19,4,180,A,67.03067540610606,85.08326565126973,3.351533770305303,1.336484811567289,A,988.6095999972895,Correct
19,4,181,B,53.95000213801332,38.02008813459011,2.697500106900666,0.5972181478623237,B,1157.987000013236,Correct
19,4,182,B,87.73281137733422,64.4884717937458,4.386640568866711,1.012982546142322,B,919.9224999756552,Correct
19,4,183,B,31.219101024523038,14.698866490017235,1.5609550512261519,0.23088925490567666,A,569.9569999706,Incorrect
19,4,184,A,51.009795413164355,59.88267658729775,2.5504897706582175,0.9406348842197404,B,1032.6518999645486,Incorrect
19,4,185,B,63.85322721559498,45.62248292526746,3.1926613607797485,0.7166362859827301,B,1333.8192999945022,Correct
19,4,186,B,70.41077016267364,54.64375460459456,3.5205385081336824,0.8583420901517886,B,873.1484999880195,Correct
19,4,187,A,23.286687693762605,48.132394774139,1.1643343846881302,0.7560618891105941,A,624.2319999728352,Correct
19,4,188,B,52.38251626890274,40.410498244021966,2.619125813445137,0.6347666220566133,B,1069.232300040312,Correct
19,4,189,A,56.625412372804526,64.9796932781869,2.831270618640226,1.02069863517635,B,913.4736999985762,Incorrect
19,4,190,B,64.40094397238045,43.491086970832676,3.220047198619022,0.6831563966210136,B,794.0997999976389,Correct
19,4,191,A,48.478194985349866,76.09167782141859,2.423909749267493,1.19524528021545,B,1178.9482000167482,Incorrect
19,4,192,B,50.89042446306908,29.461352139361075,2.544521223153454,0.46277783722919347,B,737.4440999701619,Correct
19,4,193,A,53.70866935456641,73.07566002560954,2.6854334677283203,1.147869783463401,A,910.3745000320487,Correct
19,4,194,B,43.06151803963748,23.54896865334779,2.1530759019818735,0.36990633460486877,B,1867.0023000449874,Correct
19,4,195,A,46.377292476712995,62.03048836948564,2.31886462383565,0.9743726328008159,A,961.7489999509417,Correct
19,4,196,B,62.89489020699509,34.63528694663304,3.1447445103497547,0.544049815132584,B,1900.1593999564648,Correct
19,4,197,B,49.925143736602806,32.93310085998052,2.4962571868301406,0.5173119386082325,B,652.6300000259653,Correct
19,4,198,A,41.059037389993655,55.03099516117352,2.0529518694996827,0.8644248505903909,B,1237.5995000475086,Incorrect
19,4,199,B,56.16930878303175,39.28486233821684,2.8084654391515875,0.6170851745951419,A,2169.550800055731,Incorrect
19,4,200,A,51.70572230997206,80.97802929359415,2.585286115498603,1.2719999096546721,A,964.8149999557063,Correct
19,4,201,B,65.18456437648344,45.19993361640749,3.2592282188241715,0.7099988969602605,B,746.1451999843121,Correct
19,4,202,A,17.55204892048506,38.79332332900837,0.8776024460242531,0.6093640978937311,A,556.188199960161,Correct
19,4,203,A,31.650236063581033,47.83246355029855,1.5825118031790515,0.7513505804635974,A,581.950300023891,Correct
19,4,204,A,32.84108374395401,62.75902503123801,1.6420541871977006,0.9858164599229764,A,713.9823000179604,Correct
19,4,205,A,56.80077729768013,82.94068063114955,2.8400388648840065,1.3028291647727832,A,2009.3500000075437,Correct
19,4,206,B,82.25744908271069,52.98489685549329,4.112872454135535,0.8322848135621533,B,1003.8719999720342,Correct
19,4,207,A,44.871130692811676,54.397822183263024,2.2435565346405837,0.854478992711115,B,2765.8733000280336,Incorrect
19,4,208,B,58.133842417339785,40.87858112435296,2.906692120866989,0.6421192507472082,B,1462.5605000182986,Correct
19,4,209,A,56.6478114202464,81.37252336549973,2.83239057101232,1.2781966080455887,A,792.3714999924414,Correct
19,4,210,B,64.29697769827288,31.970511404770882,3.214848884913644,0.5021916188036845,B,914.5581999910064,Correct
19,4,211,B,43.75221340385245,33.26593542482674,2.1876106701926226,0.5225400917271408,B,1673.370199976489,Correct
19,4,212,B,47.10910756628696,23.818475892271298,2.355455378314348,0.37413974441432546,B,729.7745000105351,Correct
19,4,213,A,39.72648403691747,56.48071416366189,1.9863242018458735,0.8871969834303257,A,2010.197399999015,Correct
19,4,214,A,46.50627140836831,62.67444785936048,2.3253135704184156,0.984487924813817,A,1176.530199998524,Correct
19,4,215,B,49.15162491450516,34.38956999862126,2.457581245725258,0.5401901023389025,B,1616.6365999961272,Correct
19,4,216,A,20.66641642672219,40.260609343797086,1.0333208213361096,0.6324121727176076,A,533.5690000210889,Correct
19,4,217,B,77.55869975610678,48.29323508796591,3.8779349878053386,0.7585883628521927,B,1167.6228000433184,Correct
19,4,218,B,53.0455545959139,44.94023266550116,2.652277729795695,0.7059195239627725,B,1239.1519999946468,Correct
19,4,219,B,77.87511915823387,54.9610614632913,3.8937559579116936,0.8633263346328651,B,597.65970002627,Correct
19,4,220,B,42.88233580009829,30.540678720321125,2.1441167900049147,0.4797318595170348,A,1170.098600035999,Incorrect
19,4,221,A,15.975398845549954,38.18988992064366,0.7987699422774978,0.5998853880804851,A,532.7037000097334,Correct
19,4,222,B,67.27156997461697,56.157271246871574,3.363578498730848,0.8821163539741051,B,824.3584000156261,Correct
19,4,223,B,54.73773729957568,23.948845329538074,2.736886864978784,0.37618758274617514,B,780.661600001622,Correct
19,4,224,B,47.86606369078555,25.39873079441356,2.3933031845392776,0.3989623303711725,B,646.4219000190496,Correct
19,4,225,A,30.967315345521456,62.04590393674199,1.548365767276073,0.9746147799650333,A,726.3077999814413,Correct
19,4,226,A,55.23114356549064,79.0060429592418,2.761557178274532,1.241024020749768,B,2161.960099998396,Incorrect
19,4,227,B,76.48513016089476,50.67599398408753,3.824256508044738,0.7960166520688496,B,1199.8745999881066,Correct
19,4,228,A,49.78120720315825,71.02919656033875,2.4890603601579127,1.115724010521728,B,1370.2792000258341,Incorrect
19,4,229,B,59.9874901243933,34.398041741447315,2.999374506219665,0.5403231761640298,B,748.159900016617,Correct
19,4,230,B,87.99261019268535,60.704787314261665,4.399630509634267,0.9535485693210766,B,686.113599978853,Correct
19,4,231,B,35.348519035663756,23.981727538799323,1.7674259517831876,0.37670409528141996,A,637.7893000026233,Incorrect
19,4,232,A,56.7679396165516,82.71733195286164,2.83839698082758,1.299320811938292,A,1242.864100029692,Correct
19,4,233,A,21.03327856276675,50.44178524939217,1.0516639281383375,0.7923377098672222,A,599.6612999588251,Correct
19,4,234,A,41.304400395305436,58.579873332150015,2.0652200197652717,0.9201704985425155,B,1456.638900039252,Incorrect
19,4,235,A,64.79877655799757,75.80078509962229,3.239938827899879,1.19067594802656,B,621.1592000327073,Incorrect
19,4,236,B,60.20626360766255,32.52853436978059,3.0103131803831276,0.5109570230407289,B,1698.5275999759324,Correct
19,4,237,A,33.039276208574954,54.29781136771735,1.6519638104287477,0.8529080264941259,A,1047.8671000455506,Correct
19,4,238,A,37.71290396833075,45.97187520422511,1.8856451984165374,0.7221245270667017,A,1249.8472000006586,Correct
19,4,239,A,27.959076310269324,48.34200657830118,1.3979538155134663,0.7593544636309022,A,691.7778000351973,Correct
19,4,240,A,39.76117005020534,57.43137911328065,1.988058502510267,0.902129993539064,A,645.9262000280432,Correct
19,4,241,B,66.17653265616313,51.443469761263394,3.308826632808157,0.8080721333857687,B,1093.6273999977857,Correct
19,4,242,A,23.202977338582297,43.49293961804237,1.160148866929115,0.6831854979353319,A,659.3588000396267,Correct
19,4,243,A,49.74977474504148,69.32256884555478,2.4874887372520735,1.0889163650658378,A,1568.437299982179,Correct
19,4,244,B,40.26779035066256,22.279932208958392,2.013389517533128,0.3499723567507115,B,843.9075999776833,Correct
19,4,245,A,35.935443343134,55.05190029514303,1.7967721671567,0.8647532276668954,B,712.4899000045843,Incorrect
19,4,246,A,43.42699595919383,71.65901062294097,2.171349797959692,1.1256171066827214,A,1190.027300035581,Correct
19,4,247,B,69.32833590602098,49.86860357461446,3.466416795301049,0.7833341931739524,B,555.5134000023827,Correct
19,4,248,A,46.6178791357309,66.15078218459422,2.330893956786545,1.0390940567016989,A,826.8885999568738,Correct
19,4,249,B,39.36020678676282,21.411361107429688,1.968010339338141,0.3363288737922966,B,933.1075999652967,Correct
19,4,250,A,24.620665667628145,54.287700540334356,1.2310332833814073,0.8527492059889853,A,582.7374000218697,Correct
19,4,251,B,60.60559543564871,31.46786578988891,3.0302797717824355,0.49429607994832286,B,603.0146999983117,Correct
19,4,252,A,32.133224833710344,50.500404613490915,1.6066612416855173,0.7932585006852757,A,681.1856999993324,Correct
19,4,253,A,21.340369921246825,47.40108050113388,1.0670184960623414,0.744574431372903,A,785.1948000025004,Correct
19,4,254,A,33.4026208521999,64.56125422953102,1.6701310426099951,1.014125809970188,B,1423.2626000302844,Incorrect
19,4,255,B,70.4011865530676,57.568174780506126,3.52005932765338,0.9042787748550563,B,777.9798999545164,Correct
19,4,256,A,48.02372546290249,63.29217511711701,2.4011862731451243,0.9941911618882675,B,658.4947000374086,Incorrect
19,4,257,B,46.783876780040075,24.97950151494181,2.3391938390020037,0.3923770922483815,B,903.8942999904975,Correct
19,4,258,A,18.94824652054793,36.57747484823912,0.9474123260273964,0.5745576313504672,A,532.3624999728054,Correct
19,4,259,A,66.42871376424961,88.2845173066316,3.3214356882124805,1.3867699549811738,A,1255.8788000023924,Correct
19,4,260,A,34.82663863188115,51.021445579441334,1.7413319315940579,0.8014429930395217,B,1127.6010999572463,Incorrect
19,4,261,A,57.69346686958805,72.82649239204846,2.8846733434794025,1.143955867427862,B,798.3318999758922,Incorrect
19,4,262,B,47.62849631860986,17.835855645662885,2.381424815930493,0.2801649653345128,B,1567.2419999609701,Correct
19,4,263,A,14.627648070590588,43.46081445511352,0.7313824035295294,0.6826808770560686,A,540.199900045991,Correct
19,4,264,A,53.42007589338361,65.73988547376266,2.671003794669181,1.0326397062610355,A,2035.5592999840155,Correct
19,4,265,A,33.31312367722349,54.74204098175278,1.6656561838611743,0.8598859689539295,A,813.8469000114128,Correct
19,4,266,A,33.321295696449354,57.67896494390422,1.6660647848224677,0.9060190626721635,A,865.2466000057757,Correct
19,4,267,B,55.58434060399487,37.02521886995475,2.7792170301997436,0.5815907779970201,B,1051.785200019367,Correct
19,4,268,A,16.6407318183703,42.4708787668588,0.8320365909185149,0.6671310036273317,A,460.6246000039391,Correct
19,4,269,A,40.04067768403642,53.762947930639925,2.0020338842018206,0.8445064112711448,A,986.6026999661699,Correct
19,4,270,A,67.63394537735842,87.80375624694591,3.3816972688679208,1.3792181779149706,B,668.9706000033766,Incorrect
19,4,271,B,66.42854155777283,56.191594084973616,3.3214270778886417,0.8826554958542638,B,1832.9787999973632,Correct
19,4,272,A,32.15579251404535,53.63093626399259,1.6077896257022675,0.8424327768605077,A,644.4567000144161,Correct
19,4,273,B,38.666223200860415,15.411654649243406,1.9333111600430208,0.24208570512863029,B,876.8492999952286,Correct
19,4,274,A,64.82829597365438,75.44593137396083,3.2414147986827184,1.1851019187383753,A,1097.4872999940999,Correct
19,4,275,B,78.11504945919935,54.217367781045446,3.9057524729599673,0.8516444215895416,B,1401.5184000018053,Correct
19,4,276,B,47.64354348133347,26.676670363475854,2.3821771740666735,0.4190361581806614,B,2276.999199995771,Correct
19,4,277,A,29.61132200603229,47.117381129616426,1.4805661003016144,0.7401180920659667,A,872.0830000238493,Correct
19,4,278,B,37.52413319150328,22.808873078933882,1.8762066595751639,0.35828094050720344,A,1268.7822000007145,Incorrect
19,4,279,A,15.335874631032347,37.5887754076417,0.7667937315516172,0.5904431033904193,A,652.0060999901034,Correct
19,4,280,A,37.06866634195136,56.44257492871892,1.8534333170975679,0.8865978937287741,A,3426.36979999952,Correct
19,4,281,B,83.92736006092649,57.4794361228142,4.196368003046325,0.9028848712795844,B,619.1883999854326,Correct
19,4,282,B,52.188514373359055,28.833963155920397,2.6094257186679526,0.45292283412259143,B,968.8400999875739,Correct
19,4,283,A,55.32211440075177,73.73840133043787,2.7661057200375887,1.1582800995357974,A,665.5271999770775,Correct
19,4,284,B,47.322090403499715,39.97631465568353,2.3661045201749857,0.6279464821994468,B,1004.6883000177331,Correct
19,4,285,B,69.78485037557164,51.15694977029086,3.489242518778582,0.803571487892039,B,920.1852999976836,Correct
19,4,286,B,54.41497178310246,28.998901453602645,2.7207485891551233,0.4555136788440622,B,978.5916000255384,Correct
19,4,287,B,74.32404673965756,55.659589068347884,3.716202336982878,0.8742987805947422,B,991.9595000101253,Correct
19,4,288,B,44.8204423081263,16.882350676231855,2.2410221154063152,0.26518734429888335,B,1848.9805000135675,Correct
19,4,289,A,62.94037202510775,76.77489063713163,3.147018601255388,1.2059771620288628,A,2086.0730999847874,Correct
19,4,290,B,55.79049055312832,38.81051100657221,2.7895245276564165,0.6096340813015654,B,1099.7597999521531,Correct
19,4,291,B,74.82860955748745,55.978251348763564,3.7414304778743723,0.8793043159903926,B,699.1962000029162,Correct
19,4,292,B,44.46007277398074,35.31757604327595,2.223003638699037,0.554767187200773,B,1443.2803000090644,Correct
19,4,293,B,35.342591861417226,11.945502912913426,1.7671295930708613,0.18763952097322145,A,521.4752000174485,Incorrect
19,4,294,B,56.82019733098399,37.81522405777334,2.8410098665491996,0.5940001504687636,B,531.8422000273131,Correct
19,4,295,B,69.86915470563507,44.34697065678039,3.4934577352817535,0.6966005861215171,B,813.753700000234,Correct
19,4,296,B,57.09437193600361,46.979643811200084,2.8547185968001805,0.7379545193276569,B,1146.0894999909215,Correct
19,4,297,A,33.81529717716223,55.355335308365326,1.6907648588581115,0.8695195737088011,A,570.7752999733202,Correct
19,4,298,A,48.507112459955685,74.9179701310093,2.425355622997784,1.1768087229271917,A,1435.1009000092745,Correct
19,4,299,B,67.60372714808896,45.74421490560558,3.3801863574044484,0.7185484474584161,B,1123.3538000378758,Correct
