subject,day,trial,cat,x,y,xt,yt,resp,rt,fb,ns_left_digit,ns_right_digit,ns_left_size,ns_right_size,ns_congruent,ns_cue,ns_correct_side,ns_resp,ns_rt,ns_fb
19,22,0,A,21.686947433122867,40.09856471054342,1.0843473716561434,0.6298667815706908,A,1637.1609999914654,Correct,4,8,big,small,False,Size,left,right,2889.1681999957655,Incorrect
19,22,1,A,40.28472446770422,73.19160209840548,2.014236223385211,1.1496909972840899,A,1114.5852000045124,Correct,6,3,small,big,False,Value,left,left,927.0040999981575,Correct
19,22,2,A,56.11215255911748,68.76983558606122,2.805607627955874,1.0802340513287394,A,1686.2154999980703,Correct,2,3,big,small,False,Value,right,right,930.7910000061383,Correct
19,22,3,B,71.6635870330201,59.17064133480757,3.583179351651005,0.9294502606281401,B,1109.3121000012616,Correct,7,2,small,big,False,Value,left,left,438.16079999669455,Correct
19,22,4,A,49.204426315651304,68.9935163834424,2.460221315782565,1.0837476210777484,A,832.7556000003824,Correct,5,8,big,small,False,Value,right,right,732.8311999881407,Correct
19,22,5,B,76.60218837865422,49.31087396418604,3.830109418932711,0.7745733969398952,B,814.4642999977805,Correct,2,3,big,small,False,Size,left,right,525.5542999948375,Incorrect
19,22,6,A,39.7237060125405,60.114154773929435,1.986185300627025,0.9442709350726824,A,1167.410000009113,Correct,2,5,big,small,False,Value,right,right,972.7866999892285,Correct
19,22,7,B,61.78609973257623,47.28565078341203,3.089304986628812,0.7427612656068985,B,1749.8429999977816,Correct,6,2,small,big,False,Size,right,right,965.8185000007506,Correct
19,22,8,B,83.01265726757416,60.96503176168787,4.150632863378707,0.957636479541935,B,1095.9958000021288,Correct,4,8,big,small,False,Value,right,right,836.2495000037597,Correct
19,22,9,A,29.749095079015785,50.98756904899847,1.4874547539507892,0.8009108617436796,A,1390.304600005038,Correct,5,6,big,small,False,Size,left,left,402.374699988286,Correct
19,22,10,B,65.63481272232941,42.87721234663365,3.2817406361164707,0.6735136765729692,B,722.1238999918569,Correct,5,6,big,small,False,Value,right,right,566.6412999999011,Correct
19,22,11,B,31.153960620918323,13.3596398033141,1.557698031045916,0.2098527313034868,B,620.9538999974029,Correct,2,6,big,small,False,Value,right,right,568.311499999254,Correct
19,22,12,A,50.57305283440088,60.077547188704685,2.528652641720044,0.9436959044686438,A,1166.9879999972181,Correct,6,7,big,small,False,Size,left,right,779.1043999895919,Incorrect
19,22,13,A,35.536969311797606,52.15069657194084,1.7768484655898802,0.8191812261499987,A,849.0086999954656,Correct,3,4,big,small,False,Size,left,left,956.9086999981664,Correct
19,22,14,B,62.959146831791486,47.54997425816995,3.1479573415895743,0.7469132490392524,B,911.4160000026459,Correct,3,6,big,small,False,Size,left,left,1422.2900000022491,Correct
19,22,15,B,49.330236595580104,31.591441998922868,2.466511829779005,0.49623721050062064,B,656.0621999960858,Correct,3,2,small,big,False,Size,right,right,375.6706000131089,Correct
19,22,16,A,45.50708074360688,52.52523789202961,2.275354037180344,0.8250645074482822,A,1832.728599998518,Correct,7,6,small,big,False,Size,right,right,622.8880999988178,Correct
19,22,17,B,40.546127909569634,21.798538926187103,2.027306395478482,0.3424106487475027,B,649.595800001407,Correct,5,7,big,small,False,Value,right,right,935.0061000004644,Correct
19,22,18,A,26.284849414078728,42.228281304726956,1.3142424707039364,0.6633202916032671,A,681.8825999944238,Correct,2,3,small,big,True,Value,right,right,708.8806000101613,Correct
19,22,19,B,53.666149293585214,30.70171159459805,2.683307464679261,0.48226135799110903,B,573.355000000447,Correct,5,2,small,big,False,Value,left,left,1011.8328999960795,Correct
19,22,20,B,54.42489100648397,25.88825558831951,2.7212445503241987,0.4066517678525974,B,623.8098000030732,Correct,6,2,small,big,False,Size,right,left,670.6543999898713,Incorrect
19,22,21,A,30.535773091454367,44.68949716174873,1.5267886545727183,0.7019809798798587,A,611.7727000091691,Correct,2,3,big,small,False,Value,right,right,1134.8423000017647,Correct
19,22,22,A,66.72022313931896,88.06788215947363,3.336011156965948,1.3833670580470696,A,817.798899995978,Correct,2,7,big,small,False,Value,right,right,785.2644999948097,Correct
19,22,23,B,50.40513213425881,26.52567631566133,2.52025660671294,0.416664349223912,B,1036.4917999977479,Correct,8,3,small,big,False,Value,left,left,859.0709999989485,Correct
19,22,24,A,31.32651749782545,42.26217606586098,1.5663258748912725,0.6638527092661362,B,936.8505000020377,Incorrect,5,2,small,big,False,Value,left,left,549.9481000006199,Correct
19,22,25,B,42.815206812000945,28.233988661199877,2.1407603406000475,0.4434984567978153,B,766.7899999942165,Correct,8,2,small,big,False,Value,left,left,493.6028000083752,Correct
19,22,26,B,54.18796309469539,46.203749896955486,2.7093981547347696,0.7257668062228776,B,695.8065999933751,Correct,8,2,small,big,False,Value,left,left,556.2918999930844,Correct
19,22,27,B,85.7020333315965,67.74675542456059,4.285101666579825,1.06416354573172,B,570.6006999971578,Correct,5,2,small,big,False,Value,left,left,616.6100999980699,Correct
19,22,28,A,60.41005685347889,75.40667472722527,3.0205028426739444,1.18448527677343,A,1852.0244999963325,Correct,4,7,big,small,False,Value,right,right,701.0137000033865,Correct
19,22,29,A,14.95763667330267,42.16518225197349,0.7478818336651335,0.6623291340003733,A,515.1762000023155,Correct,5,6,big,small,False,Size,left,right,652.2896999958903,Incorrect
19,22,30,B,38.454593093486935,12.522606770527435,1.9227296546743469,0.19670464717041397,B,522.5043999962509,Correct,4,8,big,small,False,Value,right,right,787.4463999905856,Correct
19,22,31,B,67.94175790663498,51.03868587756674,3.3970878953317487,0.801713803009204,B,1166.9111000082921,Correct,5,8,big,small,False,Value,right,right,673.8560999947367,Correct
19,22,32,A,57.47951624351909,84.36955889122551,2.8739758121759547,1.3252739319964275,A,512.2065999894403,Correct,6,2,small,big,False,Size,right,right,374.0051999920979,Correct
19,22,33,B,73.60315688220358,49.819888841388675,3.6801578441101785,0.782568983933834,B,729.7710999991978,Correct,4,5,big,small,False,Value,right,right,719.3888000037987,Correct
19,22,34,A,54.6040513672762,67.4062458330896,2.73020256836381,1.0588148335765095,A,788.3988000103272,Correct,2,8,small,big,True,Value,right,right,590.1985999953467,Correct
19,22,35,B,53.33971781950649,40.86068072601634,2.6669858909753246,0.641838071947655,B,653.1310999998823,Correct,8,7,small,big,False,Value,left,left,2088.6353999958374,Correct
19,22,36,A,45.022370683638876,66.716221124557,2.251118534181944,1.0479759508009021,A,671.9827000051737,Correct,4,3,big,small,True,Size,left,left,887.2119000006933,Correct
19,22,37,B,79.33257937191397,61.64391837002653,3.9666289685956984,0.9683004054488212,B,616.6068000020459,Correct,3,5,small,big,True,Size,right,right,556.1472999979742,Correct
19,22,38,B,80.83424161587502,66.85798459447852,4.041712080793751,1.0502027661791664,A,1174.7331999940798,Incorrect,8,5,big,small,True,Value,left,right,454.303999998956,Incorrect
19,22,39,A,34.76858176817188,56.4498621736257,1.738429088408594,0.8867123615040943,A,1187.9270000063116,Correct,7,3,small,big,False,Value,left,left,770.21319999767,Correct
19,22,40,A,49.69430527524867,72.18174157339293,2.4847152637624332,1.133828145251441,A,722.1921000018483,Correct,2,3,big,small,False,Value,right,right,1536.881900014123,Correct
19,22,41,A,26.861683154405135,42.26326626355117,1.3430841577202568,0.6638698340514085,B,914.7886999999173,Incorrect,6,8,big,small,False,Value,right,right,754.1741000022739,Correct
19,22,42,A,34.95741189512865,49.52140003905059,1.7478705947564324,0.7778803327908131,A,1719.9219000031007,Correct,4,3,small,big,False,Value,left,left,462.0664999965811,Correct
19,22,43,B,72.98635414152866,56.941722118729956,3.649317707076433,0.8944384794547673,B,790.3068000014173,Correct,3,5,big,small,False,Size,left,left,387.3457000008784,Correct
19,22,44,A,57.66639255515048,73.31617673238405,2.883319627757524,1.1516478110587434,A,900.3983000002336,Correct,6,4,small,big,False,Value,left,right,1055.41319999611,Incorrect
19,22,45,B,43.45012747312763,14.541648559241317,2.172506373656381,0.2284196814239856,B,615.1902999990853,Correct,3,2,small,big,False,Value,left,left,973.4334999957355,Correct
19,22,46,A,18.96554195203786,48.740426565602675,0.9482770976018929,0.7656128301566508,A,689.5387999975355,Correct,4,7,big,small,False,Size,left,left,1217.276800001855,Correct
19,22,47,A,41.082657139333406,73.02882805976888,2.05413285696667,1.1471341486642104,A,795.560700003989,Correct,4,8,big,small,False,Size,left,left,435.9319999930449,Correct
19,22,48,A,44.08622630354942,55.18394639598116,2.204311315177471,0.8668274029685369,B,1321.808399996371,Incorrect,4,5,big,small,False,Size,left,left,1027.883999995538,Correct
19,22,49,A,26.67075742428684,37.791927104242276,1.3335378712143422,0.5936342027784426,B,615.9909999987576,Incorrect,5,8,big,small,False,Size,left,left,1004.9351999914506,Correct
19,22,50,A,30.736969198198146,45.993802280464216,1.5368484599099075,0.7224689567748392,A,753.0423999996856,Correct,3,7,big,small,False,Value,right,right,553.9228999987245,Correct
19,22,51,A,56.07517897919236,70.68671813753753,2.8037589489596177,1.1103443720363013,A,838.4774000005564,Correct,7,5,small,big,False,Value,left,right,563.118799997028,Incorrect
19,22,52,A,53.5463368472306,70.61954954172796,2.67731684236153,1.109289290200565,A,760.2254999947036,Correct,2,8,small,big,True,Size,right,right,835.0449999998091,Correct
19,22,53,A,21.39835818647601,39.40785982569472,1.0699179093238005,0.6190172146104944,A,1478.0762000009418,Correct,4,5,big,small,False,Value,right,right,734.7101000050316,Correct
19,22,54,B,64.94390840052436,53.717805743399545,3.2471954200262183,0.8437973194521381,A,1739.0939999895636,Incorrect,8,3,small,big,False,Size,right,right,1391.9635000056587,Correct
19,22,55,A,16.701298537459774,36.92550668308766,0.8350649268729887,0.5800245026283452,A,679.4912000041222,Correct,3,5,big,small,False,Size,left,left,1545.5050000018673,Correct
19,22,56,B,60.582752252514304,53.25108778120515,3.0291376126257155,0.8364661308454967,B,2205.5341999948723,Correct,4,8,big,small,False,Size,left,left,1046.8282000074396,Correct
19,22,57,A,21.327060302818204,38.59907798264861,1.0663530151409102,0.606312899128142,A,812.0621999987634,Correct,6,5,small,big,False,Value,left,left,862.4416999955429,Correct
19,22,58,B,58.05398097616251,36.01182224756553,2.9026990488081252,0.5656723810766667,B,822.0342999993591,Correct,5,6,big,small,False,Value,right,right,671.4174000080675,Correct
19,22,59,B,60.003072342811855,36.174737634415884,3.000153617140593,0.5682314499890958,B,738.2129000034183,Correct,8,5,big,small,True,Size,left,left,716.6861000005156,Correct
19,22,60,B,45.0355457239844,15.260921391834792,2.25177728619922,0.23971799265799756,B,595.6919000018388,Correct,5,3,big,small,True,Value,left,left,805.0847999984398,Correct
19,22,61,B,31.804715810270082,14.565274580476228,1.590235790513504,0.22879079809771136,B,599.6512999990955,Correct,6,2,big,small,True,Size,left,left,908.0603000038536,Correct
19,22,62,B,46.007772687663675,18.951927972210168,2.3003886343831836,0.2976961884442918,B,547.8131999989273,Correct,7,5,small,big,False,Size,right,right,1037.1506999945268,Correct
19,22,63,A,18.08114844549105,40.235213588133874,0.9040574222745525,0.6320132571204881,A,569.2220000055386,Correct,8,5,small,big,False,Size,right,right,537.4867000064114,Correct
19,22,64,A,55.47481087637366,81.13059266264855,2.773740543818683,1.2743963694518134,A,1005.4011999891372,Correct,3,5,small,big,True,Size,right,right,1193.2124000013573,Correct
19,22,65,B,86.5763624262755,69.62605652723775,4.328818121313775,1.093683538421989,B,1093.161600001622,Correct,8,4,small,big,False,Size,right,right,736.5766000002623,Correct
19,22,66,A,23.796520598298926,53.17119578350339,1.1898260299149463,0.8352111902801942,A,836.204799998086,Correct,7,4,small,big,False,Value,left,left,743.4673999960069,Correct
19,22,67,B,78.98300705062113,52.776245447758626,3.9491503525310567,0.8290073249136514,B,883.478700008709,Correct,6,2,small,big,False,Size,right,right,651.2206000043079,Correct
19,22,68,B,59.897561435151054,29.677560158931758,2.9948780717575527,0.46617402485884574,B,632.2201000002678,Correct,8,2,small,big,False,Size,right,right,657.8793000080623,Correct
19,22,69,A,26.883066660765788,37.41664273104445,1.3441533330382893,0.5877392496292159,B,681.2421000067843,Incorrect,3,5,big,small,False,Size,left,left,1206.542600004468,Correct
19,22,70,A,31.978454449516743,43.57448579848447,1.598922722475837,0.6844664223423579,A,868.6096000019461,Correct,2,5,big,small,False,Value,right,right,946.3544000027468,Correct
19,22,71,A,32.79302924294825,43.52008393069913,1.6396514621474125,0.6836118798014779,B,676.8176999903517,Incorrect,3,2,small,big,False,Size,right,right,370.07800000719726,Correct
19,22,72,A,17.509051615882917,38.430138228361116,0.8754525807941459,0.6036591996732977,A,575.8651000069221,Correct,7,2,small,big,False,Value,left,left,455.4402000067057,Correct
19,22,73,A,67.9777111450721,83.73513974968942,3.3988855572536054,1.3153084994246949,A,1360.8806999982335,Correct,2,8,small,big,True,Value,right,right,667.025000002468,Correct
19,22,74,A,56.8337841307583,79.53488397860366,2.8416892065379153,1.2493310360564889,A,656.933599995682,Correct,7,5,small,big,False,Value,left,left,1487.8122999944026,Correct
19,22,75,B,62.20422950609397,52.78152670429849,3.1102114753046983,0.829090282697388,B,570.5844000040088,Correct,7,5,small,big,False,Value,left,left,732.6641999970889,Correct
19,22,76,A,55.21774882855022,78.78045547098289,2.7608874414275113,1.237480500770488,A,1324.028899995028,Correct,4,8,small,big,True,Value,right,right,653.3562999975402,Correct
19,22,77,B,72.36765327857005,39.43978478954342,3.6183826639285024,0.6195186907699602,B,606.2215999991167,Correct,8,2,small,big,False,Value,left,left,650.7718000066234,Correct
19,22,78,B,84.36051993333966,56.60328956184411,4.2180259966669835,0.8891223932825263,B,681.8070000008447,Correct,5,2,big,small,True,Value,left,left,723.2478000078117,Correct
19,22,79,A,26.48591497892044,49.653182970297856,1.324295748946022,0.7799503742341878,A,630.5752000043867,Correct,2,5,big,small,False,Value,right,right,830.4153000062797,Correct
19,22,80,A,32.16195243491065,57.908345240708954,1.6080976217455327,0.9096221599487636,A,767.5919000030262,Correct,7,4,small,big,False,Value,left,left,934.6885999984806,Correct
19,22,81,A,36.67638199963931,57.55324757994501,1.8338190999819657,0.9040442989369489,A,796.0975000023609,Correct,2,3,big,small,False,Value,right,left,2099.3746999884024,Incorrect
19,22,82,A,60.69055304299545,80.32815041055362,3.0345276521497726,1.2617916360312558,A,1104.3974999920465,Correct,6,3,big,small,True,Value,left,left,616.1734999914188,Correct
19,22,83,B,54.63582202496646,33.840054211926514,2.731791101248323,0.5315583285463433,B,556.6763999959221,Correct,3,5,big,small,False,Value,right,right,769.6484999905806,Correct
19,22,84,A,42.891916216749856,57.24086638167091,2.1445958108374925,0.8991374265488615,A,1042.216300003929,Correct,8,4,small,big,False,Size,right,left,691.9082000094932,Incorrect
19,22,85,B,61.778152626360125,42.3168777957449,3.088907631318006,0.6647119620298461,B,1102.494899998419,Correct,6,2,small,big,False,Size,right,right,936.6344000009121,Correct
19,22,86,A,21.71550624837439,33.298329775969854,1.0857753124187195,0.5230489410049858,A,559.8572000017157,Correct,5,2,big,small,True,Size,left,left,798.6906000005547,Correct
19,22,87,A,23.8318357184738,53.84794892088638,1.19159178592369,0.8458416037036754,A,830.613899990567,Correct,5,8,big,small,False,Size,left,left,1763.9247000042815,Correct
19,22,88,A,32.231415813106146,44.65913647384479,1.6115707906553072,0.7015040753094738,A,1023.2171999959974,Correct,2,4,big,small,False,Value,right,right,991.6302999918116,Correct
19,22,89,A,49.3193609590378,72.39308399635549,2.46596804795189,1.1371479042682962,A,953.8213000050746,Correct,8,7,small,big,False,Size,right,right,582.2069000132615,Correct
19,22,90,B,72.09700241332229,51.16650459203052,3.6048501206661143,0.8037215746809575,B,800.3096000029473,Correct,5,2,small,big,False,Value,left,left,495.2593999914825,Correct
19,22,91,B,34.02515415405662,19.70423719333202,1.701257707702831,0.30951343405581316,B,728.3961000066483,Correct,5,6,big,small,False,Value,right,right,1043.1715000013355,Correct
19,22,92,B,80.79606365485675,65.12954775919195,4.039803182742838,1.023052543859515,A,944.8464999877615,Incorrect,2,5,small,big,True,Value,right,right,872.1991999918828,Correct
19,22,93,B,66.76689764566548,53.02242806033819,3.338344882283274,0.8328743523492588,B,535.3866000077687,Correct,3,6,big,small,False,Value,right,right,394.22400000330526,Correct
19,22,94,A,24.363596434695914,47.17630984325264,1.2181798217347959,0.7410437421351916,A,591.4783000043826,Correct,8,7,small,big,False,Size,right,right,1241.9036000064807,Correct
19,22,95,B,51.64257054702116,35.20187904930433,2.582128527351058,0.5529498230692547,B,547.1505000023171,Correct,8,6,small,big,False,Value,left,left,583.7314999953378,Correct
19,22,96,B,37.96890034816944,24.54047365598106,1.898445017408472,0.38548085876621985,B,751.5198000037344,Correct,8,3,big,small,True,Value,left,left,737.8888999955961,Correct
19,22,97,A,47.9749310410721,73.29192543157022,2.3987465520536047,1.1512668725163597,A,1117.9999000014504,Correct,6,2,small,big,False,Value,left,left,321.2929000001168,Correct
19,22,98,A,41.079921105183026,60.35566022785033,2.053996055259151,0.9480644938718813,A,1235.769499995513,Correct,5,4,small,big,False,Size,right,right,354.64750000392087,Correct
19,22,99,A,68.23113034844525,81.48450607294623,3.411556517422263,1.2799556283008038,A,916.2426999973832,Correct,6,7,big,small,False,Value,right,right,620.4894999973476,Correct
19,22,100,A,63.1132736362772,85.12888094635342,3.15566368181386,1.33720133494692,A,1390.919199999189,Correct,4,6,small,big,True,Size,right,right,17.5191000016639,Correct
19,22,101,A,25.401849407988603,51.681200196152844,1.2700924703994303,0.8118063943246857,A,521.1171999981161,Correct,3,5,big,small,False,Value,right,right,814.3968000076711,Correct
19,22,102,B,81.68983353119809,66.68430987395729,4.084491676559904,1.0474746900486476,B,856.0035999980755,Correct,6,4,small,big,False,Value,left,left,381.9187999906717,Correct
19,22,103,A,31.993757884875222,46.91714617648771,1.599687894243761,0.7369728087772615,A,795.6976999994367,Correct,5,6,big,small,False,Value,right,right,844.1769000055501,Correct
19,22,104,B,56.92372800836078,46.05260533072247,2.8461864004180395,0.7233926329283393,B,940.1427999982843,Correct,7,4,big,small,True,Size,left,left,163.16189999633934,Correct
19,22,105,A,55.01503541462003,67.81298621248557,2.7507517707310014,1.065203896515653,A,725.4984000028344,Correct,4,5,big,small,False,Size,left,right,523.4501999948407,Incorrect
19,22,106,A,61.78289479901624,77.6677909144623,3.0891447399508123,1.220002806787114,A,837.2067999880528,Correct,2,3,big,small,False,Value,right,right,698.5768000013195,Correct
19,22,107,B,53.751336184245105,26.77917303044917,2.6875668092122553,0.4206462663083451,B,570.1150000095367,Correct,7,4,small,big,False,Size,right,right,357.64600000402424,Correct
19,22,108,B,48.09417010204467,39.009214868170176,2.4047085051022337,0.6127553142607458,B,1208.7788000062574,Correct,3,8,big,small,False,Size,left,right,751.0800999880303,Incorrect
19,22,109,B,80.87106985249082,62.24069602051836,4.0435534926245404,0.9776745668618797,A,1128.4011000097962,Incorrect,2,4,big,small,False,Size,left,right,560.210299998289,Incorrect
19,22,110,A,50.13136103198585,63.610526659065485,2.5065680515992925,0.999191816215489,A,630.9870999975828,Correct,7,2,small,big,False,Value,left,left,828.2849000097485,Correct
19,22,111,B,67.49122436425748,47.736336076146486,3.374561218212874,0.7498406136305759,B,595.1921999949263,Correct,7,8,big,small,False,Value,right,right,962.7096000040183,Correct
19,22,112,B,76.62994712906104,52.92937725699659,3.831497356453052,0.8314127137483158,B,995.7328000018606,Correct,6,2,small,big,False,Size,right,right,449.7840999974869,Correct
19,22,113,B,64.4984918219113,41.562979035933864,3.2249245910955655,0.6528697480029821,A,938.5948999988614,Incorrect,5,3,small,big,False,Size,right,right,1685.8389000117313,Correct
19,22,114,A,48.03500014333489,67.45649151491394,2.4017500071667444,1.0596040909009792,A,600.6367999943905,Correct,2,8,big,small,False,Value,right,right,382.6390000031097,Correct
19,22,115,B,45.89906000050391,28.277078160662242,2.2949530000251954,0.4441753050726044,A,1241.5711999929044,Incorrect,2,3,big,small,False,Value,right,right,739.29529999441,Correct
19,22,116,B,44.10267835262708,17.870465796319316,2.205133917631354,0.2807086203097222,B,911.1122000031173,Correct,6,8,big,small,False,Value,right,right,375.7175000064308,Correct
19,22,117,B,69.25452655905315,50.09809391080219,3.4627263279526574,0.7869390189451386,A,818.9574999996694,Incorrect,3,6,big,small,False,Size,left,right,852.1294999954989,Incorrect
19,22,118,B,40.191220734792566,16.2608203650044,2.0095610367396284,0.25542436900020554,B,640.8411000011256,Correct,7,6,big,small,True,Size,left,left,333.487600000808,Correct
19,22,119,A,14.826665265102058,37.37761191310656,0.741333263255103,0.5871261549747296,A,546.868400007952,Correct,4,6,big,small,False,Value,right,right,737.113400013186,Correct
19,22,120,A,24.943642087483013,56.10256944137522,1.2471821043741507,0.8812571000226781,A,656.7341000045417,Correct,7,6,small,big,False,Size,right,right,724.7484999970766,Correct
19,22,121,B,71.08657054622968,50.884572832454076,3.5543285273114837,0.7992930009574626,A,1632.1614000044065,Incorrect,5,4,big,small,True,Value,left,left,343.05129999120254,Correct
19,22,122,A,60.72950961656938,80.32114739637726,3.0364754808284693,1.2616816329418084,A,900.7883000012953,Correct,8,6,small,big,False,Size,right,left,639.152899995679,Incorrect
19,22,123,B,75.2184451112757,51.52601660297798,3.7609222555637847,0.8093687761433068,B,565.8098999992944,Correct,7,2,small,big,False,Value,left,left,727.5914999918314,Correct
19,22,124,A,48.60134532799529,57.06442667234698,2.4300672663997647,0.8963659180757937,A,802.4741999979597,Correct,2,8,big,small,False,Size,left,left,352.4422000045888,Correct
19,22,125,A,48.750295585433186,77.88280922509527,2.4375147792716594,1.2233803065124733,A,715.855799993733,Correct,3,7,big,small,False,Value,right,right,597.2951000003377,Correct
19,22,126,B,57.048253965001884,48.689786786929446,2.852412698250094,0.7648173823733545,A,946.2344000057783,Incorrect,7,8,big,small,False,Value,right,right,746.4752999949269,Correct
19,22,127,A,56.263052472249086,84.0835472969561,2.8131526236124547,1.320781272379436,A,1165.5586999986554,Correct,2,5,big,small,False,Value,right,right,423.44040000170935,Correct
19,22,128,A,46.36654374708944,68.40573843765704,2.318327187354472,1.0745148266956415,A,758.7634999945294,Correct,8,7,small,big,False,Value,left,left,850.3071000013733,Correct
19,22,129,A,34.752704646843426,46.410036011907636,1.7376352323421713,0.7290071409392338,A,672.7920999983326,Correct,3,5,big,small,False,Size,left,right,695.7951999938814,Incorrect
19,22,130,B,44.052231833673254,35.066743877833986,2.2026115916836626,0.5508271247595905,B,628.5049999860348,Correct,6,8,small,big,True,Value,right,right,659.7575999912806,Correct
19,22,131,A,48.46566530473546,58.7134759013923,2.423283265236773,0.922269122792677,A,1504.7609999892302,Correct,2,8,small,big,True,Size,right,right,183.37120000796858,Correct
19,22,132,A,32.503118755306424,64.74572500296757,1.625155937765321,1.0170234701033396,A,558.6104999965755,Correct,2,8,big,small,False,Value,right,right,813.6348999978509,Correct
19,22,133,B,65.29458219065513,35.119598577069596,3.264729109532757,0.5516573644337219,B,822.4403999920469,Correct,3,4,big,small,False,Size,left,left,452.47220000601374,Correct
19,22,134,A,35.04597060519197,62.006096884919124,1.7522985302595984,0.9739894922571943,A,641.7018000065582,Correct,4,6,big,small,False,Size,left,left,482.8276000043843,Correct
19,22,135,B,34.106952512043556,21.053767192258306,1.7053476256021778,0.3307118017079425,B,545.4047999955947,Correct,5,4,big,small,True,Size,left,left,25.38220000860747,Correct
19,22,136,A,57.79068269923323,74.4814724173102,2.8895341349616617,1.1699522328738627,A,745.5689000053098,Correct,4,3,small,big,False,Value,left,left,711.616700005834,Correct
19,22,137,A,36.85523176172677,62.90382314426368,1.8427615880863386,0.9880909433636519,A,501.73479999648407,Correct,7,3,small,big,False,Size,right,right,440.9448000078555,Correct
19,22,138,B,75.43306965361965,44.755823838336184,3.771653482680983,0.7030228368793795,A,1243.793999994523,Incorrect,6,4,small,big,False,Size,right,right,441.3923999964027,Correct
19,22,139,A,37.54671065422106,69.3231496131898,1.8773355327110528,1.0889254877425159,A,681.6287999972701,Correct,6,7,big,small,False,Value,right,right,856.288199996925,Correct
19,22,140,B,83.05878024056793,59.30992593438242,4.152939012028396,0.9316381380020529,B,1326.9339999969816,Correct,3,5,big,small,False,Size,left,left,699.0871000016341,Correct
19,22,141,A,65.52428033813914,81.76767800281527,3.2762140169069567,1.2844036825737006,A,1010.1005999895278,Correct,8,6,small,big,False,Size,right,right,541.1373999959324,Correct
19,22,142,B,53.00063096717092,21.13580899619961,2.6500315483585464,0.3320005113506888,B,605.2092000027187,Correct,3,8,big,small,False,Value,right,right,401.73979999963194,Correct
19,22,143,B,86.78305251251777,62.23570511755278,4.339152625625888,0.9775961699414225,A,1939.9647999962326,Incorrect,5,4,small,big,False,Size,right,left,788.6367000028258,Incorrect
19,22,144,A,23.667733476619677,42.44222484649424,1.1833866738309837,0.6666809088987625,A,716.3371999922674,Correct,6,2,big,small,True,Value,left,left,88.704299996607,Correct
19,22,145,A,54.65540522217242,72.62171803371422,2.732770261108621,1.14073927932893,A,626.1104000004707,Correct,7,2,small,big,False,Size,right,right,582.1823000005679,Correct
19,22,146,A,35.979059110435166,50.68021261579524,1.7989529555217585,0.7960829181807554,A,771.6226000047754,Correct,5,8,big,small,False,Size,left,right,647.846899999422,Incorrect
19,22,147,A,22.34464438067749,48.34045588535784,1.1172322190338746,0.7593301054031084,A,474.42370001226664,Correct,4,6,big,small,False,Value,right,right,971.2831000069855,Correct
19,22,148,A,41.961285564721365,53.21368301547709,2.0980642782360683,0.8358785781593939,A,669.9522999988403,Correct,3,6,big,small,False,Value,right,right,355.00260000117123,Correct
19,22,149,A,17.22544137866576,34.70401045789524,0.861272068933288,0.5451293215231351,A,540.8554000023287,Correct,3,4,big,small,False,Size,left,right,920.0700999936089,Incorrect
19,22,150,A,56.301200275839065,68.72789433124477,2.8150600137919533,1.0795752396386706,A,557.1506999986013,Correct,5,4,small,big,False,Value,left,left,776.9361000100616,Correct
19,22,151,B,61.16817553616016,53.61001935480894,3.058408776808008,0.842104214819372,A,900.1114999991842,Incorrect,7,2,small,big,False,Value,left,left,1121.3857000111602,Correct
19,22,152,B,68.29063742078782,40.522611118030994,3.4145318710393906,0.6365276869634112,B,584.7943999979179,Correct,4,7,big,small,False,Value,right,right,1065.433399999165,Correct
19,22,153,A,17.687582303430098,40.881264416261224,0.8843791151715049,0.6421613997979404,A,705.4445999965537,Correct,4,3,small,big,False,Size,right,right,1105.1799999986542,Correct
19,22,154,B,79.45393819752215,51.8795956754311,3.9726969098761074,0.8149227832257157,B,1456.9153000047663,Correct,7,4,small,big,False,Value,left,left,759.8063000041293,Correct
19,22,155,B,73.99438368553152,49.57447140475725,3.6997191842765758,0.7787139758539132,A,612.5651999900583,Incorrect,6,5,small,big,False,Value,left,left,956.6983999975491,Correct
19,22,156,B,38.91818322651022,27.05763411094044,1.945909161325511,0.4250203227322553,A,1258.7383999925805,Incorrect,2,4,big,small,False,Size,left,left,636.1100000067381,Correct
19,22,157,B,79.83042990513654,65.63659225787573,3.991521495256827,1.0310171802200554,B,1352.2933000058401,Correct,2,7,big,small,False,Value,right,right,478.5632999992231,Correct
19,22,158,A,51.60705203165518,78.24708156670803,2.5803526015827587,1.2291022830740561,A,1091.763800010085,Correct,6,7,big,small,False,Value,right,right,514.3412000034004,Correct
19,22,159,B,56.80336160286745,28.4499817732103,2.8401680801433726,0.446891268667405,B,1311.370600000373,Correct,2,7,big,small,False,Value,right,right,573.506599990651,Correct
19,22,160,A,19.993433097297423,32.72822512854053,0.9996716548648712,0.5140937581442789,A,753.1104999943636,Correct,8,3,small,big,False,Size,right,left,532.1789000008721,Incorrect
19,22,161,A,14.587734536423564,32.167837139229704,0.7293867268211782,0.5052912041923847,A,492.6138000009814,Correct,4,3,small,big,False,Value,left,left,537.4143000080949,Correct
19,22,162,A,49.793130157515705,69.4421995190497,2.489656507875785,1.0907955192908159,A,769.0784000005806,Correct,7,2,small,big,False,Value,left,left,918.8229999999749,Correct
19,22,163,A,42.78065924080852,68.94836440238261,2.139032962040426,1.083038375417786,A,824.984199993196,Correct,6,8,big,small,False,Size,left,right,704.774500001804,Incorrect
19,22,164,B,59.99753125643096,52.100741957266244,2.9998765628215485,0.8183965408976257,A,832.7679000067292,Incorrect,5,8,big,small,False,Size,left,left,518.4389999922132,Correct
19,22,165,B,45.42602796815922,33.10264153497309,2.271301398407961,0.5199750773034391,B,1140.224800008582,Correct,6,4,small,big,False,Size,right,right,914.6575000049779,Correct
19,22,166,B,42.54155215997351,27.808688441831872,2.1270776079986757,0.436817856574132,B,711.196000003838,Correct,7,6,small,big,False,Value,left,left,433.8432999938959,Correct
19,22,167,B,47.02686459513406,21.14973736288525,2.3513432297567025,0.3322192976229693,B,940.2954999968642,Correct,4,7,big,small,False,Size,left,left,1036.5442000038456,Correct
19,22,168,A,40.78982085097531,56.7742719356477,2.0394910425487653,0.8918081781296998,A,663.0566000094404,Correct,7,6,small,big,False,Value,left,left,713.1099999969592,Correct
19,22,169,B,37.003731516854444,15.31046043347099,1.850186575842722,0.2404961501043483,B,571.1655000050087,Correct,5,4,small,big,False,Size,right,right,1083.7129999999888,Correct
19,22,170,A,25.59285208268576,53.0895827764631,1.279642604134288,0.8339292161634183,A,778.3782999904361,Correct,4,7,big,small,False,Value,right,right,921.2915000098292,Correct
19,22,171,A,54.280004843130286,83.78315414895643,2.7140002421565144,1.3160627078447136,A,1335.192399987136,Correct,6,2,big,small,True,Value,left,left,61.02969999483321,Correct
19,22,172,B,44.61694393794428,19.78466899285369,2.230847196897214,0.3107768538082746,B,638.9651000063168,Correct,5,8,big,small,False,Size,left,right,653.3796000003349,Incorrect
19,22,173,A,38.024853865003536,67.9346258662388,1.9012426932501767,1.0671146077287348,A,670.41479999898,Correct,3,2,small,big,False,Value,left,right,362.70369999692775,Incorrect
19,22,174,B,38.007915119632386,23.487108217092487,1.9003957559816194,0.36893463314443115,B,663.9636999898357,Correct,3,2,small,big,False,Value,left,left,687.6222000137204,Correct
19,22,175,A,53.27175096453014,63.85243697748051,2.6635875482265075,1.00299173461129,A,780.3139000025112,Correct,8,2,big,small,True,Value,left,left,-14.79760000074748,Correct
19,22,176,A,50.92425128279335,76.86299228457234,2.5462125641396676,1.2073610594707072,A,1263.6006999964593,Correct,3,7,big,small,False,Value,right,right,473.0606999946758,Correct
19,22,177,B,71.85701832744228,54.34142767990334,3.592850916372114,0.8535931499238267,A,750.8140999998432,Incorrect,3,8,big,small,False,Size,left,left,1323.8178999890806,Correct
19,22,178,B,42.33127236505683,27.06391984818773,2.1165636182528416,0.42511905886204776,A,1553.2090999913635,Incorrect,3,5,small,big,True,Size,right,right,504.9468999932287,Correct
19,22,179,B,68.85689612082318,40.30118790611267,3.442844806041159,0.6330495792839269,B,712.1708000049694,Correct,6,8,big,small,False,Size,left,left,480.63430000911467,Correct
19,22,180,A,18.88279921950381,48.454989236903344,0.9441399609751905,0.7611291910821403,A,545.4739000124391,Correct,6,4,small,big,False,Size,right,left,743.9750999910757,Incorrect
19,22,181,A,30.036539752536164,52.108597532885625,1.5018269876268082,0.8185199359909034,A,578.0078000098001,Correct,5,3,small,big,False,Value,left,left,1144.596600002842,Correct
19,22,182,A,31.150725039077216,57.88606394559562,1.5575362519538607,0.909272166183561,A,1506.014899990987,Correct,5,7,big,small,False,Size,left,right,717.7668000076665,Incorrect
19,22,183,A,52.2922878255384,62.206207103746316,2.61461439127692,0.9771328162240732,A,551.3036999909673,Correct,2,5,big,small,False,Value,right,right,729.1775000048801,Correct
19,22,184,B,61.11318947970359,49.351637363527566,3.0556594739851795,0.7752137069194287,B,795.4118000052404,Correct,8,2,small,big,False,Value,left,left,988.2877000054577,Correct
19,22,185,B,63.77105230910353,53.025617742835834,3.188552615455176,0.8329244557647683,A,968.5190000018338,Incorrect,2,7,big,small,False,Value,right,right,530.3666000108933,Correct
19,22,186,B,41.24265802752478,18.19673387195753,2.062132901376239,0.2858336272573516,B,664.3058999907225,Correct,6,5,small,big,False,Size,right,right,1197.5348999985727,Correct
19,22,187,A,31.19728038603624,49.76710078248929,1.559864019301812,0.7817397910436561,A,707.5458000035724,Correct,6,7,big,small,False,Size,left,left,1642.5096000020858,Correct
19,22,188,B,75.27998338797002,47.78044880873585,3.7639991693985007,0.7505335348137385,B,1670.7767000043532,Correct,2,4,big,small,False,Size,left,left,493.6133000010159,Correct
19,22,189,A,25.141546056910784,46.38248954068843,1.257077302845539,0.7285744419811611,A,1722.932699994999,Correct,8,7,small,big,False,Size,right,right,549.6816999948351,Correct
19,22,190,A,31.45936894457605,53.53106126969574,1.5729684472288026,0.8408639441187062,A,502.43520000367425,Correct,3,4,big,small,False,Size,left,left,1014.3828000000212,Correct
19,22,191,B,51.581127700945686,41.58086197432505,2.5790563850472843,0.6531506525423538,B,1061.5662000054726,Correct,6,5,small,big,False,Size,right,right,1348.2347000099253,Correct
19,22,192,B,37.89818876090702,22.35795174531116,1.894909438045351,0.35119788476192315,B,1822.7028000110295,Correct,4,5,small,big,True,Value,right,right,722.3273000126937,Correct
19,22,193,A,23.381980407161723,54.29404136785753,1.1690990203580862,0.8528488074748076,A,492.91050000465475,Correct,5,7,big,small,False,Size,left,left,1264.0764000097988,Correct
19,22,194,B,74.74926169625276,59.48522302085782,3.737463084812638,0.934391698197387,B,1429.2967000073986,Correct,8,7,small,big,False,Size,right,right,1315.8412000047974,Correct
19,22,195,A,36.17959125800091,54.825263517613934,1.8089795629000458,0.8611932254903021,A,441.8435999978101,Correct,3,8,big,small,False,Size,left,left,540.9268999937922,Correct
19,22,196,A,18.67901918317689,46.511229175311186,0.9339509591588445,0.7305966794329445,A,538.637599995127,Correct,5,4,small,big,False,Size,right,right,1193.0229999998119,Correct
19,22,197,B,72.81781794596871,56.18266635388277,3.6408908972984357,0.8825152593822229,A,888.2709000026807,Incorrect,4,5,small,big,True,Size,right,right,2408.7724999990314,Correct
19,22,198,B,43.90822221833529,26.245883772946975,2.195411110916764,0.4122693782403089,B,617.7496999880532,Correct,6,7,big,small,False,Value,right,right,863.5948000010103,Correct
19,22,199,B,70.63353773824137,39.262822164854384,3.5316768869120687,0.6167389683615452,B,1215.8163999993121,Correct,4,6,big,small,False,Value,right,right,683.8562000048114,Correct
19,22,200,A,21.99728631254419,50.4558093808015,1.0998643156272094,0.7925580004082647,A,510.1935999991838,Correct,6,8,big,small,False,Value,right,right,557.5576999981422,Correct
19,22,201,A,35.5904471904409,55.132517635205424,1.7795223595220448,0.8660195618833554,A,860.7623999996576,Correct,8,4,small,big,False,Size,right,left,828.6672999965958,Incorrect
19,22,202,A,35.587662314902055,50.65719982575418,1.7793831157451026,0.7957214341200973,A,542.6841000007698,Correct,4,5,big,small,False,Size,left,left,670.0877999974182,Correct
19,22,203,A,19.63263865077353,32.236871618731456,0.9816319325386764,0.5063755952606203,A,571.8531000020448,Correct,8,4,small,big,False,Value,left,left,479.6980999963125,Correct
19,22,204,A,46.05748430068129,68.19457660648638,2.3028742150340644,1.0711979044080198,A,813.4966999932658,Correct,5,6,big,small,False,Value,right,right,854.804199989303,Correct
19,22,205,B,45.467850563030794,16.95242700864386,2.2733925281515397,0.2662881007543637,B,1674.0368000027956,Correct,8,6,big,small,True,Size,left,left,634.4922999996925,Correct
19,22,206,A,33.70106490596801,56.903800387472224,1.6850532452984004,0.8938428062931137,A,537.5191000057384,Correct,6,2,small,big,False,Size,right,right,341.0691000026418,Correct
19,22,207,B,44.03889362706603,35.13590520701102,2.201944681353302,0.551913508377866,B,861.0534000035841,Correct,7,8,big,small,False,Size,left,left,1028.6040999926627,Correct
19,22,208,B,36.01889600810774,19.459258195606708,1.8009448004053867,0.30566531295812505,B,611.5635000023758,Correct,8,5,small,big,False,Value,left,left,897.4689999886323,Correct
19,22,209,B,48.775958417594886,24.906033632536527,2.4387979208797446,0.39122306145018537,B,562.9417000018293,Correct,8,2,small,big,False,Size,right,right,1326.2037999957101,Correct
19,22,210,B,31.68697994547345,12.292146052548976,1.5843489972736726,0.1930845786777032,A,1325.3173000121024,Incorrect,2,7,big,small,False,Size,left,left,1934.8912999994354,Correct
19,22,211,B,82.78100818981035,61.71054984123361,4.139050409490517,0.9693470501510314,B,815.4144000000088,Correct,3,5,big,small,False,Value,right,right,1037.0121000014478,Correct
19,22,212,B,42.326891369973964,15.927592400512065,2.116344568498698,0.2501900363741066,B,689.5241000020178,Correct,5,8,big,small,False,Size,left,left,1452.8693999891402,Correct
19,22,213,B,53.63790871244039,23.24186615934693,2.6818954356220193,0.3650823799096077,B,648.4375,Correct,4,5,big,small,False,Size,left,left,830.8427999872947,Correct
19,22,214,A,19.02812390027264,38.134431429078724,0.951406195013632,0.5990142481320871,A,1152.067499991972,Correct,8,2,small,big,False,Value,left,left,848.2522000122117,Correct
19,22,215,B,75.36445185536296,61.26573651264034,3.768222592768148,0.9623599387243942,B,979.3325000064215,Correct,7,8,big,small,False,Value,right,right,306.0356000059983,Correct
19,22,216,B,58.298497182118034,28.912213424636825,2.9149248591059016,0.4541519864692962,B,1133.7866999965627,Correct,5,4,big,small,True,Size,left,left,418.35510000237264,Correct
19,22,217,A,14.95359307853952,35.45017835977915,0.7476796539269759,0.5568500995176502,A,583.594899988384,Correct,6,5,small,big,False,Value,left,left,613.1514000007883,Correct
19,22,218,B,47.60664542463956,21.951343735011882,2.380332271231978,0.3448109010716883,B,758.6528999963775,Correct,4,7,big,small,False,Value,right,right,362.09860000235494,Correct
19,22,219,B,55.49162321869179,27.883222736106152,2.7745811609345896,0.4379886385307949,B,813.8754999963567,Correct,4,5,big,small,False,Size,left,right,699.9609000049531,Incorrect
19,22,220,B,72.10572494271635,49.93946245975587,3.605286247135817,0.7844472419389614,A,1188.585800002329,Incorrect,5,3,big,small,True,Size,left,right,852.6267999986885,Incorrect
19,22,221,B,53.54512692489138,46.408267733707646,2.6772563462445693,0.7289793648902207,B,971.8933999974979,Correct,6,7,small,big,True,Size,right,right,1237.3987000028137,Correct
19,22,222,A,15.434267180483197,30.389988057709196,0.7717133590241599,0.4773648161239038,A,490.26819999562576,Correct,8,2,small,big,False,Value,left,left,873.7287000112701,Correct
19,22,223,A,38.199391069903484,55.167530008522284,1.9099695534951742,0.8665695349573403,A,891.6942999931052,Correct,8,7,small,big,False,Size,right,right,859.7235999914119,Correct
19,22,224,A,54.3835483457371,61.64593673111528,2.719177417286855,0.9683321097906646,A,1768.4159000054933,Correct,6,3,small,big,False,Size,right,right,1065.8018999965861,Correct
19,22,225,A,54.292469544845034,73.3069552198923,2.714623477242252,1.1515029598792481,A,657.2569999989355,Correct,8,2,small,big,False,Value,left,left,693.2062999985646,Correct
19,22,226,A,41.97105512449014,59.807051752450406,2.098552756224507,0.9394469720918138,A,726.2519000069005,Correct,7,6,small,big,False,Size,right,right,378.2391999993706,Correct
19,22,227,B,83.6320057202422,53.77322679340054,4.18160028601211,0.8446678712698249,B,552.3163999896497,Correct,2,3,big,small,False,Size,left,left,693.3658000052674,Correct
19,22,228,A,25.034230328380076,43.57612007532404,1.2517115164190038,0.6844920935029235,A,596.8798999965657,Correct,8,5,small,big,False,Size,right,right,391.75239999894984,Correct
19,22,229,B,68.26190470746072,39.897589369186775,3.4130952353730355,0.626709868290897,B,516.3241999980528,Correct,4,3,small,big,False,Size,right,right,1112.0377000042936,Correct
19,22,230,B,63.22073414193449,36.84305331012337,3.161036707096725,0.5787293280745035,B,687.9606000002241,Correct,3,4,small,big,True,Size,right,right,847.9442999960156,Correct
19,22,231,A,19.05137798008126,47.102405211730265,0.9525688990040629,0.7398828508979068,A,448.215500000515,Correct,3,2,small,big,False,Size,right,right,873.797199994442,Correct
19,22,232,B,85.79997325829713,59.133493447892434,4.289998662914857,0.9288667429849953,B,568.9037999982247,Correct,8,7,small,big,False,Size,right,right,524.4674999994459,Correct
19,22,233,A,39.082490368133755,69.14416777251031,1.9541245184066878,1.0861140475634925,A,484.9724999949103,Correct,8,2,small,big,False,Size,right,right,772.6344000111567,Correct
19,22,234,A,21.147395048141693,36.43033884212173,1.0573697524070846,0.5722464243709826,A,591.8756000028225,Correct,6,2,small,big,False,Size,right,right,949.3807999970159,Correct
19,22,235,B,62.99748644009956,36.10040291626681,3.149874322004978,0.5670638029668768,B,559.1349000023911,Correct,4,2,small,big,False,Value,left,left,708.2560999988345,Correct
19,22,236,A,40.60542075896017,56.01276096437595,2.0302710379480087,0.8798463917648232,B,817.7267999999458,Incorrect,8,2,small,big,False,Size,right,right,375.89690000459086,Correct
19,22,237,A,55.86026539882066,68.76025024769126,2.7930132699410333,1.080083485185713,A,549.8128000035649,Correct,8,5,small,big,False,Size,right,right,1471.6988000000129,Correct
19,22,238,B,60.920080884914924,29.013732112640227,3.046004044245746,0.455746638291464,B,795.3192999993917,Correct,2,3,big,small,False,Value,right,right,758.5440999973798,Correct
19,22,239,B,74.884317053445,45.81679307944828,3.7442158526722498,0.719688502747192,B,621.2666000064928,Correct,7,4,small,big,False,Value,left,left,1609.1706000006525,Correct
19,22,240,B,74.54985929576851,45.05564132204024,3.7274929647884254,0.7077323589004917,B,551.1609000095632,Correct,8,3,small,big,False,Size,right,right,2286.570900003426,Correct
19,22,241,A,19.0696209785875,49.788718415693765,0.953481048929375,0.7820793600319718,A,461.45719999913126,Correct,5,4,big,small,True,Size,left,left,880.029599997215,Correct
19,22,242,B,48.93546154412353,21.03496398120213,2.4467730772061764,0.3304164415593526,B,489.4602000131272,Correct,8,5,small,big,False,Size,right,right,1023.952300005476,Correct
19,22,243,B,41.62365540682821,33.19745994306725,2.0811827703414107,0.5214644813749075,B,1280.6077999994159,Correct,7,2,big,small,True,Size,left,left,76.84989999688696,Correct
19,22,244,B,63.758222892707266,39.716131074518884,3.1879111446353634,0.6238595280635891,B,501.74399999377783,Correct,4,3,small,big,False,Value,left,left,581.0746000061044,Correct
19,22,245,B,42.829966518194496,32.31566666415846,2.141498325909725,0.5076133049398839,B,591.4238000113983,Correct,7,4,small,big,False,Value,left,left,505.6696999963606,Correct
19,22,246,A,36.365789768419575,50.385409934608916,1.8182894884209788,0.7914521684933877,A,585.9210000053281,Correct,5,6,big,small,False,Size,left,right,1290.0762000062969,Incorrect
19,22,247,B,78.83048493321667,51.12157311385846,3.9415242466608333,0.803015792672256,B,578.6068000015803,Correct,4,3,small,big,False,Value,left,left,938.6429000005592,Correct
19,22,248,B,51.28276427069311,43.05039775255537,2.5641382135346555,0.6762340665677324,B,637.5788000004832,Correct,8,6,big,small,True,Size,left,right,2154.594799998449,Incorrect
19,22,249,A,47.32464673867139,63.71762166107911,2.3662323369335696,1.0008740605733,A,711.2114999908954,Correct,3,6,big,small,False,Size,left,left,750.3582000063034,Correct
19,22,250,B,66.23122563614753,41.01546479214623,3.3115612818073767,0.644269414372887,B,764.1525999933947,Correct,3,4,big,small,False,Size,left,left,963.1316000013612,Correct
19,22,251,A,30.280499911629718,57.754189213993776,1.5140249955814857,0.9072006827435886,A,659.330399997998,Correct,2,5,big,small,False,Value,right,right,585.4511000070488,Correct
19,22,252,A,58.95541954231459,80.4186675778862,2.9477709771157294,1.2632134763708347,A,685.2937000076054,Correct,4,8,big,small,False,Size,left,right,776.4947999967262,Incorrect
19,22,253,B,57.20896686973587,42.801676787853964,2.860448343486793,0.672327166790234,B,576.1001000064425,Correct,6,2,small,big,False,Value,left,left,950.7379999995464,Correct
19,22,254,B,57.632647272662666,34.2124808955079,2.881632363633133,0.5374083932120439,B,530.0549000094179,Correct,2,7,big,small,False,Value,right,right,731.6116000001784,Correct
19,22,255,B,59.73749248094932,49.79364964198711,2.986874624047466,0.7821568195534537,A,693.9580000034766,Incorrect,7,3,small,big,False,Size,right,right,628.126900002826,Correct
19,22,256,B,64.95451444484941,40.31198455401318,3.2477257222424702,0.6332191726325651,B,948.3210000034887,Correct,3,8,big,small,False,Size,left,left,397.94830000028014,Correct
19,22,257,A,59.93714530805663,77.13040938530308,2.9968572654028316,1.211561637466207,A,612.6231999951415,Correct,6,2,small,big,False,Value,left,right,768.5507999995025,Incorrect
19,22,258,B,31.25132183496054,16.327378344522447,1.5625660917480269,0.25646985929766397,B,475.27190000982955,Correct,8,7,small,big,False,Value,left,left,487.1380000113277,Correct
19,22,259,B,41.696895938934254,19.155864852702614,2.084844796946713,0.3008996214720473,B,520.8454000094207,Correct,2,5,big,small,False,Value,right,right,595.7626999879722,Correct
19,22,260,B,73.86815330966387,41.61095490051032,3.693407665483193,0.6536233511214972,B,1046.7719999869587,Correct,6,5,small,big,False,Size,right,right,783.6354999890318,Correct
19,22,261,B,66.81073335296821,40.24477764918128,3.3405366676484105,0.6321634890401131,B,570.4616000002716,Correct,4,8,big,small,False,Value,right,right,729.583399996045,Correct
19,22,262,A,58.54642343323465,77.48680449191656,2.9273211716617324,1.2171598787097682,A,765.7725000026403,Correct,8,4,small,big,False,Value,left,left,933.313100002124,Correct
19,22,263,B,60.70494601885832,51.06820330207033,3.035247300942916,0.8021774616290707,B,644.1804000060074,Correct,7,3,small,big,False,Size,right,right,916.7354000092018,Correct
19,22,264,A,47.57769840202872,73.41176353519454,2.378884920101436,1.153149285046191,A,750.1779000012903,Correct,7,2,small,big,False,Value,left,left,496.5457999933278,Correct
19,22,265,B,57.02738253612032,43.23344566630597,2.851369126806016,0.6791093764732016,B,467.01069999835454,Correct,2,7,small,big,True,Value,right,right,373.88639998971485,Correct
19,22,266,B,55.6957001506759,30.440484353794595,2.7847850075337948,0.4781580100879807,B,544.4556000002194,Correct,5,2,small,big,False,Value,left,left,435.54640001093503,Correct
19,22,267,B,48.62054484584229,29.238183049322238,2.4310272422921146,0.45927230536032176,B,533.0441999976756,Correct,7,5,small,big,False,Size,right,left,641.4055000059307,Incorrect
19,22,268,B,59.902902346407615,49.95581519983687,2.9951451173203805,0.7847041101794842,B,1231.1578999942867,Correct,2,4,small,big,True,Value,right,right,877.7577000000747,Correct
19,22,269,B,48.624771396417266,25.108504838573552,2.4312385698208634,0.39440347171743223,B,549.2931999906432,Correct,2,4,big,small,False,Value,right,right,763.3860999922035,Correct
19,22,270,B,83.96287773500501,62.63409608721619,4.19814388675025,0.9838540806591779,B,1191.8142999929842,Correct,4,6,big,small,False,Size,left,left,664.3186000001151,Correct
19,22,271,A,34.7393507591722,55.70988671186758,1.7369675379586098,0.8750888541316141,A,1397.3843999992823,Correct,5,2,small,big,False,Value,left,left,893.2270999939647,Correct
19,22,272,A,52.61650669858241,60.62020403005394,2.63082533492912,0.9522199381996592,A,799.7352000093088,Correct,2,4,big,small,False,Value,right,right,883.5569999937434,Correct
19,22,273,A,63.775212260623285,86.48672000280966,3.1887606130311643,1.3585302209695211,A,681.1232000036398,Correct,2,4,big,small,False,Size,left,left,1015.4393999982858,Correct
19,22,274,B,56.353659217633876,42.725709069652055,2.817682960881694,0.6711338686631685,B,429.67890000727493,Correct,7,4,small,big,False,Size,right,left,713.7343000067631,Incorrect
19,22,275,B,32.20404934504067,10.700485375206398,1.6102024672520339,0.16808283122296722,B,790.4999000020325,Correct,2,3,big,small,False,Value,right,right,994.5998000039253,Correct
19,22,276,A,45.522066801784774,76.41286553736951,2.2761033400892385,1.2002904850597238,A,765.206500000204,Correct,8,2,small,big,False,Value,left,left,422.700299997814,Correct
19,22,277,A,49.28214813312221,74.40130755622532,2.4641074066561104,1.1686930061805612,A,1280.9205999947153,Correct,8,3,big,small,True,Value,left,left,8.019600005354732,Correct
19,22,278,B,69.080145128427,37.55727758907914,3.4540072564213506,0.5899483368134182,B,424.38540000875946,Correct,5,4,small,big,False,Size,right,right,743.7265000044135,Correct
19,22,279,B,45.95247145604279,15.934461674368897,2.2976235728021392,0.2502979386755272,B,439.36829999438487,Correct,3,8,big,small,False,Size,left,left,536.989000000176,Correct
19,22,280,B,42.33089990186623,19.249717902637812,2.116544995093312,0.30237386173301434,B,428.046600005473,Correct,3,4,big,small,False,Value,right,right,415.6651000084821,Correct
19,22,281,A,31.017354460001755,62.926993317836704,1.5508677230000876,0.988454899599049,A,531.55610000249,Correct,6,7,big,small,False,Size,left,left,872.1616999973776,Correct
19,22,282,B,57.39387678034065,42.59021372637161,2.869693839017032,0.6690055127879411,B,453.4130000101868,Correct,8,2,small,big,False,Size,right,left,1182.3142000066582,Incorrect
19,22,283,A,59.99186208168639,77.19511161158701,2.99959310408432,1.2125779776600294,B,855.1644999970449,Incorrect,2,3,big,small,False,Size,left,right,1223.7159999931464,Incorrect
19,22,284,B,69.70419711806754,45.02374081660839,3.4852098559033773,0.7072312669329391,B,478.60500001115724,Correct,8,5,small,big,False,Size,right,right,1655.1647000014782,Correct
19,22,285,B,38.63350072127318,12.682884605255769,1.931675036063659,0.19922228551099302,B,467.2085999918636,Correct,2,8,big,small,False,Value,right,right,653.128599995398,Correct
19,22,286,B,85.27547067393519,63.04922917622429,4.263773533696759,0.9903749759726271,B,548.8853999995627,Correct,2,8,big,small,False,Size,left,left,1415.2694000076735,Correct
19,22,287,B,73.45508283918066,59.65790234992541,3.672754141959033,0.9371041387555146,B,491.75639999157283,Correct,2,3,big,small,False,Value,right,right,1526.2511000037193,Correct
19,22,288,B,39.39769117356653,14.307859471972701,1.9698845586783265,0.22474733102872288,B,482.5769000017317,Correct,4,3,small,big,False,Size,right,left,1062.1515000093495,Incorrect
19,22,289,A,45.953108488588356,63.495754907830076,2.2976554244294176,0.997388985762885,A,576.3298999954714,Correct,6,5,small,big,False,Size,right,right,1568.8998000114225,Correct
19,22,290,A,63.18370392882906,81.03384109294413,3.1591851964414532,1.27287659934878,A,459.36920000531245,Correct,7,4,big,small,True,Value,left,left,1166.6857999953208,Correct
19,22,291,B,61.498993825086295,50.38474125159253,3.0749496912543144,0.7914416648451285,B,527.6471999968635,Correct,6,5,small,big,False,Value,left,left,826.9141000055242,Correct
19,22,292,B,70.64856952192082,56.754952737254975,3.532428476096041,0.8915047128709808,A,711.5112000028603,Incorrect,2,7,big,small,False,Value,right,right,798.2035000022734,Correct
19,22,293,B,54.902394687712295,42.88125634396549,2.745119734385615,0.6735771995345134,B,542.3640000080923,Correct,8,5,small,big,False,Value,left,left,680.851299999631,Correct
19,22,294,A,28.37279853893576,61.0709960430726,1.4186399269467882,0.959300962581641,A,683.113900013268,Correct,2,7,big,small,False,Size,left,left,1268.8661000138381,Correct
19,22,295,B,74.32206054758669,60.01358742648868,3.7161030273793347,0.9426912268731281,A,517.2529999981634,Incorrect,3,2,big,small,True,Value,left,right,1026.4327000040794,Incorrect
19,22,296,A,12.474022592013402,38.264783279963765,0.62370112960067,0.6010618102176986,A,452.02189999690745,Correct,8,3,small,big,False,Value,left,right,1058.173400000669,Incorrect
19,22,297,B,64.9768846372894,46.66178516620564,3.24884423186447,0.7329616074076841,B,494.2709000024479,Correct,8,4,small,big,False,Size,right,left,925.6157000054372,Incorrect
19,22,298,A,33.41167670112122,64.41086851279043,1.6705838350560611,1.0117635566556027,A,700.1803000021027,Correct,4,2,small,big,False,Size,right,right,1358.7077999982284,Correct
19,22,299,B,33.617050185773735,18.01396610213835,1.6808525092886868,0.282962717842467,B,493.657400002121,Correct,7,8,big,small,False,Size,left,left,742.5494000053732,Correct
19,22,300,B,51.666917159494915,35.65233614471167,2.583345857974746,0.5600255865777001,B,480.2869999984978,Correct,8,2,small,big,False,Size,right,right,1310.6202999915695,Correct
19,22,301,A,61.631153525298785,80.07674630215868,3.0815576762649393,1.2578425895311767,B,1123.5926000081236,Incorrect,5,8,big,small,False,Size,left,left,601.5575000055833,Correct
19,22,302,B,50.15125866437671,27.071421338529476,2.5075629332188356,0.4252368919967908,B,449.16099999682046,Correct,2,6,small,big,True,Size,right,right,805.0691999960691,Correct
19,22,303,A,45.731456292986536,71.28580391147662,2.2865728146493267,1.1197547893676874,A,1033.8962000096217,Correct,5,3,small,big,False,Size,right,right,923.5217999957968,Correct
19,22,304,A,29.860153742026764,46.34017474945207,1.493007687101338,0.7279097627947291,B,458.47280000452884,Incorrect,8,6,small,big,False,Value,left,left,847.6489000022411,Correct
19,22,305,A,33.832494885643484,43.338687125333195,1.6916247442821741,0.6807625054458666,A,942.1744999999646,Correct,5,7,big,small,False,Size,left,left,808.1244000059087,Correct
19,22,306,A,57.04734115811507,81.29854383038867,2.8523670579057536,1.2770345402254841,A,1273.7512000021525,Correct,2,6,small,big,True,Size,right,right,140.3003000013996,Correct
19,22,307,B,50.98907898444635,32.4663318670273,2.5494539492223174,0.5099799484123058,B,499.0865999861853,Correct,2,3,big,small,False,Value,right,right,708.6806000006618,Correct
19,22,308,B,79.82458106774706,62.76886715946758,3.9912290533873533,0.985971059711685,B,588.8124000048265,Correct,5,2,small,big,False,Value,left,left,414.79480000270996,Correct
19,22,309,B,61.07923595551323,44.708229887592154,3.0539617977756617,0.7022752328493157,B,471.43160000268836,Correct,2,7,big,small,False,Value,right,right,875.7231999916257,Correct
19,22,310,B,55.508470818538356,26.309759785132016,2.7754235409269175,0.41327274029341454,B,535.124200003338,Correct,3,7,small,big,True,Value,right,right,1144.5798000058858,Correct
19,22,311,A,18.574784247776915,41.13923491183775,0.9287392123888458,0.646213590866671,A,609.0091000078246,Correct,6,5,small,big,False,Size,right,left,905.903999999282,Incorrect
19,22,312,B,37.69451837537912,22.306564924190578,1.884725918768956,0.3503907024633044,B,432.6016000122763,Correct,2,3,big,small,False,Value,right,right,1302.0345999975689,Correct
19,22,313,B,68.30405187861113,36.82724308825207,3.4152025939305566,0.5784809816900909,B,419.4537000003038,Correct,4,7,big,small,False,Value,right,right,938.8944999955129,Correct
19,22,314,A,40.24127548309026,64.50880653862349,2.012063774154513,1.013301963567924,A,556.6358999931253,Correct,7,3,big,small,True,Value,left,left,972.1767000010004,Correct
19,22,315,A,44.053942943233054,51.8891751894425,2.2026971471616523,0.8150732578799315,B,541.3400000106776,Incorrect,7,6,small,big,False,Value,left,left,728.3749000052921,Correct
19,22,316,B,76.14174461254322,46.57264003979193,3.807087230627161,0.7315613190364607,B,611.9780000008177,Correct,7,3,small,big,False,Size,right,right,1702.5934999983292,Correct
19,22,317,A,58.77401776109907,74.24110255964987,2.9387008880549534,1.1661765119790122,A,640.5138999980409,Correct,8,4,small,big,False,Value,left,left,711.3562000013189,Correct
19,22,318,A,12.471908774494953,35.70369018300384,0.6235954387247475,0.5608322539248545,A,659.9045999901136,Correct,2,8,big,small,False,Size,left,left,1371.3612999999896,Correct
19,22,319,B,38.005476165652595,25.10989607158531,1.9002738082826298,0.3944253251544782,B,557.2056000091834,Correct,3,8,small,big,True,Size,right,right,2829.1781000007177,Correct
19,22,320,A,18.690699356859366,36.32051617637411,0.9345349678429683,0.5705213339714307,A,581.5274000051431,Correct,8,3,big,small,True,Size,left,left,2693.3622999931686,Correct
19,22,321,A,25.06362794099355,42.896923503330626,1.2531813970496772,0.6738232986983341,A,571.2291000090772,Correct,4,8,big,small,False,Size,left,left,350.2831999940099,Correct
19,22,322,B,37.20632711664959,24.652569126966128,1.8603163558324796,0.38724165030695656,B,459.70439999655355,Correct,3,2,big,small,True,Size,left,left,750.305000008666,Correct
19,22,323,B,58.954399937931115,28.13149682025055,2.9477199968965557,0.44188851872491874,B,577.4786000110907,Correct,5,7,small,big,True,Size,right,right,859.5230999926571,Correct
