subject,day,trial,cat,x,y,xt,yt,resp,rt,fb,resp_key
19,24,0,A,53.44427787613499,71.0689826,2.6722138938067497,1.1163489681939427,A,1599.5312999584712,Correct,k
19,24,1,B,34.47091305250913,15.897073043633515,1.7235456526254567,0.2497106394372969,B,654.1501000174321,Correct,d
19,24,2,A,60.66356024849394,84.3922348,3.0331780124246968,1.3256301243607387,A,666.2514000199735,Correct,k
19,24,3,B,83.10294427347104,63.26055394084649,4.155147213673552,0.9936944576129209,B,1456.9820000324398,Correct,d
19,24,4,B,42.608646565080775,28.48266624236743,2.130432328254039,0.4474046751083576,B,2183.2390999770723,Correct,d
19,24,5,B,40.41991918106852,16.216369761836845,2.020995959053426,0.2547261405584114,B,2087.273599987384,Correct,d
19,24,6,B,64.74967762948931,39.04144188586089,3.237483881474466,0.6132615350708671,B,1470.4454999882728,Correct,d
19,24,7,B,68.27411045627734,52.534966916354854,3.413705522813867,0.8252173306050162,B,940.5901,Correct,d
19,24,8,A,17.28330766973194,36.06293145,0.864165383,0.5664752025424153,A,612.7797999652103,Correct,k
19,24,9,A,40.06366373877737,52.30846720872645,2.0031831869388683,0.8216594815173879,A,903.5300000105053,Correct,k
19,24,10,B,56.370780637435814,28.34862963123298,2.818539031871791,0.44529923294409723,B,791.4234999916516,Correct,d
19,24,11,B,49.81496726195381,31.461262486787955,2.4907483630976905,0.4941923555057659,B,782.5554000446573,Correct,d
19,24,12,A,63.594870477065385,83.82254911892201,3.1797435238532694,1.316681522585875,A,807.3078999877907,Correct,k
19,24,13,B,49.561320168874985,39.470002500235815,2.4780660084437494,0.6199933494595581,B,881.9474999909289,Correct,d
19,24,14,A,32.472725347394864,51.10355288111482,1.623636267369743,0.8027327315182392,A,1121.2017000070773,Correct,k
19,24,15,B,38.02458536971969,15.032134618910877,1.9012292684859844,0.23612421843271608,B,788.3302,Correct,d
19,24,16,B,70.74396192678039,56.393144465669984,3.5371980963390195,0.8858214418308837,B,2063.701900013257,Correct,d
19,24,17,A,42.47737475099958,71.32786268,2.123868737549979,1.120415446880921,A,544.7019999846816,Correct,k
19,24,18,B,54.94593020777352,38.253651973111985,2.7472965103886757,0.6008869600585466,A,762.2906000469811,Incorrect,k
19,24,19,A,42.08664719411183,64.64426285967046,2.104332359705592,1.015429706483341,A,1519.9709999724291,Correct,k
19,24,20,B,36.55188225043509,13.211603685514653,1.8275941125217545,0.20752738540276333,B,2855.0113000092097,Correct,d
19,24,21,B,50.16750430288249,19.069942331297895,2.5083752151441248,0.2995499536619324,B,2884.224199980963,Correct,d
19,24,22,B,40.94058874685779,15.452732196718607,2.0470294373428897,0.2427309497355082,B,870.2071000006981,Correct,d
19,24,23,B,52.519711602516985,22.83850071778164,2.625985580125849,0.35874633,B,701.3485000352375,Correct,d
19,24,24,A,49.63999977797653,65.54186813988102,2.4819999888988264,1.0295292572540056,A,3203.5906999954022,Correct,k
19,24,25,B,52.96140993,23.26064458669278,2.648070497,0.36537735075658617,B,1024.7581000439823,Correct,d
19,24,26,A,67.89906109,85.13197451170178,3.394953054542885,1.3372499285577792,A,972.8328000055626,Correct,k
19,24,27,A,47.67936964002187,79.21166060464304,2.383968482001093,1.2442538551709732,A,864.7458,Correct,k
19,24,28,B,58.52747769759732,43.615941582442176,2.9263738848798657,0.6851176082740096,B,1046.7520999955013,Correct,d
19,24,29,B,65.46097352829598,36.22372761187569,3.273048676414799,0.5690009827555321,B,731.6558999591507,Correct,d
19,24,30,A,28.459079967992537,48.80279524,1.4229539983996267,0.7665925150007655,A,1098.0295999906957,Correct,k
19,24,31,B,64.99247425900082,47.27646235927662,3.2496237129500405,0.7426169341780892,B,755.1527000032365,Correct,d
19,24,32,A,47.395897395776345,68.47170356648157,2.369794869788817,1.0755510045161825,A,545.8694999688305,Correct,k
19,24,33,B,70.45518130671034,38.61568900699117,3.522759065335517,0.606573824,B,738.2307,Correct,d
19,24,34,B,56.50724333476178,47.34065498199354,2.825362166738089,0.7436252695377997,A,1452.3873000289313,Incorrect,k
19,24,35,B,70.56891735077774,38.44508647,3.5284458675388866,0.6038940061274751,B,723.4342999872752,Correct,d
19,24,36,B,82.19250902027404,68.16123740461175,4.109625451013702,1.0706742134495904,A,761.8205999606289,Incorrect,k
19,24,37,B,73.40978438317133,63.217561897338115,3.6704892191585663,0.9930191401726772,B,553.1614000210539,Correct,d
19,24,38,A,23.717791293324293,35.98654002801837,1.1858895646662146,0.5652752489006877,A,589.6752999979071,Correct,k
19,24,39,A,50.242746840131176,78.75503344326305,2.512137342006559,1.2370811724928683,B,752.6378000038676,Incorrect,d
19,24,40,A,42.252018271258486,74.76257328568954,2.1126009135629245,1.174367754988954,A,566.7607000214048,Correct,k
19,24,41,A,50.485534737748324,73.48581088515832,2.524276736887416,1.154312418099511,A,994.2770000197925,Correct,k
19,24,42,A,43.78865484111798,62.758334861411086,2.189432742055899,0.9858056187606863,A,1467.1743999933824,Correct,k
19,24,43,B,63.31486581808982,35.292119521842324,3.165743290904491,0.5543673170971638,B,986.6581999813206,Correct,d
19,24,44,B,45.50872555622188,20.858574959181198,2.275436277811094,0.32764572928057834,B,1297.0196999958716,Correct,d
19,24,45,B,80.41649212328618,58.049132743373924,4.020824606164308,0.9118336448692113,B,1844.3600999889895,Correct,d
19,24,46,B,51.611792388049764,33.343562157288375,2.580589619402488,0.52375945,B,855.8578999945894,Correct,d
19,24,47,A,51.849328608240356,60.62127673457578,2.5924664304120175,0.9522367882028857,A,1576.3322999700904,Correct,k
19,24,48,A,51.33508442863344,67.29749891298943,2.5667542214316716,1.0571066409500733,A,991.8996000196785,Correct,k
19,24,49,A,26.042890312323713,50.824621169185164,1.3021445156161857,0.798351282,A,1358.5523000219837,Correct,k
19,24,50,B,63.71592347161957,52.90034174557593,3.1857961735809783,0.830956625,B,3834.8904000013135,Correct,d
19,24,51,B,78.49045124191957,61.302245726190634,3.9245225620959787,0.962933424,A,1267.815100029111,Incorrect,k
19,24,52,B,47.2935769,17.98510464840118,2.364678845099685,0.28250936318730396,B,1563.425800006371,Correct,d
19,24,53,A,55.43020231347244,84.81194351524866,2.7715101156736224,1.3322228934208884,A,1283.9574999525212,Correct,k
19,24,54,B,39.02800163,28.11043897924528,1.951400081,0.4415577429319057,B,619.0692000091076,Correct,d
19,24,55,B,33.795137489485356,12.81185427779366,1.6897568744742677,0.20124813638989764,B,1211.4794999943115,Correct,d
19,24,56,B,43.28675180552181,20.408831706541264,2.1643375902760904,0.3205811787881024,B,1191.2273000343703,Correct,d
19,24,57,B,61.36365455444886,54.00305355,3.068182727722443,0.848277981,A,1350.2752999775112,Incorrect,k
19,24,58,B,50.30383418393704,32.00431000005756,2.515191709196852,0.5027225258969559,B,700.9249000111595,Correct,d
19,24,59,B,60.302160297358824,29.465237199606044,3.0151080148679408,0.4628388636128152,B,926.5071999980137,Correct,d
19,24,60,B,70.08296464,37.21745734705265,3.5041482322310697,0.5846104529339604,B,711.8723999592476,Correct,d
19,24,61,A,67.02635567416019,78.99384376518324,3.3513177837080095,1.2408323962575978,A,1261.7561999941245,Correct,k
19,24,62,B,35.217705942063375,12.928890822652384,1.760885297103169,0.20308654213754612,B,1228.8023000000976,Correct,d
19,24,63,A,28.816862549263185,54.13465175502622,1.4408431274631592,0.8503451212911609,A,1199.3966000154614,Correct,k
19,24,64,B,53.50175288091418,26.075554191931815,2.675087644045709,0.4095938474382776,A,1011.4127999986522,Incorrect,k
19,24,65,B,61.74006646314832,50.598166911890445,3.087003323157416,0.7947941472775258,B,757.1055000298657,Correct,d
19,24,66,A,34.13944284015992,47.18984893875698,1.706972142007996,0.7412564137500551,B,759.4611000386067,Incorrect,d
19,24,67,A,19.720130366123445,38.12028292909831,0.9860065183061723,0.5987920040140983,B,1380.1792999729514,Incorrect,d
19,24,68,B,53.51092489480671,21.521769169814085,2.6755462447403358,0.33806315958071614,A,604.5338999829255,Incorrect,k
19,24,69,B,70.65813343010267,50.61459773013298,3.5329066715051334,0.7950522419669419,B,1069.9991000001319,Correct,d
19,24,70,A,34.89354182319264,60.269949650697306,1.744677091159632,0.9467181552742869,A,1476.3839000370353,Correct,k
19,24,71,A,40.34294860910894,52.09864354481266,2.017147430455447,0.8183635791118837,A,1497.9355999967083,Correct,k
19,24,72,A,57.37336483310596,82.52649137204995,2.868668241655298,1.2963230951048677,A,1658.3476000232622,Correct,k
19,24,73,A,53.55615461417209,79.96915287754584,2.6778077307086043,1.2561525159694855,A,1208.5822999943048,Correct,k
19,24,74,A,25.484450648223074,55.17876505250128,1.2742225324111538,0.8667460146154762,B,553.9217000477947,Incorrect,d
19,24,75,B,81.8423952,65.73019408,4.0921197598463745,1.0324874742183359,B,1321.8554999912158,Correct,d
19,24,76,A,27.882826546223825,55.09190951076238,1.3941413273111913,0.8653816909562236,A,962.7114000031725,Correct,k
19,24,77,B,33.43819623694855,13.550618657345915,1.6719098118474276,0.21285262012757353,B,1453.6592999938875,Correct,d
19,24,78,B,49.85940189528923,20.159752681325564,2.4929700947644617,0.31666865460919763,B,778.7129000062123,Correct,d
19,24,79,B,77.22863196456547,63.74032442395327,3.861431598228273,1.0012306747386084,A,1871.197500033304,Incorrect,k
19,24,80,A,46.17447276572737,69.79908456809663,2.3087236382863687,1.0964014565321254,B,555.7945999898948,Incorrect,d
19,24,81,A,57.83811725909636,73.11137712636305,2.891905862954818,1.1484308263700749,A,901.1099000344984,Correct,k
19,24,82,A,67.18328317502035,79.67907975,3.3591641587510175,1.2515960579314407,A,624.1652999888174,Correct,k
19,24,83,A,28.07712210477351,41.56135139010325,1.4038561052386753,0.6528441810020615,A,1378.8933999603614,Correct,k
19,24,84,B,59.50227307259937,48.67455051379069,2.9751136536299687,0.7645780515545507,A,1321.9796000048518,Incorrect,k
19,24,85,B,88.33531263450037,66.99976116,4.416765631725019,1.0524297872488768,B,684.1161000193097,Correct,d
19,24,86,A,23.73389301737501,50.532182429491606,1.1866946508687506,0.7937576654517501,A,1739.3492000410333,Correct,k
19,24,87,A,17.560194385355413,42.80391284684478,0.8780097192677707,0.6723622907227267,A,960.9639000263996,Correct,k
19,24,88,B,45.29332250888943,22.709671583242717,2.2646661254444718,0.356722687,A,1438.3587000193074,Incorrect,k
19,24,89,A,20.407255820798248,48.636805710743914,1.0203627910399122,0.7639851575747357,A,2986.1648000078276,Correct,k
19,24,90,B,82.28761236661141,64.49636300946828,4.1143806183305704,1.013106501,A,1359.286900027655,Incorrect,k
19,24,91,B,86.94130620639906,60.39425410385076,4.3470653103199535,0.948670725,B,979.5291000045836,Correct,d
19,24,92,B,44.15608243,29.367117976982264,2.207804121513565,0.46129761046796114,A,2036.2023999914527,Incorrect,k
19,24,93,A,68.85301430980542,86.98708864318175,3.442650715490271,1.3663899931929195,A,1745.8317000418901,Correct,k
19,24,94,A,60.780650175534134,78.62767014928886,3.0390325087767063,1.2350805545494368,A,1086.0388000146486,Correct,k
19,24,95,B,70.13003458697057,46.88479752695525,3.5065017293485283,0.7364646773786377,B,918.8213,Correct,d
19,24,96,A,29.53970931130309,60.77614278,1.4769854655651544,0.9546694183390023,A,1220.063199987635,Correct,k
19,24,97,B,53.54177976768707,34.97563714163265,2.6770889883843534,0.5493960234938773,B,997.2178000025451,Correct,d
19,24,98,A,59.644769618037614,74.42685735783623,2.9822384809018807,1.1690943415257686,B,957.3167000198737,Incorrect,d
19,24,99,B,78.51886914230813,56.99626607263514,3.9259434571154066,0.8952952538791986,A,687.6779000158422,Incorrect,k
19,24,100,A,19.77413134051018,43.197853732822395,0.9887065670255091,0.6785502996894063,A,986.7278999881819,Correct,k
19,24,101,A,19.32889451731668,35.968667500385536,0.9664447258658341,0.5649945078931258,A,789.5759000093676,Correct,k
19,24,102,B,71.56522288,44.62959227355842,3.5782611437598053,0.7010399960965947,A,621.4330999646336,Incorrect,k
19,24,103,A,38.73330824969219,46.45597781683895,1.9366654124846097,0.7297287931235582,A,1531.7719000158831,Correct,k
19,24,104,A,38.31794524805797,62.146711496637074,1.9158972624028985,0.9761982614129969,A,741.0250999964774,Correct,k
19,24,105,A,46.65598229318208,62.57376034934922,2.332799114659104,0.982906329,A,678.5108000040054,Correct,k
19,24,106,A,22.44314646903423,40.90597651,1.1221573234517115,0.6425495764251863,A,690.0178999640048,Correct,k
19,24,107,B,44.40284847,33.458553784248224,2.220142423,0.5255657338416659,A,626.8344,Incorrect,k
19,24,108,B,38.808858527601984,24.566709430816235,1.9404429263800993,0.38589296935363687,B,597.3346,Correct,d
19,24,109,A,60.14089468387504,79.36854898,3.0070447341937516,1.2467182519910731,A,947.9318999801762,Correct,k
19,24,110,A,54.82405693162744,74.99629577925597,2.7412028465813716,1.1780390593327887,A,844.8216000106186,Correct,k
19,24,111,A,48.32172900618584,62.87116446435613,2.416086450309292,0.9875779420192844,B,1410.376299987547,Incorrect,d
19,24,112,A,31.12528969828765,62.26006534750428,1.5562644849143825,0.9779788195386996,A,792.0644999830984,Correct,k
19,24,113,B,71.17229231748387,45.02834134670883,3.5586146158741934,0.7073035318907699,B,888.9164999709465,Correct,d
19,24,114,A,63.32810463068576,77.57598251526775,3.166405231534288,1.2185606838248773,A,1268.5084999538958,Correct,k
19,24,115,A,15.21475927440757,33.5002148,0.7607379637203785,0.5262201435876614,B,3057.893499964848,Incorrect,d
19,24,116,A,61.330166107909136,73.14324947348592,3.0665083053954567,1.1489314760279443,A,1056.597100046929,Correct,k
19,24,117,A,47.63210543317479,58.49217537050512,2.3816052716587395,0.9187929421823237,A,808.8310000021011,Correct,k
19,24,118,B,89.14103143,64.28582359954684,4.457051571390536,1.0097993557515286,B,1075.2632999792695,Correct,d
19,24,119,B,34.57643056424925,23.352812779107037,1.7288215282124626,0.3668251253375025,B,1908.533600042574,Correct,d
19,24,120,B,69.42149737452195,46.51476655783032,3.4710748687260975,0.7306522445076198,A,1857.555599999614,Incorrect,k
19,24,121,A,19.583584621494392,47.693703479600735,0.9791792310747196,0.749170942,A,859.2247000196949,Correct,k
19,24,122,A,44.835344492960054,76.99975214891582,2.2417672246480027,1.2095092783963441,B,1231.3726999564096,Incorrect,d
19,24,123,B,80.91736202111946,52.66084016593359,4.045868101055973,0.8271945429858165,A,924.1558000212535,Incorrect,k
19,24,124,A,30.952517160454516,55.16770711118551,1.5476258580227258,0.8665723168794689,A,1305.4035999812186,Correct,k
19,24,125,B,57.575147361065234,44.91168661028077,2.8787573680532614,0.7054711235759257,B,1214.9896000046283,Correct,d
19,24,126,A,44.50257974,73.70246245828871,2.225128987,1.1577155730521866,A,1121.469400008209,Correct,k
19,24,127,B,83.84894878935509,57.248651405334314,4.192447439467754,0.8992597134146063,B,889.9292000569403,Correct,d
19,24,128,A,31.550780094728104,56.77218646409734,1.5775390047364053,0.8917754196191905,A,1474.884099967312,Correct,k
19,24,129,A,36.17363648650981,63.41795261067528,1.8086818243254903,0.9961668701370154,B,797.725,Incorrect,d
19,24,130,B,58.80027484507371,43.87659099897017,2.940013742253685,0.6892118797346436,A,489.35519997030497,Incorrect,k
19,24,131,B,58.400550451247305,35.30163989776276,2.9200275225623655,0.5545168628124192,B,1596.4122000150383,Correct,d
19,24,132,B,49.41022806233507,39.25600125713613,2.470511403116754,0.6166318257936526,A,1291.933299973607,Incorrect,k
19,24,133,A,55.11604999,70.79145498390133,2.755802499676625,1.111989574571785,A,2142.387200030498,Correct,k
19,24,134,A,41.51894271822398,67.60636538,2.075947135911199,1.0619583040723184,A,2476.667200040538,Correct,k
19,24,135,B,77.32632264139349,57.375945319617315,3.8663161320696746,0.9012592415443971,B,863.4503000066616,Correct,d
19,24,136,B,58.61537474231448,49.790132859479094,2.9307687371157236,0.7821015780629965,B,1277.6112999999896,Correct,d
19,24,137,B,77.00735707,47.59158024370884,3.8503678537087453,0.7475667943318242,B,862.6073999912478,Correct,d
19,24,138,B,67.64603386837209,55.851472570680485,3.3823016934186048,0.8773128796011083,A,793.3105999836698,Incorrect,k
19,24,139,B,31.728720726333943,18.430372215058274,1.5864360363166972,0.28950360976876255,B,1091.4682999718934,Correct,d
19,24,140,B,67.10347814222526,58.150817640975276,3.3551739071112627,0.9134309075056384,A,1336.278900038451,Incorrect,k
19,24,141,B,72.94034633406667,61.13113110352229,3.647017316703334,0.9602455619023006,B,1224.8072000220418,Correct,d
19,24,142,A,41.123553281081925,62.330684010145745,2.056177664054096,0.9790880948975033,A,1350.323099992238,Correct,k
19,24,143,B,40.852309819711095,16.139172911582552,2.0426154909855545,0.2535135352702157,B,1564.3927999772131,Correct,d
19,24,144,B,59.98096155970388,32.93264353,2.999048077985194,0.5173047548795034,B,1110.3977999882773,Correct,d
19,24,145,B,36.32518116006395,11.581097669617773,1.8162590580031974,0.1819154567968853,B,878.2849999843165,Correct,d
19,24,146,A,54.49309332901739,70.68107333835205,2.7246546664508697,1.110255703738041,A,1226.790799992159,Correct,k
19,24,147,B,32.769575742109836,17.39973987597455,1.638478787105492,0.27331447484367516,B,652.6225000270642,Correct,d
19,24,148,B,65.68226078179872,45.621590360986914,3.2841130390899362,0.7166222656157969,B,741.5179000236094,Correct,d
19,24,149,B,56.313342316150546,41.26296970121201,2.815667115807527,0.6481572123931293,B,1148.2383999973536,Correct,d
19,24,150,B,72.74608424257036,44.95557033370768,3.637304212128518,0.7061604474915764,A,941.4782000239938,Incorrect,k
19,24,151,B,63.87088397348991,34.43288648319713,3.1935441986744957,0.540870516,B,708.3939000149257,Correct,d
19,24,152,A,62.77564518763985,85.84865407933357,3.1387822593819923,1.3485075048810289,A,1490.9647000022233,Correct,k
19,24,153,A,28.14354362060631,51.23592106858463,1.4071771810303153,0.804811966,A,649.9288000050001,Correct,k
19,24,154,A,46.63051844225709,64.30477476846778,2.3315259221128546,1.0100970400168234,B,937.1335999458097,Incorrect,d
19,24,155,B,61.892748828194705,51.780230808172355,3.094637441409735,0.8133619635406907,B,813.1532999686897,Correct,d
19,24,156,B,63.09935087788558,48.84502682398333,3.154967543894279,0.7672558871731122,B,1351.0517999529839,Correct,d
19,24,157,B,74.48463402067902,59.08942675998693,3.7242317010339514,0.9281745450700353,A,1511.0699000069872,Incorrect,k
19,24,158,B,42.63372345742813,19.86471628777055,2.1316861728714063,0.31203423377652734,B,987.2747000190429,Correct,d
19,24,159,B,73.17391643433425,48.573659964923095,3.6586958217167127,0.7629932665188551,A,702.0815000287257,Incorrect,k
19,24,160,A,50.88364959,66.30009501068531,2.54418248,1.0414394570893712,B,565.9902000334114,Incorrect,d
19,24,161,A,38.02285715889039,49.88957352323044,1.9011428579445195,0.783663588,A,1268.944300012663,Correct,k
19,24,162,A,30.173817818756326,61.09406829,1.5086908909378165,0.9596633805742018,A,790.4839,Correct,k
19,24,163,B,69.46900903446348,59.68254522,3.4734504517231746,0.9374912280039628,B,892.7182999905199,Correct,d
19,24,164,A,58.42791303459973,80.37696159576532,2.921395651729987,1.262558360335626,A,1216.017600032501,Correct,k
19,24,165,B,80.66437181,53.461714336056794,4.0332185903151005,0.8397746450323608,B,764.0767000266351,Correct,d
19,24,166,B,74.15858860713834,43.47137295300285,3.707929430356917,0.6828467295530789,B,1301.9177000387572,Correct,d
19,24,167,A,51.82513772556035,82.24292215606646,2.5912568862780176,1.2918688002762782,A,1091.3878999999724,Correct,k
19,24,168,B,51.87291408500994,24.576005972009817,2.593645704250497,0.3860389990812246,B,1603.3284000004642,Correct,d
19,24,169,B,36.681679094201016,26.684506320465808,1.8340839547100507,0.41915924510522895,B,894.3076000432484,Correct,d
19,24,170,A,27.924843657366296,52.47827976327926,1.3962421828683147,0.8243268908867402,A,1107.564400008414,Correct,k
19,24,171,A,60.24798683488764,75.41054152905873,3.012399341744382,1.1845460163545947,B,900.6112000206485,Incorrect,d
19,24,172,A,11.111687557099557,30.99364341981535,0.5555843778549778,0.48684701237836764,A,984.7145999665372,Correct,k
19,24,173,A,41.62562722613406,58.56365712351835,2.0812813613067025,0.919915775,B,509.10180003847927,Incorrect,d
19,24,174,A,50.04485711613846,80.78479641058281,2.502242855806923,1.2689646146261704,A,1112.4311999883503,Correct,k
19,24,175,B,81.44069831372354,58.55232879747183,4.072034915686177,0.9197378300035579,A,836.0876000369899,Incorrect,k
19,24,176,A,25.01492958396466,39.12608167897876,1.250746479198233,0.6145910538321694,A,1086.442600004375,Correct,k
19,24,177,B,76.66567546222298,60.947747131525766,3.8332837731111487,0.9573649732062487,B,677.3226999794133,Correct,d
19,24,178,B,80.38022484680884,66.79762899219952,4.019011242340443,1.049254702595553,B,1273.5625999630429,Correct,d
19,24,179,A,63.774871798481115,83.13192532980686,3.188743589924056,1.3058332294744825,A,2067.2329000080936,Correct,k
19,24,180,A,39.39218178201734,68.32917570340928,1.9696090891008668,1.073312182078384,A,815.7783999922685,Correct,k
19,24,181,A,38.05398725,48.39033161941971,1.902699362495345,0.7601135516017142,A,712.2139999992214,Correct,k
19,24,182,A,51.28253139417037,65.10803267597677,2.5641265697085185,1.0227145857226643,B,1089.9095000349917,Incorrect,d
19,24,183,A,59.131786005235455,74.66964192,2.9565893002617725,1.1729079925273318,A,989.7266000043601,Correct,k
19,24,184,A,10.605669815965914,33.85072341,0.5302834907982956,0.5317259198957608,A,619.9022000073455,Correct,k
19,24,185,A,17.648745703435726,37.183667147391645,0.8824372851717862,0.5840796777188686,A,734.1309000039473,Correct,k
19,24,186,B,42.03261184114352,29.950274674496214,2.1016305920571763,0.47045781445196866,A,794.8449999676086,Incorrect,k
19,24,187,B,79.15599217366048,55.53467268447981,3.957799608683024,0.8723365986253776,B,749.4109999970533,Correct,d
19,24,188,B,53.957448015314704,34.6556197,2.6978724007657355,0.5443692012713706,B,2578.6962999845855,Correct,d
19,24,189,A,69.87891076420424,86.44577154024623,3.493945538210212,1.3578870040236959,A,721.7228999943472,Correct,k
19,24,190,A,46.555533704418494,55.03649166642979,2.327776685220925,0.8645111894930584,A,687.9092000308447,Correct,k
19,24,191,A,42.58452661586848,57.785758548812545,2.129226330793424,0.9076965726953155,B,748.6606999882497,Incorrect,d
19,24,192,B,78.81173526105181,62.42166009725656,3.9405867630525906,0.9805171439321018,A,662.3447,Incorrect,k
19,24,193,B,49.95114382561437,19.62066435472765,2.4975571912807184,0.3082006749768176,B,643.0293999728747,Correct,d
19,24,194,B,38.066461245148005,25.14216307044193,1.9033230622574002,0.39493217398728486,A,619.6718999999575,Incorrect,k
19,24,195,A,29.19206270359723,44.60095214498927,1.4596031351798615,0.700590118,A,709.0992000303231,Correct,k
19,24,196,B,57.58365240144145,36.93699449567809,2.8791826200720725,0.5802049527665446,B,837.0080000022426,Correct,d
19,24,197,B,53.56208236,31.934269632815028,2.678104118,0.5016223343810366,B,828.1480000005104,Correct,d
19,24,198,B,80.78768848665752,58.37604343330797,4.0393844243328765,0.9169687459785951,A,1443.6422999715433,Incorrect,k
19,24,199,B,52.969418097854884,22.74019658212143,2.6484709048927444,0.3572021726179021,B,1302.313599968329,Correct,d
19,24,200,B,58.86725689155479,51.524615847590326,2.943362845,0.809346773,B,1021.0122999851592,Correct,d
19,24,201,A,50.18230393423285,66.1795179,2.509115196711642,1.0395454362383225,A,669.4730999879539,Correct,k
19,24,202,A,57.14927738330048,86.00174046771153,2.857463869165024,1.3509121802464927,A,703.1882000155747,Correct,k
19,24,203,B,58.573348646563865,44.29682380793438,2.928667432328193,0.6958128812618405,B,1048.2318000285886,Correct,d
19,24,204,B,43.410634483793466,28.931492887050503,2.1705317241896736,0.4544548275567161,B,561.7491000448354,Correct,d
19,24,205,B,63.856191386325186,35.75270144565255,3.1928095693162595,0.5616021210382561,B,1040.733400033787,Correct,d
19,24,206,B,55.77655179071648,35.68330217858306,2.788827589535824,0.5605119999003061,B,993.9188,Correct,d
19,24,207,B,67.81408497597572,52.817495734825485,3.390704248798786,0.829655283,B,538.9155999873765,Correct,d
19,24,208,B,75.63793949455857,58.052977445970754,3.7818969747279283,0.9118940373163784,B,584.3306999886408,Correct,d
19,24,209,A,40.36328119,48.85422414839745,2.01816406,0.7674003584071726,B,1010.5904000229202,Incorrect,d
19,24,210,B,47.406062236658094,39.22930768549461,2.370303111832905,0.6162125241508174,A,1177.3578000138514,Incorrect,k
19,24,211,B,78.27033977312077,65.91604642,3.9135169886560384,1.0354068359069213,A,777.9902999754995,Incorrect,k
19,24,212,A,15.804204593993681,37.03222612027388,0.7902102296996841,0.5817008476276424,B,654.5036999741569,Incorrect,d
19,24,213,B,85.79581285895607,57.08035123116235,4.289790642947803,0.8966160604607236,A,611.2527999794111,Incorrect,k
19,24,214,B,47.274791747817815,22.717175446125992,2.3637395873908904,0.3568405574592992,B,1311.5887999883853,Correct,d
19,24,215,A,66.76491275,87.97513005581007,3.3382456376197003,1.3819101114096977,A,870.1537000015378,Correct,k
19,24,216,A,16.536221965937212,43.93431943546372,0.8268110982968606,0.6901186758946004,A,2801.191699982155,Correct,k
19,24,217,A,41.942613439053154,55.64619837045345,2.097130671952658,0.8740884400040843,B,1423.5481999930926,Incorrect,d
19,24,218,B,36.05141742803494,20.67619688370984,1.802570871401747,0.32478094117019507,A,2092.2120999894105,Incorrect,k
19,24,219,A,27.719521327432943,49.22792118020985,1.3859760663716472,0.7732703776562232,A,856.1920000356622,Correct,k
19,24,220,B,78.34652073680762,62.675919712477054,3.917326036840381,0.9845110446285081,A,1540.6199999852106,Incorrect,k
19,24,221,A,38.40280359479703,62.15096838305135,1.9201401797398514,0.976265128,A,1794.9138999683782,Correct,k
19,24,222,B,86.91370083179122,62.019357776959964,4.345685041589561,0.9741977938622721,B,1096.108500030823,Correct,d
19,24,223,A,33.280595892655455,50.63055813900844,1.664029794632773,0.7953029474832991,A,1000.495599990245,Correct,k
19,24,224,A,63.22330059296752,79.64771920791848,3.1611650296483758,1.251103447693897,B,1945.8201000234112,Incorrect,d
19,24,225,A,67.37035530239524,81.82080945223612,3.368517765119762,1.2852382694295768,A,594.0599999739788,Correct,k
19,24,226,A,63.67642508481687,89.00372069607627,3.1838212542408435,1.3980671754047551,A,1887.136899982579,Correct,k
19,24,227,B,50.754428488549976,34.292558909307765,2.537721424427499,0.5386662557113824,B,976.0621999739669,Correct,d
19,24,228,B,61.68187857602999,51.559245746955554,3.0840939288014995,0.8098907383163317,A,704.8785999650136,Incorrect,k
19,24,229,B,45.24812086660722,36.65743299825112,2.262406043330361,0.5758136110338289,B,660.8958999859169,Correct,d
19,24,230,A,23.52684770599753,40.03398700539941,1.1763423852998764,0.6288523973503601,A,602.9977999860421,Correct,k
19,24,231,B,45.389144125628405,30.84005025208948,2.2694572062814204,0.4844343765415218,B,1382.3384999996051,Correct,d
19,24,232,A,48.011457403584636,71.94117241127158,2.4005728701792317,1.1300492936894375,B,879.3473999830894,Incorrect,d
19,24,233,B,55.16050280522908,36.26063402682594,2.758025140261454,0.5695807073659224,B,764.0389999723993,Correct,d
19,24,234,B,45.61040857711116,35.530480064944065,2.2805204288555583,0.5581114757527343,A,596.2698999792337,Incorrect,k
19,24,235,B,41.478273780575165,16.64036816566917,2.073913689028758,0.2613862919114786,A,527.1665000473149,Incorrect,k
19,24,236,A,47.64707861112862,58.245788218130386,2.382353930556431,0.9149227018431266,A,786.9670000509359,Correct,k
19,24,237,A,23.253235635948066,48.39966440552403,1.1626617817974034,0.7602601506630285,B,751.3597,Incorrect,d
19,24,238,A,66.32960480534854,87.74737544690277,3.3164802402674267,1.3783325503788757,B,681.5839000046253,Incorrect,d
19,24,239,A,38.09215331966694,48.009082774670865,1.904607665983347,0.7541249087524513,A,1495.3633999684826,Correct,k
19,24,240,B,64.87973687556457,51.50010499159059,3.2439868437782287,0.808961758,B,898.4104000264779,Correct,d
19,24,241,B,40.26716561606587,15.03753955,2.0133582808032937,0.23620911885610102,B,1062.7481000265107,Correct,d
19,24,242,A,53.27615276567536,66.97405984168542,2.6638076382837683,1.0520260718986105,A,1995.3121999860741,Correct,k
19,24,243,A,51.85487073125424,58.706303945061585,2.5927435365627116,0.9221564659660749,B,1136.281599989161,Incorrect,d
19,24,244,B,67.54206703817289,54.01704037552732,3.3771033519086444,0.8484976860620992,A,767.4862000276335,Incorrect,k
19,24,245,B,69.83066325488926,46.87519212915094,3.491533162744463,0.7363137961427534,B,1155.1097999908961,Correct,d
19,24,246,B,45.29200355671227,22.789804536776785,2.2646001778356135,0.3579814125474264,B,1379.0874000405893,Correct,d
19,24,247,A,12.25416966368893,34.708776725966146,0.6127084831844465,0.5452041898869182,A,802.8865000233054,Correct,k
19,24,248,B,33.01676209185402,14.718931063266737,1.650838104592701,0.2312044284852669,B,1434.6896999632008,Correct,d
19,24,249,A,56.692322192233675,75.08249080065131,2.8346161096116838,1.1793930075627468,A,1241.9513000058942,Correct,k
19,24,250,B,74.25580684228008,64.06261358876381,3.7127903421140043,1.006293181,B,543.8701999955811,Correct,d
19,24,251,B,38.63554903373517,29.826124976211638,1.9317774516867585,0.46850767555158757,B,682.8488999744877,Correct,d
19,24,252,A,14.883142646657586,33.233802923620104,0.7441571323328793,0.5220353555784796,B,476.5964,Incorrect,d
19,24,253,B,59.72372474221574,51.398063760345494,2.9861862371107866,0.8073588975912059,B,602.0488999783993,Correct,d
19,24,254,B,73.52656788150705,51.506138298810335,3.6763283940753526,0.809056528,B,575.3764000255615,Correct,d
19,24,255,A,53.62697472950684,70.20352197473011,2.6813487364753423,1.1027543444597085,A,843.0787000106648,Correct,k
19,24,256,B,61.407929648300566,49.14802801980368,3.0703964824150285,0.7720154188272027,B,746.8705,Correct,d
19,24,257,B,66.29499489797442,46.60640485926294,3.3147497448987213,0.7320916955804604,A,880.5257999920286,Incorrect,k
19,24,258,A,37.789158330193395,52.695417516443676,1.8894579165096699,0.8277376827375319,B,727.905,Incorrect,d
19,24,259,B,87.86227784563944,65.95664157290022,4.3931138922819715,1.0360445031043926,B,936.8074999656528,Correct,d
19,24,260,B,83.80674969622143,62.07644714,4.190337484811072,0.9750945515036414,B,595.9075000137091,Correct,d
19,24,261,A,39.545695753171685,51.54064988,1.9772847876585842,0.8095986350695539,B,767.5734999938868,Incorrect,d
19,24,262,B,67.18002442753911,54.859059511679305,3.3590012213769556,0.8617240917236848,A,756.9589000195265,Incorrect,k
19,24,263,A,49.309614032798535,76.49912565241634,2.465480701639927,1.2016454557783682,A,1350.3322000033222,Correct,k
19,24,264,A,21.46339618432464,50.22059066,1.073169809216232,0.7888631933524923,A,905.5070000467822,Correct,k
19,24,265,B,66.88008787126975,39.81228609,3.344004393563488,0.6253699275695457,B,1073.8896999973804,Correct,d
19,24,266,B,60.840229315142764,50.08422195022873,3.042011465757138,0.7867211186979961,B,875.6865000468679,Correct,d
19,24,267,B,42.65995631437115,19.816422234011668,2.1329978157185576,0.31127563255402246,B,1271.229800011497,Correct,d
19,24,268,A,20.654315906275777,40.23401974,1.0327157953137887,0.6319945042613029,B,920.8773000282235,Incorrect,d
19,24,269,A,65.18364175952925,79.55005729991103,3.259182087976462,1.2495693780302377,B,833.1499000196345,Incorrect,d
19,24,270,A,24.252989791077116,55.84192171760391,1.2126494895538558,0.8771628551518039,A,2620.2396999578923,Correct,k
19,24,271,B,74.74824261499236,44.33409333589257,3.737412130749618,0.6963983096380214,A,615.3064999962226,Incorrect,k
19,24,272,A,29.111799165927422,61.49811328147901,1.4555899582963712,0.9660101044736367,A,840.6818000366911,Correct,k
19,24,273,B,50.504096985421555,22.96786099644292,2.5252048492710775,0.3607783168754831,B,516.4332000422291,Correct,d
19,24,274,B,39.860589859752274,21.89750970934289,1.9930294929876138,0.3439652781739139,A,759.9839000031352,Incorrect,k
19,24,275,B,85.35633503257353,68.88298232511035,4.267816751628676,1.0820113561496112,A,1469.4214999908581,Incorrect,k
19,25,276,A,56.390843909934226,78.70804444944388,2.819542195496711,1.236343071103959,B,724.2690999992192,Incorrect,d
19,25,277,A,63.93808953400161,74.10668988153172,3.1969044767000803,1.1640651625683855,A,570.4976000124589,Correct,k
19,25,278,B,71.30887847998316,56.697438833941476,3.565443923999158,0.8906012865903359,B,752.5180000229739,Correct,d
19,25,279,B,46.384350026974616,16.47484523076997,2.319217501348731,0.2587862637300789,B,761.9316999916919,Correct,d
19,25,280,A,46.73477417438469,71.26735678,2.3367387087192344,1.119465022430864,B,793.643,Incorrect,d
19,25,281,A,60.42503514610671,68.83144697306503,3.0212517573053357,1.0812018407326824,A,530.4771999944933,Correct,k
19,25,282,B,54.21777210064549,34.841196074549984,2.7108886050322747,0.5472842281504389,B,1123.491600039415,Correct,d
19,25,283,B,70.24857461205396,59.22057446116383,3.5124287306026982,0.930234608,A,1346.6303999884985,Incorrect,k
19,25,284,B,53.27291398,36.50648181653016,2.6636456988877804,0.5734424754161026,B,802.5079999933951,Correct,d
19,25,285,B,32.15411337956637,17.482613278605537,1.6077056689783182,0.27461624720809263,B,1155.2866999991238,Correct,d
19,25,286,B,45.28152572397102,25.667515383073173,2.264076286198551,0.40318438881682844,B,1067.611099977512,Correct,d
19,25,287,A,42.15978016606675,72.60946891248388,2.1079890083033375,1.140546870582579,B,934.2096999753267,Incorrect,d
19,25,289,A,53.376796450131714,78.48766980770714,2.6688398225065857,1.2328814343263705,A,1956.8284999695607,Correct,k
19,25,290,A,53.856367867297045,82.74434193,2.692818393364852,1.2997450837095457,B,778.1079999986105,Incorrect,d
19,25,291,A,55.242505535156866,82.15964309285573,2.762125276757843,1.2905606558103748,A,954.3714000028558,Correct,k
19,25,292,A,27.315193989512174,41.874300795306596,1.3657596994756087,0.6577599787637222,B,838.9081000350416,Incorrect,d
19,25,293,B,41.16882508064886,13.227568300363831,2.058441254032443,0.20777815698640117,B,661.2063000211492,Correct,d
19,25,294,B,34.508886330721964,19.03403776619413,1.7254443165360982,0.29898596607213074,B,1127.169799990952,Correct,d
19,25,295,A,51.494666100002114,67.75246064862202,2.5747333050001053,1.0642531631817125,A,980.0436000223272,Correct,k
19,25,296,B,39.71079006546555,26.322881624075656,1.9855395032732774,0.4134788576575492,B,1250.8137000259012,Correct,d
19,25,297,B,47.447460331082596,21.629804287684646,2.3723730165541297,0.3397601712438755,B,1128.5713999532163,Correct,d
19,25,298,A,31.237808342671954,51.441652583522014,1.5618904171335977,0.8080435892245558,A,1198.0967999552377,Correct,k
19,25,299,B,40.02352928742095,12.720475796493986,2.0011764643710475,0.1998127665621614,B,1121.2720000185072,Correct,d
19,25,300,A,38.42753899177914,46.65125956287454,1.9213769495889568,0.7327962716171863,B,1019.8492000345141,Incorrect,d