subject,day,trial,cat,x,y,xt,yt,resp,rt,fb
19,10,0,B,75.36735413660632,44.14289624098519,3.768367706830316,0.6933949926942777,B,518.3409999590367,Correct
19,10,1,B,34.857833309966296,13.110765235275853,1.7428916654983146,0.20594341873041538,B,516.0980999935418,Correct
19,10,2,A,60.06941384997984,73.76597598297447,3.0034706924989916,1.1587132411649685,A,563.8023000210524,Correct
19,10,3,B,58.41799644683436,26.087869459030266,2.9208998223417177,0.40978729520149515,B,493.67800005711615,Correct
19,10,4,A,43.19742770638867,52.88243379686486,2.1598713853194336,0.830675327600896,A,605.1270999014378,Correct
19,10,5,B,40.27815202999891,25.063304616147775,2.0139076014999455,0.393693468283865,B,437.8180999774486,Correct
19,10,6,B,35.73574551079754,15.266592866002195,1.786787275539877,0.2398070799658942,B,464.22520000487566,Correct
19,10,7,A,22.694629988020278,43.56997676024535,1.134731499401014,0.6843955945353241,A,501.4595000538975,Correct
19,10,8,A,62.27412535864608,78.58618842965694,3.1137062679323044,1.2344289612211672,A,937.4040000839159,Correct
19,10,9,B,84.25972385985641,59.25191184286483,4.212986192992821,0.930726854783471,A,2202.979600057006,Incorrect
19,10,10,B,84.71570081832523,65.12073776430513,4.235785040916261,1.0229141567834419,B,1212.072900030762,Correct
19,10,11,A,34.85116796358908,65.66917507982312,1.742558398179454,1.0315289899903712,A,1175.5720999790356,Correct
19,10,12,B,63.63194876166851,49.488299138026065,3.1815974380834255,0.7773603850533839,B,1010.11379994452,Correct
19,10,13,B,42.484256153875855,34.349403000087435,2.1242128076937927,0.5395591606013495,B,945.6150999758393,Correct
19,10,14,A,24.05831150921018,50.11490846252691,1.2029155754605092,0.7872031413059974,A,1007.7537000179291,Correct
19,10,15,B,54.19490036632973,30.95046098807292,2.709745018316487,0.4861687043267368,B,652.902300003916,Correct
19,10,16,B,84.58779447435663,66.79302195387623,4.229389723717832,1.0491823354067966,A,468.065399909392,Incorrect
19,10,17,A,52.01801612766846,61.806466052425115,2.6009008063834234,0.9708536984732283,A,1471.7718000756577,Correct
19,10,18,B,46.978975541612584,21.00965864162919,2.348948777080629,0.3300189462148579,B,519.67340009287,Correct
19,10,19,B,61.72325905721775,43.06141299273703,3.0861629528608874,0.6764070935558936,B,1075.3707999829203,Correct
19,10,20,A,45.118399103760005,76.77456173301177,2.2559199551880003,1.205971995615029,A,479.18910009320825,Correct
19,10,21,B,80.99049665511279,65.83679009346871,4.0495248327556395,1.0341618804678727,A,728.5186999943107,Incorrect
19,10,22,B,42.272575535869805,29.588834623002654,2.1136287767934903,0.46478032739954234,B,584.1974000213668,Correct
19,10,23,A,63.415975253374434,73.53705491479761,3.170798762668722,1.1551173574347868,A,963.8604000210762,Correct
19,10,24,A,57.10987080625558,82.83922866107704,2.855493540312779,1.3012355609534234,A,936.493800021708,Correct
19,10,25,A,65.35335697741672,87.19699067868103,3.2676678488708366,1.36968712665641,A,798.0543000157923,Correct
19,10,26,B,71.82308239015256,54.44729063420045,3.5911541195076278,0.8552560413213625,A,920.5813000444323,Incorrect
19,10,27,A,38.59173376314547,66.6337428392386,1.9295866881572734,1.0466803849247173,A,1672.7307999972254,Correct
19,10,28,A,48.178622482886844,65.14851621840062,2.4089311241443423,1.0233504997200145,B,1876.582600059919,Incorrect
19,10,29,A,38.893793580055004,65.69118281040898,1.9446896790027501,1.0318746866140247,B,537.566400016658,Incorrect
19,10,30,A,45.69358148596607,61.338648365659274,2.2846790742983036,0.9635052354334137,B,584.9438000004739,Incorrect
19,10,31,B,45.708677632391726,36.64289186187862,2.2854338816195865,0.5755851993978153,B,595.1921000378206,Correct
19,10,32,B,53.42811820143122,39.61427116268579,2.6714059100715613,0.6222595163100383,B,1042.3588000703603,Correct
19,10,33,A,40.69245146576394,66.32277441131502,2.034622573288197,1.0417957042814021,A,723.7619999796152,Correct
19,10,34,B,46.299040562347564,35.68471518877512,2.314952028117378,0.5605341954125,B,497.4889999721199,Correct
19,10,35,A,18.341159430330475,42.5283699625368,0.9170579715165238,0.6680340732172722,A,430.1333000184968,Correct
19,10,36,B,59.13825494925415,26.22612630473185,2.9569127474627073,0.411959028655318,B,334.5862999558449,Correct
19,10,37,A,30.38260471682181,39.52456337033461,1.5191302358410905,0.6208503896029373,B,479.4421000406146,Incorrect
19,10,38,B,80.06971237367748,63.5727118939606,4.003485618683873,0.9985978232742354,A,521.7988000949845,Incorrect
19,10,39,B,34.652193374826275,21.894938329674474,1.732609668741314,0.34392488703653457,B,445.08350000251085,Correct
19,10,40,B,66.35753515554856,55.58590682991216,3.3178767577774284,0.8731413826998937,B,582.6200000010431,Correct
19,10,41,B,59.972565101236704,49.88687650948926,2.9986282550618353,0.7836212237637634,A,1494.4448999594897,Incorrect
19,10,42,A,50.97843696260416,64.34048841587855,2.548921848130208,1.0106580286785163,B,995.0838999357074,Incorrect
19,10,43,B,76.8426402869184,57.111482977470764,3.8421320143459194,0.8971050767882035,B,630.6199999526143,Correct
19,10,44,B,47.6607300093838,40.298356544150195,2.38303650046919,0.6330051043542221,A,912.416800041683,Incorrect
19,10,45,A,31.720658596601968,44.836796758639196,1.5860329298300986,0.7042947565371978,B,497.3452999256551,Incorrect
19,10,46,B,49.0782741699672,33.81328047049904,2.45391370849836,0.531137767599455,B,583.3037999691442,Correct
19,10,47,B,42.61179613953535,25.12021141518445,2.1305898069767677,0.39458735819282964,B,452.1813999162987,Correct
19,10,48,B,41.98264790586968,16.036536766541204,2.099132395293484,0.2519013304739423,B,451.65199995972216,Correct
19,10,49,A,44.64591948513342,74.2310722682206,2.232295974256671,1.1660189565296741,B,1272.077800007537,Incorrect
19,10,50,A,15.35524775729878,43.53551086583887,0.7677623878649391,0.68385420553199,A,428.3493999391794,Correct
19,10,51,A,56.048045022909946,69.65481516324124,2.802402251145497,1.094135278019968,A,771.2032999843359,Correct
19,10,52,A,44.80809559214237,71.41617340187105,2.2404047796071187,1.121802628534064,A,800.2044999739155,Correct
19,10,53,A,57.387200604268685,75.52047126614687,2.8693600302134343,1.1862727886268303,A,768.9995000837371,Correct
19,10,54,A,43.87894184569811,53.63619373535478,2.1939470922849056,0.8425153610275474,A,887.3434000415727,Correct
19,10,55,B,61.40962628823783,29.5407635169531,3.0704813144118916,0.4640252282314662,B,570.692399982363,Correct
19,10,56,B,50.217310381932535,34.593995007134424,2.5108655190966265,0.5434012028636774,B,857.3016000445932,Correct
19,10,57,B,56.71320794826186,48.901278514899346,2.835660397413093,0.7681394866677809,B,454.518000013195,Correct
19,10,58,A,13.437350303370675,32.065512151977146,0.6718675151685338,0.5036838870512282,A,492.1418000012636,Correct
19,10,59,B,56.75952224218796,47.53322711301363,2.837976112109398,0.7466501854982939,B,441.331300069578,Correct
19,10,60,B,61.743544614106725,52.37495333230191,3.0871772307053362,0.8227038431043395,B,435.79769995994866,Correct
19,10,61,A,51.332646271931516,77.67944600467541,2.5666323135965756,1.2201858845160665,A,776.7426000209525,Correct
19,10,62,B,69.71015006657755,40.25132883327024,3.485507503328878,0.632266394799144,B,406.0029999818653,Correct
19,10,63,A,59.701521493261325,84.27975096399305,2.9850760746630662,1.3238632323742894,A,525.4934999393299,Correct
19,10,64,B,78.88599843888467,54.323386846383144,3.9442999219442334,0.8533097651735684,B,614.8660000180826,Correct
19,10,65,A,11.570185353099202,37.93387490164646,0.5785092676549601,0.5958639135660337,A,415.26430007070303,Correct
19,10,66,B,81.88643339875509,65.83597764326348,4.094321669937755,1.0341491185298919,A,616.2840999895707,Incorrect
19,10,67,B,76.01843308585407,62.568727666163454,3.800921654292704,0.9828272759023977,B,359.31189998518676,Correct
19,10,68,B,67.1022209979276,57.72985657827549,3.35511104989638,0.9068184665955132,B,475.3824000945315,Correct
19,10,69,B,70.10246340452534,40.53058783592892,3.505123170226267,0.6366529849551505,B,1649.8798000393435,Correct
19,10,70,B,57.85324942249078,40.53595500181496,2.8926624711245386,0.6367372921997415,B,719.3862999556586,Correct
19,10,71,A,49.555795449348864,63.098979287651886,2.4777897724674434,0.9911564488955084,B,458.6073000682518,Incorrect
19,10,72,A,36.763674173994495,52.4593132198283,1.8381837086997248,0.8240289651188927,B,460.9149000607431,Incorrect
19,10,73,A,42.57009371646131,75.0716598090261,2.1285046858230654,1.1792228747441427,A,629.9857000121847,Correct
19,10,74,B,60.61817035220721,45.86475048385293,3.0309085176103605,0.7204418158940065,B,404.0409999433905,Correct
19,10,75,A,52.56231612051319,61.43052934161986,2.6281158060256593,0.964948498428826,B,396.3388999691233,Incorrect
19,10,76,B,73.29894284270058,42.7768302744324,3.664947142135029,0.6719368786700715,B,517.8814000682905,Correct
19,10,77,A,49.64152966209605,60.06774022901698,2.4820764831048026,0.9435418571060991,A,552.015999914147,Correct
19,10,78,B,31.879514468554987,17.264811024878973,1.5939757234277494,0.27119501740687924,B,589.3412999575958,Correct
19,10,79,B,50.430545274949836,27.9145568502506,2.521527263747492,0.43848083364480955,B,356.41210002359,Correct
19,10,80,A,49.15247303901529,66.90287124943659,2.4576236519507644,1.0509078441064688,B,530.1417000591755,Incorrect
19,10,81,A,16.796931795831675,42.372318232361124,0.8398465897915838,0.6655828183717727,A,648.133400012739,Correct
19,10,82,A,38.0743640760067,68.74370530895467,1.903718203800335,1.0798235978957684,A,719.8711999226362,Correct
19,10,83,A,56.39859756532687,75.66746100769073,2.819929878266344,1.1885816980877666,B,1848.7872999394313,Incorrect
19,10,84,A,57.88884755850903,78.40504938305546,2.8944423779254516,1.23158363573076,B,1060.1812999229878,Incorrect
19,10,85,B,56.25431097051289,33.32684516026599,2.8127155485256448,0.5234968596140809,B,574.8100000200793,Correct
19,10,86,B,68.1562640745777,48.35269401365017,3.4078132037288857,0.7595223414727929,B,395.23270004428923,Correct
19,10,87,A,27.093972455203296,43.9017969262048,1.3546986227601647,0.6896078135137798,B,428.03579999599606,Incorrect
19,10,88,A,16.455300628743117,33.75006643840805,0.8227650314371558,0.5301448039053508,A,422.4541001021862,Correct
19,10,89,B,34.68433720253572,13.394114611431569,1.734216860126786,0.2103942603230656,B,440.07420004345477,Correct
19,10,90,A,55.45420779549089,73.70183893070171,2.7727103897745446,1.1577057787037537,A,592.9219999816269,Correct
19,10,91,B,80.61321804711417,53.21207737315221,4.0306609023557085,0.8358533567887332,B,1621.9253999879584,Correct
19,10,92,B,62.62431622333978,42.64704955756577,3.131215811166989,0.6698982879366423,B,900.8538000052795,Correct
19,10,93,B,69.53519276894819,53.419933946525944,3.47675963844741,0.8391183602082897,B,601.1678000213578,Correct
19,10,94,B,57.55436256763526,34.36261762157107,2.8777181283817628,0.5397667353902141,B,757.2231000522152,Correct
19,10,95,A,58.212864224493075,81.48966848650116,2.9106432112246536,1.2800367193032987,B,1216.7659000260755,Incorrect
19,10,96,A,32.28128371889244,48.74009330590707,1.6140641859446219,0.7656075953255934,A,774.7443999396637,Correct
19,10,97,B,36.83850187295643,21.42813687405342,1.8419250936478215,0.33659238691821386,B,658.4068000083789,Correct
19,10,98,B,65.98362768068783,52.47223729832849,3.2991813840343918,0.8242319760692456,B,514.3590000225231,Correct
19,10,99,B,49.39747646720799,18.422794551315196,2.469873823360399,0.28938458010502943,B,411.46430000662804,Correct
19,10,100,B,85.98407814191896,61.75675518059951,4.299203907095948,0.9700728419245741,B,468.21950003504753,Correct
19,10,101,A,35.05926267003187,54.70310735806453,1.7529631335015936,0.8592744010231462,B,869.3892000010237,Incorrect
19,10,102,B,79.9079740239422,58.61696786874285,3.99539870119711,0.9207531781607573,B,497.5143000483513,Correct
19,10,103,B,54.9759907814931,24.074474170324656,2.748799539074655,0.3781609559626458,B,888.5375000536442,Correct
19,10,104,B,73.02795417943594,41.80681648754618,3.651397708971797,0.6566999377362587,B,576.7698000418022,Correct
19,10,105,B,65.58198852601429,56.145320684296436,3.2790994263007143,0.8819286349761438,B,1262.9861000459641,Correct
19,10,106,A,63.89788539761619,81.83519416119549,3.1948942698808094,1.2854642239095304,A,1315.7093999907374,Correct
19,10,107,A,49.444707452053564,66.44413881913395,2.472235372602678,1.0437020919414581,A,1170.6322999671102,Correct
19,10,108,B,52.0879923165587,29.920684823435778,2.604399615827935,0.4699930181584073,B,993.48030006513,Correct
19,10,109,A,24.951303738917133,35.53562055889694,1.2475651869458566,0.5581922224429251,B,466.2198999430984,Incorrect
19,10,110,B,65.93017923950768,54.470344338604114,3.2965089619753836,0.8556181680633252,B,602.9389000032097,Correct
19,10,111,B,80.56308501625388,52.417157728410466,4.028154250812694,0.8233667882081589,B,479.5984999509528,Correct
19,10,112,A,50.031888070957415,63.45873335930279,2.501594403547871,0.9968074526384959,A,959.7654999233782,Correct
19,10,113,B,55.19100712908518,45.05456449735861,2.759550356454259,0.7077154441779467,B,630.6389999808744,Correct
19,10,114,B,49.91547649057677,31.564281896763312,2.4957738245288383,0.49581058061354455,B,836.7101000621915,Correct
19,10,115,B,74.67692271869322,63.70242579115464,3.733846135934661,1.0006353644067016,B,519.0494999988005,Correct
19,10,116,A,23.864722397213814,52.211961264907664,1.1932361198606907,0.8201435696967438,A,592.4374999012798,Correct
19,10,117,A,14.836220299263474,44.26901976540568,0.7418110149631737,0.6953761363830991,A,474.10740004852414,Correct
19,10,118,B,60.76649073528277,38.31386553308797,3.0383245367641387,0.6018327924468818,B,402.19880000222474,Correct
19,10,119,A,15.189167226238787,41.3067547126471,0.7594583613119394,0.6488449857444384,A,370.17470004502684,Correct
19,10,120,B,34.66225887620017,12.485839510019261,1.7331129438100084,0.19612710839288847,B,420.3309000004083,Correct
19,10,121,A,48.657091240046164,77.46048202464584,2.432854562002308,1.2167464063607578,A,488.58719994314015,Correct
19,10,122,A,39.57311691970409,65.46358173833364,1.9786558459852046,1.0282995373341195,A,490.17599993385375,Correct
19,10,123,B,54.25075460320986,37.50771315258854,2.712537730160493,0.5891697804656272,B,1013.1496000103652,Correct
19,10,124,B,57.647439070119795,29.10480769167596,2.8823719535059897,0.4571772501415645,B,530.3443000884727,Correct
19,10,125,B,78.90967921494271,59.30866015893736,3.9454839607471355,0.9316182552478562,B,586.215200019069,Correct
19,10,126,B,80.77703992283502,58.92994349405315,4.038851996141751,0.925669387786895,A,539.5639999769628,Incorrect
19,10,127,A,32.469070385102995,64.87254193464132,1.6234535192551498,1.0190155058078247,A,689.2522999551147,Correct
19,10,128,A,53.79203777062231,78.73921666354178,2.6896018885311155,1.2368327230979894,A,490.8131000120193,Correct
19,10,129,B,51.46709226683993,32.371178578749735,2.5733546133419964,0.5084852840552172,B,557.8379000071436,Correct
19,10,130,A,24.381468024291834,56.172118954516016,1.2190734012145916,0.8823495812203974,A,832.9255999997258,Correct
19,10,131,B,37.27713584514109,16.41589872644761,1.8638567922570544,0.2578603342054093,B,816.9954000040889,Correct
19,10,132,B,51.15261169732853,44.407003705003646,2.5576305848664265,0.6975435830378709,B,585.1327999262139,Correct
19,10,133,B,80.87077069470193,58.886199418255615,4.043538534735097,0.924982257451077,A,1209.4997999956831,Incorrect
19,10,134,B,66.69890435643565,42.32326645213402,3.3349452178217827,0.6648123148097379,B,776.1847000801936,Correct
19,10,135,B,42.31063810610961,28.090858535647225,2.11553190530548,0.4412501740430973,B,442.4186999676749,Correct
19,10,136,B,79.23473758267076,56.18236630961708,3.9617368791335377,0.8825105462979186,B,535.2190000703558,Correct
19,10,137,B,54.96836865140061,23.377654470225657,2.7484184325700305,0.3672153377091076,B,431.6696999594569,Correct
19,10,138,A,36.423679209409,49.00136416736929,1.82118396047045,0.7697116284204275,B,414.3035999732092,Incorrect
19,10,139,B,76.78495729890273,49.067614841587236,3.8392478649451363,0.7707522915775199,B,865.7894999487326,Correct
19,10,140,A,52.65831116315682,79.22370433650153,2.632915558157841,1.244443037668615,A,754.9966000951827,Correct
19,10,141,B,50.73723056048863,37.84686354228493,2.5368615280244313,0.5944971423292885,B,421.75009998027235,Correct
19,10,142,A,40.43386469284125,72.99765472107885,2.021693234642062,1.146644479005128,A,415.1877999538556,Correct
19,10,143,A,47.19141491363294,69.5477492110887,2.359570745681647,1.0924534899763079,A,742.1739000128582,Correct
19,10,144,A,58.18634044035681,68.38790363543251,2.9093170220178406,1.0742346782774073,A,904.600500012748,Correct
19,10,145,A,20.35477692167312,39.1357023141946,1.017738846083656,0.614742174416754,A,928.6910999799147,Correct
19,10,146,A,54.112364906236394,75.16838527060325,2.7056182453118196,1.180742234741672,A,579.2569000041112,Correct
19,10,147,B,76.62018535720708,65.21410463618435,3.8310092678603542,1.024380760177364,B,423.1906998902559,Correct
19,10,148,A,58.04616268400257,83.35158013051907,2.9023081342001285,1.3092835590156984,A,924.5084000285715,Correct
19,10,149,B,65.14820110558713,41.207346406970295,3.257410055279357,0.6472834837303382,B,543.9228999894112,Correct
19,10,150,A,27.372065413831997,37.47015255626842,1.3686032706915998,0.5885797799983084,B,337.8367000259459,Incorrect
19,10,151,A,39.78289191876385,67.773331580245,1.9891445959381926,1.0645810030090141,A,519.5692999986932,Correct
19,10,152,A,58.92413890283274,70.9739899966913,2.946206945141637,1.1148568278478044,A,137.97520007938147,Correct
19,10,153,B,75.36165564878569,43.02896278641097,3.7680827824392846,0.6758973669068864,B,446.1942999623716,Correct
19,10,154,B,50.19057868764175,43.064086360418706,2.5095289343820872,0.676449086717239,B,388.7062999419868,Correct
19,10,155,A,34.451369932865205,59.769905990132784,1.7225684966432602,0.9388634878217686,A,425.34159997012466,Correct
19,10,156,A,36.96172381107881,60.30485126386883,1.8480861905539405,0.9472663885319774,A,540.2546999976039,Correct
19,10,157,B,63.76893275937801,51.620249140009534,3.1884466379689007,0.810848977373644,B,937.3857999453321,Correct
19,10,158,B,53.64029817273701,44.096752059036156,2.6820149086368508,0.6926701615791928,B,480.48199992626905,Correct
19,10,159,A,37.167301013988215,56.31443358123813,1.8583650506994107,0.8845850541494401,A,514.1020000446588,Correct
19,10,160,B,36.879790505232116,22.85965743900858,1.8439895252616056,0.3590786593698431,B,423.36469993460923,Correct
19,10,161,B,68.53377188118544,43.06825462057801,3.426688594059272,0.6765145615947127,B,487.97100002411753,Correct
19,10,162,A,43.972424077834575,55.8101458734951,2.1986212038917285,0.8766637213597346,B,564.2442998941988,Incorrect
19,10,163,A,45.6204472095224,72.1189259265646,2.28102236047612,1.1328414393784092,A,1221.6740000294521,Correct
19,10,164,A,22.95362683812352,53.041920923621795,1.1476813419061758,0.8331805455297049,A,1526.9070999929681,Correct
19,10,165,A,36.43379645473532,59.04589256481773,1.8216898227367662,0.9274907115314178,A,423.1269001029432,Correct
19,10,166,A,58.674185658252924,69.7086062442115,2.933709282912646,1.094980226343992,A,829.8552000196651,Correct
19,10,167,B,55.562488148959694,41.64232822824195,2.7781244074479847,0.6541161622010988,B,906.4805000089109,Correct
19,10,168,B,84.27423632152676,54.87907778803266,4.213711816076338,0.8620385380733309,B,1211.0138999996707,Correct
19,10,169,B,86.71494349961884,66.25994147081866,4.335747174980941,1.0408087267600679,A,788.4824000066146,Incorrect
19,10,170,B,56.865475601186,24.460104448306094,2.8432737800592998,0.3842184222041872,B,1134.6605999860913,Correct
19,10,171,B,65.6690034879106,33.78894445131675,3.2834501743955298,0.5307554983040514,B,1179.8063000896946,Correct
19,10,172,A,35.98592947384146,44.62660420389921,1.799296473692073,0.7009930596081456,A,732.5960999587551,Correct
19,10,173,A,24.049949054545163,44.53952613324827,1.2024974527272583,0.6996252404729169,A,931.1701999977231,Correct
19,10,174,A,12.894135913711725,34.26580089031751,0.6447067956855862,0.5382459417319604,A,497.53860000055283,Correct
19,10,175,A,60.84478788210778,78.22491957756412,3.0422393941053887,1.228754163362639,A,686.6303000133485,Correct
19,10,176,B,81.15945890577675,62.26789560770527,4.057972945288838,0.9781018169783151,B,1082.6636999845505,Correct
19,10,177,B,62.378589095509305,42.56784023470721,3.118929454775465,0.6686540708027009,B,413.3522999472916,Correct
19,10,178,B,85.90537743557383,60.7062680216728,4.295268871778691,0.9535718282187011,B,1116.310799960047,Correct
19,10,179,B,43.801762662357255,20.368533676756584,2.1900881331178628,0.3199481788164739,B,1617.4088000552729,Correct
19,10,180,A,47.90423491254029,77.70576815988396,2.3952117456270146,1.2205993519632157,A,735.8390999725088,Correct
19,10,181,B,79.26438740194381,52.526302187960695,3.9632193700971903,0.825081225369674,B,886.0322000691667,Correct
19,10,182,B,54.215767184090595,38.62378152148151,2.71078835920453,0.6067009414087176,B,714.2497999593616,Correct
19,10,183,A,39.972479605231996,56.85659020361954,1.9986239802615997,0.8931012304592828,A,590.9656999865547,Correct
19,10,184,B,61.83623173752656,52.92900156971835,3.091811586876328,0.8314068124663491,B,379.799299989827,Correct
19,10,185,A,46.98710345914414,68.68363495511075,2.349355172957207,1.0788800149840951,B,1087.8677000291646,Incorrect
19,10,186,A,55.75705636486671,69.40171319365325,2.7878528182433353,1.0901595615786344,A,526.0549000231549,Correct
19,10,187,B,80.22423988899081,65.71714011360999,4.011211994449541,1.032282422979241,A,481.15070001222193,Incorrect
19,10,188,B,86.0091669648331,67.21310392267955,4.300458348241655,1.055780967542287,B,1053.443199954927,Correct
19,10,189,B,64.49912204022199,51.01355414355477,3.2249561020110997,0.801319034654484,B,992.431899998337,Correct
19,10,190,A,37.24283696819485,60.79981655996996,1.8621418484097427,0.9550412852220435,A,777.5238999165595,Correct
19,10,191,B,50.67319323540151,40.027996751722,2.5336596617700757,0.6287583026656297,B,905.0918000284582,Correct
19,10,192,A,54.695323092442656,64.94331247235846,2.7347661546221325,1.0201271668147385,A,563.8234000653028,Correct
19,10,193,B,66.16774606760208,38.5272906457495,3.308387303380104,0.605185266277027,B,513.373399968259,Correct
19,10,194,A,57.44780686797097,73.14688998257238,2.872390343398548,1.148988661010951,A,672.5422000745311,Correct
19,10,195,A,37.77241452025295,67.55959467912353,1.8886207260126475,1.0612236316171928,A,903.3510000444949,Correct
19,10,196,B,51.09253902521176,39.83550905732606,2.554626951260588,0.625734713032526,B,398.66219996474683,Correct
19,10,197,A,29.002390978926677,57.47002044655922,1.4501195489463339,0.9027369701828284,B,711.1441000597551,Incorrect
19,10,198,A,31.787608906868435,53.05714493383157,1.5893804453434217,0.8334196837228708,A,712.2502999845892,Correct
19,10,199,A,21.75516347871479,40.06854245260401,1.0877581739357394,0.6293951930457575,A,746.5108999749646,Correct
19,10,200,B,44.879617096180525,35.47237014543474,2.2439808548090263,0.5571986872715784,B,1380.867899977602,Correct
19,10,201,B,82.33950750492637,51.44102888020552,4.1169753752463185,0.8080337921157702,B,475.7208999944851,Correct
19,10,202,B,83.60088231845624,54.98536573976597,4.180044115922812,0.8637081053149832,B,533.0289000412449,Correct
19,10,203,B,59.03265084905537,31.053038224077177,2.9516325424527685,0.4877799837820195,B,902.9373000375926,Correct
19,10,204,A,43.61229658408462,63.59004508873654,2.180614829204231,0.9988700924610922,A,561.9884000625461,Correct
19,10,205,A,49.62127648261692,79.95042053755455,2.481063824130846,1.2558582690609794,A,604.3384000658989,Correct
19,10,206,A,49.06006083960029,70.1383692447087,2.4530030419800144,1.1017309277697258,B,481.8530000047758,Incorrect
19,10,207,B,33.09575774720157,13.88221607836018,1.6547878873600783,0.21806134023661225,B,524.7154999524355,Correct
19,10,208,B,65.68353107396175,57.616882040957044,3.284176553698087,0.9050438667131016,B,489.9191999575123,Correct
19,10,209,B,42.80983632605404,29.813347862670348,2.140491816302702,0.4683069731214106,B,592.7997999824584,Correct
19,10,210,A,29.739773952776368,62.71048328584527,1.4869886976388185,0.9850539679693852,A,502.70799989812076,Correct
19,10,211,A,32.24794766494516,49.80532415038453,1.612397383247258,0.7823402023025318,B,517.912199953571,Incorrect
19,10,212,B,59.79940387826496,41.37354877906095,2.9899701939132477,0.6498941844861841,B,970.1068999711424,Correct
19,10,213,A,21.616027083318787,38.82254829508918,1.0808013541659394,0.6098231625874356,A,606.0678000794724,Correct
19,10,214,B,74.52393154561891,48.24173316787259,3.726196577280945,0.7577793725831381,B,487.54969995934516,Correct
19,10,215,A,58.534005759421945,69.0956622466338,2.926700287971097,1.0853521245447317,B,485.4407000821084,Incorrect
19,10,216,B,64.61524017136507,47.518128296824415,3.230762008568254,0.7464130138482044,B,462.87709998432547,Correct
19,10,217,B,31.970565019781873,16.64386161356422,1.5985282509890937,0.2614411668626926,B,477.85140003543347,Correct
19,10,218,A,28.558884148385626,61.04072350487921,1.4279442074192812,0.9588254426636718,A,613.6500999564305,Correct
19,10,219,B,57.29362161781409,35.4252301087016,2.8646810808907044,0.5564582133061244,B,562.3975000344217,Correct
19,10,220,A,43.63888390909001,54.59255681431288,2.1819441954545002,0.8575378771426437,A,460.4199000168592,Correct
19,10,221,A,15.235551600325199,34.81104855842878,0.7617775800162598,0.546810672074587,A,437.0253999950364,Correct
19,10,222,B,57.0894085490346,33.491701542795724,2.85447042745173,0.5260864176153449,B,453.86500004678965,Correct
19,10,223,A,46.09925215449124,71.91472309540416,2.304962607724562,1.1296338288073295,A,559.6688999794424,Correct
19,10,224,A,20.804959304790724,47.50439878237118,1.0402479652395362,0.746197351139486,A,576.6335000516847,Correct
19,10,225,A,45.611881242437995,59.54018272913949,2.2805940621219,0.9352550032762925,A,610.0823000306264,Correct
19,10,226,A,40.40088712873743,64.70763828036533,2.0200443564368715,1.0164252052637068,A,844.5008000126109,Correct
19,10,227,A,26.089056167350975,49.69855569225927,1.3044528083675488,0.7806630872841246,A,527.2622000193223,Correct
19,10,228,B,41.790601936011115,13.894512356178275,2.089530096800556,0.21825448971691136,B,577.2347999736667,Correct
19,10,229,A,28.11514653473192,37.45527974909965,1.4057573267365961,0.58834615848961,A,661.6185000166297,Correct
19,10,230,A,29.836548988596768,42.40677791597199,1.4918274494298385,0.6661241098161574,A,493.33790002856404,Correct
19,10,231,A,32.383274279273465,49.37038872700686,1.6191637139636732,0.7755082526481856,A,597.0689000096172,Correct
19,10,232,B,71.66306988827402,54.56615905068629,3.5831534944137013,0.8571232220412414,B,736.349800019525,Correct
19,10,233,A,35.61996979851004,60.29133213049503,1.7809984899255022,0.9470540304815274,A,769.7576999198645,Correct
19,10,234,B,84.70171210952144,63.058435391180254,4.235085605476072,0.9905195868589924,B,669.3661999888718,Correct
19,10,235,B,49.15064485616703,37.50783180150646,2.4575322428083513,0.5891716441984716,B,636.2806999823079,Correct
19,10,236,A,57.64867632261132,83.25470347359867,2.882433816130566,1.307761824047271,A,444.83220006804913,Correct
19,10,237,A,36.29969905545042,66.70867483247241,1.8149849527725208,1.0478574139220282,A,576.6828999621794,Correct
19,10,238,B,54.41591941913458,28.841407422718046,2.720795970956729,0.4530397683920057,B,1026.2239999137819,Correct
19,10,239,A,55.333354352620184,71.88402007645817,2.7666677176310093,1.129151546913511,A,492.34350002370775,Correct
19,10,240,A,51.03921661007881,69.31239308896662,2.5519608305039405,1.0887565246551272,A,463.66129990201443,Correct
19,10,241,A,56.31127496531478,65.30717716425674,2.815563748265739,1.0258427400295804,A,925.9083999786526,Correct
19,10,242,A,20.108814095947498,47.617934814918,1.0054407047973748,0.7479807709683202,A,619.8500000173226,Correct
19,10,243,A,38.588285504698405,58.737457893345315,1.9294142752349202,0.9226458310413671,A,472.46169997379184,Correct
19,10,244,A,26.354038135268247,37.81039100591755,1.3177019067634124,0.5939242330677408,A,625.351499998942,Correct
19,10,245,A,61.31618314815278,81.96846850613451,3.0658091574076387,1.2875576924243928,A,444.4260000018403,Correct
19,10,246,A,32.43242110833476,63.12200712255458,1.6216210554167378,0.9915181692803003,A,429.34229993261397,Correct
19,10,247,A,29.851865743744874,59.65105347124889,1.4925932871872436,0.9369965568208373,A,719.0272000152618,Correct
19,10,248,A,42.19494511291031,57.22978876966689,2.1097472556455155,0.8989634198264058,A,538.0769000621513,Correct
19,10,249,B,83.88556064618885,62.44068670158002,4.194278032309443,0.9808160131339284,B,778.4795999759808,Correct
19,10,250,B,64.70332805311477,41.05800776625519,3.2351664026557385,0.6449376778474998,B,925.4010000731796,Correct
19,10,251,B,62.90903783404222,45.499025046220574,3.1454518917021113,0.7146970141535228,B,941.1178000736982,Correct
19,10,252,A,54.42485252504074,82.0967356045354,2.721242626252037,1.28957250729456,A,485.9186999965459,Correct
19,10,253,A,47.348176730458164,77.47259750651,2.367408836522908,1.2169367159048536,A,459.08309996593744,Correct
19,10,254,B,65.5342501184001,50.71357185699585,3.276712505920005,0.7966069239161812,B,495.3207999933511,Correct
19,10,255,A,21.92907985622793,37.20150782651599,1.0964539928113965,0.5843599184512291,A,438.66890005301684,Correct
19,10,256,A,23.972645162572686,39.68295044940896,1.1986322581286344,0.6233383280231549,A,469.10909994039685,Correct
19,10,257,B,68.48880995919549,42.67610969419258,3.4244404979597745,0.6703547634953378,B,455.54120000451803,Correct
19,10,258,A,39.25848197818187,61.987592249674755,1.9629240989090935,0.973698822126489,A,585.3563999990001,Correct
19,10,259,B,68.0334730051184,39.58861473718382,3.4016736502559195,0.6218565061206666,B,513.1999999284744,Correct
19,10,260,A,35.24811777321304,57.78368623031363,1.762405888660652,0.9076640207924549,A,361.8923000758514,Correct
19,10,261,A,45.43712645912118,59.60744072287968,2.271856322956059,0.9363114893714395,A,536.6458999924362,Correct
19,10,262,A,35.72503973087505,60.63881640341162,1.7862519865437523,0.9525123006766909,A,618.620700086467,Correct
19,10,263,A,67.82855900890503,82.91610000832956,3.3914279504452516,1.3024430532524236,A,611.7630999069661,Correct
19,10,264,B,73.1366220149246,54.020752511042176,3.6568311007462295,0.8485559961504124,B,900.4725000122562,Correct
19,10,265,B,45.97100269892005,35.85483874894167,2.2985501349460025,0.5632064900466089,B,527.094200020656,Correct
19,10,266,A,56.02031429967,74.01655045293825,2.8010157149835,1.1626492557350454,A,401.90850000362843,Correct
19,10,267,B,48.26640665561922,28.213751872563712,2.413320332780961,0.4431805780652571,B,456.1647999798879,Correct
19,10,268,A,35.114298474732536,45.56768354849258,1.755714923736627,0.7157754993852439,A,594.3917999975383,Correct
19,10,269,B,55.067126816022395,39.208293533007264,2.7533563408011195,0.6158824346154391,B,434.45459997747093,Correct
19,10,270,A,34.0616545421676,54.44484119292885,1.7030827271083802,0.855217565587841,A,608.6885998956859,Correct
19,10,271,A,16.96753587206322,46.99695477889165,0.848376793603161,0.7382264393722886,A,437.20960000064224,Correct
19,10,272,A,42.60435809444711,54.07005467735236,2.1302179047223553,0.849330432767843,B,611.6400000173599,Incorrect
19,10,273,A,62.673854338601004,87.22379721985669,3.1336927169300504,1.3701082028205382,A,817.0673999702558,Correct
19,10,274,A,35.80354743651535,44.905320746051196,1.7901773718257674,0.7053711288144388,B,815.0973001029342,Incorrect
19,10,275,B,82.73928899641687,55.89938213333525,4.1369644498208435,0.8780654412514728,B,601.9302000058815,Correct
19,10,276,B,81.53505226191261,65.65455856301813,4.07675261309563,1.031299394281293,B,598.6249999841675,Correct
19,10,277,B,82.83328156904109,58.30860875992441,4.141664078452055,0.9159094846061,B,489.3768000183627,Correct
19,10,278,B,85.95185167650703,66.36237526237412,4.2975925838253515,1.0424177529952179,A,388.41020001564175,Incorrect
19,10,279,A,33.344063884152085,60.52680883153928,1.6672031942076044,0.9507528898519881,A,680.2483000792563,Correct
19,10,280,B,64.06497072848795,51.351674400083816,3.203248536424397,0.8066302152241918,B,456.0423999791965,Correct
19,10,281,A,29.478375310400565,48.6055056609873,1.4739187655200283,0.7634934975428739,A,338.5145999491215,Correct
19,10,282,B,72.622030724403,60.703171188218604,3.6311015362201498,0.9535231832725557,B,510.5444999644533,Correct
19,10,283,B,83.5877945725552,62.84697908090324,4.1793897286277595,0.9871980389043851,A,1181.4273000927642,Incorrect
19,10,284,A,43.45826110791655,69.60409210081258,2.1729130553958274,1.0933385220185008,A,969.5805999217555,Correct
19,10,285,B,55.458788747249756,33.83357148778488,2.7729394373624876,0.5314564981536504,B,486.66319996118546,Correct
19,10,286,A,53.87650211729945,64.35010584728484,2.6938251058649723,1.010809098937778,A,622.0434999559075,Correct
19,10,287,B,64.79913009753395,44.82416602777299,3.2399565048766976,0.704096353480704,B,833.3385000005364,Correct
19,10,288,A,38.67038295305875,49.49505654077319,1.9335191476529374,0.7774665300875224,A,743.8561000162736,Correct
19,10,289,B,76.61211083675093,56.64300430800931,3.8306055418375466,0.8897462310564852,B,769.2955000093207,Correct
19,10,290,B,43.967767922691664,16.848613883263535,2.1983883961345834,0.26465740799415854,B,1058.7203999748453,Correct
19,10,291,B,49.33346593627343,42.57848013228257,2.4666732968136715,0.6688212019229893,A,361.33410001639277,Incorrect
19,10,292,B,58.0386603650815,29.093952178522514,2.9019330182540752,0.45700673213969545,B,399.4480000110343,Correct
19,10,293,A,10.390091460633567,34.7576222183653,0.5195045730316784,0.545971453087329,A,474.54670001752675,Correct
19,10,294,B,45.10674876018609,26.810424344110466,2.2553374380093048,0.4211371607954119,B,456.7219999153167,Correct
19,10,295,A,67.06562539434147,82.29202867801158,3.353281269717073,1.2926401637192086,B,488.4117000037804,Incorrect
19,10,296,A,23.444139966017065,51.76321016970473,1.1722069983008532,0.8130946039768443,A,438.6364999227226,Correct
19,10,297,A,22.646445417722884,39.967483326628965,1.1323222708861442,0.6278077600070505,A,455.279300105758,Correct
19,10,298,A,38.66618511178245,65.76763749114798,1.9333092555891225,1.0330756339307359,A,421.2092000525445,Correct
19,10,299,A,21.16413002822051,40.48877767088264,1.0582065014110256,0.6359962324183768,A,459.08800000324845,Correct
