subject,day,trial,cat,x,y,xt,yt,resp,rt,fb,resp_key
19,23,0,A,53.495205127130475,80.78055663836028,2.6747602563565236,1.2688980164398342,A,1528.6687000188977,Correct,k
19,23,1,B,62.29145722168996,51.573972980988835,3.1145728610844983,0.810122073,B,925.5367000005208,Correct,d
19,23,2,A,21.492055910339694,34.35753408648919,1.0746027955169848,0.5396868834078767,A,883.2127,Correct,k
19,23,3,B,46.35763929026023,30.702978168026227,2.3178819645130115,0.482281253,A,387.78210000600666,Incorrect,k
19,23,4,B,57.78332612353133,27.868339062883607,2.8891663061765667,0.437754846,B,697.3636999900918,Correct,d
19,23,5,A,49.62949615432572,63.731172991179136,2.4814748077162863,1.0010869243687432,A,1552.9972999938764,Correct,k
19,23,6,A,52.78678969683041,75.43314379324737,2.6393394848415204,1.1849010518902423,A,930.554,Correct,k
19,23,7,A,46.19601702112982,64.07209024815332,2.309800851056491,1.0064420401187033,A,593.9333999995142,Correct,k
19,23,8,A,62.772467505049654,78.62528595145143,3.138623375252483,1.235043103657383,B,726.5746000048239,Incorrect,d
19,23,9,A,66.81022094875823,88.19248783521087,3.3405110474379116,1.3853243594245284,A,972.1115999855101,Correct,k
19,23,10,B,42.72072086286915,24.626905648690773,2.1360360431434575,0.38683852933287954,B,761.5597000112757,Correct,d
19,23,11,A,37.504838978479235,44.97447185281993,1.8752419489239616,0.7064573518595001,A,745.1013,Correct,k
19,23,12,A,35.94541569,67.26917982182486,1.7972707842509097,1.0566618057062789,B,984.1730000043754,Incorrect,d
19,23,13,B,54.58847286217721,27.13289823324944,2.729423643108861,0.42620256880087953,B,928.6931999959052,Correct,d
19,23,14,B,58.6442492,35.27544475036072,2.932212460204155,0.5541053903992293,B,608.0378000042401,Correct,d
19,23,15,B,84.69205913189519,62.110721356158166,4.234602957,0.9756329296083458,A,1398.225499986438,Incorrect,k
19,23,16,B,48.28523610615431,35.81635866724534,2.4142618053077154,0.5626020463367755,B,1563.7288999860175,Correct,d
19,23,17,B,49.03561497136608,28.340674405255513,2.451780748568304,0.445174273,B,1794.8916000023019,Correct,d
19,23,18,A,22.34364885670048,42.006789737987816,1.117182442835024,0.6598411102087682,A,1870.9887000150047,Correct,k
19,23,19,B,59.59554171625018,41.462431267217376,2.979777085812509,0.6512903473453092,B,1386.245700006839,Correct,d
19,23,20,A,31.813290457863587,50.220428159129426,1.5906645228931793,0.788860641,A,2041.1899000173435,Correct,k
19,23,21,A,51.73313049728497,72.11481960212126,2.5866565248642486,1.1327769373848868,A,1490.7794000173453,Correct,k
19,23,22,A,28.81149296481948,39.23857590826735,1.440574648240974,0.6163581090536907,A,743.7156999949366,Correct,k
19,23,23,A,44.96530686112502,57.6136643,2.248265343056251,0.904993323,A,804.6550999861211,Correct,k
19,23,24,B,41.00080006006341,26.86718842254576,2.0500400030031702,0.4220288088544126,A,440.68940001307055,Incorrect,k
19,23,25,A,44.33743520616557,71.24527556080204,2.2168717603082784,1.1191181715239806,B,633.6383000016212,Incorrect,d
19,23,26,A,11.278002182910381,32.39820886243403,0.5639001091455191,0.5089098747584524,A,781.4686000056099,Correct,k
19,23,27,B,39.42096604842811,18.515812383680153,1.9710483024214056,0.2908457007990824,A,704.7371999942698,Incorrect,k
19,23,28,B,56.34663585561421,31.42962773516637,2.817331793,0.4936954379893034,B,1086.2900000065565,Correct,d
19,23,29,B,51.905281670401386,38.71984712048841,2.5952640835200693,0.6082099363092315,A,1861.6350000083912,Incorrect,k
19,23,30,A,24.892234408213923,43.86044641977524,1.2446117204106961,0.6889582812776733,B,494.75270000402816,Incorrect,d
19,23,31,A,49.26466158102182,73.07616474260406,2.463233079051091,1.1478777115394116,A,1272.148499992909,Correct,k
19,23,32,A,23.167267916193715,45.77403880627605,1.1583633958096857,0.7190169201946549,A,1400.8591000165325,Correct,k
19,23,33,A,44.41345780685884,67.94594278593745,2.220672890342942,1.0672923734876674,A,3046.651300013764,Correct,k
19,23,34,B,70.85199684755048,50.13031687800709,3.5425998423775242,0.7874451761303776,B,4573.923000018112,Correct,d
19,23,35,B,47.81778050761637,24.73058278354234,2.3908890253808184,0.38846708595885404,B,765.3171000129078,Correct,d
19,23,36,A,46.93892675085518,64.45158116661132,2.346946337542759,1.0124030695263622,A,1154.3380999937654,Correct,k
19,23,37,B,81.33213916445999,66.31060019973683,4.066606958,1.0416044722131153,B,825.6191999826115,Correct,d
19,23,38,B,73.93861219279434,52.479296513194114,3.6969306096397165,0.8243428619570554,A,879.0072000119835,Incorrect,k
19,23,39,B,53.23022008942905,36.26628724302882,2.661511004471452,0.5696695078783829,B,754.7210999764502,Correct,d
19,23,40,A,38.65725959403703,46.33822424702736,1.9328629797018515,0.7278791243742879,A,1294.1616000025533,Correct,k
19,23,41,B,36.84472539666511,20.43369542,1.8422362698332557,0.32097173701203197,A,404.4690000009723,Incorrect,k
19,23,42,B,35.910884937783834,10.553393824572922,1.7955442468891918,0.1657723225485909,B,705.6482000043616,Correct,d
19,23,43,B,55.235460481739004,37.819816453105034,2.7617730240869505,0.5940722876459458,A,661.9524999987334,Incorrect,k
19,23,44,A,26.73433417065136,59.664975606781404,1.3367167085325677,0.9372152452143934,A,1008.3075999864377,Correct,k
19,23,45,B,58.211049512278656,46.917514736892606,2.9105524756139327,0.7369785981105633,B,769.4430999981705,Correct,d
19,23,46,B,42.47233684207713,25.927155564607563,2.1236168421038566,0.4072628072512542,A,786.5625000267755,Incorrect,k
19,23,47,B,75.83568858094495,58.428601486190544,3.7917844290472478,0.9177943259427094,B,517.0877000200562,Correct,d
19,23,48,B,59.00976913337488,45.34721000462828,2.950488456668744,0.712312309,B,710.3319,Correct,d
19,23,49,A,45.928150851454674,63.29906047812218,2.2964075425727337,0.9942993168860232,B,671.5103,Incorrect,d
19,23,50,B,56.18315895834869,38.98689713506063,2.8091579479174347,0.612404748,A,480.64339999109507,Incorrect,k
19,23,51,B,39.015724307424605,17.021507960866142,1.950786215,0.2673732218143863,B,720.2287,Correct,d
19,23,52,A,53.52454196240795,81.56045139239308,2.676227098120398,1.2811485745890474,A,953.5558000206947,Correct,k
19,23,53,A,38.56784179604251,46.02273271438977,1.9283920898021254,0.7229233949682675,B,713.0159999942407,Incorrect,d
19,23,54,A,42.33759126945765,49.623073897305325,2.1168795634728825,0.7794774220215891,A,525.1554999849759,Correct,k
19,23,55,A,48.037404128657066,55.84327707916598,2.401870206432853,0.8771841451214355,A,1143.6656000150833,Correct,k
19,23,56,A,37.474955721708625,50.70004616382459,1.8737477860854312,0.7963944628246736,A,753.1660000095144,Correct,k
19,23,57,A,51.80354831026405,79.24542940055701,2.5901774155132022,1.2447842941767926,A,1613.1956000172067,Correct,k
19,23,58,B,73.37946165097935,42.35427725577129,3.6689730825489675,0.6652994313741816,B,1869.8405000031926,Correct,d
19,23,59,B,57.21501674816534,46.16341077739359,2.860750837408267,0.7251331608145379,B,1870.7034999970347,Correct,d
19,23,60,B,38.96454825,27.03909962989252,1.948227412398235,0.42472918378476415,B,917.5801,Correct,d
19,23,61,A,46.47069931751034,73.51206658775872,2.323534965875517,1.1547248417115328,A,1646.6770000115503,Correct,k
19,23,62,A,28.008806340812953,49.05850083727082,1.4004403170406476,0.7706091291324937,A,1669.4623999937903,Correct,k
19,23,63,A,62.313085060044855,72.78267094349798,3.1156542530022424,1.1432675217236827,B,1509.1068999900017,Incorrect,d
19,23,64,B,78.76102773416198,51.495062654509475,3.938051386708099,0.8088825526577654,A,1123.1338000216056,Incorrect,k
19,23,65,A,24.803656408570554,49.26422976025776,1.2401828204285277,0.7738407114979272,A,3057.353399985004,Correct,k
19,23,66,B,38.12447360985838,27.162128845408823,1.9062236804929187,0.4266617221829789,B,3360.8413000183646,Correct,d
19,23,67,B,60.562479636854746,31.196483572288056,3.0281239818427372,0.49003321804267413,B,3946.6314999735914,Correct,d
19,23,68,B,83.88282304,61.38124004057346,4.194141151814535,0.9641742638984862,A,2321.514400013257,Incorrect,k
19,23,69,B,66.33434325959772,33.757300165559954,3.316717162979886,0.5302584310257433,B,640.0943000044208,Correct,d
19,23,70,A,65.05389701547173,76.10915140483283,3.252694850773587,1.1955197546218805,A,1686.1750000098255,Correct,k
19,23,71,A,39.54981450583522,47.893389095590976,1.9774907252917613,0.7523075966911307,B,553.6747000005562,Incorrect,d
19,23,72,B,36.071293977178755,22.745033393718625,1.8035646988589378,0.3572781490768047,B,813.3889999880921,Correct,d
19,23,73,A,28.862468608815693,61.51810693639761,1.4431234304407845,0.966324164,A,818.1770999799483,Correct,k
19,23,74,B,37.56084528246852,22.36982565605513,1.8780422641234258,0.3513843997157363,B,755.8205999957863,Correct,d
19,23,75,A,55.89347493175414,77.50013979,2.794673746587707,1.2173693490829134,A,1123.1151999963913,Correct,k
19,23,76,A,23.595039800555345,49.51321723162054,1.179751990027767,0.7777517975522732,B,876.0968999995384,Incorrect,d
19,23,77,B,53.18610272658034,31.384516488615738,2.6593051363290168,0.4929868321855146,B,1686.4278999855742,Correct,d
19,23,78,B,63.09015347482823,41.67092983862641,3.1545076737414117,0.6545654352464222,B,1267.3829999985173,Correct,d
19,23,79,B,40.23076253371953,24.000941529799523,2.0115381266859766,0.37700590794628175,A,1195.5076000012923,Incorrect,k
19,23,80,A,13.957758305520098,39.841914128468815,0.6978879152760049,0.625835324,B,678.2488000171725,Incorrect,d
19,23,81,B,33.423809175018235,16.63036326966268,1.6711904587509117,0.261229135,B,1037.5199999834877,Correct,d
19,23,82,A,49.01958814998408,75.34464364352708,2.450979407499204,1.183510894789228,A,1725.0023999949917,Correct,k
19,23,83,B,30.596785091949794,13.429690149154812,1.5298392545974897,0.21095307956285986,B,651.2223000172526,Correct,d
19,23,84,A,66.91548017379989,83.18729694026537,3.3457740086899945,1.3067030046976518,A,995.2588000160176,Correct,k
19,23,85,B,69.97082615,39.951107282206976,3.498541307551895,0.6275505257027957,B,705.1332999835722,Correct,d
19,23,86,A,61.50840398447812,74.54028883029252,3.0754201992239065,1.1708761189285417,A,901.3258999912068,Correct,k
19,23,87,B,64.32179540932972,56.391696183738595,3.2160897704664864,0.8857986922715037,B,993.7654999957886,Correct,d
19,23,88,A,37.96278524576686,51.35300742880607,1.898139262288343,0.8066511543903963,A,1106.7580999806523,Correct,k
19,23,89,A,43.79220528835955,58.98999682977495,2.1896102644179773,0.9266127033785309,A,735.9612000000197,Correct,k
19,23,90,B,70.17127691166704,42.12694703277177,3.508563845583352,0.6617285365816106,A,1486.3300000142772,Incorrect,k
19,23,91,B,83.99341055,56.88878298456635,4.199670527422515,0.8936069134798883,B,743.8525000179652,Correct,d
19,23,92,B,48.18350181570237,30.72231742939287,2.4091750907851184,0.4825850336871714,B,1368.2743000099435,Correct,d
19,23,93,A,66.56840281391952,80.51051880139337,3.328420140695976,1.2646562720158017,B,1265.4763000027742,Incorrect,d
19,23,94,A,16.095759381622223,37.794906004156815,0.8047879690811112,0.5936809952288791,A,900.6101000122726,Correct,k
19,23,95,A,53.01838736765427,63.669297455665635,2.6509193683827137,1.0001149857297125,A,561.1676999833435,Correct,k
19,23,96,A,55.741366596973066,68.59819133860033,2.7870683298486534,1.0775378697944689,B,691.5519000031054,Incorrect,d
19,23,97,B,43.17742722534544,21.020794020744997,2.158871361267272,0.33019386034098364,B,726.0782000084873,Correct,d
19,23,98,A,34.95123191608707,63.61250337504849,1.7475615958043533,0.9992228663975412,A,1447.5519999978133,Correct,k
19,23,99,A,42.999825486802976,68.10257352,2.149991274340149,1.069752723373755,B,873.2658000080846,Incorrect,d
19,23,100,A,58.64666537870207,85.79605834450916,2.932333268935104,1.3476813330103563,B,880.5764999997336,Incorrect,d
19,23,101,A,57.935520741608485,75.76206636431473,2.896776037080424,1.1900677555545678,A,549.8239999869838,Correct,k
19,23,102,B,48.97908705030959,18.90153015753334,2.4489543525154795,0.29690454142256334,B,955.6204999971669,Correct,d
19,23,103,B,68.39373555,56.138014763189176,3.4196867775710356,0.8818138738357523,A,2139.314900006866,Incorrect,k
19,23,104,B,74.45536475005026,62.242413808988836,3.722768237502513,0.9777015498200762,B,728.7438999919686,Correct,d
19,23,105,B,79.94954192147232,58.35358088273915,3.9974770960736157,0.9166159050593555,A,489.23790000844747,Incorrect,k
19,23,106,B,71.38641496,51.682923518187685,3.5693207480725904,0.8118334642039078,B,900.9711999970023,Correct,d
19,23,107,A,39.66126586960936,59.237480497800156,1.983063293480468,0.930500168,A,733.8856999995187,Correct,k
19,23,108,A,56.96899377813849,69.89078115254047,2.8484496889069244,1.0978418231123657,A,751.0145999840461,Correct,k
19,23,109,B,66.94225293903588,51.17819382,3.347112646951794,0.8039051886339362,A,837.0311000035144,Incorrect,k
19,23,110,B,61.19117692650694,38.195522965147994,3.059558846325347,0.5999738717366458,B,1309.2374000116251,Correct,d
19,23,111,B,48.16922561821626,22.71025490853095,2.4084612809108132,0.35673184990896184,B,1129.1281000012532,Correct,d
19,23,112,A,54.12465672536418,66.92122010306234,2.7062328362682093,1.0511960672252312,B,1138.9385,Incorrect,d
19,23,113,A,65.44425274,86.52896735047739,3.2722126372263656,1.3591938407548543,B,494.89179998636246,Incorrect,d
19,23,114,A,56.456403784218196,77.78317187826747,2.8228201892109097,1.221815206728386,A,1118.8342999957968,Correct,k
19,23,115,B,56.937565963834956,25.021781229083132,2.846878298191748,0.3930412204450927,B,904.6142000006512,Correct,d
19,23,116,B,75.89291477,48.48584602096063,3.794645738527305,0.761613888,A,1050.0865999783855,Incorrect,k
19,23,117,B,58.82406407855494,35.80552243915572,2.9412032039277474,0.5624318312639807,B,1546.2747999990825,Correct,d
19,23,118,B,69.60173208648246,59.922416471618114,3.4800866043241228,0.9412591168629174,B,2194.0820000017993,Correct,d
19,23,119,B,61.80885780593198,51.18201845843394,3.090442890296599,0.8039652659245663,A,596.1872999905609,Incorrect,k
19,23,120,A,12.21342453015749,30.192563365023048,0.6106712265078744,0.47426367630300365,A,1000.8509999897797,Correct,k
19,23,121,B,75.52354262128593,51.57956971376693,3.776177131064296,0.8102099864404639,A,1308.774600009201,Incorrect,k
19,23,122,B,59.86361283670689,32.029336244140715,2.993180641835345,0.5031156372197488,B,1826.3312999915797,Correct,d
19,23,123,B,69.94718359832159,37.575708388919146,3.4973591799160797,0.5902378471403037,B,1878.6429000028875,Correct,d
19,23,124,B,83.50828304776483,68.89167816,4.1754141523882415,1.082147950026718,B,861.5432000078727,Correct,d
19,23,125,A,36.963834106869776,67.82986289483632,1.8481917053434886,1.0654689948221034,A,1149.1382000094745,Correct,k
19,23,126,A,40.38590184455499,64.16989298,2.019295092,1.007978321896854,A,951.1678999988362,Correct,k
19,23,127,A,37.064681372557565,59.41869336225108,1.8532340686278783,0.933346653,A,780.4393000260461,Correct,k
19,23,128,A,43.70451578320831,52.78522573001989,2.185225789160415,0.829148387,A,661.5019000018947,Correct,k
19,23,129,B,80.31197913197786,55.881495066165584,4.015598956598893,0.8777844718574004,A,981.5610999939963,Incorrect,k
19,23,130,A,13.837569178221248,41.86779097545349,0.6918784589110624,0.6576577227525886,A,1276.5493000042625,Correct,k
19,23,131,A,67.88663779959583,85.51635697127188,3.394331889979792,1.343287794,B,1620.0592999812216,Incorrect,d
19,23,132,A,31.63724834627429,45.340386385157394,1.5818624173137146,0.7122051238926658,A,1020.7909000164364,Correct,k
19,23,133,B,76.97074872809442,60.29288699711945,3.8485374364047207,0.9470784542693502,A,671.8310999858659,Incorrect,k
19,23,134,B,57.326289165717625,39.45673050314738,2.8663144582858813,0.6197848734168006,A,1162.9403999831993,Incorrect,k
19,23,135,A,41.42400539228045,63.564351290118594,2.0712002696140224,0.9984664952161872,B,485.76429998502135,Incorrect,d
19,23,136,A,38.53638147459336,65.36857942535138,1.926819073729668,1.026807244491424,A,1074.0222999884281,Correct,k
19,23,137,B,54.88675108447457,45.67813324716759,2.744337554223728,0.7175104391949868,A,503.4916,Incorrect,k
19,23,138,A,52.93280915124058,71.43849081180271,2.6466404575620293,1.1221531895895065,A,1397.2545999858994,Correct,k
19,23,139,B,64.78441322922649,53.39100858,3.239220661461325,0.8386640015471524,B,947.7455999876838,Correct,d
19,23,140,A,55.11543993,81.80380699038977,2.7557719963979754,1.2849711953834293,B,1465.061599999899,Incorrect,d
19,23,141,B,50.905890771853244,32.18419938440869,2.545294538592662,0.5055482217386374,A,926.7358,Incorrect,k
19,23,142,B,46.646967681220744,31.51822747983536,2.3323483840610373,0.49508715952411353,B,711.7362999997567,Correct,d
19,23,143,A,49.12284773139874,80.09890552801753,2.456142386569937,1.2581906658370137,A,1121.642600017367,Correct,k
19,23,144,A,42.88793615300446,71.07422247545733,2.144396807650223,1.1164312759425166,A,919.8171999887563,Correct,k
19,23,145,A,18.394512622182194,38.202461394876394,0.9197256311091097,0.6000828603359568,B,682.7835000003688,Incorrect,d
19,23,146,A,53.04229652744345,70.37022881460904,2.652114826372172,1.1053729693770427,A,746.9527999928687,Correct,k
19,23,147,A,56.77118667066245,69.01376464,2.8385593335331225,1.0840656799522175,A,893.8466999970842,Correct,k
19,23,148,A,49.790408174523435,65.49132096649973,2.4895204087261718,1.0287352641112337,A,820.2281999983825,Correct,k
19,23,149,A,53.4533082,68.72639828015161,2.672665410122105,1.0795517397230525,A,1019.1191000049002,Correct,k
19,23,150,A,55.66569732090325,67.25317842483518,2.7832848660451623,1.056410456350129,B,1035.9186000132468,Incorrect,d
19,23,151,A,30.595023226556755,42.04301033151219,1.5297511613278376,0.6604100619613924,A,666.2925000127871,Correct,k
19,23,152,A,63.432119963107326,74.84802720197872,3.171605998155366,1.1757100619671268,A,883.8308000122197,Correct,k
19,23,153,B,61.450002972906724,53.314849164896124,3.0725001486453363,0.837467692,B,1100.6931000156328,Correct,d
19,23,154,A,14.922751317172839,40.663074806176915,0.746137566,0.6387340854172879,A,992.0073000248522,Correct,k
19,23,155,B,67.25268487615025,53.78787365617646,3.362634243807513,0.8448979436522998,B,1187.6477999903727,Correct,d
19,23,156,B,54.52928216656208,41.44419644132932,2.7264641083281043,0.6510039153700622,B,821.4941000042018,Correct,d
19,23,157,B,39.65334487988655,27.50958222706401,1.9826672439943278,0.4321195071393431,B,1207.8707000182476,Correct,d
19,23,158,B,70.23084199081858,54.11460879154922,3.5115420995409288,0.8500302871570834,B,1493.2749999861699,Correct,d
19,23,159,B,80.66375612849927,58.10439001584193,4.033187806424963,0.9127016240754257,B,980.9331000142265,Correct,d
19,23,160,A,16.90283926364638,37.837015461325024,0.8451419631823192,0.5943424490353105,A,855.0571000087075,Correct,k
19,23,161,B,48.37319238118804,38.96320728574887,2.418659619059402,0.6120326288460248,A,837.3481000016909,Incorrect,k
19,23,162,A,57.51034672037992,81.68697202340518,2.875517336018996,1.2831359560136233,A,1998.0032999883406,Correct,k
19,23,163,A,54.25945025293796,64.04320089086072,2.712972512646898,1.0059882471555166,B,1274.4179999863263,Incorrect,d
19,23,164,A,40.619353350201216,52.508047630030696,2.0309676675100605,0.8247944834442369,B,1976.442200015299,Incorrect,d
19,23,165,A,33.23561474152639,49.40594722540976,1.6617807370763193,0.7760668042349615,A,683.5324999992736,Correct,k
19,23,166,B,65.30445738,45.59861253270084,3.2652228687800204,0.716261331,A,763.6378000024706,Incorrect,k
19,23,167,A,19.11466813,42.409924325045566,0.955733406,0.6661735334943111,B,658.2658000115771,Incorrect,d
19,23,168,A,46.73875990298436,53.83748302276342,2.336937995149218,0.8456772057603938,A,1385.974200005876,Correct,k
19,23,169,B,84.18588819043285,54.45763761682968,4.209294409521642,0.8554185713444366,B,1649.6604999992996,Correct,d
19,23,170,A,35.94339570041879,49.15946530669685,1.7971697850209396,0.7721950753096056,B,1182.1873000008054,Incorrect,d
19,23,171,B,74.93479356521148,55.091308625879655,3.7467396782605737,0.8653722522785577,B,1108.5517999890726,Correct,d
19,23,172,B,72.19578482585129,55.52914645004927,3.6097892412925647,0.8722497927379326,A,1422.8932000114582,Incorrect,k
19,23,173,A,14.284902196830597,38.77288727177556,0.7142451098415299,0.6090430890573765,B,1331.309400004102,Incorrect,d
19,23,174,B,84.98045142310475,68.89574166509723,4.249022571155238,1.0822117793934485,B,2752.503499999875,Correct,d
19,23,175,B,51.38525373618411,39.58686795216365,2.569262686809205,0.6218290676857328,B,2247.9879000165965,Correct,d
19,23,176,A,53.14105256540702,79.77185570656832,2.657052628270351,1.2530533792549003,A,1481.5678999875672,Correct,k
19,23,177,A,48.93584415,64.58656764926475,2.446792207637755,1.0145234322375516,A,2586.6181000019424,Correct,k
19,23,178,B,72.79124243938247,43.19401610509583,3.6395621219691234,0.6784900183740413,A,2744.775400002254,Incorrect,k
19,23,179,A,49.22497071965374,59.34438854292295,2.461248535982687,0.9321794753911252,B,1214.2892999981996,Incorrect,d
19,23,180,A,28.395156088573252,41.84369855,1.4197578044286627,0.6572792798270085,B,1779.9171000078786,Incorrect,d
19,23,181,A,46.475308817782256,68.29201185585714,2.323765440889113,1.0727284137261393,A,634.9232999782544,Correct,k
19,23,182,B,56.024412173835415,32.99862979818084,2.8012206086917706,0.5183412647624709,B,1083.7778000277467,Correct,d
19,23,183,B,56.20473846970083,27.28553272923086,2.8102369234850415,0.4286001458571776,B,738.3393000054639,Correct,d
19,23,184,B,84.62746784682089,55.96410426721485,4.231373392341045,0.8790820941530768,B,2479.9252999946475,Correct,d
19,23,185,B,84.96304560005615,66.20927598,4.248152280002808,1.0400128750387614,B,586.2779000017326,Correct,d
19,23,186,A,32.85560988,47.641356315263515,1.642780494203785,0.7483486750354277,B,688.3798000053503,Incorrect,d
19,23,187,B,39.62758531912735,16.665923512173126,1.9813792659563674,0.2617877143556625,B,712.6425999740604,Correct,d
19,23,188,B,40.57140254195429,24.514613881321942,2.0285701270977143,0.38507465437575694,A,2796.0662999830674,Incorrect,k
19,23,189,A,12.94679368822744,35.42736274356871,0.6473396844113721,0.5564917126562808,A,1998.1227999960538,Correct,k
19,23,190,B,75.73855983739037,49.511902049761694,3.7869279918695185,0.777731139,B,1394.2761000071187,Correct,d
19,23,191,B,57.50965311092079,25.04347834018314,2.875482655546039,0.3933820378692722,B,3024.2233,Correct,d
19,23,192,B,65.07678701414619,37.37986896767053,3.2538393507073096,0.5871616087049142,B,2666.3398999953642,Correct,d
19,23,193,B,35.49801615837829,15.355871931873054,1.7749008079189144,0.24120947225319042,B,805.9374000004027,Correct,d
19,23,194,B,54.47530001901721,30.70460800205708,2.7237650009508605,0.4823068546530844,B,1024.7158999845851,Correct,d
19,23,195,B,43.269694584249336,29.612717674713203,2.163484729212467,0.4651554814985381,B,1520.9047000098508,Correct,d
19,23,196,A,31.262876625895643,44.07871253552396,1.563143831294782,0.692386797,B,1478.532199980691,Incorrect,d
19,23,197,B,64.97977439963039,52.173255039260184,3.2489887199815195,0.8195355737260323,A,3360.522699978901,Incorrect,k
19,23,198,B,41.07391226602611,29.89969913708442,2.053695613301306,0.4696633757680474,B,1458.9395000075456,Correct,d
19,23,199,B,85.85303415875373,69.57640488115723,4.2926517079376865,1.0929036121891629,A,4941.987400001381,Incorrect,k
19,23,200,A,53.23239694750337,69.18593206115375,2.661619847375168,1.0867700794754158,B,1695.181400020374,Incorrect,d
19,23,201,A,48.61235030200465,74.82383446389912,2.4306175151002325,1.175330043326021,A,1846.236699988367,Correct,k
19,23,202,A,36.59994591471355,67.86965723746364,1.8299972957356774,1.0660940828943657,A,881.7924,Correct,k
19,23,203,B,79.28910722162712,61.589423122317314,3.9644553610813555,0.967444396,B,1085.2192999736872,Correct,d
19,23,204,B,31.165459623440583,17.573430160582895,1.5582729811720293,0.27604279545430266,B,898.7363000051118,Correct,d
19,23,205,B,82.68730939720194,59.270316740936494,4.134365469860097,0.9310159582463311,A,1959.4639999850187,Incorrect,k
19,23,206,B,36.407194205859895,20.244266871940475,1.8203597102929947,0.3179962004109971,B,1160.609899990959,Correct,d
19,23,207,A,46.5158348,68.44653000171186,2.3257917399147003,1.075155579085457,B,805.1008000038564,Incorrect,d
19,23,208,A,50.70738515077685,76.70802963046567,2.5353692575388425,1.2049269117920958,A,938.0550000059884,Correct,k
19,23,209,B,85.00774263179393,68.67813187296849,4.250387131589696,1.0787935727719442,B,1513.898999983212,Correct,d
19,23,210,A,44.34448593442189,70.64382997018463,2.2172242967210947,1.1096706862788923,A,648.8974999811035,Correct,k
19,23,211,B,59.29037300195661,37.68222576,2.96451865,0.5919110180610422,B,1372.026100027142,Correct,d
19,23,212,A,32.311039698385464,61.95762427868059,1.6155519849192732,0.9732280863388978,A,1108.6333999992348,Correct,k
19,23,213,A,53.95197847103887,63.78110609920506,2.697598923551943,1.0018712717954688,B,1747.4790000123903,Incorrect,d
19,23,214,B,64.34010641525593,56.15900936356588,3.2170053207627967,0.8821436562472947,B,5218.763399985619,Correct,d
19,23,215,B,65.91551287753903,53.27394855926902,3.295775643876951,0.8368252271076005,B,1015.1567999855615,Correct,d
19,23,216,A,40.51181044354752,59.214169773915515,2.025590522177376,0.9301340037507587,A,1256.3593000231776,Correct,k
19,23,217,A,44.684871393966205,59.51015852229365,2.23424357,0.9347833841380088,B,980.2504999970552,Incorrect,d
19,23,218,A,44.456316144294604,58.72035528282247,2.222815807,0.9223771838634882,A,991.3072999916039,Correct,k
19,23,219,B,79.66445907628027,62.506391969832194,3.983222953814013,0.9818481090741443,A,951.9463999895379,Incorrect,k
19,23,220,A,64.65528486262062,82.19173912,3.2327642431310313,1.2910648190538725,B,930.4608999809716,Incorrect,d
19,23,221,B,58.05551305078464,25.30831157,2.9027756525392316,0.39754202847331754,B,783.6133,Correct,d
19,23,222,A,44.78030515554018,52.51664318180999,2.239015257777009,0.8249295020558539,B,998.0108999880031,Incorrect,d
19,23,223,B,61.844687286148826,38.117599282372154,3.0922343643074415,0.5987498493898997,A,1511.5538999962155,Incorrect,k
19,23,224,B,43.141220158126956,20.60445372341545,2.1570610079063477,0.32365400224356417,B,836.2949999864213,Correct,d
19,23,225,B,35.30330408240734,10.97298172295016,1.765165204120367,0.17236319384397644,B,986.8136000004597,Correct,d
19,23,226,A,40.88660773979459,53.364112644482546,2.0443303869897296,0.8382415212462229,B,1241.8515000026673,Incorrect,d
19,23,227,B,48.962455956624545,28.562744923817256,2.4481227978312274,0.4486625480951173,A,808.5527000075672,Incorrect,k
19,23,228,A,48.38003007,67.28008330049371,2.4190015032648047,1.0568330771487018,A,952.7186999912374,Correct,k
19,23,229,A,28.02118328199269,46.24466646901047,1.4010591640996346,0.7264095222337678,B,1098.0099000153132,Incorrect,d
19,23,230,B,46.383735185348876,30.220352858091807,2.3191867592674438,0.47470019263936264,A,595.8886000153143,Incorrect,k
19,23,231,A,41.331617864520155,54.23036797821575,2.066580893226008,0.851848628,B,1020.5151999834925,Incorrect,d
19,23,232,B,38.45518640728737,22.015209719458642,1.9227593203643687,0.34581410560944936,B,917.9361000133213,Correct,d
19,23,233,B,36.056124964254465,19.850858484581483,1.8028062482127234,0.311816556,B,1344.2484000115655,Correct,d
19,23,234,B,69.96589849341231,47.90276418788302,3.498294924670615,0.7524548602964877,A,880.8953000116162,Incorrect,k
19,23,235,A,45.145253898117815,57.270766277150805,2.2572626949058905,0.8996070930087753,B,1496.1000999901444,Incorrect,d
19,23,236,A,23.05828229707339,45.834245146436125,1.1529141148536695,0.7199626391743869,A,702.9145999986213,Correct,k
19,23,237,A,50.989894750306924,71.71548461,2.5494947375153463,1.1265041980083412,A,1087.7640999970026,Correct,k
19,23,238,B,45.043832758295395,20.064199250330237,2.2521916379147697,0.3151677048249965,B,889.7465000045486,Correct,d
19,23,239,B,74.85631443494357,43.17608718773738,3.7428157217471782,0.6782083915987407,A,801.7416000075173,Incorrect,k
19,23,240,B,52.67681544794952,24.361513313441137,2.6338407723974764,0.3826697562791831,B,809.4912999949884,Correct,d
19,23,241,A,24.961722832328363,40.32556124295062,1.2480861416164182,0.6334324347636948,B,1492.7960000059102,Incorrect,d
19,23,242,A,31.92679870590422,58.51927707579808,1.596339935295211,0.9192186547735643,A,886.7260999977589,Correct,k
19,23,243,B,43.178587013795905,23.13834582330472,2.158929350689795,0.3634562862735709,B,771.0969000181649,Correct,d
19,23,244,A,50.42549673468436,60.237541455646834,2.521274836734218,0.9462090885368536,B,1565.4755999858025,Incorrect,d
19,23,245,A,62.69810012925964,73.62834610352776,3.134905006462982,1.1565513560740472,A,1374.4245000125375,Correct,k
19,23,246,B,89.21406764837619,67.43692737487541,4.460703382418809,1.059296778107885,B,1385.731999995187,Correct,d
19,23,247,A,15.107166439881269,38.47565116881192,0.7553583219940634,0.6043741152701153,A,816.6571000183467,Correct,k
19,23,248,A,29.750576863342253,60.522171122971244,1.4875288431671125,0.9506800408961539,A,1013.5177999909502,Correct,k
19,23,249,B,73.23822250341638,40.684549813349705,3.6619111251708194,0.639071414,B,1301.8319999973755,Correct,d
19,23,250,A,39.93934326448925,71.76391366376295,1.9969671632244625,1.1272649197946492,A,1145.8729000005405,Correct,k
19,23,251,B,52.0039797,34.54697666877164,2.600198985052075,0.5426626405317548,B,1114.2676000017673,Correct,d
19,23,252,B,76.54390020737102,65.36118160790829,3.8271950103685515,1.026691039846765,B,1502.982099977089,Correct,d
19,23,253,A,34.03367462324421,47.16277277980162,1.7016837311622106,0.7408311024397471,B,878.5331999824848,Incorrect,d
19,23,254,A,46.26027811514409,63.75444702079425,2.3130139057572046,1.0014525119710345,A,659.5802000083495,Correct,k
19,23,255,B,74.96307422708585,58.867444029922595,3.7481537113542926,0.9246876485000658,A,919.8442999913823,Incorrect,k
19,23,256,A,45.21400889093491,74.69129362,2.2607004445467456,1.173248097,B,1429.8821999982465,Incorrect,d
19,23,257,B,74.20916340007354,43.455882819367474,3.7104581700036765,0.6826034111029188,B,938.8784999900963,Correct,d
19,23,258,B,64.26720486786745,40.42183301751936,3.213360243393373,0.6349446682623608,B,1615.197300008731,Correct,d
19,23,259,A,38.36530038834193,57.135813384417084,1.9182650194170963,0.8974872579268104,A,654.0794000029564,Correct,k
19,23,260,A,15.06788723963341,42.895452321744955,0.7533943619816705,0.6738001894320259,A,1310.5936000065412,Correct,k
19,23,261,B,72.71635049974587,47.95792314825941,3.635817524987294,0.7533212952199781,B,5333.327300002566,Correct,d
19,23,262,B,48.51468306927425,37.29997407012273,2.4257341534637122,0.5859066225889366,B,1710.3480999940075,Correct,d
19,23,263,A,36.57466588296312,64.24032891,1.828733294148156,1.0090847268002985,A,971.3287000195123,Correct,k
19,23,264,B,38.782881429792255,28.72102798136327,1.9391440714896129,0.4511488525489886,B,884.5492999826092,Correct,d
19,23,265,B,67.88388535,43.07244337,3.3941942673192154,0.6765803583773277,B,963.7814999732655,Correct,d
19,23,266,B,80.62769705137391,66.22939667,4.031384852568696,1.0403289301052394,B,1999.6224999777041,Correct,d
19,23,267,B,46.52643097962493,20.823483851526092,2.3263215489812463,0.3270945194505003,A,1224.3259000242688,Incorrect,k
19,23,268,B,58.23932325814184,45.97152263787015,2.911966162907092,0.7221189889673487,B,2401.370300009148,Correct,d
19,23,269,A,21.83628473321635,44.930908644802074,1.0918142366608174,0.7057730625881216,A,954.8453999741469,Correct,k
19,23,270,A,41.590407043030616,53.07032656388582,2.0795203521515306,0.8336267402835746,A,1027.974800002994,Correct,k
19,23,271,B,62.785498748627106,48.76926715821611,3.139274937431355,0.7660658571260486,A,2108.4562999894843,Incorrect,k
19,23,272,A,65.89006508913927,77.47719250676514,3.2945032544569637,1.2170088940000776,B,4604.959999996936,Incorrect,d
19,23,273,A,51.09090138413249,57.88453959,2.554545069206625,0.9092482216024173,A,949.5875999855343,Correct,k
19,23,274,B,78.98049166884596,64.65278277129522,3.9490245834422977,1.015563536942189,B,1018.6243999924045,Correct,d
19,23,275,B,77.42124230746842,54.49112670865428,3.8710621153734213,0.8559446167686942,B,1063.8255999947432,Correct,d
19,23,276,B,39.34835773717837,20.45457758391288,1.9674178868589183,0.32129975334951577,B,677.5999999954365,Correct,d
19,23,277,A,54.53430530060758,82.45209049914013,2.726715265030379,1.2951544089260971,A,1577.803699998185,Correct,k
19,23,278,B,80.46910968841053,50.94001193752973,4.023455484420526,0.8001638363835989,A,1256.3346999813803,Incorrect,k
19,23,279,B,68.83835433839393,54.93787461077774,3.441917716919696,0.8629621164052828,B,801.1580999882426,Correct,d
19,23,280,A,30.77444017591467,50.999728700890756,1.5387220087957334,0.8011018651089546,A,916.0134000121616,Correct,k
19,23,281,B,48.48947052737819,34.71312902594842,2.4244735263689092,0.5452725556551709,B,1112.671600014437,Correct,d
19,23,282,B,58.075091211525795,47.26571216308469,2.903754561,0.7424480704911829,A,790.8784999744967,Incorrect,k
19,23,283,A,14.064694447587748,39.21957984937819,0.7032347223793874,0.6160597196584241,B,554.4349999981932,Incorrect,d
19,23,284,A,53.36809672546138,79.62258507639324,2.668404836273069,1.2507086416791262,B,651.8192999938037,Incorrect,d
19,23,285,A,44.503510414601934,74.57012620571243,2.2251755207300965,1.1713448033256493,A,1600.5345000012312,Correct,k
19,23,286,A,65.68970706158159,81.59657292993506,3.2844853530790794,1.281715970373939,B,1062.9027000104543,Incorrect,d
19,23,287,B,43.83393149567143,25.803633813729185,2.1916965747835717,0.4053225321256639,A,755.6501999788452,Incorrect,k
19,23,288,B,52.88562687256497,29.34498818597217,2.6442813436282484,0.4609499965236472,B,1190.6508000101894,Correct,d
19,23,289,A,62.26072601486412,83.33216684343851,3.113036300743206,1.308978615815327,A,1038.369200017769,Correct,k
19,23,290,B,44.46628272818687,16.269111584334144,2.223314136409343,0.2555546071688838,B,1078.223299991805,Correct,d
19,23,291,A,56.76127363952492,84.87785488,2.838063681976246,1.3332582267301794,A,2451.0178999917116,Correct,k
19,23,292,B,64.43039392710172,32.76851797,3.221519696355086,0.5147266765753155,B,1292.2665000078268,Correct,d
19,23,293,B,51.85167599,38.12347788501893,2.592583799713955,0.5988421902643419,B,2253.632000007201,Correct,d
19,23,294,A,31.080191533242285,63.70096809114759,1.554009576662114,1.0006124669085354,A,1091.5396000200417,Correct,k
19,23,295,A,50.10751244,68.30732579654025,2.505375622039965,1.0729689645438771,A,1060.3157999867108,Correct,k
19,23,296,B,74.13458222686405,62.613122018708864,3.7067291113432024,0.9835246207614854,B,2053.1170000031125,Correct,d
19,23,297,B,73.46041050184594,40.976756754549115,3.6730205250922974,0.6436613899401372,B,1751.8714999896474,Correct,d
19,23,298,B,70.37153788682554,60.87760997308243,3.518576894341277,0.9562632612977023,A,1696.5246000036132,Incorrect,k
19,23,299,A,35.32559532024247,62.642193581794906,1.7662797660121237,0.9839812758065829,B,925.5242999934126,Incorrect,d
19,23,300,A,51.27561538425551,59.840791353365375,2.5637807692127756,0.9399769525036614,A,1350.0109000015073,Correct,k
19,23,301,B,51.23875833969415,28.38768144023821,2.5619379169847076,0.44591265732549845,A,728.8156,Incorrect,k
19,23,302,B,58.622268762265364,44.86753119795299,2.931113438113268,0.7047775319809998,B,873.5871000098996,Correct,d
19,23,303,A,23.02483257,34.582572006770825,1.151241628507675,0.5432217707935563,A,1323.9417999866419,Correct,k
19,23,304,A,21.874543740033946,47.20092442152992,1.0937271870016974,0.7414303870266271,B,1005.2848999912385,Incorrect,d
19,23,305,B,51.30112107822289,22.688630149412592,2.565056053911144,0.3563921689870524,B,1768.3516999823041,Correct,d
19,23,306,B,61.127554541013964,49.577111973915805,3.056377727050698,0.7787554538172622,B,1941.6051000007428,Correct,d
19,23,307,B,38.345912906901304,25.991007735547356,1.9172956453450651,0.4082657948069553,A,1257.1584999968763,Incorrect,k
19,23,308,A,50.32348667558143,68.73091138634268,2.5161743337790714,1.0796226314293262,A,1036.9047000131104,Correct,k
19,23,309,B,51.90819633066903,36.71511038285266,2.5954098165334516,0.5767196052725412,B,953.7067999772262,Correct,d
19,23,310,A,64.03641127881215,79.08359989271588,3.201820563940607,1.2422422822119539,A,1283.0705000087619,Correct,k
19,23,311,A,38.86532662369758,60.553584097198325,1.9432663311848788,0.9511734747414499,B,1526.868299988564,Incorrect,d
19,23,312,A,37.13997471030426,66.25943429089052,1.856998735515213,1.0408007599963864,A,763.4561,Correct,k
19,23,313,B,57.063650188498286,43.77226196859604,2.853182509424914,0.6875730831577461,A,616.8642000120599,Incorrect,k
19,23,314,A,63.02398058482139,74.27348847035407,3.1511990292410696,1.1666852286747527,A,789.9328999919817,Correct,k
19,23,315,B,78.06945811965655,59.80363908052365,3.9034729059828273,0.9393933659665428,B,1291.4954999869224,Correct,d
19,23,316,A,61.87885225176413,75.19358896539636,3.093942612588206,1.1811381334536988,B,1378.2261999731418,Incorrect,d
19,23,317,A,55.10192474600344,75.63988107227237,2.755096237300172,1.1881484734752825,B,1354.964,Incorrect,d
19,23,318,B,71.04041545,40.81701756,3.552020772749475,0.6411522124832157,A,1028.0289000074845,Incorrect,k
19,23,319,A,37.732198422695774,67.55386108464808,1.8866099211347886,1.0611335685257792,A,1554.0900999912992,Correct,k
19,23,320,A,49.54313813461897,68.61164856982155,2.4771569067309485,1.0777492554881802,B,1400.353200006066,Incorrect,d
19,23,321,B,87.18708265390164,67.81923896461929,4.359354132695082,1.0653021145164931,A,1126.9601999956649,Incorrect,k
19,23,322,B,54.123171371073944,24.666688005649746,2.7061585685536973,0.38746342913470355,B,1227.8599000128452,Correct,d
19,23,323,B,76.54318540026273,57.93015544358174,3.8271592700131363,0.9099647538143559,B,1341.7205000005197,Correct,d
19,23,324,B,87.21860631638606,64.26003438567695,4.360930315819303,1.0093942597273509,B,1225.556499994127,Correct,d
19,23,325,B,67.52835575213678,52.45754946012606,3.376417787606839,0.8240012600462763,B,1535.0811000098474,Correct,d
19,23,326,A,33.295812408334335,48.70498778368045,1.6647906204167169,0.7650561590719556,A,1092.8195999877062,Correct,k
19,23,327,A,47.977318942674685,54.71425678055715,2.3988659471337344,0.8594495357421194,B,1997.9562999797054,Incorrect,d
19,23,328,A,37.957878729460504,45.485035416312655,1.8978939364730252,0.714477266,A,683.2257999922149,Correct,k
19,23,329,B,87.33927554853153,65.91273374,4.366963777426577,1.0353548005547932,B,1361.262299993541,Correct,d
19,23,330,B,40.81566962753418,18.94402815984972,2.040783481376709,0.29757209848191024,B,1415.6661000160966,Correct,d
19,23,331,B,43.541608194986495,16.28640992295744,2.177080409749325,0.255826329,B,1280.414600012591,Correct,d
19,23,332,B,64.20081780368655,47.85920860061214,3.2100408901843274,0.7517706907315228,B,1270.409299992025,Correct,d
19,23,333,A,63.94938436911248,74.19825659,3.1974692184556237,1.165503489110452,B,485.12330002267845,Incorrect,d
19,23,334,B,69.71838846638106,37.33332831127612,3.4859194233190527,0.5864305497838045,A,472.6532000058796,Incorrect,k
19,23,335,A,41.00105144206201,72.93623019,2.0500525721031004,1.1456796246897978,A,1143.4701000107452,Correct,k
19,23,336,B,69.31540635270437,53.87069828984057,3.4657703176352186,0.8461989499555767,B,1618.6443000042345,Correct,d
19,23,337,A,52.84606367761215,78.23271219587525,2.6423031838806077,1.2288765695248316,B,1954.771399992751,Incorrect,d
19,23,338,B,81.27185024711682,56.33126300980531,4.063592512355841,0.8848494101951941,A,598.7540000060108,Incorrect,k
19,23,339,A,22.466866392704596,50.871682799077185,1.1233433196352296,0.7990905247866557,A,843.3562999998685,Correct,k
19,23,340,B,58.98952138201626,35.55056706810226,2.949476069100813,0.5584270016605064,A,547.2776000096928,Incorrect,k
19,23,341,B,69.26484432,39.29679929205893,3.463242216,0.6172726798276247,A,969.6633000276051,Incorrect,k
19,23,342,B,41.11682802500967,18.560066591791127,2.0558414012504835,0.2915408442745418,B,906.1155000235885,Correct,d
19,23,343,A,15.782509331108539,34.17999364460253,0.789125467,0.5368980846681457,A,588.9242999837734,Correct,k
19,23,344,A,62.31042699000464,79.94620733555527,3.1155213495002325,1.2557920882387341,B,1819.478599994909,Incorrect,d
19,23,345,B,51.86757216954227,42.85322584470611,2.5933786084771135,0.6731368974817648,B,1782.1140000014566,Correct,d
19,23,346,A,37.16907230794816,52.554241478027976,1.8584536153974083,0.8255200947117834,A,951.2527999759186,Correct,k
19,23,347,B,54.74096236145916,44.26246777507107,2.7370481180729582,0.6952732179595912,B,1054.8882000148296,Correct,d
19,23,348,A,23.443051187850713,53.30057247471365,1.1721525593925357,0.8372434345934537,A,758.2719000056386,Correct,k
19,23,349,B,75.97037899,58.768918224710205,3.798518949,0.9231400087708445,B,931.4353,Correct,d
19,23,350,A,64.42781404439165,87.69698229952044,3.2213907022195825,1.3775409766708377,A,1953.9954999927431,Correct,k
19,23,351,B,66.37932001466473,42.11859803820575,3.318966000733236,0.6615973908816433,B,1077.0966999989469,Correct,d
19,23,352,A,41.04643406,49.243412956585985,2.052321702771825,0.7735137219104948,A,909.8295999865513,Correct,k
19,23,353,B,58.31287146500446,44.98028745201003,2.9156435732502235,0.7065487030779594,B,954.3938999995589,Correct,d
19,23,354,A,25.907590145186646,55.908616770363786,1.2953795072593324,0.8782104985907099,A,911.1062999872956,Correct,k
19,23,355,A,54.77613065146622,83.29930063006627,2.738806532573311,1.308462354542919,B,749.3004999996629,Incorrect,d
19,23,356,A,11.776221021931601,34.526223713574325,0.588811051,0.542336654,A,671.1864999961108,Correct,k
19,23,357,A,35.29084161298023,44.75743493999404,1.7645420806490113,0.703048144,B,669.6049000020139,Incorrect,d
19,23,358,B,70.39325929863594,51.825412987720114,3.519662964931797,0.8140716835573928,A,580.4215999960434,Incorrect,k
19,23,359,A,25.956626654074494,49.92592385084991,1.2978313327037247,0.7842345779675676,A,802.5948000140488,Correct,k
19,23,360,A,14.49894932400895,39.667266190666794,0.7249474662004475,0.62309196,A,1196.1355000094045,Correct,k
19,23,361,B,57.078701352541344,36.23375984197305,2.853935067627067,0.569158569,B,1053.622000006726,Correct,d
19,23,362,A,15.248394704683172,37.67328677044051,0.7624197352341585,0.5917706047729874,A,765.3038999997079,Correct,k
19,23,363,A,45.14344942104435,70.41260550802693,2.2571724710522174,1.106038620920668,B,1228.4990000189282,Incorrect,d
19,23,364,B,30.33806658668007,14.28406103455518,1.5169033293340035,0.22437350604793385,B,1469.9030999909155,Correct,d
19,23,365,A,60.643103359369576,87.24968746,3.0321551679684786,1.3705148857723135,A,1890.1060000061989,Correct,k
19,23,366,A,39.49861781834937,50.85927524420744,1.9749308909174688,0.7988956273705168,B,1232.9880000033882,Incorrect,d
19,23,367,B,64.06633895915034,47.52375913299381,3.2033169479575174,0.746501463,B,814.8058,Correct,d
19,23,368,B,59.196085648310664,43.79672780366455,2.9598042824155333,0.687957392,A,1733.350900001824,Incorrect,k
19,23,369,A,21.691528892967785,46.46432146027662,1.0845764446483892,0.7298598547681979,A,1153.5958999884315,Correct,k
19,23,370,A,48.84401079097861,71.45232308,2.4422005395489306,1.1223704662942726,B,853.5366,Incorrect,d
19,23,371,B,62.88654438250299,54.584639365839905,3.1443272191251492,0.8574135101528544,B,1593.2259999972302,Correct,d
19,23,372,B,32.261010787744546,18.66449851363707,1.6130505393872272,0.2931812570668991,B,1204.8618999833707,Correct,d
19,23,373,A,65.63015453859694,88.40693075,3.281507726929847,1.3886928208229627,A,1232.6164999976754,Correct,k
19,23,374,B,36.72869442332023,23.233125671199332,1.8364347211660115,0.3649450846428412,B,1352.2832000162452,Correct,d
19,23,375,B,51.53065759445417,20.721679220399896,2.5765328797227083,0.3254953760442629,B,1319.0009999962058,Correct,d
19,23,376,A,27.093913025510652,38.50001658315489,1.3546956512755326,0.6047568463036229,A,1207.2625999862794,Correct,k
19,23,377,B,60.77458780404676,50.626462410644166,3.038729390202338,0.7952386119325976,B,2045.0510999944527,Correct,d
19,23,378,A,55.80056137823355,80.91606137819755,2.7900280689116777,1.271026519915831,B,2873.560300009558,Incorrect,d
19,23,379,A,42.661921630299794,74.57201448072986,2.1330960815149895,1.1713744642802628,A,726.0876999935135,Correct,k
19,23,380,B,46.93771102433776,34.76644824964495,2.346885551216888,0.5461100920624715,B,928.2243000052404,Correct,d
19,23,381,A,27.997838073324242,54.83073052448321,1.399891903666212,0.8612791010333904,A,844.4043,Correct,k
19,23,382,B,44.77680141272772,26.210149574184033,2.238840070636386,0.4117080667587311,B,888.3873999875505,Correct,d
19,23,383,A,30.150849216548117,62.74769011512868,1.507542460827406,0.9856384114770856,A,676.9731999957003,Correct,k
19,23,384,B,38.541660380403236,12.713499590828953,1.927083019020162,0.19970318457982544,B,1290.867400006391,Correct,d
19,23,385,B,55.77757493742315,28.599613893642378,2.7888787468711573,0.44924168451885726,B,1240.0042999943253,Correct,d
19,23,386,B,63.217704849444544,36.27136728873677,3.160885242472227,0.5697493050497628,B,1335.6018000049517,Correct,d
19,23,387,A,37.44265213836176,70.52187056401829,1.872132606918088,1.1077549524066506,A,747.6515,Correct,k
19,23,388,A,64.11876800699682,80.87114512733618,3.2059384003498406,1.2703209770971666,B,967.7953000064008,Incorrect,d
19,23,389,A,25.410158256450895,49.11728766710316,1.2705079128225447,0.7715325504961392,A,867.9412,Correct,k
19,23,390,B,72.98640659776615,40.05331556041516,3.6493203298883077,0.6291560095825701,B,998.7687999964692,Correct,d
19,23,391,A,58.36413795154631,75.10368829090137,2.918206897577315,1.1797259769609676,A,618.4372999996413,Correct,k
19,23,392,A,40.149721706419854,57.57307549514683,2.0074860853209926,0.9043557551006193,B,1275.2193000051193,Incorrect,d
19,23,393,B,72.38046179895757,40.267949351684166,3.619023089947879,0.6325274692918842,B,918.2405000028666,Correct,d
19,23,394,B,53.250529613596555,30.262741805128417,2.6625264806798277,0.47536603666238075,B,1157.644499995513,Correct,d
19,23,395,A,52.29171539,81.45857319579402,2.614585769711005,1.2795482756190646,A,1572.4498000054155,Correct,k
19,23,396,B,62.59014934110502,47.608875901675674,3.1295074670552507,0.7478384738918621,B,1054.0425000071991,Correct,d
19,23,397,A,37.87278899508933,61.12716922770893,1.8936394497544666,0.9601833289025522,A,1243.0198000220116,Correct,k
19,23,398,B,56.64235962693285,28.140356654374294,2.832117981346643,0.44202768867389464,B,1010.0749999983236,Correct,d
19,23,399,A,29.80306925169119,61.79270806879525,1.4901534625845596,0.9706375885717294,A,1441.4885000151116,Correct,k
19,23,400,A,13.349563124321662,30.844606443732637,0.6674781562160831,0.4845059450324942,A,1048.782800004119,Correct,k
19,23,401,B,36.74940913846268,18.547999893128488,1.8374704569231342,0.29135130101518364,B,1648.6325000005309,Correct,d
19,23,402,A,54.729178914585376,78.41097392140351,2.7364589457292685,1.2316766981615106,A,1445.7563000032678,Correct,k
19,23,403,B,71.79781509,45.71263344776048,3.589890754,0.718052367,B,1710.5636000051163,Correct,d
19,23,404,B,48.37373816980216,40.17865357077995,2.4186869084901077,0.631124814,B,793.0900999926962,Correct,d
19,23,405,B,35.602289788746816,17.268644382931523,1.7801144894373409,0.27125523165436155,B,1149.6501000074204,Correct,d
19,23,406,B,82.94122510926664,59.47521910839226,4.147061255463331,0.9342345571078421,B,1298.9080999977887,Correct,d
19,23,407,B,58.51582850550335,51.09172989604996,2.9257914252751673,0.8025470165031229,A,1009.8336999944877,Incorrect,k
19,23,408,B,64.11640917464028,46.82125883428026,3.2058204587320143,0.7354666139280054,B,763.2128999975976,Correct,d
19,23,409,A,48.97387950513317,68.85809953610217,2.4486939752566586,1.0816204982138666,A,1397.7490999968722,Correct,k
19,23,410,A,26.67090256476189,55.31156929128697,1.3335451282380943,0.8688320987201498,B,712.8237,Incorrect,d
19,23,411,A,47.134687489783275,62.37422161176141,2.356734374489164,0.9797719819444569,B,2189.2308,Incorrect,d
19,23,412,B,52.933569963083286,29.047256358948175,2.6466784981541647,0.45627323592105495,B,696.0862000123598,Correct,d
19,23,413,A,21.618301677949063,49.36798364653962,1.080915083897453,0.7754704737325495,A,951.8531000067014,Correct,k
19,23,414,B,70.45619228144011,38.24300295070409,3.5228096140720053,0.6007196856057238,B,934.3687,Correct,d
19,23,415,A,45.63499874186282,74.21691666,2.2817499370931413,1.1657966007353708,A,1112.0742000057362,Correct,k
19,23,416,B,44.54120984475799,29.47381519202652,2.227060492237899,0.4629736064026688,B,1518.1231999886222,Correct,d
19,23,417,A,26.556655377394282,36.868302402192754,1.327832768869714,0.5791259398852784,B,1167.9488999943715,Incorrect,d
19,23,418,A,21.586102009961085,53.36581995950697,1.0793051004980543,0.8382683396879133,A,810.0161000038497,Correct,k
19,23,419,B,73.58878084556068,42.11588927498397,3.679439042278034,0.661554842,B,1114.688700006809,Correct,d
19,23,420,A,42.101673655626165,74.93098377369417,2.1050836827813084,1.1770131407484679,B,1920.9704000095371,Incorrect,d
19,23,421,A,22.758594357779582,51.88737188921998,1.1379297178889791,0.8150449317062751,A,874.0662999916822,Correct,k
19,23,422,A,38.13205615413729,62.29637741,1.9066028077068642,0.9785492080971521,B,2101.3759000052232,Incorrect,d
19,23,423,A,48.73065742,62.64170965960993,2.4365328712489203,0.9839736743746766,A,909.1307999915443,Correct,k
19,23,424,A,22.931823752107714,42.03291966993547,1.1465911876053858,0.6602515582199958,B,594.7474999993574,Incorrect,d
19,23,425,A,65.71302460298561,89.51456498676048,3.2856512301492806,1.406091498758464,B,1048.2571000175085,Incorrect,d
19,23,426,A,38.95492747845892,57.87180911852795,1.9477463739229461,0.909048252,A,733.7051999929827,Correct,k
19,23,427,B,69.99485419898457,45.298020282037726,3.4997427099492286,0.7115396387010559,A,753.5746000066865,Incorrect,k
19,23,428,A,31.11928997948636,51.11911328331172,1.555964498974318,0.8029771537443824,A,847.8334999817889,Correct,k
19,23,429,B,71.16381725040105,43.34222342549638,3.5581908625200525,0.6808180535189343,B,678.3185999956913,Correct,d
19,23,430,A,62.140572607652786,79.94984292,3.107028630382639,1.2558491958267064,A,881.1324000125751,Correct,k
19,23,431,B,60.32839481358033,44.45859589681297,3.0164197406790163,0.6983539912917247,B,815.0763000012375,Correct,d
19,23,432,B,65.94854144239615,53.65323929787063,3.297427072119808,0.8427831120974278,B,1111.4696000004187,Correct,d
19,23,433,B,63.16019489052801,49.55104457882936,3.1580097445264004,0.7783459881327532,A,1013.3837000175845,Incorrect,k
19,23,434,A,49.95844218452285,58.33354365115029,2.4979221092261428,0.9163011609615664,B,1115.4091999924276,Incorrect,d
19,23,435,A,50.43508728775684,80.59719397072301,2.521754364387842,1.266017762391875,B,1032.9230000206735,Incorrect,d
19,23,436,A,51.54411670784907,69.16945986,2.5772058353924536,1.0865113347432047,A,520.7417999918107,Correct,k
19,23,437,A,36.02847116361138,63.5098,1.801423558180569,0.9976096056102516,A,547.3760000022594,Correct,k
19,23,438,A,22.658753990546213,34.14708098977327,1.1329376995273106,0.536381094,B,898.7995999923442,Incorrect,d
19,23,439,B,35.39380049717124,23.778809190617952,1.769690024858562,0.3735166613217941,A,739.8213999986183,Incorrect,k
19,23,440,A,17.820921973875258,37.81311658,0.891046099,0.5939670463280596,A,876.8190999981016,Correct,k
19,23,441,A,52.888972296604756,81.33071683731637,2.6444486148302375,1.2775399126365239,B,588.7705000059213,Incorrect,d
19,23,442,B,78.60988164415316,55.01312474774829,3.9304940822076584,0.8641441427927244,B,1605.679100000998,Correct,d
19,23,443,A,26.680401222285013,46.77420753188729,1.3340200611142508,0.7347275337983074,B,1231.7296,Incorrect,d
19,23,444,B,40.640924495352124,20.460044558135976,2.032046224767606,0.32138562837979906,B,1112.9644000029657,Correct,d
19,23,445,A,27.240205771357264,54.749818136734916,1.362010288567863,0.8600081322187183,A,2388.1192000117153,Correct,k
19,23,446,A,28.165652504671456,41.30394544484359,1.408282625233573,0.6488008578689711,B,861.3478,Incorrect,d
19,23,447,A,55.88413668535765,74.05364475803277,2.7942068342678827,1.1632319317169202,B,2551.7076999822166,Incorrect,d
19,23,448,A,45.68088587016862,54.59250911268373,2.284044293508431,0.8575371278472053,A,1007.8525000135414,Correct,k
19,23,449,A,36.06551050848263,53.18688404419031,1.8032755254241317,0.8354576209028022,B,800.5761000094935,Incorrect,d
19,23,450,B,69.73772880789244,54.30710882681396,3.486886440394622,0.8530540706401006,B,811.1613999935798,Correct,d
19,23,451,B,47.82754728392201,40.857678808468066,2.3913773641961003,0.6417909179370733,B,2235.4412999993656,Correct,d
19,23,452,A,25.26744756,40.38037892925484,1.2633723779834551,0.6342935089665953,A,810.6567999930121,Correct,k
19,23,453,A,63.83282813660843,80.02753843340844,3.1916414068304215,1.2570696341363539,B,669.4752000039443,Incorrect,d
19,23,454,A,20.641139857109366,50.99098628116913,1.0320569928554684,0.8009645395010943,B,825.6391000177246,Incorrect,d
19,23,455,A,23.871688068486957,50.84809856079144,1.193584403424348,0.7987200644379606,A,949.1998000012245,Correct,k
19,23,456,A,27.021501206946844,59.24255793813868,1.3510750603473423,0.9305799239916208,A,955.8440999826416,Correct,k
19,23,457,B,66.92985001095492,34.00142192931122,3.346492500547746,0.5340930867236551,B,1917.3597000190057,Correct,d
19,23,458,A,43.29995910662479,66.73203436823418,2.1649979553312395,1.0482243446517305,A,1091.4585000136867,Correct,k
19,23,459,B,87.40144418522736,59.68214280720551,4.370072209261369,0.9374849069680687,B,712.0453999959864,Correct,d
19,23,460,B,42.368725851516515,18.749088618306086,2.1184362925758258,0.294509995,B,2947.3977,Correct,d
19,23,461,A,31.223275447838247,44.876303552528796,1.5611637723919125,0.704915328,A,1804.5826999878045,Correct,k
19,23,462,A,37.241745451398145,67.02759039,1.8620872725699074,1.0528669277716742,B,919.7676000185311,Incorrect,d
19,23,463,A,40.96168385729795,55.09703159599291,2.048084192864897,0.8654621484828803,A,830.6527,Correct,k
19,23,464,B,80.60298769279198,52.23998998822279,4.030149384639599,0.8205838438530252,B,1188.7323000119068,Correct,d
19,23,465,A,48.69066458416628,64.68440675374436,2.434533229208314,1.0160602852968863,B,1231.4846999943256,Incorrect,d
19,23,466,A,23.327900776356262,38.06220949654079,1.166395038817813,0.597879789,A,768.9314000017475,Correct,k
19,23,467,A,60.69499200818018,85.42779951504663,3.034749600409009,1.3418967368440609,B,929.4762,Incorrect,d
19,23,468,A,51.37589743980875,66.16067617,2.5687948719904377,1.0392494710927644,A,856.502,Correct,k
19,23,469,B,83.46815705230736,65.03415014912122,4.173407852615368,1.0215540417046738,B,1143.8690000213683,Correct,d
19,23,470,B,82.29905680635264,55.03796191850582,4.114952840317631,0.8645342841586634,B,816.8165999813937,Correct,d
19,23,471,A,22.98654006406253,51.75723579141997,1.1493270032031264,0.8130007586621986,A,773.3263999980409,Correct,k
19,23,472,B,82.10738710956583,64.42441433651335,4.105369355478292,1.0119763339570764,B,735.7454000157304,Correct,d
19,23,473,A,34.46532069751996,56.26132027742927,1.7232660348759978,0.8837507523241713,B,592.7679000014905,Incorrect,d
19,23,474,B,40.126887189365405,23.649057844362463,2.006344359,0.3714785319408459,B,926.5231000026688,Correct,d
19,23,475,B,35.96349965756667,12.000983819691971,1.7981749828783335,0.18851101301897136,B,652.3966999957338,Correct,d
