subject,day,trial,cat,x,y,xt,yt,resp,rt,fb
19,7,0,B,81.74455946760918,52.714412278448165,4.087227973380459,0.8280360517613816,A,1521.8522000359371,Incorrect
19,7,1,A,15.55589475598039,32.962404060288556,0.7777947377990195,0.5177722322023045,A,561.1978999804705,Correct
19,7,2,A,20.243508705964807,34.14958276705115,1.0121754352982404,0.5364203917206225,A,518.739299965091,Correct
19,7,3,A,53.90333279347429,61.82519939124811,2.695166639673715,0.9711479610713462,A,1195.9438000340015,Correct
19,7,4,A,37.79037826689313,67.20152229173922,1.8895189133446564,1.0555990437088933,A,630.9288999764249,Correct
19,7,5,A,29.43870994878484,53.13506772554819,1.471935497439242,0.8346436920728915,A,687.1492000063881,Correct
19,7,6,A,57.04483893057757,82.05440054330943,2.852241946528878,1.288907509707876,A,964.5678999368101,Correct
19,7,7,B,57.8326019862059,31.860817858736944,2.891630099310295,0.5004685566118523,B,869.4198000011966,Correct
19,7,8,B,46.746795057243396,32.479696834629046,2.3373397528621696,0.5101898848324713,B,638.4862000122666,Correct
19,7,9,A,31.854057370014466,55.74431021647918,1.5927028685007232,0.8756295772776074,A,515.5745999654755,Correct
19,7,10,B,63.19513379961392,52.95124152623636,3.159756689980696,0.8317561568864147,B,832.4220000067726,Correct
19,7,11,B,70.99252245521437,57.66788467503746,3.549626122760719,0.9058450142158055,B,592.1420999802649,Correct
19,7,12,A,26.812404107519452,59.62495824113847,1.3406202053759726,0.9365866539047941,A,805.6092000333592,Correct
19,7,13,B,78.03816586640968,63.82501062622931,3.9019082933204845,1.0025609224932623,B,496.4497000910342,Correct
19,7,14,A,41.46724183620474,54.36555045957256,2.073362091810237,0.8539720696607919,A,452.0505000837147,Correct
19,7,15,A,38.45566153414952,67.62285809163596,1.922783076707476,1.0622173709771432,A,504.91000001784414,Correct
19,7,16,B,75.27214754418728,64.37004627596156,3.763607377209364,1.0111223224589792,A,685.5632000369951,Incorrect
19,7,17,B,74.20592238368964,42.71385334552282,3.7102961191844823,0.6709476393840315,B,702.4872000329196,Correct
19,7,18,B,67.78369276954007,54.19163961146003,3.389184638477003,0.8512402844467423,B,645.035499939695,Correct
19,7,19,A,50.79125029436429,78.52168760574546,2.5395625147182144,1.2334157846484133,B,568.4087999397889,Incorrect
19,7,20,B,63.717810311990036,31.077113352222113,3.185890515599502,0.4881581550105913,B,667.7629000041634,Correct
19,7,21,A,39.85273204850401,50.6229434096285,1.9926366024252005,0.7951833355939034,A,845.8189000375569,Correct
19,7,22,A,64.3985808826766,80.0931092903454,3.2199290441338295,1.2580996187485676,A,683.424900053069,Correct
19,7,23,B,78.72718690056824,64.02443050288504,3.9363593450284124,1.0056934025906694,B,1843.2073999429122,Correct
19,7,24,B,60.96487326468229,28.114954815264284,3.048243663234114,0.4416286775182163,B,572.5389000726864,Correct
19,7,25,B,51.090296594120524,40.19550625853457,2.5545148297060263,0.6313895358456739,B,864.0799999702722,Correct
19,7,26,A,37.575857202683835,51.05480131512499,1.8787928601341917,0.8019669437104159,B,710.2627999847755,Incorrect
19,7,27,A,17.95309170707014,33.679014637479966,0.8976545853535071,0.5290287248262509,A,568.0792999919504,Correct
19,7,28,A,46.10242455478467,77.35421585471387,2.3051212277392334,1.215077181266841,A,895.6368999788538,Correct
19,7,29,B,68.9385813228423,58.471486584619385,3.446929066142115,0.9184679634935721,A,1107.9689000034705,Incorrect
19,7,30,A,35.5309914946686,59.97403684413029,1.77654957473343,0.9420699677782164,A,531.3656999496743,Correct
19,7,31,A,22.76592939423848,42.81436346779222,1.138296469711924,0.6725264486926963,A,476.8196999793872,Correct
19,7,32,A,39.137118521066995,48.7694463628448,1.9568559260533498,0.7660686720657733,A,494.57910005003214,Correct
19,7,33,B,63.05708645759631,46.77322737718042,3.152854322879816,0.734712137564175,B,596.736800041981,Correct
19,7,34,B,60.131079470397154,38.42439544738832,3.0065539735198574,0.6035689922807213,B,539.7107000462711,Correct
19,7,35,A,30.662158801699487,54.927540758255766,1.5331079400849743,0.8627997926294512,A,501.5605000080541,Correct
19,7,36,B,69.93275870771197,53.180021894062904,3.4966379353855985,0.8353498305006618,B,463.4121999843046,Correct
19,7,37,B,66.02469548064647,50.88924441913136,3.3012347740323236,0.7993663820693924,B,759.6127999713644,Correct
19,7,38,A,49.77969206216316,62.370450029585975,2.488984603108158,0.979712738070183,A,599.6006999630481,Correct
19,7,39,A,36.28418961933382,45.80868778835568,1.8142094809666913,0.7195611851324333,A,509.7473000641912,Correct
19,7,40,A,23.88788334642413,47.54930937988445,1.1943941673212064,0.7469028051555662,A,482.4166999896988,Correct
19,7,41,A,28.907151712107282,58.89122654970636,1.445357585605364,0.9250612234472484,A,476.72399994917214,Correct
19,7,42,B,60.37808151176775,46.4559823358855,3.0189040755883876,0.7297288641085754,B,1038.7138000223786,Correct
19,7,43,A,38.492706479843704,51.85981496516222,1.9246353239921854,0.8146120685553981,A,477.6467001065612,Correct
19,7,44,B,62.54455444763215,49.99780991090306,3.1272277223816074,0.78536376155836,A,462.43189997039735,Incorrect
19,7,45,A,56.76209913236547,85.65797096784755,2.8381049566182734,1.3455122615699884,A,869.1113000968471,Correct
19,7,46,B,54.02334036468632,24.681243584014492,2.7011670182343157,0.3876920676250007,B,545.4612000612542,Correct
19,7,47,A,41.26860762173427,61.70471168978287,2.0634303810867136,0.9692553446824904,A,706.4195999410003,Correct
19,7,48,B,79.67224263987094,48.54391820067907,3.983612131993547,0.7625260839785862,B,535.3643998969346,Correct
19,7,49,B,73.46821465829566,45.052442491569984,3.673410732914783,0.7076821117889646,B,575.108400080353,Correct
19,7,50,A,43.80516052691415,56.12205554657067,2.190258026345708,0.8815631870473237,B,652.8835999779403,Incorrect
19,7,51,B,77.5191908115281,57.451102939064526,3.8759595405764053,0.9024398146699805,A,713.7099999235943,Incorrect
19,7,52,B,73.62745793417201,47.409692843093836,3.681372896708601,0.7447097137240609,B,2598.314500064589,Correct
19,7,53,B,51.0183486114174,30.961533232078125,2.55091743057087,0.4863426267288644,B,612.0251000393182,Correct
19,7,54,A,42.71508765611555,65.21711794902477,2.1357543828057772,1.0244280931847765,A,508.7591999908909,Correct
19,7,55,A,41.28299655723142,64.44547765454345,2.0641498278615713,1.0123071957829946,A,552.4202999658883,Correct
19,7,56,A,45.87409892576465,62.84669290554906,2.2937049462882326,0.9871935436724336,A,662.0364000555128,Correct
19,7,57,A,66.95393111307048,79.65335453657411,3.347696555653524,1.251191967229422,A,802.4438999127597,Correct
19,7,58,A,57.577178804828925,78.62114653230822,2.8788589402414466,1.2349780818135307,A,1010.9080999391153,Correct
19,7,59,B,54.783818792750466,27.145549978234058,2.7391909396375236,0.42640130194637343,A,976.884700008668,Incorrect
19,7,60,A,33.00925569250005,61.03482196002603,1.6504627846250026,0.9587327414138938,A,609.3793000327423,Correct
19,7,61,A,16.348454006969718,35.85532397990356,0.8174227003484859,0.5632141120367348,A,498.4688999829814,Correct
19,7,62,A,33.162942641770115,55.646254897221155,1.6581471320885057,0.874089327924475,A,693.5262000188231,Correct
19,7,63,B,68.22126187022641,43.66571270182205,3.4110630935113204,0.6858994111890333,A,481.3645000103861,Incorrect
19,7,64,A,39.966314105915025,66.9986645774815,1.9983157052957512,1.0524125621847131,A,527.3243999108672,Correct
19,7,65,B,53.591388216094494,30.90858194059755,2.6795694108047248,0.4855108697872971,B,789.4144000019878,Correct
19,7,66,B,65.30939885563397,39.95561364519973,3.2654699427816984,0.6276213114871579,B,378.06309992447495,Correct
19,7,67,B,41.30676395480855,27.77123169707273,2.0653381977404277,0.43622948740331846,B,420.897200005129,Correct
19,7,68,B,46.5257168291853,31.289490999077227,2.326285841459265,0.49149417528632483,B,426.43560003489256,Correct
19,7,69,A,24.10741605762035,49.12940482043802,1.2053708028810175,0.7717228862956353,A,442.4414000241086,Correct
19,7,70,B,77.86361527237838,66.2679531844282,3.8931807636189193,1.04093457446316,A,710.5024999473244,Incorrect
19,7,71,A,40.13442433448715,50.408042999653134,2.0067212167243578,0.7918076878477435,A,1019.5864000124857,Correct
19,7,72,A,58.45376028223501,74.29079187486818,2.9226880141117504,1.1669570299172707,A,688.6185000184923,Correct
19,7,73,A,61.20821193540782,70.41612958970802,3.0604105967703905,1.1060939770662679,A,1047.6515999762341,Correct
19,7,74,A,55.85249509910832,83.08136723742163,2.792624754955416,1.3050390648163974,B,733.2167000276968,Incorrect
19,7,75,B,59.03389459902903,30.279506665407986,2.9516947299514515,0.4756293784718446,B,922.1530000213534,Correct
19,7,76,A,24.42397659271134,46.449247538046635,1.2211988296355671,0.7296230741515054,A,538.182899937965,Correct
19,7,77,A,19.056097496225444,32.89965861323927,0.9528048748112723,0.5167866290248232,A,642.8506999509409,Correct
19,7,78,A,30.11557166642675,55.89743483890642,1.5057785833213375,0.8780348532221129,A,481.63659998681396,Correct
19,7,79,A,44.79091785356532,72.15706204883091,2.2395458926782656,1.1334404801861502,A,535.3399999439716,Correct
19,7,80,B,46.00253248003078,31.19689920082613,2.300126624001539,0.4900397467204833,B,802.7519999304786,Correct
19,7,81,A,66.5669224239889,78.3510985659375,3.328346121199445,1.2307361782771953,B,1161.4275999600068,Incorrect
19,7,82,A,41.925387576321526,65.54387926460699,2.0962693788160762,1.0295608479273284,A,487.77020000852644,Correct
19,7,83,B,89.01378335961425,63.67378987981587,4.450689167980713,1.0001855525632481,B,810.990099911578,Correct
19,7,84,B,52.2213605302157,26.653757381925693,2.611068026510785,0.41867624190811237,B,1221.1395000340417,Correct
19,7,85,B,37.59014224620207,25.421639152351986,1.8795071123101037,0.3993221740161983,B,731.6677999915555,Correct
19,7,86,B,70.91931241129654,47.967854636318535,3.5459656205648273,0.7534772986696071,B,532.4217999586836,Correct
19,7,87,B,53.48848712194747,35.12486972813036,2.6744243560973735,0.5517401634809643,B,719.2776999436319,Correct
19,7,88,B,64.7975756043447,45.909807815123465,3.2398787802172353,0.7211495747985557,B,613.9325998956338,Correct
19,7,89,A,51.69316071683986,66.18486403569165,2.584658035841993,1.0396294131668409,A,674.431600025855,Correct
19,7,90,A,10.351089674170456,32.80006850966551,0.5175544837085228,0.5152222713360354,A,497.2795000066981,Correct
19,7,91,B,81.03711028291926,66.29753673334729,4.051855514145963,1.0413992717629164,B,585.8873000834137,Correct
19,7,92,A,21.444323954704558,38.14591851427855,1.0722161977352278,0.5991946868444618,A,457.54450000822544,Correct
19,7,93,A,53.03551328908786,82.90645291957229,2.651775664454393,1.3022915171365819,A,766.4963999995962,Correct
19,7,94,B,59.26235195129297,36.25833108837518,2.963117597564649,0.5695445328933294,B,835.6973000336438,Correct
19,7,95,A,57.09704751726849,68.42058869493806,2.8548523758634246,1.0747480939915315,A,1157.7444999711588,Correct
19,7,96,A,26.51396099901163,41.311239509340545,1.3256980499505815,0.6489154327661634,A,850.8555999724194,Correct
19,7,97,A,59.1523671413197,72.4242025007354,2.957618357065985,1.1376367125920495,A,830.1670000655577,Correct
19,7,98,B,50.31786016831869,40.26203654793246,2.5158930084159348,0.6324345911877418,A,949.6287000365555,Incorrect
19,7,99,B,47.19242337906819,39.753934100659585,2.3596211689534097,0.6244533366096245,B,541.8932000175118,Correct
19,7,100,A,55.241529509890675,68.49095363945293,2.762076475494534,1.075853383955322,B,566.385900019668,Incorrect
19,7,101,A,27.639901976775235,42.84191601933289,1.3819950988387617,0.6729592431602355,A,755.1337999757379,Correct
19,7,102,A,43.398911754470376,63.124297556793216,2.1699455877235185,0.9915541473371884,A,976.372699951753,Correct
19,7,103,B,58.705354418086635,46.54123012448373,2.9352677209043314,0.7310679332405502,A,665.5061999335885,Incorrect
19,7,104,B,70.36034531851028,55.286476988809625,3.518017265925514,0.8684379497545274,B,547.5539000472054,Correct
19,7,105,B,61.56918744268567,42.45390757348357,3.0784593721342834,0.6668644207451803,B,725.8332999190316,Correct
19,7,106,A,61.37784142721006,84.33479061604442,3.068892071360503,1.3247277932069927,A,705.2903000731021,Correct
19,7,107,B,60.29092414351321,27.994532077032567,3.014546207175661,0.43973708156944663,B,503.6808999720961,Correct
19,7,108,A,23.24714443282663,55.514017176797466,1.1623572216413316,0.8720121426694225,A,436.97399995289743,Correct
19,7,109,A,68.02853298035073,86.5931104590951,3.401426649017537,1.3602013983489132,A,778.2333999639377,Correct
19,7,110,B,71.99014785372788,53.46488427627857,3.5995073926863936,0.8398244383369259,A,705.8091000653803,Incorrect
19,7,111,B,56.362994747774806,33.572548467493746,2.8181497373887403,0.5273563581388281,B,563.958500046283,Correct
19,7,112,B,49.86108345498064,35.035394849575084,2.493054172749032,0.5503346953752138,B,433.19020001217723,Correct
19,7,113,A,54.39258588002921,66.62301270535312,2.7196292940014604,1.046511836375784,B,881.5774000249803,Incorrect
19,7,114,A,39.812242704774064,49.77416883681448,1.9906121352387032,0.7818508157813719,A,524.7996000107378,Correct
19,7,115,B,45.64095727518121,36.92627814766977,2.2820478637590607,0.5800366207656632,A,689.6257000043988,Incorrect
19,7,116,A,43.07062812609547,73.6049729570455,2.1535314063047735,1.1561842115476477,A,537.4071999685839,Correct
19,7,117,B,57.97014180641819,50.48023411848058,2.8985070903209094,0.7929416632905572,B,548.8182000117376,Correct
19,7,118,B,56.67913120698139,33.56489671166643,2.8339565603490695,0.5272361646393573,B,801.9707000348717,Correct
19,7,119,A,27.181615524303766,38.19908802544567,1.3590807762151882,0.6000298715728497,A,1248.6111000180244,Correct
19,7,120,B,73.53939617821268,44.187789772754314,3.6769698089106337,0.6941001786422757,A,618.8818999798968,Incorrect
19,7,121,B,46.725579160310154,36.530239727999664,2.336278958015508,0.5738156638167887,B,715.7177999615669,Correct
19,7,122,A,45.39320491485521,70.27103526405482,2.2696602457427604,1.1038148407285195,A,797.0731999957934,Correct
19,7,123,A,46.574716505171416,55.185768165727396,2.328735825258571,0.8668560192607934,A,570.3598000109196,Correct
19,7,124,B,35.596737128538784,10.61919506345216,1.7798368564269393,0.1668059259918915,B,633.3001999882981,Correct
19,7,125,B,73.00872995666943,61.93056095833282,3.6504364978334713,0.9728029766969661,B,664.4300000043586,Correct
19,7,126,A,66.5470518331858,88.0508163841186,3.3273525916592903,1.383098989474654,A,619.4329999852926,Correct
19,7,127,A,31.1959974815673,47.02936303652915,1.559799874078365,0.7387355070928368,A,668.3922000229359,Correct
19,7,128,B,80.59625912329831,51.57927410028738,4.029812956164915,0.8102053429547856,B,883.1555000506341,Correct
19,7,129,B,51.3782916215345,28.653931550483684,2.5689145810767253,0.4500949042773217,B,698.6099000787362,Correct
19,7,130,A,38.9935264919211,51.753415875116794,1.949676324596055,0.8129407555572215,B,680.1737999776378,Incorrect
19,7,131,B,64.63416939683306,40.38201075018988,3.231708469841653,0.6343191415499028,A,901.3763999100775,Incorrect
19,7,132,A,34.64650493779968,48.40747803781651,1.7323252468899841,0.7603828869120679,A,518.728099996224,Correct
19,7,133,A,30.60555493115967,47.721391946603546,1.5302777465579833,0.749605871792644,A,516.1594999954104,Correct
19,7,134,B,63.68594307434426,49.94550003620479,3.1842971537172127,0.7845420799680487,A,857.1695999708027,Incorrect
19,7,135,B,67.39864326593384,44.49401915443978,3.369932163296692,0.6989104185213578,B,701.5702000353485,Correct
19,7,136,B,55.909646817600034,29.208649655248614,2.795482340880002,0.45880839589103545,B,726.6143000451848,Correct
19,7,137,B,84.6134395915289,63.02660967294268,4.230671979576445,0.9900196696459407,B,576.4369000680745,Correct
19,7,138,A,20.317959537241382,33.88250228617403,1.015897976862069,0.5322251013374186,A,627.3255000123754,Correct
19,7,139,A,34.597557759244715,58.0557345884084,1.7298778879622358,0.9119373464085133,A,509.0744000626728,Correct
19,7,140,B,74.71634516009766,43.20004859523693,3.735817258004883,0.678584776507592,B,512.5717000337318,Correct
19,7,141,A,42.28330498257856,69.45089940987724,2.114165249128928,1.09093217685637,A,525.0705999787897,Correct
19,7,142,B,32.96813457713522,18.093508523228238,1.648406728856761,0.28421216727119064,B,1106.6107000224292,Correct
19,7,143,A,44.126703610384254,66.09022607777796,2.2063351805192126,1.0381428436001792,A,690.6320999842137,Correct
19,7,144,B,51.13885151959946,38.566367388200675,2.556942575979973,0.6057990823120811,B,745.7358000101522,Correct
19,7,145,A,32.8753327695954,46.44548774543664,1.64376663847977,0.7295640154672925,A,478.6652000620961,Correct
19,7,146,B,56.719636334771536,41.938299983534755,2.8359818167385766,0.6587652756615887,B,717.2359999967739,Correct
19,7,147,A,64.2347918099419,83.79896217378118,3.211739590497095,1.3163110197179995,A,609.5227999612689,Correct
19,7,148,B,51.534417262618966,22.347407210315097,2.5767208631309484,0.3510322515935274,B,597.8869000682607,Correct
19,7,149,B,78.44454763348418,47.61415745802807,3.9222273816742086,0.7479214363850432,B,519.6950999088585,Correct
19,7,150,B,62.54559147453092,38.33262943739159,3.127279573726546,0.6021275351664463,B,501.98060006368905,Correct
19,7,151,A,15.640226579010154,32.256363531367626,0.7820113289505076,0.5066817735083312,A,510.2891999995336,Correct
19,7,152,B,54.14258970917441,25.612643478629888,2.7071294854587205,0.40232246295739094,B,460.1760999066755,Correct
19,7,153,B,54.725465384632756,26.834842400110595,2.7362732692316376,0.4215207187221367,B,697.925699991174,Correct
19,7,154,A,42.48166989042859,67.02662758843628,2.1240834945214293,1.052851804133652,A,1352.65079990495,Correct
19,7,155,B,67.86885162431692,50.15758040558794,3.3934425812158455,0.7878734306201721,B,636.269300011918,Correct
19,7,156,A,32.75295870298328,65.87183593647289,1.637647935149164,1.0347123792824768,A,650.337600032799,Correct
19,7,157,A,18.879356059567716,45.506845110406175,0.9439678029783858,0.7148198514345032,A,435.7550999848172,Correct
19,7,158,A,56.19043687589539,68.25566575411602,2.8095218437947693,1.0721574904950566,B,605.864700046368,Incorrect
19,7,159,B,49.42064212559795,36.7914076742204,2.471032106279898,0.5779180803227898,B,1955.160600016825,Correct
19,7,160,A,39.19524180181327,57.72565213528822,1.9597620900906634,0.906752423359507,A,718.0331000126898,Correct
19,7,161,A,12.977481124491344,37.212379834543185,0.6488740562245673,0.5845306955539692,A,485.76309997588396,Correct
19,7,162,B,49.053756235255946,39.43069958536357,2.4526878117627975,0.6193759807164215,A,1130.5857999250293,Incorrect
19,7,163,A,53.040905950656935,67.46780068716966,2.6520452975328466,1.059781734963363,A,929.6945000533015,Correct
19,7,164,B,51.25408250675431,35.86549402129332,2.5627041253377154,0.5633738626733187,B,715.1161999208853,Correct
19,7,165,A,31.888658144321163,44.57996443388225,1.5944329072160581,0.7002604438138937,A,725.727399927564,Correct
19,7,166,A,55.44772915846072,68.8700696037684,2.772386457923036,1.0818085235970825,B,778.4117000410333,Incorrect
19,7,167,B,48.48285798175599,29.075313615746815,2.4241428990877996,0.4567139582802474,B,667.0480000320822,Correct
19,7,168,B,80.46463732875505,48.86250389025862,4.023231866437752,0.7675304162881958,B,697.2404000116512,Correct
19,7,169,B,51.11105142060195,43.795233408073585,2.5555525710300975,0.6879339176852712,B,694.8902000440285,Correct
19,7,170,A,21.919188376135224,52.68886366741514,1.0959594188067612,0.8276347351177279,A,513.9489000430331,Correct
19,7,171,A,58.05637495587828,81.90774704148052,2.902818747793914,1.2866038818880317,A,732.3149000294507,Correct
19,7,172,A,18.679061413999744,45.424663848703545,0.9339530706999872,0.7135289511943645,A,428.33869997411966,Correct
19,7,173,B,57.88976975323631,33.80169572717492,2.8944884876618153,0.5309557948768512,B,617.0289000729099,Correct
19,7,174,B,55.928283582427625,31.98068975220706,2.7964141791213812,0.5023514999113404,B,568.0188999976963,Correct
19,7,175,B,67.00321891766266,39.2449367206937,3.350160945883133,0.6164580244616381,B,562.9305000184104,Correct
19,7,176,B,64.30350543802888,41.51569346615483,3.215175271901444,0.652126988009789,B,695.3725999919698,Correct
19,7,177,A,61.57178768422435,78.58631127501023,3.078589384211217,1.2344308908714643,A,613.479399937205,Correct
19,7,178,A,32.70577552148077,48.845402426844224,1.6352887760740384,0.7672617871290544,A,679.4221000745893,Correct
19,7,179,B,85.2142384764272,57.52465359836944,4.26071192382136,0.9035951457246755,B,816.2276999792084,Correct
19,7,180,A,32.45620563918477,54.470206618400375,1.6228102819592385,0.8556160047594238,A,706.0249999631196,Correct
19,7,181,A,29.10532985018139,52.702019493578504,1.4552664925090695,0.8278413863518617,A,543.5871999943629,Correct
19,7,182,A,34.84623434362691,46.60617721679156,1.7423117171813456,0.7320881197808818,A,602.7572000166401,Correct
19,7,183,B,89.09348545223432,68.83186105497478,4.454674272611715,1.0812083451161107,B,558.2910999655724,Correct
19,7,184,A,22.116538175988026,47.82499962571872,1.1058269087994013,0.7512333374104626,A,401.2111999327317,Correct
19,7,185,B,55.405216326831564,30.784146196069,2.7702608163415783,0.48355623768302275,B,643.7409999780357,Correct
19,7,186,A,63.36056020742555,82.53559991800192,3.1680280103712777,1.2964661718101058,B,727.6569000678137,Incorrect
19,7,187,B,81.78010453895253,60.886441111091386,4.089005226947626,0.9564019804891614,A,933.8012000080198,Incorrect
19,7,188,B,34.1245398900913,21.558969406953562,1.7062269945045647,0.33864749953926204,A,600.064400001429,Incorrect
19,7,189,A,41.58194232452491,52.98303102014164,2.0790971162262455,0.8322555050889855,B,719.5346000371501,Incorrect
19,7,190,A,40.29751072410295,55.66074875974471,2.0148755362051474,0.8743169969846059,A,614.6780999843031,Correct
19,7,191,B,78.6170699359139,49.23301332572884,3.930853496795695,0.7733503648909905,A,808.2302000839263,Incorrect
19,7,192,A,63.64412013007977,87.40958029233724,3.1822060065039888,1.373026476498869,A,848.0794000206515,Correct
19,7,193,B,86.0099187039696,61.76848386790949,4.30049593519848,0.9702570757140205,B,1029.4177000178024,Correct
19,7,194,B,50.43219158056085,20.141142066936855,2.521609579028042,0.3163763197619858,B,1033.0178999574855,Correct
19,7,195,B,46.11138170105625,27.140204129726097,2.3055690850528126,0.42631732955437435,B,659.9750999594107,Correct
19,7,196,A,37.99643667552237,51.61881945898658,1.8998218337761186,0.8108265199966506,A,555.2397000137717,Correct
19,7,197,B,70.22797993011449,49.31824905929612,3.5113989965057244,0.774689244662982,B,684.0884999837726,Correct
19,7,198,A,53.18042568871916,82.38517648732099,2.659021284435958,1.2941033260863308,A,711.2908000126481,Correct
19,7,199,A,35.97753811286407,58.142892260161965,1.7988769056432035,0.9133064159149384,A,476.60789999645203,Correct
19,7,200,A,56.167603744174485,67.52496215903128,2.808380187208724,1.0606796252637072,A,777.2081000730395,Correct
19,7,201,B,76.0983356000593,50.605948929180705,3.804916780002965,0.7949163869192718,B,1045.0623000506312,Correct
19,7,202,A,41.9360481529487,49.80692561411616,2.096802407647435,0.7823653580360032,A,1051.2261999538168,Correct
19,7,203,A,24.109477966171504,49.15346620968501,1.2054738983085753,0.7721008417141028,B,1064.7844999330118,Incorrect
19,7,204,A,40.085141500911924,68.2619420076202,2.0042570750455964,1.0722560776545609,A,432.3177000042051,Correct
19,7,205,B,81.61300486613436,61.64021889741381,4.080650243306718,0.9682422942689097,B,456.980700022541,Correct
19,7,206,A,46.23900838502344,54.75174391741494,2.311950419251172,0.8600383823109022,A,450.72990003973246,Correct
19,7,207,B,54.58433259786741,40.949889276133305,2.7292166298933704,0.6432393565760792,B,741.4649999700487,Correct
19,7,208,B,81.00687177429474,58.905245043967724,4.050343588714736,0.9252814254401779,B,531.7797000752762,Correct
19,7,209,B,43.09470511956714,23.98542949069781,2.1547352559783572,0.37676224540586106,B,625.3023999743164,Correct
19,7,210,A,39.6031479908383,65.81969813175434,1.980157399541915,1.0338934005610863,A,597.4723000545055,Correct
19,7,211,B,60.94755526258351,38.37638026029737,3.0473777631291754,0.6028147714855928,B,637.9382000304759,Correct
19,7,212,B,71.33355394828138,45.35846874601494,3.566677697414069,0.7124891609528139,B,554.5641999924555,Correct
19,7,213,B,54.21182300798184,25.479471787151226,2.7105911503990923,0.40023060691931345,B,616.1557999439538,Correct
19,7,214,A,32.45997301301937,45.452727768437896,1.6229986506509686,0.7139697782147064,A,569.3820000160486,Correct
19,7,215,B,34.88319362911653,14.223343375544108,1.7441596814558267,0.22341975529047212,A,655.9416999807581,Incorrect
19,7,216,A,28.929806610438085,51.76637558252552,1.4464903305219041,0.8131443261651612,A,667.9542000638321,Correct
19,7,217,B,57.101109972974825,38.346797500926385,2.855055498648741,0.6023500865880288,B,971.0423999931663,Correct
19,7,218,B,54.72223138636153,23.162872389387434,2.736111569318076,0.36384154867268703,B,509.66589991003275,Correct
19,7,219,B,64.17305245492969,33.60071374979379,3.2086526227464844,0.5277987773586286,B,490.7576999394223,Correct
19,7,220,B,71.20457569413713,47.36352563713485,3.5602287847068568,0.7439845209486732,B,427.91359999682754,Correct
19,7,221,B,64.38540161563489,51.72421868623212,3.2192700807817447,0.8124821271866937,B,476.86609998345375,Correct
19,7,222,B,39.77862682061378,20.618834435038455,1.9889313410306892,0.3238798939335053,B,557.6448999345303,Correct
19,7,223,A,11.292414296109754,35.2665320090963,0.5646207148054877,0.5539653893868313,A,562.2454000404105,Correct
19,7,224,B,51.91138723823506,44.222315970829975,2.595569361911753,0.6946425148934301,B,555.183699936606,Correct
19,7,225,B,64.97288616803395,38.830081763255436,3.2486443084016976,0.6099414980286713,B,783.9233999839053,Correct
19,7,226,A,58.79584885488304,84.97803745760548,2.9397924427441517,1.334831890966458,A,836.5699999267235,Correct
19,7,227,A,63.921796033600344,81.23966662841092,3.196089801680017,1.2761096992994978,B,973.4160000225529,Incorrect
19,7,228,A,33.78601850469967,52.71561759830564,1.6893009252349833,0.8280549848814291,A,1226.2002000352368,Correct
19,7,229,B,70.18097487086118,46.53515303743477,3.509048743543059,0.7309724745804089,B,621.1758999852464,Correct
19,7,230,A,60.09746953380905,71.32246803785686,3.0048734766904523,1.1203307081181197,B,866.1382000427693,Incorrect
19,7,231,A,40.72514388030201,53.64892312607622,2.0362571940151004,0.842715313829423,A,694.164999993518,Correct
19,7,232,B,34.60196237795692,14.374619493483014,1.730098118897846,0.22579599499437433,B,741.8140000663698,Correct
19,7,233,A,55.15986016356776,71.48348305789925,2.757993008178388,1.1228599261385337,A,687.154799932614,Correct
19,7,234,B,45.69425382015021,36.45223973254953,2.2847126910075106,0.5725904427533579,B,589.192199986428,Correct
19,7,235,B,42.67943525718353,34.37194880860875,2.133971762859176,0.5399133093334484,B,619.8621999938041,Correct
19,7,236,B,67.51033338507453,45.311292525330984,3.375516669253727,0.7117481186111896,B,968.2730999775231,Correct
19,7,237,B,51.42227479601638,37.94473011446614,2.5711137398008193,0.5960344268502711,B,546.1205000756308,Correct
19,7,238,B,72.12622054359251,49.90325556516734,3.6063110271796255,0.7838785053687185,B,608.9737999718636,Correct
19,7,239,B,71.74384628036695,48.83391448731635,3.5871923140183473,0.767081334996926,B,565.146500011906,Correct
19,7,240,A,29.227232590047883,43.34472990545591,1.4613616295023943,0.6808574252140703,A,604.2895999271423,Correct
19,7,241,B,50.06747590645508,18.928395077886204,2.503373795322754,0.29732653460466246,B,632.1356000844389,Correct
19,7,242,A,68.69940790558624,85.05180714821027,3.434970395279312,1.3359906625567664,A,714.2555000027642,Correct
19,7,243,A,56.0015396224481,64.98983908408034,2.8000769811224053,1.0208580051226481,A,912.8328000660986,Correct
19,7,244,A,41.13583789129344,64.73584404138589,2.056791894564672,1.0168682603217625,A,474.4585999287665,Correct
19,7,245,B,45.43769020953527,30.98572050335813,2.2718845104767635,0.48672255949768267,B,511.4352999953553,Correct
19,7,246,B,45.66472240551346,18.334298565258567,2.283236120275673,0.287994488406691,B,548.6766000976786,Correct
19,7,247,B,50.70242421629308,25.63570690028569,2.535121210814654,0.40268474233759344,B,514.8723999736831,Correct
19,7,248,A,46.79644433549627,66.83760546874719,2.3398222167748135,1.0498826516207456,A,984.7464000340551,Correct
19,7,249,B,52.95692497518838,24.527142724343513,2.647846248759419,0.3852714569817296,B,591.6773000499234,Correct
19,7,250,A,17.499490362026982,33.65996481482376,0.8749745181013492,0.5287294909117062,A,524.4866000721231,Correct
19,7,251,B,61.35615456456789,41.15592847746488,3.067807728228394,0.6464758127823532,B,570.386299979873,Correct
19,7,252,A,26.93731184134583,48.717502074360176,1.3468655920672916,0.7652527330902771,A,456.7185000050813,Correct
19,7,253,A,41.41800292185066,68.32174167786107,2.0709001460925327,1.0731954086781397,A,516.4225000189617,Correct
19,7,254,B,37.57927902247434,25.184568408297135,1.8789639511237168,0.3955982754766794,B,674.4987999554724,Correct
19,7,255,B,53.445896433199174,22.658974730389914,2.6722948216599587,0.35592634275434865,B,1421.6805000323802,Correct
19,7,256,B,71.74173553423559,53.43668049665169,3.5870867767117796,0.8393814144025296,B,796.6935000149533,Correct
19,7,257,B,69.33533206196755,42.30089162708011,3.4667666030983777,0.6644608518796644,B,461.23980008997023,Correct
19,7,258,A,44.73719596532393,72.46173929398653,2.2368597982661966,1.1382263391616345,B,730.1980999764055,Incorrect
19,7,259,B,67.8043208784498,34.68759271344879,3.39021604392249,0.5448714321964278,B,566.1896000383422,Correct
19,7,260,B,33.8604214651761,10.531089547756864,1.6930210732588051,0.1654219677876461,B,576.7044000094756,Correct
19,7,261,A,35.59603261150527,51.13427638092851,1.7798016305752637,0.8032153351247754,B,676.5177000779659,Incorrect
19,7,262,B,34.682813672961814,14.441967071628856,1.7341406836480906,0.22685388827807457,B,627.2187998984009,Correct
19,7,263,B,38.67205624379957,14.899039700405709,1.9336028121899784,0.23403356834168626,B,526.3625999214128,Correct
19,7,264,A,35.6529606089539,51.797027108417105,1.7826480304476948,0.8136257992079726,A,753.1463999766856,Correct
19,7,265,B,64.26968075914448,51.57703483645113,3.213484037957224,0.8101701686806986,A,678.3486000495031,Incorrect
19,7,266,B,74.88252509642643,43.935382728271456,3.744126254821322,0.6901353780589675,B,585.7602000469342,Correct
19,7,267,A,57.99191309907931,72.34097763856687,2.8995956549539654,1.136329419514126,B,625.6571999983862,Incorrect
19,7,268,A,40.9383854520427,69.95586701311579,2.046919272602135,1.0988641894195457,A,594.3681000499055,Correct
19,7,269,B,41.65315059425157,17.576359091799006,2.0826575297125784,0.2760888029982596,B,744.5061000762507,Correct
19,7,270,B,62.721500958243865,35.17624177996019,3.136075047912193,0.5525471137841065,B,452.09060003980994,Correct
19,7,271,B,72.66558656902723,58.841482407242594,3.6332793284513616,0.9242798442846318,B,438.291999977082,Correct
19,7,272,A,22.85858693507993,54.83169839361722,1.1429293467539965,0.8612943042861957,A,571.0754999890924,Correct
19,7,273,B,81.64284873330236,59.50286413882358,4.082142436665118,0.9346688042303986,B,736.081900075078,Correct
19,7,274,A,31.71805668638335,44.28754043189054,1.5859028343191677,0.6956670583319413,A,569.6897000307217,Correct
19,7,275,A,11.913852159366542,33.382528258782656,0.5956926079683271,0.5243715276802263,A,539.4224999472499,Correct
19,7,276,B,43.437230764855876,32.07123391510666,2.1718615382427937,0.5037737642962946,B,575.6974999094382,Correct
19,7,277,A,49.52422227306032,71.94310184602713,2.476211113653016,1.1300796011797056,B,934.3482999829575,Incorrect
19,7,278,A,19.574232091306783,44.10489003446662,0.9787116045653391,0.6927979925983302,A,552.8386000078171,Correct
19,7,279,A,55.750991019031986,78.0599169852182,2.7875495509515993,1.226162308702953,B,889.0629999805242,Incorrect
19,7,280,B,58.51189989327316,50.9151523990247,2.9255949946636584,0.7997733436659036,A,572.0065999776125,Incorrect
19,7,281,B,62.82461700014557,43.701133121651786,3.141230850007279,0.6864557938426542,B,813.165899948217,Correct
19,7,282,A,41.8598801698372,66.40739214891771,2.0929940084918597,1.0431248765954817,B,518.0308000417426,Incorrect
19,7,283,A,30.468137330851768,45.83253876785927,1.5234068665425884,0.7199358354423803,A,615.1077999966219,Correct
19,7,284,A,52.13618919120623,60.46639549606759,2.6068094595603113,0.9498039193975043,A,957.8311999794096,Correct
19,7,285,A,39.750286487355204,72.54523164842885,1.9875143243677602,1.1395378339983693,A,877.1406000014395,Correct
19,7,286,A,38.38715137601539,63.066539249446116,1.9193575688007696,0.9906468819669613,A,1047.0175000373274,Correct
19,7,287,A,42.57352754535553,61.550524323562165,2.1286763772677766,0.9668333751975139,A,709.6101000206545,Correct
19,7,288,B,58.30562433524845,50.69447628083488,2.915281216762423,0.7963069713072644,A,546.2551000528038,Incorrect
19,7,289,B,76.57431140684591,52.918535167358826,3.8287155703422955,0.831242406602538,B,565.651600016281,Correct
19,7,290,B,87.83499058593232,60.48515961292493,4.391749529296615,0.950098665455855,B,617.4942000070587,Correct
19,7,291,A,46.560157059950065,76.48043376585818,2.3280078529975032,1.2013518443109041,B,625.4620000254363,Incorrect
19,7,292,B,53.523952634220166,39.20039189215245,2.676197631711008,0.6157583159311352,B,758.3704999415204,Correct
19,7,293,B,64.32308368083334,44.266973023796766,3.2161541840416668,0.6953439862410873,B,569.4680999731645,Correct
19,7,294,A,23.613416279807975,45.49780946059886,1.1806708139903987,0.7146779197792278,A,441.03610003367066,Correct
19,7,295,B,55.07874898376939,36.779692422088935,2.7539374491884696,0.5777340575726339,A,836.9824999244884,Incorrect
19,7,296,A,22.829124443158307,35.878290610460496,1.1414562221579154,0.5635748710259117,A,494.4570000516251,Correct
19,7,297,A,16.705174897744296,37.02944298297234,0.8352587448872149,0.5816571302091401,A,482.18010005075485,Correct
19,7,298,A,44.88044247486991,74.22506261402009,2.2440221237434956,1.1659245571022396,A,740.2924000052735,Correct
19,7,299,A,45.837199492520945,64.17676622874878,2.291859974626047,1.0080862865769333,A,731.4936000620946,Correct
