subject,day,trial,cat,x,y,xt,yt,resp,rt,fb
19,18,0,A,52.62936921403963,79.5242596319724,2.6314684607019814,1.249164149209859,A,707.8859000002922,Correct
19,18,1,B,53.66256346807967,35.269635956160045,2.6831281734039836,0.554014146073294,B,459.3605000000025,Correct
19,18,2,A,46.13048280925508,72.1608087010272,2.306524140462754,1.1334993324612272,A,427.94620000040595,Correct
19,18,3,B,52.9857474837051,35.60069065926598,2.649287374185255,0.5592143411893639,B,405.57630000057543,Correct
19,18,4,A,47.73884509676478,58.69299627824547,2.386942254838239,0.921947429624545,A,466.39390000018466,Correct
19,18,5,A,48.062021684867744,78.10601798934502,2.4031010842433873,1.2268864615823927,A,723.3954000002996,Correct
19,18,6,B,68.30591501882213,45.08663857380441,3.4152957509411066,0.7082192625926106,B,320.64379999974335,Correct
19,18,7,B,82.6561706546095,56.19021653123929,4.132808532730475,0.8826338572908053,B,452.4645999999848,Correct
19,18,8,B,44.009268628587066,36.14187232984858,2.200463431429353,0.5677152029921627,B,445.81769999967946,Correct
19,18,9,A,24.868109126702755,38.05177951622862,1.2434054563351378,0.5977159549210119,A,429.9455999998827,Correct
19,18,10,A,46.661448567685696,71.77260267792185,2.3330724283842845,1.127401406509892,A,424.17420000037964,Correct
19,18,11,A,24.85479385725864,41.78815904891073,1.2427396928629322,0.6564068673754988,A,1129.8482000001968,Correct
19,18,12,A,58.85743758636966,68.66210441778031,2.942871879318483,1.0785418140945695,B,376.186499999676,Incorrect
19,18,13,B,36.3053632000658,20.468932495386365,1.81526816000329,0.3215252397716559,B,744.0004000000044,Correct
19,18,14,A,52.46108561158647,79.36811297373208,2.623054280579323,1.2467114032378073,A,793.2633000000351,Correct
19,18,15,B,40.508946823783205,18.10688181729821,2.0254473411891603,0.2844222344832133,B,433.5181999995257,Correct
19,18,16,B,83.98574709213204,69.25757161265275,4.199287354606602,1.0878953909188944,B,936.1754999999903,Correct
19,18,17,B,70.78890228591352,57.64795855484108,3.539445114295676,0.905532015451688,B,682.842499999424,Correct
19,18,18,A,41.256660589210654,49.90565771749021,2.0628330294605326,0.78391623828917,A,895.7650000002104,Correct
19,18,19,A,23.54638569643727,42.10518007871792,1.1773192848218634,0.6613866220668777,A,418.31879999972443,Correct
19,18,20,B,32.30386039131842,16.174451196724714,1.6151930195659212,0.254067685277385,B,468.4382999994341,Correct
19,18,21,A,15.825390728628928,41.53593382318665,0.7912695364314465,0.6524449227945749,A,424.3303000002925,Correct
19,18,22,A,15.987093394792996,45.95444605159632,0.7993546697396497,0.7218507505774173,A,480.22969999965426,Correct
19,18,23,B,59.01811533998583,48.710599093984,2.9509057669992917,0.7651443013280889,A,740.5815000001894,Incorrect
19,18,24,B,67.25792827216277,44.167547845485444,3.3628964136081385,0.6937822191922638,B,1136.4675000004354,Correct
19,18,25,B,57.81807387434834,29.594331432966275,2.890903693717417,0.46486667108854174,B,1311.8017000006148,Correct
19,18,26,A,19.991801616311417,48.93244274127946,0.9995900808155709,0.7686290131910337,A,429.84080000042013,Correct
19,18,27,A,42.363474415032144,70.38955713680323,2.1181737207516074,1.1056765779521,A,549.9253999996654,Correct
19,18,28,A,53.787180147750874,81.51229986324006,2.6893590073875435,1.2803922121378162,A,749.5116999998572,Correct
19,18,29,B,33.039580299962935,10.596863282655029,1.6519790149981468,0.1664551391994223,B,1083.4783999998763,Correct
19,18,30,A,45.088259838236525,57.317323306940516,2.2544129919118263,0.9003384091225767,A,513.0504999997356,Correct
19,18,31,A,58.98306965474009,73.29831764772963,2.949153482737005,1.1513672812129925,A,1046.379800000068,Correct
19,18,32,A,18.924353520457828,33.70800989524016,0.9462176760228914,0.5294841812700927,B,842.9783999999927,Incorrect
19,18,33,B,33.563210061643815,18.81150864719994,1.6781605030821907,0.29549048684492096,B,857.856300000094,Correct
19,18,34,B,82.82057093584137,64.87437802028776,4.141028546792069,1.0190443469737158,A,472.006699999838,Incorrect
19,18,35,B,54.85964216873563,34.68604598761674,2.7429821084367814,0.5448471362838723,B,494.104100000186,Correct
19,18,36,A,42.905030286726586,73.55550221326521,2.145251514336329,1.1554071269215087,A,708.127400000194,Correct
19,18,37,B,64.5024150348366,50.21728157102106,3.22512075174183,0.7888112143338493,B,950.3586999999243,Correct
19,18,38,A,45.85054573115638,72.36362773650269,2.292527286557819,1.1366852064205173,A,597.8242000001046,Correct
19,18,39,A,41.482720120095316,57.967543507131744,2.0741360060047658,0.910552044143259,A,739.7877000003064,Correct
19,18,40,B,80.74082894811038,55.986352655472004,4.037041447405519,0.8794315710185913,B,857.4704000002384,Correct
19,18,41,A,32.08947602692204,58.30120146902989,1.6044738013461022,0.9157931311528137,A,584.6864999994068,Correct
19,18,42,B,77.45712465448891,63.464207120029585,3.872856232724445,0.9968934342709299,B,1077.4540000002162,Correct
19,18,43,A,15.890920071072959,33.360886563409935,0.7945460035536479,0.5240315807242554,A,1032.9540000002453,Correct
19,18,44,A,43.06581690894144,72.31557350318488,2.153290845447072,1.1359303722886915,A,1188.0779999992228,Correct
19,18,45,B,58.01346568993774,25.525255447818214,2.900673284496887,0.4009497749793427,B,812.8414000002522,Correct
19,18,46,B,85.81665919738462,57.84050469838483,4.290832959869231,0.9085565232018584,B,502.08829999974114,Correct
19,18,47,B,37.39324038991008,27.044142729068554,1.8696620194955043,0.42480840060137787,B,476.5002000003733,Correct
19,18,48,B,52.14582567873094,34.15074603705019,2.6072912839365467,0.536438664323038,B,628.7365999996837,Correct
19,18,49,A,48.07875809755985,56.89512949939247,2.4039379048779925,0.8937066043016565,A,793.9258999995218,Correct
19,18,50,B,77.09484342218747,59.68101965981421,3.8547421711093732,0.9374672646101017,B,418.6061999998856,Correct
19,18,51,A,45.12952583724997,52.391265814763756,2.2564762918624983,0.8229600789796594,A,542.5192000002426,Correct
19,18,52,A,14.838079908219107,34.69078909510312,0.7419039954109553,0.5449216408420444,A,446.6508999994403,Correct
19,18,53,A,42.66573290022333,75.10730822547177,2.1332866450111667,1.1797828387602318,A,880.5117000001701,Correct
19,18,54,A,65.1746699862926,85.1982788987645,3.25873349931463,1.3382914354342643,A,2444.2305000002307,Correct
19,18,55,A,27.61026967295998,58.64294912954228,1.380513483647999,0.92116129085105,A,1053.1214000002365,Correct
19,18,56,A,31.754222850085668,64.54986036167831,1.5877111425042836,1.0139468355124779,A,463.63950000068144,Correct
19,18,57,B,49.346801403335434,25.5070559350694,2.4673400701667716,0.4006638977015899,B,1181.7768999999316,Correct
19,18,58,B,45.848601904046326,21.686432015820962,2.292430095202316,0.3406496775173881,B,848.9323000003424,Correct
19,18,59,B,59.345405118600176,37.421152776712965,2.967270255930009,0.5878100932609137,B,1315.1709000003393,Correct
19,18,60,A,50.25534749780506,71.54614133592953,2.5127673748902533,1.1238441600682665,A,563.7479999995776,Correct
19,18,61,A,54.775123303551936,80.77358618767315,2.738756165177597,1.2687885248564799,A,540.5922999998438,Correct
19,18,62,B,40.91985671266663,22.03761204204842,2.0459928356333315,0.34616600046980633,B,815.118700000312,Correct
19,18,63,A,31.33801441870359,43.76655353350919,1.5669007209351795,0.6874834152690843,A,931.0681000006298,Correct
19,18,64,A,23.81341225720743,40.36237987913118,1.1906706128603715,0.6340107805483951,B,582.9205000000002,Incorrect
19,18,65,B,53.08272817151033,21.944762498177745,2.654136408575517,0.34470752324523996,B,412.6479000005929,Correct
19,18,66,B,75.81123533875385,46.55442017166533,3.790561766937692,0.7312751220171813,B,677.0194999999148,Correct
19,18,67,B,32.53814788987256,11.547724946738132,1.626907394493628,0.1813912392917405,B,546.2590000006458,Correct
19,18,68,B,78.42465845757154,49.11964715135616,3.921232922878577,0.7715696131881168,A,605.6140999999116,Incorrect
19,18,69,A,65.68447964368573,77.18170334649248,3.2842239821842867,1.2123673611244377,A,537.0830000001661,Correct
19,18,70,A,33.35517061423233,56.64408885106536,1.6677585307116163,0.8897632670189722,A,583.5640999994212,Correct
19,18,71,A,19.690382536679977,42.8580357106849,0.9845191268339988,0.6732124506798834,A,475.80440000001545,Correct
19,18,72,B,53.17351861880272,23.17591184178977,2.658675930940136,0.3640463719120572,B,700.5800000006275,Correct
19,18,73,A,65.32586519190633,79.27610710181987,3.266293259595317,1.2452661783813748,A,783.8303999997152,Correct
19,18,74,B,43.96802075698384,35.294177456949264,2.198401037849192,0.5543996430662315,A,505.0018000001728,Incorrect
19,18,75,A,21.16877009501616,36.639460460804074,1.058438504750808,0.5755312990757789,A,505.0717000003715,Correct
19,18,76,B,63.573408874178604,50.23660201938048,3.1786704437089304,0.7891146992269995,B,3361.1448000001474,Correct
19,18,77,A,38.4783166055154,57.8804749414117,1.9239158302757702,0.9091843743111356,A,449.67910000013944,Correct
19,18,78,A,51.49850529935517,75.82623349744107,2.5749252649677588,1.191075690524726,A,687.5907000003281,Correct
19,18,79,B,65.00065356631717,56.12767148689519,3.2500326783158586,0.881651402031656,B,610.0691000001461,Correct
19,18,80,B,58.06304697371441,34.52271274719004,2.9031523486857203,0.5422815037428147,B,437.99420000050304,Correct
19,18,81,B,62.032412842052466,38.762763425232954,3.101620642102623,0.6088840640477549,B,420.5331000002843,Correct
19,18,82,A,41.288440542292136,50.25104442362782,2.064422027114607,0.7893415599824174,B,426.0545999995884,Incorrect
19,18,83,B,52.16322683200882,36.38997869194988,2.608161341600441,0.5716124486145943,B,471.3366000005408,Correct
19,18,84,A,39.62289580270434,52.05576475073582,1.981144790135217,0.8176900405895509,A,917.8099000000657,Correct
19,18,85,A,55.843446194363004,64.8684981139911,2.79217230971815,1.018951985621589,B,456.6396000000168,Incorrect
19,18,86,B,55.64844048481805,30.40806753422244,2.7824220242409026,0.47764880787687763,B,471.80200000002515,Correct
19,18,87,B,67.2264802299898,59.06666667789207,3.3613240114994904,0.9278170305365139,B,436.00700000024517,Correct
19,18,88,A,58.62748834187687,81.81019905717388,2.9313744170938434,1.2850716017336805,A,1123.272900000302,Correct
19,18,89,A,34.21836998552639,60.63817064041087,1.7109184992763193,0.9525021570551955,A,493.94089999987045,Correct
19,18,90,A,48.07762404817795,64.91575623612574,2.4038812024088974,1.0196943144681923,A,568.1996000002982,Correct
19,18,91,B,70.65194552212398,53.97823688326251,3.5325972761061992,0.8478881622309355,B,435.31529999927443,Correct
19,18,92,A,19.01871590583059,36.3315055355835,0.9509357952915295,0.5706939544222301,A,566.9047000001228,Correct
19,18,93,A,27.180346990327006,53.31499229136006,1.3590173495163504,0.8374699405436663,A,448.21049999973184,Correct
19,18,94,A,60.36890091812803,71.5813730083275,3.0184450459064016,1.1243975778841622,B,607.6499000000695,Incorrect
19,18,95,B,87.42058487444987,67.14760137805855,4.371029243722494,1.054752055977423,B,422.71289999916917,Correct
19,18,96,A,15.658390498862893,33.65631284295194,0.7829195249431448,0.5286721258716881,A,509.59580000017013,Correct
19,18,97,A,63.15704034011823,86.17164704869676,3.1578520170059114,1.3535810665795915,B,1093.4575000001132,Incorrect
19,18,98,B,69.56861053053511,51.149667530510996,3.478430526526756,0.8034570987370687,B,731.06849999931,Correct
19,18,99,A,25.218476333384416,48.16872507510988,1.2609238166692207,0.7566325641437583,A,1384.163599999738,Correct
19,18,100,B,80.92614807286431,54.19930822579203,4.046307403643215,0.8513607427589854,B,518.0591999996977,Correct
19,18,101,A,18.866789365271895,38.16169202013012,0.9433394682635948,0.5994424564949851,A,923.091900000145,Correct
19,18,102,B,66.81317085914742,52.30675127693852,3.340658542957371,0.821632527723893,B,1141.8994000005114,Correct
19,18,103,A,15.737900841959018,34.96691250777796,0.7868950420979509,0.5492589772657614,A,460.98429999983637,Correct
19,18,104,A,56.59058106321639,78.88957866066959,2.8295290531608197,1.2391946038257684,A,487.1481000000131,Correct
19,18,105,A,53.37892726362123,71.61860452106384,2.6689463631810617,1.1249824091186347,B,413.1474000005255,Incorrect
19,18,106,A,15.96640831993276,38.327461173399804,0.7983204159966379,0.6020463522655043,A,427.9043000005913,Correct
19,18,107,A,47.095328665631264,56.050060956767666,2.354766433281563,0.8804322986752069,A,521.3418000003003,Correct
19,18,108,B,87.10514564284999,64.56836034085096,4.3552572821424995,1.0142374325057795,B,503.7227000002531,Correct
19,18,109,A,22.73898821338916,37.67040717261462,1.136949410669458,0.5917253721561118,A,392.14629999969475,Correct
19,18,110,A,52.49932358191731,73.94886611825125,2.624966179095866,1.1615860726919665,A,547.4297000000661,Correct
19,18,111,B,86.3267600559381,66.2057336172216,4.316338002796905,1.039957231786931,B,415.4713999996602,Correct
19,18,112,A,42.07978097170701,61.00275686005802,2.1039890485853503,0.9582290640014132,A,721.7344000000594,Correct
19,18,113,B,47.067601376920535,27.96454035504608,2.353380068846027,0.4392659727021404,A,459.51249999961874,Incorrect
19,18,114,A,56.741272791625164,76.85989826174611,2.8370636395812583,1.2073124586738027,A,790.2779999994891,Correct
19,18,115,B,41.45564035466769,13.972879899899215,2.0727820177333847,0.2194854842150793,B,607.3897000005672,Correct
19,18,116,A,60.68943739268896,75.27904762211479,3.034471869634448,1.18248051489436,A,558.8574999992488,Correct
19,18,117,A,19.38506061254899,43.701668292178276,0.9692530306274495,0.6864642002816265,A,490.0571999996828,Correct
19,18,118,B,57.461745110054686,41.209510845884004,2.8730872555027345,0.6473174826572905,B,719.094000000041,Correct
19,18,119,B,54.79387324427217,31.237640770015,2.7396936622136088,0.49067971379278064,B,491.20330000005197,Correct
19,18,120,A,20.852470994306646,35.19249934964601,1.0426235497153322,0.5528024870915575,A,680.4523999999219,Correct
19,18,121,A,21.864915785334315,52.038479324461754,1.0932457892667158,0.817418521748567,A,781.3366999998834,Correct
19,18,122,A,54.47150239292335,76.3571376322353,2.723575119646167,1.1994151131728754,A,573.7950000002456,Correct
19,18,123,A,21.27599185360858,33.80841246766671,1.0637995926804291,0.5310613011897766,A,884.6658999991632,Correct
19,18,124,A,66.30624792091493,79.22570944840044,3.3153123960457465,1.2444745338926713,A,625.9590000008757,Correct
19,18,125,A,28.54177606427276,59.39373507897372,1.4270888032136382,0.9329546089668111,A,1054.7561000003043,Correct
19,18,126,B,53.59135460218582,42.410862494180485,2.6795677301092904,0.6661882702206215,A,454.3031000002884,Incorrect
19,18,127,B,53.41977070387055,31.7637679633752,2.6709885351935276,0.49894410042035175,B,1133.1875999994736,Correct
19,18,128,A,15.727408415890782,34.272724601053426,0.786370420794539,0.5383546991258781,A,514.6961000000374,Correct
19,18,129,B,61.040289889331696,36.69506213184805,3.052014494466585,0.5764046880821743,B,865.5635000004622,Correct
19,18,130,B,73.88933648876622,57.555123815313735,3.6944668244383108,0.9040737707732031,A,389.12919999984297,Incorrect
19,18,131,A,23.367347913545423,54.58482245867918,1.168367395677271,0.8574163861684483,A,662.702999999965,Correct
19,18,132,B,84.5599637608824,65.10838715366265,4.22799818804412,1.0227201538451332,B,465.6426999999894,Correct
19,18,133,B,76.66583971999985,46.52641414879374,3.8332919859999923,0.7308352044386331,B,570.61640000029,Correct
19,18,134,A,58.78771762855784,66.7892244911702,2.939385881427892,1.049122685002099,B,596.5736999996807,Incorrect
19,18,135,A,46.21904499484426,60.74815195352605,2.310952249742213,0.9542297394817695,A,621.1888999996518,Correct
19,18,136,B,37.34976561646272,21.2157632975544,1.867488280823136,0.3332564305794844,B,513.9483000002656,Correct
19,18,137,B,52.03972105003262,31.84740280565638,2.601986052501631,0.5002578334508253,B,435.2177999999185,Correct
19,18,138,B,50.03339311842399,39.728745494915884,2.5016696559211993,0.6240576749158315,B,781.8846000000121,Correct
19,18,139,B,64.09326320518034,34.84232092584359,3.2046631602590168,0.5473018972732407,B,457.55259999987175,Correct
19,18,140,B,66.93014551051348,37.18786152448988,3.3465072755256746,0.5841455628402596,B,598.365300000296,Correct
19,18,141,B,58.05528203649028,50.167103867316406,2.902764101824514,0.7880230248071864,A,514.2211000002135,Incorrect
19,18,142,B,43.39046602549133,27.70734284640921,2.1695233012745665,0.43522592368386437,B,776.0963000000629,Correct
19,18,143,A,44.56197302786153,65.3569049201441,2.2280986513930765,1.0266238617924566,B,462.41530000042985,Incorrect
19,18,144,B,59.139357187089686,43.11148892910188,2.956967859354484,0.6771936845249209,B,419.2821999995431,Correct
19,18,145,A,32.58684172321761,50.68576081418182,1.6293420861608805,0.7961700690772151,A,369.6239999999307,Correct
19,18,146,A,62.5226867368085,84.73312704744086,3.126134336840425,1.330984847239654,B,611.4421000002039,Incorrect
19,18,147,A,47.94079326619949,66.00543844283906,2.3970396633099744,1.0368110025449826,A,468.1712999999945,Correct
19,18,148,A,56.11338128016054,78.1481052970752,2.805669064008027,1.2275475674662653,B,1121.1688999992475,Incorrect
19,18,149,A,42.353512549470224,71.34440352546913,2.117675627473511,1.1206752699517977,A,1079.5315000004848,Correct
19,18,150,A,49.46533534454629,76.68977254515578,2.4732667672273148,1.2046401301666678,A,462.2583999998824,Correct
19,18,151,A,46.150006624332285,65.42579980001011,2.3075003312166142,1.0277060600347414,A,447.26989999981015,Correct
19,18,152,B,51.873369419487965,33.24088340661103,2.5936684709743982,0.5221465755452204,B,404.3146000003617,Correct
19,18,153,B,39.1339972011869,13.227535482208136,1.956699860059345,0.20777764148001698,B,386.9637999996485,Correct
19,18,154,B,57.435642031850755,42.93801177956823,2.8717821015925376,0.6744687118322178,B,413.2622999995874,Correct
19,18,155,A,54.209800495926764,74.64489279057878,2.7104900247963384,1.1725192340944,A,462.8053999995245,Correct
19,18,156,A,23.18573436364156,54.01539176325322,1.159286718182078,0.8484717897210547,A,457.44809999996505,Correct
19,18,157,B,66.07370771950896,45.998699307028446,3.303685385975448,0.7225458790882323,B,407.0273000006637,Correct
19,18,158,B,78.27303391444973,49.821490754000166,3.9136516957224865,0.7825941467182937,B,450.3656000006231,Correct
19,18,159,B,73.96997690567264,52.9064086197139,3.698498845283632,0.8310519232375646,B,395.62019999993936,Correct
19,18,160,A,36.84503642669779,64.43338460444888,1.8422518213348895,1.0121172385963115,B,402.38070000032167,Incorrect
19,18,161,B,50.40473628475769,38.05976314502119,2.5202368142378844,0.5978413614688307,B,881.791499999963,Correct
19,18,162,B,57.21148008848792,35.70209640986013,2.8605740044243957,0.5608072189948555,B,944.9994999995397,Correct
19,18,163,B,84.37281459291722,68.17463577527597,4.218640729645861,1.0708846745638345,A,1203.5549000001993,Incorrect
19,18,164,A,24.664314646099463,43.099428050815725,1.233215732304973,0.6770042326918227,A,517.4615999994785,Correct
19,18,165,A,55.58251885522201,79.1902849262222,2.7791259427611004,1.2439180867995112,A,747.1629000001485,Correct
19,18,166,A,22.63006561608698,54.53554107263359,1.131503280804349,0.8566422759666505,A,587.0912999998836,Correct
19,18,167,B,43.50620759628799,29.513648481043944,2.1753103798143996,0.463599306243396,B,506.5441999995528,Correct
19,18,168,B,34.54061519867123,19.605949300110215,1.7270307599335615,0.30796953143940103,B,456.32389999991574,Correct
19,18,169,A,32.958494155322015,58.410813074266784,1.6479247077661006,0.9175149062216159,A,804.7193000002153,Correct
19,18,170,B,67.50416281634958,52.26305089082217,3.3752081408174788,0.8209460836639823,B,303.20970000047964,Correct
19,18,171,A,36.492404840569876,46.910157114935316,1.8246202420284936,0.7368630248551188,B,553.3585000002859,Incorrect
19,18,172,B,51.88446692218692,28.927942888424667,2.5942233461093456,0.4543990643087002,B,460.0985999995828,Correct
19,18,173,B,58.660804893352626,37.88542735626242,2.933040244667631,0.595102901302719,B,877.2843000006105,Correct
19,18,174,B,62.50301820167846,34.08497096458397,3.125150910083923,0.535405471900792,B,502.508300000045,Correct
19,18,175,A,56.14594517544074,75.64387995647735,2.807297258772037,1.1882112878014872,A,587.4625000005835,Correct
19,18,176,B,34.17456625560357,14.082703388488937,1.7087283127801784,0.2212105875398046,B,1134.0726000007635,Correct
19,18,177,B,69.05770616161202,36.60200917056352,3.4528853080806012,0.574943015584343,A,854.3874000006326,Incorrect
19,18,178,A,24.28304320216315,56.85627027045153,1.2141521601081575,0.8930962049608314,A,463.0795000002763,Correct
19,18,179,B,48.85638634031466,38.35722812566729,2.442819317015733,0.6025139304583208,B,416.60920000049373,Correct
19,18,180,A,50.58757741291205,71.63421575549154,2.5293788706456026,1.125227629815592,A,642.4391999998988,Correct
19,18,181,B,71.84437392581994,47.53057387297869,3.5922186962909968,0.7466085085012841,B,957.9874000000927,Correct
19,18,182,B,83.5905788846594,59.81966160747037,4.1795289442329695,0.9396450472312817,B,648.9237999994657,Correct
19,18,183,A,32.66290493375643,52.31180431303255,1.6331452466878216,0.8217119006292495,A,529.4473000003563,Correct
19,18,184,B,43.36051514350551,24.163927408258402,2.1680257571752755,0.3795660841383082,B,495.7854000003863,Correct
19,18,185,B,58.109294722680765,40.41294589258816,2.905464736134038,0.6348050696303839,A,797.3873999999341,Incorrect
19,18,186,B,64.02938644491907,42.800444586613445,3.2014693222459534,0.6723078114184091,B,479.0211999998064,Correct
19,18,187,A,29.777857179652067,56.26799759151401,1.4888928589826034,0.8838556393285429,A,465.3497999997853,Correct
19,18,188,B,38.8492378317722,17.037353296264055,1.94246189158861,0.267622119760785,B,635.0378999995883,Correct
19,18,189,B,64.4018466055283,38.27845952588777,3.2200923302764153,0.6012766361863163,B,898.8969000001816,Correct
19,18,190,A,46.19557486983516,66.99104551469516,2.309778743491758,1.0522928822263289,A,564.6202000007179,Correct
19,18,191,A,46.96046300043809,53.97187308872973,2.3480231500219046,0.8477881999801699,B,446.71909999942727,Incorrect
19,18,192,A,66.50064081173652,81.20848487593811,3.3250320405868257,1.275619897477025,A,498.48279999969236,Correct
19,18,193,A,21.122661397069173,37.22497186362196,1.0561330698534588,0.5847284906842075,A,394.06030000009196,Correct
19,18,194,A,50.95746267119621,77.97031022477015,2.5478731335598104,1.224754769001275,A,468.9277999996193,Correct
19,18,195,B,68.59499841069606,42.291926401767455,3.429749920534803,0.6643200264497642,B,675.6911000002219,Correct
19,18,196,A,16.89863417020151,42.62923941969878,0.8449317085100756,0.6696185269452304,A,553.368999999293,Correct
19,18,197,A,26.826886497493604,45.452696700003564,1.3413443248746801,0.7139692901928812,A,411.2013999992996,Correct
19,18,198,B,68.68853651850381,41.50248504076321,3.4344268259251907,0.6519195105489098,B,475.4416999994646,Correct
19,18,199,B,64.39937821208977,44.33553357180665,3.219968910604489,0.6964209328108569,B,373.30889999975625,Correct
19,18,200,A,26.06988029883137,42.297987337028104,1.3034940149415686,0.664415231398208,A,549.660099999528,Correct
19,18,201,B,57.640221585678674,43.382306532920154,2.8820110792839335,0.6814476774980122,B,367.02470000000176,Correct
19,18,202,A,56.54070246352552,78.63756179372905,2.827035123176276,1.235235932136963,B,480.2612000003137,Incorrect
19,18,203,B,87.01218144993506,67.0032416241766,4.350609072496753,1.052484458266075,B,489.47339999995165,Correct
19,18,204,A,41.73269760247466,63.2765538892596,2.086634880123733,0.9939457842148831,A,562.3164000007819,Correct
19,18,205,B,40.26977776606215,30.160054183358813,2.0134888883031072,0.4737530232715508,B,494.98380000022735,Correct
19,18,206,A,32.92273517296844,47.59705687222882,1.6461367586484217,0.7476528210114483,A,551.6430999996373,Correct
19,18,207,A,26.649089952148415,47.760640225780534,1.3324544976074209,0.7502223823202864,A,525.0605000001087,Correct
19,18,208,B,39.59038879931372,30.765733579008632,1.9795194399656861,0.4832670129705717,A,1039.0620000007402,Incorrect
19,18,209,A,13.307302204179841,36.76832545985277,0.6653651102089921,0.57755550574736,A,456.0590000000957,Correct
19,18,210,A,50.25010235223337,66.47825157919635,2.5125051176116684,1.0442379339234864,B,410.46000000005733,Incorrect
19,18,211,B,69.28701110368704,57.10262773618504,3.464350555184352,0.8969659789833584,A,379.60520000069664,Incorrect
19,18,212,A,46.94382320597787,63.36074694788598,2.3471911602988937,0.9952682856872024,A,590.8885999997437,Correct
19,18,213,A,24.362694617040667,48.58129799480015,1.2181347308520332,0.7631132444116036,A,539.7476999996798,Correct
19,18,214,A,50.52413953244761,66.28403240578996,2.5262069766223805,1.0411871462816875,A,1679.2780000005223,Correct
19,18,215,A,24.279195119242154,38.53528832095142,1.2139597559621078,0.6053108934653277,A,462.32529999997496,Correct
19,18,216,B,41.119079605660914,23.19584766484711,2.0559539802830455,0.36435952308835823,A,387.0841999996628,Incorrect
19,18,217,B,65.04764547091307,55.91400906789048,3.252382273545653,0.8782952006021891,A,398.97800000017014,Incorrect
19,18,218,B,56.26340426272911,39.33919699984394,2.8131702131364555,0.6179386614641569,B,446.7891000003874,Correct
19,18,219,A,53.99356746246543,62.63922669350637,2.6996783731232714,0.9839346720343264,B,419.95159999987663,Incorrect
19,18,220,A,13.530236044205907,35.20056182308399,0.6765118022102954,0.5529291321281699,A,414.2185000000609,Correct
19,18,221,A,47.52791569371185,71.81728572186755,2.3763957846855925,1.1281032861228912,A,700.8121999997456,Correct
19,18,222,B,67.5448801238242,58.95147317099098,3.3772440061912103,0.9260075751614053,B,394.11420000033104,Correct
19,18,223,B,42.679317668850814,32.26970829224303,2.133965883442541,0.5068913925219817,B,838.605799999641,Correct
19,18,224,B,52.45762055784383,20.666604944725673,2.6228810278921917,0.3246302713449633,B,917.2172999997201,Correct
19,18,225,B,75.04566179576618,59.696188308394625,3.752283089788309,0.9377055331848272,B,849.7088000003714,Correct
19,18,226,A,31.92538525292686,48.656922120809206,1.5962692626463428,0.7643011454051245,A,470.85880000031466,Correct
19,18,227,B,79.7663090106829,51.95961291907475,3.988315450534145,0.8161796911496726,B,624.4785999997475,Correct
19,18,228,B,76.03833574569849,45.92516742142218,3.801916787284924,0.721390842930106,B,431.6161999995529,Correct
19,18,229,A,32.058248820555384,58.532065220722295,1.602912441027769,0.919419530484299,A,439.69469999956345,Correct
19,18,230,A,64.0178101839445,87.58188621540737,3.200890509197225,1.3757330516093047,A,1163.8842000002114,Correct
19,18,231,A,36.85035494004066,57.468078436340164,1.842517747002033,0.9027064651576413,B,691.5410999999949,Incorrect
19,18,232,B,66.20745777718527,45.783394609249356,3.310372888859263,0.7191638808041015,B,469.0024999999878,Correct
19,18,233,A,25.531966958801096,48.46763820281919,1.2765983479400547,0.7613278805741237,A,590.2706999995644,Correct
19,18,234,B,76.4647149284327,46.48149953287267,3.823235746421635,0.7301296873015508,B,402.83650000037596,Correct
19,18,235,B,38.235044044200016,19.443763295938908,1.9117522022100006,0.30542191964330273,B,906.0829000000012,Correct
19,18,236,A,52.53863956853135,64.30779213550457,2.6269319784265677,1.010144436707403,A,768.6193999998068,Correct
19,18,237,A,32.699867729356654,43.126075260155034,1.6349933864678325,0.6774228060773179,B,515.7922999997027,Incorrect
19,18,238,A,58.29239086354317,86.57603427090544,2.9146195431771584,1.3599331662120733,A,791.4318000002822,Correct
19,18,239,B,76.46945385152392,51.76189656200145,3.8234726925761957,0.8130739698752927,B,530.3215000003547,Correct
19,18,240,A,12.563477793086282,36.97943255553082,0.6281738896543141,0.5808715682518742,A,505.11289999940345,Correct
19,18,241,B,53.93488697198734,25.213085402804715,2.696744348599367,0.3960462193789167,B,541.9834000003902,Correct
19,18,242,B,67.25866365655156,49.4772327593361,3.362933182827578,0.7771865547834128,B,470.1141000005009,Correct
19,18,243,B,53.82615462049929,22.39541016038161,2.6913077310249647,0.3517862801699254,B,629.9891000007847,Correct
19,18,244,A,59.42539606725396,80.50308271233072,2.971269803362698,1.2645394662019487,A,527.4041000002399,Correct
19,18,245,A,23.69870205327398,49.58474550001947,1.184935102663699,0.7788753609649036,A,434.3011999999362,Correct
19,18,246,B,53.505745773082424,28.092973311380526,2.675287288654121,0.44128339286263596,B,471.4131000000634,Correct
19,18,247,A,23.692680488109396,53.51140409076522,1.1846340244054698,0.8405551698741139,A,467.4724000005881,Correct
19,18,248,B,81.40335645804502,56.04561560984017,4.070167822902252,0.8803624713289565,B,528.636799999731,Correct
19,18,249,B,45.9892140315451,33.83272199246218,2.299460701577255,0.5314431543123251,B,430.9242000008453,Correct
19,18,250,A,31.111519521962585,43.67408160588554,1.5555759760981291,0.6860308696266556,B,840.8926000001884,Incorrect
19,18,251,B,71.45316492788511,58.13940072767407,3.5726582463942553,0.9132515710508697,B,614.5685999999841,Correct
19,18,252,A,56.37787844447091,84.3401214947403,2.8188939222235456,1.3248115304537338,A,673.5212999992655,Correct
19,18,253,B,84.86040486066483,56.98719068484013,4.243020243033242,0.8951526980210722,B,437.309599999935,Correct
19,18,254,A,30.258451109835583,49.719934570302776,1.5129225554917793,0.780998905915142,A,397.6400999999896,Correct
19,18,255,A,22.52421181007459,51.01320858030638,1.1262105905037294,0.8013136065596717,A,468.6400999999023,Correct
19,18,256,B,58.49404906619214,39.97596905205538,2.924702453309607,0.6279410534703507,B,955.6554000000688,Correct
19,18,257,B,49.11562739979422,32.35956616954906,2.455781369989711,0.5083028767580408,B,453.26920000024984,Correct
19,18,258,B,69.1405841971031,45.082856605910315,3.4570292098551545,0.7081598555798495,B,428.96380000001955,Correct
19,18,259,B,44.483790829714586,26.842405671050216,2.2241895414857296,0.4216395223042418,A,511.7434999992838,Incorrect
19,18,260,B,71.52425979985344,42.79198801287683,3.576212989992672,0.6721749758687816,B,434.45199999951,Correct
19,18,261,B,63.65425866889717,39.28326392577412,3.1827129334448587,0.6170600667912045,B,550.2254000002722,Correct
19,18,262,B,56.830245423812904,45.32174109276132,2.8415122711906453,0.7119122443245881,A,1519.3270999998276,Incorrect
19,18,263,A,19.061669793153108,33.84225064189336,0.9530834896576553,0.5315928299875832,A,1124.4206999999733,Correct
19,18,264,B,67.04768973484322,54.52467865797088,3.352384486742161,0.8564716495561274,B,838.9401000004,Correct
19,18,265,B,38.45598120569994,20.47192118891304,1.9227990602849971,0.32157218605979215,B,1351.4732000003278,Correct
19,18,266,B,40.265182194911816,27.709869026516518,2.0132591097455905,0.4352656048281982,A,2150.931500000297,Incorrect
19,18,267,A,66.682456397616,84.89462895292985,3.3341228198807995,1.3335217132387787,A,1880.9050999998362,Correct
19,18,268,B,73.84654591056739,45.53362096979646,3.6923272955283695,0.7152404456502736,B,1759.4412999997076,Correct
19,18,269,A,12.358283398506366,32.334114777507644,0.6179141699253183,0.5079030872267359,B,43.90680000051361,Incorrect
19,18,270,B,62.17834875395106,42.64765832087883,3.108917437697553,0.6699078503684028,A,1672.878899999887,Incorrect
19,18,271,B,35.31079900893252,20.661772518197303,1.765539950446626,0.3245543637665606,B,1297.5389000002906,Correct
19,18,272,A,58.890021767117894,73.06183649395601,2.9445010883558944,1.1476526439359545,A,1305.0216000001456,Correct
19,18,273,B,59.277706008774445,43.81125121570497,2.9638853004387222,0.688185524819178,B,1690.1260000004186,Correct
19,18,274,A,50.623693890676925,79.54130661790599,2.531184694533846,1.2494319226387334,A,1648.9762000001065,Correct
19,18,275,B,39.73308023396736,22.870946984538914,1.986654011698368,0.3592559951363454,B,1893.582300000162,Correct
19,18,276,A,20.736616310933776,35.082067831428745,1.036830815546689,0.5510678328597768,A,1355.0748999996358,Correct
19,18,277,B,34.854868459822626,10.820296914428223,1.7427434229911314,0.16996482648014008,B,1124.798799999553,Correct
19,18,278,B,69.98774238301017,43.958724668955014,3.4993871191505086,0.6905020324058273,B,1483.8360000003377,Correct
19,18,279,B,49.95434587582743,32.92680428657575,2.4977172937913714,0.5172130322644765,B,1149.353799999517,Correct
19,18,280,B,80.83553241394485,66.72974123376387,4.0417766206972425,1.0481883241797025,A,1062.341099999685,Incorrect
19,18,281,A,30.692125640587587,62.98169996994342,1.5346062820293793,0.9893142296808537,A,1462.3633999999583,Correct
19,18,282,B,57.663294205541476,41.160743031541436,2.883164710277074,0.6465514396209392,B,1180.6872999995903,Correct
19,18,283,A,64.46735452507342,82.9061390245127,3.2233677262536706,1.3022865864845157,A,1459.6590999999535,Correct
19,18,284,A,58.20169246757453,73.93588803926392,2.9100846233787263,1.1613822135039449,A,1319.1707999994833,Correct
19,18,285,A,38.323435985924796,49.78295565604847,1.9161717992962397,0.7819888388151415,A,1530.8678000001237,Correct
19,18,286,B,58.59146306674153,45.72728078210111,2.9295731533370764,0.718282446868433,B,988.765200000671,Correct
19,18,287,A,35.26634343841584,56.07672286186155,1.763317171920792,0.8808511029010752,B,990.1001999996879,Incorrect
19,18,288,A,47.12259577477775,72.68203362018953,2.3561297887388877,1.141686714345769,A,2091.5203999993537,Correct
19,18,289,A,68.23572690602,81.86990979491935,3.411786345301,1.2860095358088883,A,1234.8560000000361,Correct
19,18,290,B,66.24842919522239,46.576102806477465,3.3124214597611195,0.7316157120483626,B,2135.9760000004826,Correct
19,18,291,B,64.20655941093877,47.53329814099185,3.2103279705469383,0.7466513012031669,B,1229.903600000398,Correct
19,18,292,B,72.47854514321494,43.79075345235928,3.623927257160747,0.6878635467054689,B,1276.4234999995097,Correct
19,18,293,A,60.91712459889814,72.86254317145134,3.045856229944907,1.1445221517465032,A,989.7966999997152,Correct
19,18,294,B,47.804767045744086,23.9515019242966,2.3902383522872044,0.37622931243905994,B,1156.7261000000144,Correct
19,18,295,B,89.16276553168348,63.848427686927046,4.458138276584174,1.0029287568225458,B,2240.6402999995407,Correct
19,18,296,B,73.68773722502638,47.32932371903706,3.6843868612513186,0.7434472784754999,B,1524.4065999995655,Correct
19,18,297,A,49.47781402578101,78.60086611856546,2.4738907012890503,1.2346595178194009,A,1308.037100000547,Correct
19,18,298,B,79.85974348706289,62.86786547933673,3.992987174353144,0.9875261216837782,A,1397.2530999999435,Incorrect
19,18,299,B,78.38117194895415,58.56703631363886,3.9190585974477075,0.9199688551272724,B,1829.4875000001412,Correct
