subject,day,trial,cat,x,y,xt,yt,resp,rt,fb
19,6,0,A,60.03804617979592,76.07074507400144,3.0019023089897963,1.1949164693879244,A,661.0962999984622,Correct
19,6,1,A,13.028531714485329,31.472327636550904,0.6514265857242664,0.4943661664717967,A,588.5403999127448,Correct
19,6,2,B,36.63484740991309,22.215628615442238,1.8317423704956548,0.3489622782657626,B,671.3540999917313,Correct
19,6,3,A,20.575211669170287,32.865679440623566,1.0287605834585143,0.5162528854295004,A,641.2447999464348,Correct
19,6,4,B,86.41656840593687,57.75192435833377,4.320828420296843,0.9071651064740739,B,1093.8316999236122,Correct
19,6,5,B,54.59468536372419,44.74803125320203,2.72973426818621,0.7029004312383297,B,575.0493999803439,Correct
19,6,6,A,35.93654124146674,48.11625928969038,1.7968270620733369,0.7558084335135647,A,805.6714000413194,Correct
19,6,7,A,34.93504319970648,67.8581879359798,1.746752159985324,1.0659139235279484,A,533.6314000887796,Correct
19,6,8,B,70.65129226900295,50.46243612657656,3.532564613450148,0.7926620930874854,B,602.5435000192374,Correct
19,6,9,A,26.821834443750888,43.88178138833675,1.3410917221875445,0.6892934101801602,A,483.0872000893578,Correct
19,6,10,A,12.331836710190732,31.356580775047743,0.6165918355095366,0.49254801902292467,A,426.7741000512615,Correct
19,6,11,B,67.30333325265478,45.81962531852311,3.3651666626327392,0.7197329914545454,B,719.2511999746785,Correct
19,6,12,A,17.194171112446142,43.22890121574713,0.8597085556223071,0.6790379924107504,A,423.3886000001803,Correct
19,6,13,B,63.99102189372842,43.0473042735061,3.199551094686421,0.6761854743124565,B,611.5866999607533,Correct
19,6,14,B,79.3212499805169,56.645448340105844,3.9660624990258446,0.8897846218228832,B,742.4202000256628,Correct
19,6,15,B,48.15762780733474,29.90774497301532,2.407881390366737,0.46978975946331,B,838.8235999736935,Correct
19,6,16,B,45.97045022062122,21.119980909337123,2.2985225110310608,0.331751884343651,B,570.4401000402868,Correct
19,6,17,A,48.38327904245914,59.249036490706025,2.419163952122957,0.9306816888573781,A,1190.552300075069,Correct
19,6,18,A,19.124422609592962,33.334673228900236,0.9562211304796481,0.5236198226286467,A,437.24980007391423,Correct
19,6,19,A,34.01400841370527,59.365116487367246,1.7007004206852634,0.9325050691810762,A,916.1912000272423,Correct
19,6,20,A,58.83258661147785,78.1476967163017,2.9416293305738925,1.2275411494944828,A,1025.5364999175072,Correct
19,6,21,B,37.23181168255776,11.66103485907048,1.861590584127888,0.18317110723255156,B,680.465399986133,Correct
19,6,22,A,47.38778348195414,58.7782900290545,2.369389174097707,0.9232872207292391,A,1283.356299973093,Correct
19,6,23,B,55.51481083816172,39.506922158835046,2.7757405419080863,0.6205732821007,B,863.0706000840291,Correct
19,6,24,A,59.672987926953915,68.80050056614617,2.9836493963476958,1.080715735709526,A,751.6150999581441,Correct
19,6,25,B,61.993003141301536,34.244070794608014,3.099650157065077,0.5379046061867466,B,492.5900000380352,Correct
19,6,26,B,33.52510630302585,10.53336838542091,1.6762553151512924,0.16545776368596657,A,483.9430999709293,Incorrect
19,6,27,A,33.22019003470914,47.154245900120706,1.661009501735457,0.7406971625269291,A,735.6643000384793,Correct
19,6,28,A,18.53377743777065,47.60944403403681,0.9266888718885324,0.7478473980941224,A,503.1063000205904,Correct
19,6,29,B,56.169729636583355,34.50652365443918,2.808486481829168,0.5420272060685427,B,613.7415999546647,Correct
19,6,30,A,63.954649298985274,85.52727850908799,3.1977324649492633,1.3434593492283953,A,834.5150999957696,Correct
19,6,31,B,75.08054147391253,44.15042523801133,3.7540270736956267,0.6935132579030089,B,1156.1966000590473,Correct
19,6,32,A,13.108749908653973,40.94143904898388,0.6554374954326987,0.6431066207184102,A,459.2968000797555,Correct
19,6,33,A,40.55506475305061,62.65137968941266,2.0277532376525302,0.9841255708476179,A,764.5636999513954,Correct
19,6,34,B,51.34771362165863,37.519010688272196,2.567385681082931,0.5893472417411644,B,773.9162999205291,Correct
19,6,35,A,43.99517313871214,53.48082464722223,2.199758656935607,0.8400748290981864,B,1154.8171000322327,Incorrect
19,6,36,B,64.81651813364944,55.17960101699822,3.240825906682472,0.8667591459150873,A,1288.3541999617592,Incorrect
19,6,37,A,32.763849911207444,42.32925519980638,1.6381924955603722,0.6649063858381964,A,710.8202999224886,Correct
19,6,38,B,44.20490762998901,14.96692746809562,2.2102453814994503,0.23509994690290242,B,777.4633999215439,Correct
19,6,39,A,32.74251312031816,53.92883114691768,1.637125656015908,0.847112098739205,A,1565.284000011161,Correct
19,6,40,A,29.011690269203577,58.88197715333828,1.4505845134601787,0.924915934268848,A,1864.2931999638677,Correct
19,6,41,A,36.621829811666245,59.33961405360126,1.8310914905833124,0.9321044778882367,B,965.8181000268087,Incorrect
19,6,42,B,73.73730078965096,57.87718267375614,3.6868650394825475,0.9091326594917337,B,1220.8878000965342,Correct
19,6,43,A,63.51558648107367,83.9304026943629,3.175779324053684,1.318375682587217,A,840.6910999910906,Correct
19,6,44,A,27.04479384685714,49.62992757464156,1.352239692342857,0.7795850793334371,A,1183.3041000645608,Correct
19,6,45,A,28.958403997452724,53.5424962162011,1.447920199872636,0.8410435638383834,A,539.4688999513164,Correct
19,6,46,A,31.936004473847415,59.798869023850465,1.5968002236923706,0.9393184380915344,A,710.9586000442505,Correct
19,6,47,A,47.59650317251537,67.24534159666334,2.379825158625769,1.0562873557410684,A,918.2833000086248,Correct
19,6,48,A,40.00243098182086,64.20448487575705,2.000121549091043,1.0085216900659766,A,622.2579999594018,Correct
19,6,49,A,41.11345369289288,59.591252749284095,2.055672684644644,0.9360572092768173,A,738.6953999521211,Correct
19,6,50,A,11.16735305005167,30.69725381186902,0.5583676525025836,0.482191335303745,A,686.8064999580383,Correct
19,6,51,B,70.4075143702851,39.18032054454445,3.520375718514255,0.6154430359401705,B,745.4587999964133,Correct
19,6,52,A,64.01778359706117,88.13772764406818,3.2008891798530583,1.3844641883535131,A,1080.269799917005,Correct
19,6,53,B,46.28797236497187,26.465400590480137,2.3143986182485934,0.41571754034681685,B,544.5206000003964,Correct
19,6,54,B,45.136221907619685,25.705892699879314,2.2568110953809843,0.4037872182995418,B,522.681700065732,Correct
19,6,55,B,55.16251889031084,35.45145317029626,2.7581259445155424,0.5568701241944266,B,720.3543999930844,Correct
19,6,56,A,59.48347378751659,81.37059741797057,2.9741736893758293,1.2781663553325446,A,751.0190999601036,Correct
19,6,57,A,30.21541087979419,46.00614600933248,1.5107705439897097,0.7226628516144916,B,839.9069999577478,Incorrect
19,6,58,B,78.63856445760908,54.00327474872404,3.9319282228804537,0.8482814561019131,B,1006.357500096783,Correct
19,6,59,A,50.58874867461104,61.53966015042785,2.529437433730552,0.9666627211649834,A,1842.1759000048041,Correct
19,6,60,B,68.267487544007,52.06797345355005,3.4133743772003498,0.8178818144449062,B,1182.2186999488622,Correct
19,6,61,B,87.11029451505078,64.10070265264638,4.355514725752539,1.0068914827174882,B,680.3995000664145,Correct
19,6,62,A,49.07880595830001,67.77623227210782,2.4539402979150005,1.064626566970247,A,863.8556000078097,Correct
19,6,63,B,51.713085538547496,31.21431416030694,2.585654276927375,0.49031330026432074,B,531.3383999746293,Correct
19,6,64,B,67.36618555103709,34.267538555842854,3.368309277551855,0.5382732369182045,B,931.8240999709815,Correct
19,6,65,B,48.0290655154575,22.773787888888787,2.401453275772875,0.35772982363072614,B,611.6823999909684,Correct
19,6,66,A,29.00659399488898,52.71521337772109,1.450329699744449,0.8280486353993349,A,817.276900052093,Correct
19,6,67,A,21.85925188418033,40.078193273006534,1.0929625942090166,0.629546787778146,A,524.1441999096423,Correct
19,6,68,A,40.98700468831673,71.23150183771504,2.0493502344158365,1.1189018143876672,B,555.4907999467105,Incorrect
19,6,69,B,41.91800468341759,18.39201841921853,2.0959002341708795,0.2889011497525255,B,1591.8701000045985,Correct
19,6,70,B,73.73394190528056,41.6475708945826,3.6866970952640283,0.654198513811404,B,563.1162000354379,Correct
19,6,71,A,61.427742583286474,87.33699929428211,3.0713871291643238,1.371886376847468,A,1064.0642000362277,Correct
19,6,72,B,65.60886190793703,32.22253156568525,3.2804430953968513,0.50615034223411,B,870.0386999407783,Correct
19,6,73,A,15.928000411943579,43.03227081120398,0.7964000205971788,0.6759493292388246,A,790.8854000270367,Correct
19,6,74,B,59.81716250143862,28.947514125867443,2.9908581250719304,0.45470648858755963,B,664.8246999830008,Correct
19,6,75,B,63.821144076155576,43.00277770744942,3.191057203807779,0.6754860526483901,B,853.4143000142649,Correct
19,6,76,A,58.89819272983286,75.71104588639506,2.944909636491643,1.1892663277614923,A,1084.8836000077426,Correct
19,6,77,A,26.114236215843746,37.10455601543993,1.3057118107921872,0.5828370029640854,A,596.7547999462113,Correct
19,6,78,A,50.341224003122804,67.91657340852628,2.5170612001561405,1.0668310403860901,A,1711.8423000210896,Correct
19,6,79,B,58.061359684069735,48.36290133741162,2.9030679842034868,0.7596826777395017,B,1063.1706999847665,Correct
19,6,80,A,28.47771083724387,56.9559543493777,1.4238855418621936,0.8946620388110031,A,615.8720999956131,Correct
19,6,81,B,87.51913961651647,60.36452580858507,4.375956980825823,0.9482037540884117,B,657.8499999595806,Correct
19,6,82,B,50.429395747432544,20.0055613601497,2.521469787371627,0.31424662299993067,B,1073.6509000416845,Correct
19,6,83,B,58.152690079246575,42.95707665032814,2.907634503962329,0.6747681821218227,B,790.5561999650672,Correct
19,6,84,B,46.60554616458695,29.07552370341722,2.330277308229347,0.45671725832965715,B,536.97369992733,Correct
19,6,85,B,74.33146927021781,44.50422285933629,3.71657346351089,0.6990706979430692,B,546.8781000236049,Correct
19,6,86,A,40.79995520723003,53.23423265640321,2.0399977603615014,0.8362013711642309,A,974.913900019601,Correct
19,6,87,B,54.890309905280546,35.11182812331223,2.7445154952640274,0.5515353064315259,B,860.7630000915378,Correct
19,6,88,A,35.04540666764312,65.1132150013885,1.752270333382156,1.0227959894998742,A,524.5624000672251,Correct
19,6,89,B,35.625954465598085,23.085076448619677,1.7812977232799043,0.3626195328927116,B,801.2014999985695,Correct
19,6,90,A,59.468832787823146,87.26335993524532,2.973441639391157,1.370729652500643,A,1364.2809999873862,Correct
19,6,91,A,35.97022771505954,61.98969897064562,1.798511385752977,0.9737319144221153,B,704.4861000031233,Incorrect
19,6,92,B,82.37543974331965,54.0045180629087,4.1187719871659825,0.8483009860354562,B,1009.7240000031888,Correct
19,6,93,B,67.54501400579645,43.77629468106697,3.3772507002898227,0.6876364288571096,B,512.477699900046,Correct
19,6,94,B,35.75486569656965,12.177304834695402,1.7877432848284827,0.19128065704601274,B,740.840999991633,Correct
19,6,95,B,61.63551312523688,47.55988518043783,3.0817756562618444,0.7470689294421878,B,799.4508999399841,Correct
19,6,96,B,45.29024485180519,25.281251840854395,2.2645122425902597,0.397116975283908,B,451.9541999325156,Correct
19,6,97,B,82.38303180104657,66.69502626936219,4.119151590052328,1.0476430227940325,B,646.0890000453219,Correct
19,6,98,A,35.565347586848894,48.62195820311592,1.7782673793424448,0.7637519334702947,A,471.69490007217973,Correct
19,6,99,A,38.10618156083495,58.732865494729026,1.9053090780417474,0.9225736938125908,A,607.6084999367595,Correct
19,6,100,B,61.765997189375646,40.806636585582254,3.0882998594687825,0.6409891485748683,B,527.572000049986,Correct
19,6,101,A,39.62524349825422,57.77274300642528,1.9812621749127113,0.9074921250335837,A,487.10569995455444,Correct
19,6,102,A,32.32586905138396,45.35221042626919,1.616293452569198,0.7123908554961287,A,801.9209000049159,Correct
19,6,103,B,57.391302209471526,45.39638345491373,2.8695651104735767,0.713084723807511,B,467.56869996897876,Correct
19,6,104,B,57.44287290921506,49.52154122550774,2.872143645460753,0.7778825505424959,B,619.5354999508709,Correct
19,6,105,A,48.04091172307327,61.84259747025807,2.4020455861536636,0.9714212494573674,B,671.1828999686986,Incorrect
19,6,106,B,85.19387938045591,60.34683478245418,4.259693969022795,0.9479258640997753,A,1005.42449997738,Incorrect
19,6,107,A,39.07602240781859,58.029095471144686,1.9538011203909296,0.9115189001330444,A,589.5694999489933,Correct
19,6,108,A,45.787261924735795,57.14411896518462,2.2893630962367895,0.8976177216844259,B,791.6125999763608,Incorrect
19,6,109,A,65.88301879558956,80.80422070919431,3.2941509397794784,1.2692697307952654,B,1239.7636000532657,Incorrect
19,6,110,A,28.821970091308742,56.70174256635157,1.4410985045654372,0.8906688894609488,A,549.9553000554442,Correct
19,6,111,A,19.406861281659022,49.4918305112981,0.9703430640829511,0.7774158557350265,A,556.1331000644714,Correct
19,6,112,B,31.342168189142388,14.381580508966064,1.5671084094571193,0.22590533836988974,B,680.3615000098944,Correct
19,6,113,B,32.316591567129336,10.558188645753592,1.615829578356467,0.16584763942357325,B,613.8498999644071,Correct
19,6,114,A,45.86561913602161,75.9405307081673,2.2932809568010804,1.1928710669124425,A,798.9845999982208,Correct
19,6,115,B,66.7496499690639,47.206973859294926,3.337482498453195,0.7415254113728318,B,1211.6701999912038,Correct
19,6,116,B,72.24854873895745,47.052273404281905,3.6124274369478724,0.7390953823079521,B,1130.6017000460997,Correct
19,6,117,A,49.811699041490705,75.8594734873812,2.4905849520745353,1.1915978230657323,A,923.3925000298768,Correct
19,6,118,B,63.29730653536315,36.40371140686124,3.1648653267681572,0.5718281615959913,B,525.2592000178993,Correct
19,6,119,B,65.10447307588268,51.65244805725629,3.255223653794134,0.8113547567830235,B,852.9851000057533,Correct
19,6,120,B,51.81611198760235,22.490691701289574,2.590805599380117,0.3532829591146212,B,700.2185999881476,Correct
19,6,121,B,52.462434326914305,41.54459486354324,2.6231217163457154,0.6525809700983586,B,525.2957999473438,Correct
19,6,122,B,55.381689772369334,48.450347736510146,2.769084488618467,0.7610562825644556,B,663.5112999938428,Correct
19,6,123,A,16.33174404258641,36.20646519935515,0.8165872021293206,0.5687298254137433,A,547.881199978292,Correct
19,6,124,B,75.18903231486459,44.63822280050898,3.759451615743229,0.7011755640969171,B,509.36729996465147,Correct
19,6,125,A,66.3975906422086,81.04243912191576,3.3198795321104297,1.273011656872043,A,959.3448999803513,Correct
19,6,126,A,25.43234084177815,57.433945738108484,1.2716170420889075,0.9021703099875822,A,695.0526000000536,Correct
19,6,127,A,42.27358897475814,64.25547926302976,2.1136794487379067,1.009322708028128,B,670.2908000443131,Incorrect
19,6,128,B,47.94565964955573,25.839578114744427,2.3972829824777864,0.40588714388570346,A,668.1714999722317,Incorrect
19,6,129,A,35.63830928684263,54.99234290089034,1.7819154643421313,0.8638177023056396,A,513.9927000273019,Correct
19,6,130,B,45.94684899890771,28.11981359041476,2.2973424499453854,0.4417049989798072,B,542.4452000297606,Correct
19,6,131,B,49.407879853959194,29.814543979681048,2.47039399269796,0.46832576168347884,B,627.3681999882683,Correct
19,6,132,B,64.81926600733962,38.878021647265825,3.240963300366981,0.6106945359657762,B,498.16780001856387,Correct
19,6,133,B,37.534468657442275,13.081878746926755,1.8767234328721139,0.2054896708324877,B,538.9337000669912,Correct
19,6,134,B,62.64825019789677,40.143576485672284,3.1324125098948388,0.6305738248810401,B,430.7270999997854,Correct
19,6,135,B,57.64868652524953,28.152735470116074,2.882434326262477,0.4422221346568672,B,482.9185000853613,Correct
19,6,136,A,34.60860720462672,53.19449394597939,1.730430360231336,0.8355771569605779,A,693.7932999571785,Correct
19,6,137,A,20.8381941659729,39.935466442054434,1.041909708298645,0.6273048399601996,A,497.30380007531494,Correct
19,6,138,A,35.37268406247321,63.05559095134915,1.7686342031236606,0.9904749065026076,A,542.0644999248907,Correct
19,6,139,A,66.07047351150368,81.73466276598108,3.303523675575184,1.283885080446227,B,640.8813999732956,Incorrect
19,6,140,A,33.3133828083451,46.75050867110538,1.6656691404172548,0.734355272963653,A,1123.7586999777704,Correct
19,6,141,B,76.77822770733084,49.23431754237245,3.838911385366542,0.7733708514781219,B,526.9280999200419,Correct
19,6,142,A,46.62509457070441,66.04350696165264,2.3312547285352205,1.0374089814401715,A,556.1124999076128,Correct
19,6,143,A,56.86690216198137,75.96847646740468,2.8433451080990686,1.193310037872038,A,2283.5131000028923,Correct
19,6,144,A,58.19972164699283,66.87321910811806,2.9099860823496413,1.0504420693598215,A,927.3488000035286,Correct
19,6,145,B,49.13483179573665,18.160881081512002,2.4567415897868328,0.28527045294197984,B,1099.75559997838,Correct
19,6,146,A,39.308374813338034,61.50259925369557,1.965418740666902,0.9660805699604356,A,1040.1522000320256,Correct
19,6,147,B,69.11649903560588,45.44067982989677,3.4558249517802944,0.7137805296386479,A,1620.49450003542,Incorrect
19,6,148,A,28.16568877768757,53.68640664191157,1.4082844388843785,0.8433041035193183,A,673.8908999832347,Correct
19,6,149,B,70.79816114090275,61.560712992530476,3.539908057045137,0.9669934184354173,A,1655.7690999470651,Incorrect
19,6,150,A,66.66478734003842,78.18251591254005,3.3332393670019207,1.2280880881500147,A,585.6391999404877,Correct
19,6,151,B,51.14782708771173,24.140382431751366,2.5573913543855866,0.379196240512191,B,493.5233999276534,Correct
19,6,152,B,64.1310336646764,49.444309729347154,3.20655168323382,0.7766694010376767,B,542.1217000111938,Correct
19,6,153,A,58.03455877836839,73.53545043705753,2.901727938918419,1.1550921543573816,A,1303.225800045766,Correct
19,6,154,B,67.40404240083599,53.47677481408802,3.3702021200417995,0.8400112144680728,B,829.9510999349877,Correct
19,6,155,B,43.29367431567819,28.264718878771344,2.164683715783909,0.4439811659266439,A,408.3755000028759,Incorrect
19,6,156,A,35.79045147139622,67.43463807453962,1.7895225735698108,1.059260817862301,A,869.1676999442279,Correct
19,6,157,B,82.49059145381747,60.3434570237542,4.124529572690874,0.947872806390188,B,533.3366999402642,Correct
19,6,158,A,11.366255707455252,36.25778449227032,0.5683127853727626,0.5695359469817918,A,565.4596000676975,Correct
19,6,159,B,88.58705458494518,67.73059013029521,4.429352729247259,1.0639096218831838,A,1168.74730004929,Incorrect
19,6,160,B,69.558756365172,43.1478183730403,3.4779378182586003,0.6777643460958507,B,943.6524000484496,Correct
19,6,161,A,25.131755003197874,49.06372423935635,1.2565877501598937,0.7706911781405869,A,498.5825000330806,Correct
19,6,162,B,40.198871946631,27.56890203239559,2.0099435973315503,0.43305130046255347,A,521.6461999807507,Incorrect
19,6,163,B,61.95392655692816,40.90552985867758,3.0976963278464082,0.642542560476097,B,528.766900068149,Correct
19,6,164,B,64.67562033643983,32.3741717731426,3.2337810168219914,0.5085323010427942,B,770.1704000355676,Correct
19,6,165,A,59.70813190010668,73.27329064860884,2.9854065950053337,1.1509741580300958,A,504.5932999346405,Correct
19,6,166,A,62.8303614034986,77.4705171398629,3.1415180701749303,1.2169040375819773,A,987.710400018841,Correct
19,6,167,A,44.37163746101748,62.67155243542356,2.218581873050874,0.9844424436009708,A,558.5177999455482,Correct
19,6,168,B,46.44551117789389,39.00725590532919,2.3222755588946944,0.6127245429443963,A,637.7322999760509,Incorrect
19,6,169,A,25.94785931361648,38.84737954949789,1.297392965680824,0.6102132110195847,A,800.8944999892265,Correct
19,6,170,B,44.63580270803817,34.709286381640126,2.2317901354019085,0.5452121955395244,B,816.436400054954,Correct
19,6,171,B,68.1438208726439,40.10125267628388,3.4071910436321953,0.6299090040378073,B,520.5537000438198,Correct
19,6,172,A,14.374315521254804,38.78615102589373,0.7187157760627402,0.6092514356198598,A,504.8514000372961,Correct
19,6,173,A,54.80963300765332,63.6773104358854,2.740481650382666,1.000240853328671,A,783.7321000406519,Correct
19,6,174,B,76.49734251409438,54.754984277735325,3.8248671257047193,0.8600892817717897,A,1311.9963000062853,Incorrect
19,6,175,A,50.12187475641127,77.10217432935582,2.5060937378205637,1.2111181222445189,A,705.5900999112055,Correct
19,6,176,B,34.96900857380892,24.521627171936586,1.748450428690446,0.38518481888711914,B,695.5595000181347,Correct
19,6,177,B,44.65805140579521,30.923552447423077,2.232902570289761,0.485746025958615,B,577.4710000259802,Correct
19,6,178,A,51.05392942788998,79.37658374664588,2.552696471394499,1.2468444618275882,A,1218.133099959232,Correct
19,6,179,A,17.541905809645595,48.168770658965386,0.8770952904822797,0.7566332801732861,A,681.207700050436,Correct
19,6,180,B,66.21884217612171,36.60080655347545,3.3109421088060857,0.5749241249192981,A,704.7932000132278,Incorrect
19,6,181,A,39.972443997670794,64.23782257828064,1.9986221998835396,1.009045357472655,A,580.1419999916106,Correct
19,6,182,B,61.008862682098325,29.800426226607662,3.050443134104916,0.4681040005367762,B,1132.9511000076309,Correct
19,6,183,A,52.3146198455226,63.257028453358984,2.61573099227613,0.9936390793849655,B,1944.2562001058832,Incorrect
19,6,184,B,34.761879290554106,20.059388393999658,1.7380939645277054,0.3150921360704684,A,603.1222000019625,Incorrect
19,6,185,B,71.24955594974858,54.730153273267135,3.5624777974874293,0.8596992372656971,B,579.0913000237197,Correct
19,6,186,A,40.84649433216156,72.62606152125797,2.042324716608078,1.1408075066717218,B,867.8194000385702,Incorrect
19,6,187,A,37.1671361667928,63.350348489847924,1.85835680833964,0.9951049470902974,A,899.4897999800742,Correct
19,6,188,B,85.5663758138979,58.155962627838235,4.278318790694896,0.9135117247702959,B,1108.3870999282226,Correct
19,6,189,A,28.86572823871053,42.2982641963487,1.4432864119355264,0.6644195802942463,A,589.7725999820977,Correct
19,6,190,B,66.139915450738,49.41571120563546,3.3069957725369,0.7762201764776959,B,992.3467000480741,Correct
19,6,191,B,59.92689592534496,42.06284742305567,2.996344796267248,0.6607216622667003,B,738.6363000841811,Correct
19,6,192,A,49.98666240772573,63.85049055278498,2.4993331203862867,1.002961160243669,A,1066.7584999464452,Correct
19,6,193,B,36.58353589954233,12.456044016872866,1.8291767949771167,0.19565908188099448,B,1205.762500059791,Correct
19,6,194,A,51.87680485139981,60.87488274607813,2.5938402425699905,0.9562204221160956,A,883.814400061965,Correct
19,6,195,A,45.807896270604,64.78606701683553,2.2903948135302,1.0176571609753327,A,1002.2805000189692,Correct
19,6,196,B,73.78859618665355,46.267583273009095,3.6894298093326774,0.7267694985491968,B,965.4316999949515,Correct
19,6,197,A,36.19755390768643,57.29371764919337,1.8098776953843214,0.8999676123177688,B,512.0254000648856,Incorrect
19,6,198,B,45.22002086556691,23.996529803115468,2.2610010432783456,0.3769366087055804,B,939.254799974151,Correct
19,6,199,B,75.70429489779542,61.33829725201272,3.785214744889771,0.9634997201531508,A,1370.0889999745414,Incorrect
19,6,200,A,52.12533809361703,79.85675813279116,2.6062669046808513,1.2543870234473684,A,1080.020199995488,Correct
19,6,201,A,55.54063857317949,71.69772665845525,2.7770319286589746,1.1262252567464603,B,742.5215999828652,Incorrect
19,6,202,A,60.462824559227585,79.96047613415786,3.023141227961379,1.2560162220030617,A,1948.613699991256,Correct
19,6,203,A,27.312808561299004,60.013738688131625,1.3656404280649503,0.9426936028854593,A,463.3936999598518,Correct
19,6,204,B,65.02923553276403,35.873276690194736,3.2514617766382012,0.5634961125505488,B,574.1423000581563,Correct
19,6,205,A,19.105317547964884,50.40684476376171,0.9552658773982442,0.7917888660023746,A,659.6384999575093,Correct
19,6,206,B,41.876666925696895,30.87219424332811,2.093833346284845,0.4849392931751834,B,907.8707000007853,Correct
19,6,207,B,54.8540383178361,29.754357281428902,2.7427019158918053,0.4673803512381151,B,556.9082000292838,Correct
19,6,208,B,42.245315561822835,19.265649186266923,2.112265778091142,0.30262410975107173,B,798.9369999850169,Correct
19,6,209,B,64.95478059983486,33.7277823506812,3.247739029991743,0.5297947662738778,B,537.1467999648303,Correct
19,6,210,B,32.236953260490615,11.908062564939826,1.6118476630245309,0.18705140936251294,A,596.7276999726892,Incorrect
19,6,211,A,18.639685778702667,46.37339406547956,0.9319842889351334,0.7284315705906755,A,532.5583999510854,Correct
19,6,212,B,50.7342871145502,34.01098626113739,2.53671435572751,0.5342433228966631,B,1373.4237999888137,Correct
19,6,213,B,57.585539605968314,38.91499284602001,2.8792769802984157,0.6112752781977792,B,478.51849999278784,Correct
19,6,214,B,35.21627195532608,13.097641474065345,1.760813597766304,0.20573727117138338,B,587.7017999300733,Correct
19,6,215,A,45.79631174390222,73.36918102912361,2.289815587195111,1.1524804006049718,A,921.8584999907762,Correct
19,6,216,A,51.90973765870268,61.8540150369831,2.595486882935134,0.9716005961760936,A,948.5160999465734,Correct
19,6,217,A,43.386914768840235,52.92900041063921,2.169345738442012,0.8314067942595764,A,659.7202999982983,Correct
19,6,218,B,70.28215803224076,58.475608303120836,3.514107901612038,0.9185327072963936,A,802.7572999708354,Incorrect
19,6,219,B,75.825884100417,59.441085874171854,3.79129420502085,0.9336983935184916,B,766.5100999874994,Correct
19,6,220,A,30.400016844976285,46.805628704902716,1.5200008422488143,0.7352210964298697,A,617.7137999329716,Correct
19,6,221,B,69.98779408456285,51.54222498595465,3.4993897042281423,0.8096233768277369,A,825.9895000373945,Incorrect
19,6,222,B,87.27494355892483,67.29596745998633,4.363747177946242,1.057082584942554,A,1070.1168000232428,Incorrect
19,6,223,B,84.205411992414,60.581429292089055,4.2102705996207,0.9516108660399825,B,598.205600050278,Correct
19,6,224,B,76.03474129601126,53.55546725239434,3.801737064800563,0.8412473123984539,B,629.1957000503317,Correct
19,6,225,B,75.05315345797277,64.40143429441126,3.7526576728986383,1.0116153642998407,B,1024.9186999863014,Correct
19,6,226,A,16.63948734538969,33.535148435569944,0.8319743672694844,0.526768879811149,A,745.8878000034019,Correct
19,6,227,A,33.65492418517008,60.87831943337808,1.682746209258504,0.9562744054739666,A,585.1567999925464,Correct
19,6,228,B,79.79876137631561,58.577873044519464,3.9899380688157806,0.9201390780978896,B,916.9049999909475,Correct
19,6,229,B,69.48234821715717,53.45961344877183,3.474117410857858,0.8397416443720584,B,520.8128999220207,Correct
19,6,230,B,59.9347319568567,27.14671540400014,2.996736597842835,0.4264196084114985,B,619.2778999684379,Correct
19,6,231,B,62.59477363583806,29.73945121103197,3.1297386817919026,0.4671462072318505,B,625.8880998939276,Correct
19,6,232,A,40.693046442837826,49.16290428003013,2.0346523221418913,0.7722490945764044,B,467.72880002390593,Incorrect
19,6,233,A,45.657964575024224,57.450911443654526,2.282898228751211,0.9024368066671141,A,635.3830998996273,Correct
19,6,234,A,45.3978654513066,67.87152754232923,2.26989327256533,1.0661234615744941,A,758.0044999485835,Correct
19,6,235,B,79.87421741414806,54.52890805086648,3.993710870707403,0.8565380847043773,A,926.7783999675885,Incorrect
19,6,236,A,32.49319210111481,45.931355030016675,1.6246596050557403,0.7214880376586249,A,571.8538999790326,Correct
19,6,237,A,43.02789520727639,52.688986981086046,2.1513947603638197,0.8276366721243409,B,534.5028999727219,Incorrect
19,6,238,A,22.13543513784631,44.019756927385615,1.1067717568923157,0.6914607248794152,A,473.9376000361517,Correct
19,6,239,A,31.45530961309845,49.02133871438832,1.5727654806549225,0.7700253878712965,B,685.7920000329614,Incorrect
19,6,240,A,17.249719591260437,37.04060209924804,0.8624859795630218,0.5818324171977015,A,491.7719999793917,Correct
19,6,241,A,63.250119714142386,84.57236505076641,3.1625059857071194,1.3284596037010097,A,1271.6609999770299,Correct
19,6,242,B,39.3449943388235,23.436384912566815,1.9672497169411747,0.36813787334011294,B,536.2542000366375,Correct
19,6,243,A,31.24654655451378,59.57910851184207,1.562327327725689,0.9358664480411608,B,672.7337999036536,Incorrect
19,6,244,B,66.17496719639874,53.50115580528148,3.3087483598199365,0.8403941901821761,A,1458.0246999394149,Incorrect
19,6,245,B,66.00885720554717,55.244380693408516,3.300442860277359,0.86777670269265,B,1026.2677000137046,Correct
19,6,246,B,70.652563038029,49.363441716303015,3.5326281519014504,0.7753991292592274,B,1118.379699997604,Correct
19,6,247,A,32.278390583695526,57.336300676185715,1.613919529184776,0.9006365049416025,A,792.8353999741375,Correct
19,6,248,B,63.436525962069,34.7538933674426,3.17182629810345,0.5459128804340035,B,619.5894000120461,Correct
19,6,249,A,50.5891612719102,63.403441007004396,2.52945806359551,0.9959389223995941,B,676.3714000117034,Incorrect
19,6,250,B,44.28736712188941,34.9386679479919,2.2143683560944707,0.5488153127581227,B,656.3157000346109,Correct
19,6,251,B,49.728943273386406,29.341558975892248,2.48644716366932,0.4608961306176737,A,763.3354000281543,Incorrect
19,6,252,B,52.71793718402432,40.86941410866671,2.635896859201216,0.6419752556015319,B,435.66169997211546,Correct
19,6,253,B,68.17571490698293,57.97046388817818,3.408785745349147,0.9105979173814649,B,629.637899925001,Correct
19,6,254,A,56.29362571771246,80.53427772511554,2.814681285885623,1.2650294763169154,A,904.3821999803185,Correct
19,6,255,B,63.37546543108896,38.86148339562034,3.168773271554448,0.6104347537164129,B,704.5478000072762,Correct
19,6,256,B,56.65841263985515,30.00738510448474,2.8329206319927573,0.47135490298844523,B,928.3066999632865,Correct
19,6,257,A,34.56287153209796,49.25775505908598,1.728143576604898,0.7737390071297499,A,567.1875999541953,Correct
19,6,258,A,58.56822576819451,84.8561480315516,2.9284112884097255,1.3329172563392524,A,758.9447000063956,Correct
19,6,259,A,59.30822725066423,68.78082833236779,2.9654113625332115,1.0804067249839369,A,1105.029199970886,Correct
19,6,260,B,38.90466257899717,15.968863354150002,1.9452331289498586,0.25083831899788456,A,658.7316000368446,Incorrect
19,6,261,A,40.983601194360496,71.0030608173569,2.0491800597180245,1.1153134712309887,B,647.0726999687031,Incorrect
19,6,262,B,72.25768956866207,60.371729569987245,3.6128844784331036,0.9483169105079079,B,601.6351999714971,Correct
19,6,263,B,47.545382886831426,28.99656702182079,2.377269144341571,0.45547700967538135,B,2269.0866999328136,Correct
19,6,264,A,48.54883717020111,79.1301284585043,2.427441858510056,1.2429731512142688,A,588.338500005193,Correct
19,6,265,A,65.84592172307157,82.15305009085591,3.2922960861535784,1.290457093177136,A,693.0654000025243,Correct
19,6,266,A,56.042086179053626,63.810982298629234,2.802104308952681,1.0023405660386098,A,835.5586000252515,Correct
19,6,267,A,31.946476982472376,61.78447092015163,1.5973238491236188,0.9705081997434027,A,537.9039000254124,Correct
19,6,268,A,19.346003461640194,45.398105666082365,0.9673001730820097,0.7131117762372876,A,529.3605999322608,Correct
19,6,269,A,44.08314072443474,59.13001005411947,2.204157036221737,0.9288120259635617,A,837.1754999971017,Correct
19,6,270,A,30.82927734090123,51.03672578951926,1.5414638670450613,0.8016830140181521,A,743.6389999929816,Correct
19,6,271,A,23.426835352787776,39.633105614969075,1.171341767639389,0.6225553671946761,A,1625.32440002542,Correct
19,6,272,A,44.608142799113494,74.68610243928933,2.2304071399556746,1.1731665537426303,B,720.4812000272796,Incorrect
19,6,273,A,64.06296077742215,77.12396775409437,3.2031480388711078,1.2114604525597947,B,677.2138000233099,Incorrect
19,6,274,B,80.25420445427702,65.7002339246562,4.01271022271385,1.0320168611841543,A,661.1395999789238,Incorrect
19,6,275,B,56.55078656121367,24.686337317955974,2.8275393280606833,0.38777207981065026,B,587.9478000570089,Correct
19,6,276,A,58.01861476601565,71.0804826863567,2.9009307383007825,1.1165296111053735,B,709.6919999457896,Incorrect
19,6,277,A,62.66145896783532,88.64013251984113,3.1330729483917663,1.3923559456877932,A,1434.4040000578389,Correct
19,6,278,B,56.27123952040402,44.51378846401503,2.8135619760202015,0.6992209541099985,B,1412.7940000034869,Correct
19,6,279,A,14.656908069561158,38.82583672771926,0.7328454034780578,0.609874817166398,A,741.3515000371262,Correct
19,6,280,B,47.0024829814247,32.55271412118375,2.350124149071235,0.511336837687598,B,547.350800014101,Correct
19,6,281,B,64.10712702801554,55.52071151413687,3.205356351400777,0.8721172970744532,B,479.3400999624282,Correct
19,6,282,B,74.28632888809463,63.341029681529974,3.714316444404732,0.994958567591538,B,451.99830003548414,Correct
19,6,283,B,77.64512708613644,60.89245435088179,3.882256354306822,0.9564964362389103,B,760.1326000876725,Correct
19,6,284,A,40.52745034358097,58.96495738252852,2.0263725171790488,0.9262193846609341,A,708.5552000207826,Correct
19,6,285,A,41.41197334695699,70.31004177546833,2.0705986673478494,1.104427553577014,A,680.9109000023454,Correct
19,6,286,B,57.75175334977958,50.127241576957076,2.8875876674889787,0.787396869414446,A,1246.41729996074,Incorrect
19,6,287,A,64.9458001691983,81.1433728510556,3.2472900084599146,1.2745971201818687,A,2862.535299966112,Correct
19,6,288,A,54.28802375461592,62.14102119697335,2.714401187730796,0.9761088783948956,A,998.6885999096557,Correct
19,6,289,B,38.36040129941788,17.50638604322758,1.9180200649708938,0.27498966892155324,B,2648.227500030771,Correct
19,6,290,B,78.0144987364955,60.97921200624677,3.900724936824775,0.9578592223025968,B,943.0601999629289,Correct
19,6,291,B,88.1565674807485,68.84212211074126,4.407828374037425,1.0813695254031808,A,905.6858000112697,Incorrect
19,6,292,B,48.66871976872079,19.004801460302918,2.4334359884360395,0.29852672325310114,B,710.1108999922872,Correct
19,6,293,B,37.93790743808579,20.353708667503746,1.8968953719042896,0.31971530811568327,B,772.2939000232145,Correct
19,6,294,B,75.17250283052886,48.1976687520254,3.758625141526443,0.7570872103575867,B,459.05850001145154,Correct
19,6,295,B,86.7540674491445,59.917340294773524,4.3377033724572245,0.941179380463501,B,904.1372999781743,Correct
19,6,296,A,64.72157748042308,87.61860651873455,3.236078874021154,1.376309852785156,A,924.3790999753401,Correct
19,6,297,A,17.848466983248453,44.63918325536241,0.8924233491624227,0.7011906508864753,A,610.1353999692947,Correct
19,6,298,A,55.50589911218864,78.46952662893648,2.7752949556094317,1.2325964419406774,A,635.8825999777764,Correct
19,6,299,A,47.59039288689839,58.43055546294786,2.37951964434492,0.9178250189378396,A,837.6136999577284,Correct
