subject,day,trial,cat,x,y,xt,yt,resp,rt,fb
19,15,0,A,16.538934071877463,38.315236661975284,0.8269467035938731,0.6018543300890793,A,935.2096000000074,Correct
19,15,1,A,35.69388777219321,43.41471388276406,1.7846943886096602,0.6819567309589718,B,575.6579999999758,Incorrect
19,15,2,A,56.556581216035426,83.03447721110824,2.827829060801771,1.3043025180054337,A,680.7553999999527,Correct
19,15,3,A,38.158067049155605,50.02639254923741,1.9079033524577802,0.785812736591417,B,474.77520000006734,Incorrect
19,15,4,A,36.12743608764216,56.211818060798436,1.806371804382108,0.882973173323652,B,547.0499999998992,Incorrect
19,15,5,B,89.0530988316174,63.42558689256499,4.45265494158087,0.9962867891565163,B,604.3202999999266,Correct
19,15,6,B,58.028471030203136,37.82889730443071,2.901423551510157,0.5942149293250112,B,427.45030000014594,Correct
19,15,7,B,39.72170775563236,15.578408380667547,1.986085387781618,0.24470506661663416,B,442.8600000001097,Correct
19,15,8,A,57.74011392719488,82.07192617473252,2.887005696359744,1.2891828016825178,A,493.23759999992944,Correct
19,15,9,B,60.412966808026546,39.54456777027231,3.020648340401327,0.621164617982356,B,452.7101999999559,Correct
19,15,10,B,64.87290677228047,52.36863064119197,3.243645338614024,0.8226045265046301,B,354.15899999998146,Correct
19,15,11,A,39.83134876009758,66.04058721095521,1.9915674380048791,1.0373631181034646,A,1109.914599999911,Correct
19,15,12,A,51.07077039859708,62.34090661144746,2.5535385199298535,0.9792486711432535,B,884.1666999999234,Incorrect
19,15,13,A,64.9062253340911,75.89790887333977,3.2453112667045554,1.1922015646965591,A,2298.99290000003,Correct
19,15,14,B,85.88617560853093,68.73341229163455,4.2943087804265465,1.0796619155577876,B,1112.8647000000456,Correct
19,15,15,A,48.9615345577882,62.071574747566686,2.4480767278894096,0.975018016118526,A,545.7476999999926,Correct
19,15,16,A,16.10475290542581,45.9155590890551,0.8052376452712905,0.7212399155982179,A,1774.4916000001467,Correct
19,15,17,A,34.211445131210915,49.05457000005982,1.710572256560546,0.770547383685971,A,980.0743000000693,Correct
19,15,18,A,50.35888271244377,63.34007761654211,2.5179441356221886,0.9949436125896799,A,946.5536000000156,Correct
19,15,19,A,15.672592965737596,35.895706395448116,0.7836296482868798,0.5638484375367798,A,3602.7842999999393,Correct
19,15,20,B,78.95889855066243,55.24121625050803,3.947944927533121,0.8677269957398056,A,1380.9373999999934,Incorrect
19,15,21,B,43.69707096770982,20.128099476178036,2.1848535483854907,0.3161714472254274,B,1736.268599999903,Correct
19,15,22,B,75.08732435172054,63.28035944141955,3.754366217586027,0.9940055616884258,B,1284.5280000001367,Correct
19,15,23,A,65.83939917322111,85.27076298169608,3.291969958661056,1.3394300127464644,A,708.6554000002252,Correct
19,15,24,B,85.77200056881563,67.64790906622147,4.288600028440782,1.0626108707657587,B,482.2625000001608,Correct
19,15,25,B,76.80058982667659,48.83243040307239,3.840029491333829,0.7670580230561355,B,407.0639999999912,Correct
19,15,26,A,63.87078138669065,84.83326681356739,3.1935390693345322,1.3325578390076305,A,657.4064999999791,Correct
19,15,27,B,57.20919041344266,30.233508767674405,2.860459520672133,0.4749068451838426,B,434.78129999994053,Correct
19,15,28,B,66.61262628171806,47.433104001730264,3.3306313140859034,0.7450774553439822,B,702.9907999999523,Correct
19,15,29,A,52.31728537005891,72.22949647931077,2.615864268502946,1.1345782775594626,A,453.6742999998751,Correct
19,15,30,B,37.05116184870145,21.075225204874954,1.8525580924350722,0.331048863381928,B,1956.1247000001458,Correct
19,15,31,B,52.53877995117081,21.32829348610757,2.62693899755854,0.33502405064781293,B,2248.863999999685,Correct
19,15,32,B,67.97743689507715,58.019627421222026,3.3988718447538577,0.9113701763526403,B,569.4457999998122,Correct
19,15,33,B,62.60110417765658,49.08467157540755,3.130055208882829,0.7710202181258403,B,836.324599999898,Correct
19,15,34,A,29.19372388158176,42.81318196623697,1.4596861940790882,0.6725078897096652,A,767.307399999936,Correct
19,15,35,B,39.69020187282328,24.697798060228727,1.984510093641164,0.38795210472929403,B,947.7744000000712,Correct
19,15,36,A,51.86090855220071,75.08959595646927,2.593045427610036,1.1795046150893485,B,1680.2490000000034,Incorrect
19,15,37,B,69.55283655491635,54.87207113009254,3.4776418277458174,0.8619284777477765,B,1510.523800000101,Correct
19,15,38,A,66.61642663187561,86.83536638394126,3.3308213315937802,1.3640067455178397,A,2095.662899999752,Correct
19,15,39,B,57.76618320280881,35.143071276043614,2.888309160140441,0.5520260727270055,B,2188.277300000209,Correct
19,15,40,A,30.1659610956173,53.71746267097046,1.5082980547808649,0.8437919304830236,A,705.9825000001183,Correct
19,15,41,B,59.143873601339074,36.50495294718935,2.957193680066954,0.5734184599926556,B,1306.7202000001998,Correct
19,15,42,B,51.84355992967748,34.51821359555356,2.5921779964838745,0.5422108312341719,B,525.1930999997967,Correct
19,15,43,B,33.899755023115056,13.275984097298618,1.694987751155753,0.20853867054624134,B,394.3050000002586,Correct
19,15,44,B,67.20159795577956,45.75094822718583,3.360079897788978,0.7186542142264697,B,392.7754000001187,Correct
19,15,45,B,88.98091182878206,66.76289976192194,4.449045591439103,1.0487091771220287,B,426.1986999999863,Correct
19,15,46,B,82.0307402802318,63.11167529061845,4.10153701401159,0.991355877243757,B,441.00399999979345,Correct
19,15,47,A,14.900045576834117,40.79865954017875,0.7450022788417059,0.6408638454386834,A,449.17750000013257,Correct
19,15,48,A,57.49541288025456,77.22187822456739,2.874770644012728,1.2129984266335327,A,949.3060999998306,Correct
19,15,49,A,14.126395221362227,37.468954098523525,0.7063197610681113,0.5885609546680735,B,634.716699999899,Incorrect
19,15,50,B,52.61789134140242,27.519681462702522,2.630894567070121,0.43227814556178723,B,673.363800000061,Correct
19,15,51,A,32.360807521362204,46.64160863937537,1.6180403760681101,0.7326446752653594,B,1493.1453999997757,Incorrect
19,15,52,A,64.82719307728783,82.18211734970954,3.241359653864391,1.290913680611509,A,604.0644999998221,Correct
19,15,53,B,62.73900339264919,30.0361137140399,3.1369501696324598,0.47180617093207694,B,794.0165999998499,Correct
19,15,54,A,49.48466250840382,66.18782369458434,2.474233125420191,1.0396759033800131,A,535.4378000001816,Correct
19,15,55,B,85.19031703020752,59.12123002273789,4.259515851510376,0.9286741095531283,B,795.8364999999503,Correct
19,15,56,A,15.757233592516336,45.638577609053485,0.7878616796258169,0.7168891006844502,A,478.7669000002097,Correct
19,15,57,A,21.964058790651137,39.979301733580094,1.0982029395325568,0.6279934031093244,A,479.5630999997229,Correct
19,15,58,B,76.87647368065625,57.02083283764037,3.8438236840328126,0.8956811477215131,A,876.0709000002862,Incorrect
19,15,59,A,44.46100538342922,70.4168659443403,2.223050269171461,1.106105543697784,A,560.3941999997915,Correct
19,15,60,B,85.79046621405932,66.1604652511671,4.289523310702966,1.0392461579557468,B,757.9521000002387,Correct
19,15,61,B,44.11025625757569,26.982449316613035,2.2055128128787844,0.42383932274465225,B,510.85890000013023,Correct
19,15,62,A,33.003756842663776,52.64402242619267,1.650187842133189,0.8269303705477161,B,636.0389000001305,Incorrect
19,15,63,A,32.401992503199494,48.06233089344808,1.6200996251599746,0.7549613282462913,B,625.8552999997846,Incorrect
19,15,64,B,38.348355092367036,19.47761151541453,1.9174177546183517,0.30595360623151124,B,443.9038000000437,Correct
19,15,65,A,11.520448067661807,36.339900290769236,0.5760224033830903,0.5708258189283311,A,620.7503000000543,Correct
19,15,66,B,43.2821424786456,17.44783081758237,2.16410712393228,0.27406988558797185,B,692.4543999998605,Correct
19,15,67,A,66.47372275620651,79.5109265355809,3.3236861378103253,1.2489547134214933,A,834.4516000001931,Correct
19,15,68,A,17.66080362272285,46.334594643932775,0.8830401811361425,0.7278221107022009,A,432.4877999997625,Correct
19,15,69,B,38.32802827947796,27.504838521665633,1.916401413973898,0.43204499318919154,A,890.7148000002962,Incorrect
19,15,70,B,32.30487067984988,14.741514517453687,1.6152435339924938,0.23155916855409894,B,675.9167999998681,Correct
19,15,71,B,30.686553913309403,13.1509725561028,1.5343276956654703,0.20657499384906772,B,604.3874000001779,Correct
19,15,72,B,40.215804318611184,29.29389988535552,2.0107902159305593,0.4601475033741389,B,868.6413000000357,Correct
19,15,73,B,67.19763754664791,36.88870973806242,3.3598818773323957,0.5794464975675157,B,479.21249999990323,Correct
19,15,74,B,52.56781188673884,23.422651443335663,2.6283905943369414,0.3679221485098884,B,1336.686500000269,Correct
19,15,75,A,10.832267456505647,35.12680946951104,0.5416133728252823,0.5517706328673213,A,450.2313999996659,Correct
19,15,76,B,58.502890524670285,48.48862541656114,2.925144526233514,0.7616575469566789,A,1249.0720999999212,Incorrect
19,15,77,A,27.87699041673777,48.906460681946584,1.3938495208368886,0.7682208879574074,A,535.4075000000194,Correct
19,15,78,B,36.03390982774026,20.186620075684157,1.8016954913870131,0.3170906866528879,B,925.8853999999701,Correct
19,15,79,A,46.47309661794584,58.65599522228561,2.3236548308972917,0.9213662183966524,A,909.0524999996887,Correct
19,15,80,A,39.937252741801544,67.7459277994219,1.9968626370900773,1.064150545426442,A,533.0305999996199,Correct
19,15,81,B,50.92658498935091,35.74755516297834,2.5463292494675454,0.5615212834190431,B,446.78209999983665,Correct
19,15,82,A,22.41703022516055,46.125769116844296,1.1208515112580273,0.724541886993285,A,571.9858000002205,Correct
19,15,83,A,20.066068937196697,45.480323507601284,1.0033034468598347,0.7144032510718369,A,501.5120000002753,Correct
19,15,84,B,58.330840798014584,25.774303122383717,2.916542039900729,0.4048618067033858,B,348.1806999998298,Correct
19,15,85,B,38.51720259573487,18.568430125927932,1.9258601297867437,0.291672218361553,B,426.40160000019023,Correct
19,15,86,B,36.72585080257775,17.075255398824872,1.8362925401288877,0.26821748459558836,B,850.0011000000995,Correct
19,15,87,A,53.51806224990458,79.60118167419589,2.675903112495229,1.2503724378236014,A,1173.9919999999984,Correct
19,15,88,B,67.75042165938723,39.07517582381516,3.3875210829693616,0.613791426529136,B,902.675299999828,Correct
19,15,89,A,56.78342136530371,82.15467605890922,2.8391710682651854,1.2904826338235922,A,632.311800000025,Correct
19,15,90,B,74.69814513432792,54.889036204322174,3.7349072567163955,0.8621949645106135,B,692.9316000000654,Correct
19,15,91,A,61.91445256126196,83.99993850670006,3.0957226280630983,1.3194679485732164,A,492.0361999998022,Correct
19,15,92,B,60.268742720868765,34.850686714963075,3.013437136043438,0.547433306781437,B,381.58759999987524,Correct
19,15,93,A,32.16549122543069,56.29270442229709,1.6082745612715346,0.884243733318951,A,813.8939999998911,Correct
19,15,94,A,15.26104838061946,30.558267148088998,0.763052419030973,0.4800081378943536,A,644.1641999999774,Correct
19,15,95,A,18.0090752385163,41.71032766027068,0.900453761925815,0.6551842947816475,A,417.70660000020143,Correct
19,15,96,B,49.262450014199466,19.786714703727473,2.4631225007099733,0.3108089877595369,B,389.6601000001283,Correct
19,15,97,A,31.702383609481984,52.10149705734513,1.5851191804740992,0.8184084019819284,A,478.4463999999389,Correct
19,15,98,B,42.22847173703995,27.008421350041615,2.111423586851998,0.42424729049174226,B,467.4632000001111,Correct
19,15,99,A,44.22491071265755,53.99360602453146,2.2112455356328775,0.8481295801374481,B,482.6194999996005,Incorrect
19,15,100,A,44.02863454710606,56.51747576012035,2.201431727355303,0.8877744332371664,A,494.01880000004894,Correct
19,15,101,B,73.08184040223718,45.60693225022676,3.6540920201118587,0.7163920165503991,A,457.03990000038175,Incorrect
19,15,102,B,54.184169943756594,39.03249118221782,2.7092084971878294,0.6131209377468193,B,571.913400000085,Correct
19,15,103,B,59.573549437799876,45.721323758497626,2.9786774718899935,0.7181888741604829,B,454.46850000007544,Correct
19,15,104,A,43.82386021360581,67.149790619786,2.1911930106802906,1.0547864445060626,A,535.2528999997048,Correct
19,15,105,B,73.90013326189872,51.5519009601639,3.6950066630949356,0.8097753666751974,B,593.7235999999757,Correct
19,15,106,A,27.160077378045397,43.84199203274571,1.3580038689022698,0.6886684004440807,A,516.7511999998169,Correct
19,15,107,B,77.58868921301556,63.97154712198332,3.8794344606507773,1.0048627123859801,A,426.46579999973255,Incorrect
19,15,108,B,66.19487378732919,48.243918183493875,3.309743689366459,0.757813694728257,B,715.6590999998116,Correct
19,15,109,A,49.69108480981478,73.45796929843196,2.484554240490739,1.1538750834778921,A,1027.932299999975,Correct
19,15,110,A,45.986795328887546,68.09644879625262,2.2993397664443775,1.0696565163693037,A,768.241499999931,Correct
19,15,111,A,53.106076389915444,81.0979816427811,2.655303819495772,1.2738841167496049,B,491.7720999997073,Incorrect
19,15,112,B,74.72353421205483,46.772855731655426,3.736176710602741,0.7347062997699197,B,895.8745000004456,Correct
19,15,113,A,41.360333628275676,49.66872449563938,2.0680166814137837,0.7801944999433805,A,1075.8882000000085,Correct
19,15,114,A,62.235376368630796,84.47586814518257,3.11176881843154,1.3269438338526278,A,964.264600000206,Correct
19,15,115,A,17.739043795934066,38.00067972558602,0.8869521897967033,0.5969132812865982,A,885.3276999998343,Correct
19,15,116,B,78.52208076949705,65.06176546403607,3.9261040384748527,1.0219878220569893,B,698.0752999998003,Correct
19,15,117,A,45.84416324976375,77.98894655967756,2.292208162488188,1.22504750786545,A,505.62230000014097,Correct
19,15,118,A,48.34352626747413,62.2424628145061,2.417176313373707,0.9777023195969412,A,494.1638000000239,Correct
19,15,119,A,21.558768033821845,41.859866504572096,1.0779384016910922,0.6575332454550658,A,443.6845000000176,Correct
19,15,120,B,40.49111986238675,20.506999610439692,2.0245559931193378,0.32212319661663047,B,507.3491000002832,Correct
19,15,121,A,45.67619885067163,68.80437151646183,2.2838099425335816,1.0807765404548964,A,727.7235000001383,Correct
19,15,122,A,26.156421068508152,36.00778870192296,1.3078210534254078,0.5656090222898738,A,1638.0622000001495,Correct
19,15,123,A,53.37899893942513,71.18863753409319,2.6689499469712565,1.118228503480869,A,516.7983999999706,Correct
19,15,124,B,58.19031450589161,50.037550220684,2.9095157252945802,0.7859880008846559,B,523.7214999997377,Correct
19,15,125,A,39.27137511396212,47.58744847218742,1.963568755698106,0.7475018926165341,A,532.8723999996328,Correct
19,15,126,B,39.40620147394455,18.477328065218753,1.9703100736972274,0.2902411905382987,B,849.412200000188,Correct
19,15,127,A,23.120530374545368,43.31974561762846,1.1560265187272685,0.6804649729386012,A,1593.4637000000293,Correct
19,15,128,B,42.95762727249429,24.12476935849994,2.1478813636247143,0.3789509909310577,B,717.5225000000864,Correct
19,15,129,B,36.097603886248336,19.340913508096452,1.8048801943124169,0.30380635895375707,B,623.1520000001183,Correct
19,15,130,A,47.29433693304092,53.92951201345985,2.364716846652046,0.8471227937658398,A,744.8160000003554,Correct
19,15,131,A,50.2230305687705,76.9488011524287,2.511151528438525,1.208708942015059,A,689.3108000003849,Correct
19,15,132,A,34.01402677005389,62.10853080642974,1.7007013385026943,0.9755985205336751,A,847.5514000001567,Correct
19,15,133,B,38.373096181268046,25.224101975861416,1.9186548090634021,0.39621926730383006,B,615.7812000001286,Correct
19,15,134,B,40.6077106139986,29.68223777154116,2.0303855306999297,0.4662475006258959,B,1021.95410000013,Correct
19,15,135,A,43.36563333592701,64.83620193194692,2.1682816667963505,1.018444678380344,A,862.9770000002281,Correct
19,15,136,A,12.7860832637311,33.029025245461504,0.639304163186555,0.5188187153318684,A,652.9557999997451,Correct
19,15,137,B,70.32398709805935,41.193573020287836,3.5161993549029673,0.6470671318782549,B,738.6670000000777,Correct
19,15,138,B,76.63638422653507,54.95417723727961,3.8318192113267537,0.8632181974635453,A,719.1295000002356,Incorrect
19,15,139,B,55.416720289416105,28.08429439899762,2.770836014470805,0.44114706482571947,B,756.1789000001227,Correct
19,15,140,B,78.10724478372673,56.43026333693757,3.9053622391863367,0.8864045036973026,B,733.9274999999361,Correct
19,15,141,B,53.06676516171924,40.513242033520775,2.653338258085962,0.6363805177280705,B,751.0543999997026,Correct
19,15,142,A,60.85008628442834,77.46601847457745,3.0425043142214174,1.2168333727129186,A,836.3244999995914,Correct
19,15,143,B,80.27746404638138,64.26874423728461,4.013873202319069,1.0095310737564733,B,812.5970999999481,Correct
19,15,144,B,59.11764856262518,47.10896734521461,2.955882428131259,0.7399859286496383,B,1900.621499999943,Correct
19,15,145,B,78.74050620137496,62.45896985808765,3.937025310068748,0.9811032042847724,B,843.0157999996482,Correct
19,15,146,A,59.02856134621297,73.21029444478303,2.9514280673106486,1.14998461597438,A,417.22759999993286,Correct
19,15,147,B,88.68429644585048,66.64736766225286,4.434214822292524,1.0468944031441578,B,841.154700000061,Correct
19,15,148,B,52.25221555878515,25.88304012224264,2.612610777939258,0.4065698435030367,B,1444.934099999955,Correct
19,15,149,B,73.86702860187707,49.65494096657777,3.6933514300938532,0.7799779887751779,B,931.7877999997108,Correct
19,15,150,A,23.256155244563807,54.80306015886372,1.1628077622281905,0.8608444559466286,A,435.5209999998806,Correct
19,15,151,B,37.07037708883438,21.572323685527724,1.853518854441719,0.3388572680565749,B,499.2102999999588,Correct
19,15,152,B,57.123563829397995,44.09397108051898,2.8561781914699,0.6926264780707961,B,3523.261999999704,Correct
19,15,153,A,38.59207354875048,47.223642485836486,1.9296036774375238,0.7417872415462736,B,367.0729000000392,Incorrect
19,15,154,B,52.784920394302546,41.05677540274384,2.6392460197151273,0.6449183199267308,B,465.5797000000348,Correct
19,15,155,A,14.767904346406915,43.46828144418902,0.7383952173203457,0.6827981682461888,A,908.1593999999313,Correct
19,15,156,B,66.1884658601169,39.79242286444414,3.3094232930058456,0.6250579166973812,B,858.3029000001261,Correct
19,15,157,B,52.32400348522441,25.69619785749144,2.6162001742612206,0.4036349320714245,B,698.9391000001888,Correct
19,15,158,A,34.425802544691884,63.50663990818109,1.7212901272345942,0.9975599669485705,A,426.4717000000928,Correct
19,15,159,A,30.279044220390034,61.55090361522088,1.5139522110195016,0.9668393330969569,A,568.7533000000258,Correct
19,15,160,B,47.54150353120238,18.09172421171414,2.377075176560119,0.2841841393714687,B,350.5215000000135,Correct
19,15,161,A,49.71339850051902,69.6629680332523,2.485669925025951,1.0942633430026303,A,692.9721000001337,Correct
19,15,162,B,52.62235146510133,34.46783289329449,2.6311175732550667,0.541419453013673,B,739.3016999999418,Correct
19,15,163,B,48.41861657483982,35.79440845955823,2.420930828741991,0.5622572532807024,B,370.11470000015834,Correct
19,15,164,A,44.8457991620871,57.331509916570084,2.242289958104355,0.9005612518655346,A,452.6448999999957,Correct
19,15,165,A,48.68422280897279,62.386556387026545,2.4342111404486393,0.9799657361412398,A,550.5999000001793,Correct
19,15,166,B,42.029154938493534,24.75605723460257,2.1014577469246767,0.3888672377003794,B,379.11339999982374,Correct
19,15,167,B,84.39654193370589,61.68437593540304,4.219827096685294,0.9689359113996661,A,648.0824000000212,Incorrect
19,15,168,B,40.18550825921316,28.36152145519901,2.009275412960658,0.4455017372414125,B,377.4606000001768,Correct
19,15,169,B,50.20701503355096,21.536383347725735,2.510350751677548,0.33829271855054366,B,395.4687999998896,Correct
19,15,170,B,33.54990012177477,13.978352423766935,1.6774950060887386,0.21957144641897638,B,375.81579999960013,Correct
19,15,171,B,82.49967194189863,64.66574135054546,4.124983597094931,1.0157670898290567,A,941.4421999999831,Incorrect
19,15,172,B,70.61776500008673,47.60198695850454,3.5308882500043364,0.747730262625575,B,831.0080000001108,Correct
19,15,173,B,75.07970341706778,64.54397209973574,3.753985170853389,1.0138543429101718,B,646.0888000001432,Correct
19,15,174,B,86.77372139464039,68.14796978949668,4.338686069732019,1.0704658062387096,B,563.0670000000464,Correct
19,15,175,B,33.0525169573226,12.81806615592054,1.6526258478661302,0.20134571234333964,B,499.08629999981713,Correct
19,15,176,B,47.924640366805676,20.665831544830176,2.396232018340284,0.3246181228078135,B,448.3639999998559,Correct
19,15,177,A,12.179846043477077,36.60489599552579,0.6089923021738539,0.5749883617248113,A,447.11640000014086,Correct
19,15,178,B,68.7786959456678,37.31562248666256,3.43893479728339,0.5861524273411459,B,353.3524999998008,Correct
19,15,179,A,36.90168917887811,47.29274176988889,1.8450844589439055,0.7428726505620105,A,549.286999999822,Correct
19,15,180,B,54.53207785917186,42.37396269403855,2.7266038929585927,0.6656086495153974,B,820.640800000092,Correct
19,15,181,A,10.109241243632912,32.990892263362866,0.5054620621816456,0.5182197238497657,A,451.7598000002181,Correct
19,15,182,B,36.978704864109886,15.092179986394857,1.8489352432054944,0.23706740885956493,B,436.7505999998684,Correct
19,15,183,B,37.33309225065517,16.23007423260577,1.8666546125327586,0.2549414098818564,B,637.443500000245,Correct
19,15,184,B,54.19475281828458,45.27044644454538,2.709737640914229,0.7111065098745697,B,1142.4409000001106,Correct
19,15,185,A,55.93663121203657,84.82936846436378,2.7968315606018286,1.3324966038815347,A,646.7340999997759,Correct
19,15,186,B,46.3522440095708,24.233289401754483,2.31761220047854,0.3806556197843364,B,778.4011999997347,Correct
19,15,187,A,62.23634309694164,74.73106249038052,3.111817154847082,1.173872784573696,A,712.4042999998892,Correct
19,15,188,B,60.87584226664154,30.580008702888797,3.043792113332077,0.48034965343853686,B,485.1961000003939,Correct
19,15,189,A,63.93367826267509,86.85288759504645,3.196683913133754,1.36428196805829,A,593.1946000000607,Correct
19,15,190,A,22.59646375642564,40.49685069582756,1.1298231878212819,0.6361230431976728,A,441.3102000003164,Correct
19,15,191,A,42.71928775390052,58.122137586133704,2.135964387695026,0.9129804022576642,A,1577.469899999869,Correct
19,15,192,A,18.819137321740808,36.821019526585246,0.9409568660870404,0.5783832222120325,A,674.5375999998942,Correct
19,15,193,B,38.60210253434229,21.197857125155448,1.9301051267171148,0.33297516108117203,B,464.7000999998454,Correct
19,15,194,B,62.24451587002895,43.96424292432401,3.1122257935014477,0.6905887129584668,A,414.4870999998602,Incorrect
19,15,195,A,52.63176365041389,67.2048470622161,2.631588182520694,1.0556512690814184,B,836.7162999998072,Incorrect
19,15,196,A,53.62752888806416,78.20278372103687,2.6813764444032078,1.2284064541414044,B,411.7287000003671,Incorrect
19,15,197,A,23.438097812231657,47.784659177025986,1.171904890611583,0.7505996711241846,A,376.94680000004155,Correct
19,15,198,B,86.79976712032408,60.32293815348571,4.339988356016204,0.9475504967297106,B,521.4233000001514,Correct
19,15,199,A,51.727956264116514,80.790842710693,2.586397813205826,1.269059589686208,A,421.3782000001629,Correct
19,15,200,A,18.030825751703222,37.66772747846649,0.901541287585161,0.5916832796188636,A,444.30300000021816,Correct
19,15,201,A,17.737199815586212,37.061594569537775,0.8868599907793105,0.5821621661499162,A,438.02099999993516,Correct
19,15,202,A,46.16848241044308,63.908849020082776,2.308424120522154,1.0038778529043564,A,455.2773000000343,Correct
19,15,203,A,33.64560628888562,45.83941443681421,1.682280314444281,0.7200438381977672,A,671.2742999998227,Correct
19,15,204,A,31.76319431249399,52.7180633291094,1.5881597156246994,0.8280934023310579,B,635.0745999998253,Incorrect
19,15,205,A,61.49166275842377,87.63610340518223,3.0745831379211888,1.3765846932347796,A,950.7366000002548,Correct
19,15,206,A,57.55998113838214,67.30754120117909,2.8779990569191067,1.0572643848440828,B,482.3169000001144,Incorrect
19,15,207,A,35.770038971700274,48.23481252001007,1.7885019485850138,0.7576706633007231,A,464.503600000171,Correct
19,15,208,A,33.959640935418065,50.11653704261223,1.6979820467709033,0.7872287229821566,B,516.2569999997686,Incorrect
19,15,209,A,31.14039110849133,54.024612698099496,1.5570195554245663,0.848616631826916,A,432.1658999997453,Correct
19,15,210,B,55.406023673908905,30.248099241130838,2.7703011836954454,0.47513603180495817,B,702.1497999999156,Correct
19,15,211,A,30.788877571991442,43.96769729194861,1.539443878599572,0.690642974038228,A,862.3864999999569,Correct
19,15,212,A,58.094540799364864,74.91885106042685,2.9047270399682428,1.1768225605341243,B,933.5540999995828,Incorrect
19,15,213,B,85.51711046927338,66.50091391929763,4.275855523463669,1.0445939131293631,B,510.66899999977977,Correct
19,15,214,B,79.69336512870477,62.875980620317165,3.9846682564352385,0.987653594020213,B,1247.4299999998948,Correct
19,15,215,A,49.23242447897348,69.31435195453771,2.461621223948674,1.088787294443565,B,419.2011000000093,Incorrect
19,15,216,A,59.98851409255779,78.1626366020671,2.99942570462789,1.2277758246713133,A,369.2375999999058,Correct
19,15,217,A,17.62892946091693,39.476661941644785,0.8814464730458466,0.6200979557205952,A,510.8184999999139,Correct
19,15,218,A,39.57120146103598,50.25098234952409,1.978560073051799,0.7893405849246763,B,848.2994999999391,Incorrect
19,15,219,B,60.548290044734905,34.94391839814722,3.0274145022367454,0.5488977866363025,B,1032.2025000000394,Correct
19,15,220,A,45.323408720429306,63.31046735344126,2.2661704360214654,0.9944784956645375,A,496.86719999999696,Correct
19,15,221,A,65.4791232371845,82.02390494487472,3.2739561618592243,1.2884284859678294,A,538.4894000003442,Correct
19,15,222,B,85.83084873474736,67.2691205614981,4.291542436737368,1.0566608748472426,A,1216.0318999999618,Incorrect
19,15,223,B,62.559602377807714,31.834685421615006,3.1279801188903855,0.500058069249439,B,685.9276000000136,Correct
19,15,224,A,62.072511458946224,83.03899257672664,3.103625572947311,1.304373445202709,A,714.1336999998202,Correct
19,15,225,A,33.509169452459155,66.76904344820481,1.6754584726229578,1.0488056819204898,B,2305.6509999996706,Incorrect
19,15,226,A,56.92329553974757,83.17071853761624,2.846164776987379,1.3064425917577978,A,422.4466000000575,Correct
19,15,227,B,43.667942318880634,23.23728936372113,2.183397115944032,0.3650104877720327,B,445.92140000031577,Correct
19,15,228,B,62.5720166613562,33.41361889280715,3.12860083306781,0.5248598982174603,B,773.3880999999201,Correct
19,15,229,B,60.67849375829917,34.083437125791,3.0339246879149586,0.5353813784173732,B,734.1042000002744,Correct
19,15,230,A,59.88446132360299,82.39202177660827,2.994223066180149,1.294210851639014,A,411.761899999874,Correct
19,15,231,A,38.97186921016351,53.34247478294353,1.9485934605081754,0.8379016345119711,A,785.1569999997992,Correct
19,15,232,B,45.78573577702703,31.7605727820266,2.289286788851351,0.49889391062909355,B,471.1822000003849,Correct
19,15,233,A,21.71724632432444,42.84190591469235,1.085862316216222,0.6729590844369129,A,497.7966999999808,Correct
19,15,234,A,46.748367375189645,61.20748510699494,2.337418368759482,0.9614449277842096,B,515.1620000001458,Incorrect
19,15,235,B,37.97785307988589,12.988495978796628,1.8988926539942945,0.20402281774084027,B,456.18819999981497,Correct
19,15,236,B,51.784331133204844,38.395893129027094,2.589216556660242,0.6031212789108517,B,490.9004000001005,Correct
19,15,237,A,34.36697194316304,44.435248747253134,1.7183485971581518,0.6979872551240275,B,439.4417999997131,Incorrect
19,15,238,B,70.39197517205014,52.9413479617571,3.519598758602507,0.8316007491389854,B,529.0740000000369,Correct
19,15,239,B,78.49277666331317,66.73751348949843,3.9246388331656585,1.0483104104872896,B,468.71139999984734,Correct
19,15,240,B,38.66838645866013,29.079917067298716,1.9334193229330066,0.4567862691281304,B,484.6605000002455,Correct
19,15,241,A,65.2554725480914,82.62831176771991,3.26277362740457,1.2979224861399796,A,538.4358999999677,Correct
19,15,242,A,29.178323960390074,46.51810564780973,1.4589161980195036,0.7307046948103647,A,490.6295000000682,Correct
19,15,243,B,43.47614047652007,15.697704854280342,2.1738070238260034,0.2465789712421398,B,491.61510000021735,Correct
19,15,244,A,51.90346483992152,61.65498344190663,2.5951732419960756,0.9684742151914711,A,646.8928999997843,Correct
19,15,245,A,28.754052161494826,39.766421777453516,1.4377026080747413,0.6246494925780056,A,434.6119000001636,Correct
19,15,246,A,32.046052652393655,54.64379177809299,1.6023026326196828,0.8583426740717365,A,348.4346000000187,Correct
19,15,247,B,71.29324944571685,40.16489461908784,3.5646624722858427,0.6309086893376729,A,384.9038999996992,Incorrect
19,15,248,A,39.2580868562282,53.916029896353294,1.9629043428114101,0.8469110171655558,A,697.7493999997932,Correct
19,15,249,A,28.038335823597194,43.26681372756006,1.4019167911798598,0.6796335207537035,A,703.7867000003644,Correct
19,15,250,A,46.87013147047758,62.49920432043363,2.343506573523879,0.9817352057414087,A,494.3173999999999,Correct
19,15,251,A,19.638012430763073,50.07468658809532,0.9819006215381536,0.7865713375798581,A,431.23449999984587,Correct
19,15,252,B,60.52440076695687,29.618245073719365,3.026220038347844,0.4652423056790942,A,448.6010999999053,Incorrect
19,15,253,B,57.14903535233315,47.490801322032596,2.8574517676166575,0.7459837627319501,B,425.7892000000538,Correct
19,15,254,B,44.907072117409555,23.257607549311782,2.2453536058704775,0.365329645084962,B,1099.074599999767,Correct
19,15,255,B,51.510254406696376,28.383916106035446,2.575512720334819,0.4458535115941498,B,1247.855100000379,Correct
19,15,256,A,27.816237141379332,57.60115034426118,1.3908118570689667,0.9047967537992605,A,577.6734999999462,Correct
19,15,257,A,52.133088036321666,68.76604801442505,2.6066544018160833,1.0801745562926035,A,569.3623000001935,Correct
19,15,258,B,45.99904352151901,22.653634759448583,2.2999521760759505,0.35584246268695024,B,492.7870999999868,Correct
19,15,259,A,44.69610697324182,72.82634532426637,2.234805348662091,1.143953557292543,A,1078.8781000001109,Correct
19,15,260,B,41.57716305423374,32.911541360306735,2.078858152711687,0.5169732827792812,B,1027.9167000003326,Correct
19,15,261,B,47.585620134070716,27.380498598034208,2.3792810067035357,0.43009186623604945,B,772.3390000001018,Correct
19,15,262,B,80.84237391805728,53.38231586977579,4.042118695902864,0.8385274568404871,A,824.8434000001907,Incorrect
19,15,263,A,45.59375585110838,72.08950382899091,2.2796877925554186,1.1323792781504556,A,472.2540999996454,Correct
19,15,264,B,70.59469165654961,43.42660695009832,3.529734582827481,0.6821435468238016,B,914.6851000000424,Correct
19,15,265,B,76.91916719976592,65.43538241771994,3.845958359988296,1.0278565834417384,B,431.3096000000769,Correct
19,15,266,B,52.11434871762788,37.097661458769636,2.605717435881394,0.5827287035211595,B,424.1498000001229,Correct
19,15,267,A,30.81486525743896,59.728021618512855,1.540743262871948,0.9382055696508617,A,694.749100000081,Correct
19,15,268,B,69.86326847508974,50.87018487653971,3.493163423754487,0.7990669954744588,B,418.8099999996666,Correct
19,15,269,B,78.86164475039719,63.17270787388749,3.9430822375198598,0.9923145748198952,B,487.4022000003606,Correct
19,15,270,B,67.73161270120984,46.94568631681018,3.3865806350604917,0.7374211162531087,B,647.5508999997146,Correct
19,15,271,A,32.947278558731036,56.47610213840379,1.6473639279365517,0.8871245379069808,A,449.3156000003182,Correct
19,15,272,B,39.1842336686673,21.354777153373213,1.9592116834333648,0.3354400551204222,B,358.60120000006646,Correct
19,15,273,A,25.83425657923783,54.39827810045618,1.2917128289618915,0.8544861542416384,B,404.4702999999572,Incorrect
19,15,274,B,50.810297442627146,43.21947052418818,2.5405148721313573,0.6788898554541509,B,464.2263999999159,Correct
19,15,275,B,61.03702653554355,46.910507910698186,3.051851326777178,0.7368685351420764,B,616.066299999602,Correct
19,15,276,A,67.2441599256442,86.41047006416683,3.3622079962822102,1.3573324897341361,A,635.6872000001204,Correct
19,15,277,A,38.16132318019508,51.402141889113615,1.9080661590097543,0.8074229566880975,B,537.6547000000755,Incorrect
19,15,278,B,73.71095950659588,60.05827208378018,3.6855479753297944,0.9433931318285038,A,420.45859999961976,Incorrect
19,15,279,A,57.795809708631,67.99292490808234,2.8897904854315497,1.0680303669365698,B,336.70130000018617,Incorrect
19,15,280,A,57.846575217043736,66.97562453244356,2.8923287608521866,1.0520506500035651,A,421.60199999989345,Correct
19,15,281,A,25.725556010387706,37.48473562470654,1.2862778005193853,0.5888088503016682,B,453.8241000000198,Incorrect
19,15,282,A,23.932146236935584,46.07707228007395,1.196607311846779,0.7237769588700311,A,660.5815999996594,Correct
19,15,283,B,70.71181525242007,61.754218832145845,3.5355907626210037,0.970033001056229,B,515.4256999999234,Correct
19,15,284,B,69.48345117800316,38.691232886378344,3.4741725589001584,0.60776046497089,B,637.2048999996878,Correct
19,15,285,B,73.4851664101287,54.926392639054775,3.674258320506435,0.862781758015215,B,468.76179999981105,Correct
19,15,286,B,49.083153466522795,26.24777765030113,2.4541576733261397,0.4122991271962221,B,451.7829999999776,Correct
19,15,287,A,33.00986998264908,58.91640680319291,1.650493499132454,0.9254567539440929,A,803.1306000002587,Correct
19,15,288,A,58.88150485543004,80.00915653015733,2.944075242771502,1.2567808918752905,A,576.1210000000574,Correct
19,15,289,A,62.74443852419839,79.30741768073695,3.1372219262099192,1.245758003804902,B,472.1572999997079,Incorrect
19,15,290,B,44.16425298377216,19.93116132576136,2.208212649188608,0.3130779499926245,B,654.1494000002785,Correct
19,15,291,B,57.37525622587617,32.06183699302269,2.8687628112938084,0.5036261577893677,B,802.1073999998407,Correct
19,15,292,A,66.41067209944532,84.33902849367006,3.3205336049722662,1.3247943616330704,B,3505.822999999964,Incorrect
19,15,293,A,66.07901582416902,80.96173477953204,3.3039507912084507,1.2717439560263155,A,407.7607999997781,Correct
19,15,294,A,26.00277044251404,44.22343802915378,1.3001385221257022,0.6946601401443651,A,462.0382999996764,Correct
19,15,295,A,63.409208109838346,86.6824600290945,3.170460405491917,1.3616048981124709,A,524.514299999737,Correct
19,15,296,A,51.090180434531476,72.27539968755339,2.554509021726574,1.1352993234684188,A,391.62869999972827,Correct
19,15,297,B,76.03880664276055,46.01229404402147,3.8019403321380274,0.7227594247175563,B,1517.7090999995926,Correct
19,15,298,B,57.94236744003052,27.853546635617427,2.8971183720015263,0.437522487434382,B,618.5617999999522,Correct
19,15,299,B,78.87974614935686,56.901802215497796,3.9439873074678427,0.8938114190811365,A,656.437200000255,Incorrect
