subject,day,trial,cat,x,y,xt,yt,resp,rt,fb
9,13,0,B,39.01814409126058,17.976945245846373,1.9509072045630291,0.2823811955916846,B,389.9575410177931,Correct
9,13,1,A,29.34526468980566,46.284702235795464,1.4672632344902832,0.7270384025878305,A,802.3260409827344,Correct
9,13,2,B,80.74481896037649,53.80660691405257,4.037240948018825,0.8451922049789068,B,513.8488330412656,Correct
9,13,3,B,32.382575079247516,14.274911220994912,1.6191287539623758,0.22422978111262057,B,572.2953329677694,Correct
9,13,4,B,32.4621454063299,14.599115883378037,1.6231072703164953,0.22932237604063252,B,446.6697910102084,Correct
9,13,5,B,61.888616110714054,54.43974562743539,3.0944308055357026,0.8551375246322405,B,1327.3947490379214,Correct
9,13,6,B,44.36273862726665,36.93270573874313,2.2181369313633326,0.580137585130145,B,1060.9525819891132,Correct
9,13,7,A,56.932229837974106,74.10104944942681,2.846611491898705,1.1639765628680663,A,767.3658319981769,Correct
9,13,8,B,83.7913250423226,54.43728212692517,4.18956625211613,0.8550988280567152,B,870.018499030266,Correct
9,13,9,B,53.177912465128315,27.943319619367216,2.6588956232564156,0.43893263816557787,B,497.71862401394174,Correct
9,13,10,B,50.02342456889993,21.855535388647006,2.5011712284449965,0.34330594708622586,B,455.06199897499755,Correct
9,13,11,B,79.72530259758634,60.01664406618226,3.9862651298793166,0.9427392404571582,B,822.9193740407936,Correct
9,13,12,A,47.870269862484946,70.82441923257508,2.393513493124247,1.1125073757791075,A,743.3555829920806,Correct
9,13,13,B,63.00181018197619,44.17350820262499,3.1500905090988094,0.6938758442632756,B,483.71283197775483,Correct
9,13,14,B,66.46364889263063,52.685331203634234,3.3231824446315317,0.827579247306412,B,620.2224579756148,Correct
9,13,15,A,38.663322576033686,57.805929404970044,1.9331661288016844,0.9080134157629205,A,880.1508329925127,Correct
9,13,16,A,30.251830511837152,48.963703925897455,1.5125915255918576,0.7691200627307259,A,829.784625035245,Correct
9,13,17,A,52.62906513283182,68.38948374810602,2.6314532566415907,1.0742594986292422,A,803.4351660171524,Correct
9,13,18,A,52.913445320528204,72.31089467900125,2.6456722660264105,1.135856877490278,A,1063.4992910199799,Correct
9,13,19,A,29.13990050720681,61.376117052820554,1.4569950253603405,0.9640937921950415,A,654.8790819942951,Correct
9,13,20,A,46.546883755389636,53.99763215494288,2.327344187769482,0.8481928224460626,A,588.2364159915596,Correct
9,13,21,A,23.31497842140113,45.81882715288253,1.1657489210700565,0.7197204538979813,A,485.835166007746,Correct
9,13,22,B,48.15560919034894,30.49990845576898,2.407780459517447,0.47909144169902523,B,428.2967490144074,Correct
9,13,23,A,52.411946466476806,74.59520013251097,2.6205973233238407,1.1717386636467841,A,434.6632490050979,Correct
9,13,24,A,54.91426893922898,64.418873179925,2.7457134469614495,1.0118892936729247,A,416.1429579835385,Correct
9,13,25,A,32.54935981757377,50.25276977558319,1.6274679908786884,0.7893686617475566,A,419.84120704000816,Correct
9,13,26,A,33.516142239030046,63.00865004167644,1.6758071119515023,0.9897375604177044,A,403.9713740348816,Correct
9,13,27,B,65.4923678391415,34.98151826198871,3.2746183919570746,0.5494884039164046,B,399.71008204156533,Correct
9,13,28,B,70.7186080952416,37.4804514102761,3.5359304047620803,0.588741554018763,B,416.52824997436255,Correct
9,13,29,A,32.165361651671304,60.81972180723667,1.6082680825835651,0.9553539561149484,A,323.60029104165733,Correct
9,13,30,A,25.261261600372283,46.82654771881626,1.263063080018614,0.7355496915320251,A,479.16154097765684,Correct
9,13,31,A,51.24659351752943,67.88872667480548,2.5623296758764718,1.0663936249156716,A,480.1347909960896,Correct
9,13,32,B,61.01614107172474,37.14194392804818,3.0508070535862366,0.5834242909220009,B,398.89495697570965,Correct
9,13,33,B,83.44753955692447,66.88376312332268,4.172376977846223,1.0506076943633522,B,400.96954099135473,Correct
9,13,34,B,48.515448450899484,20.505079416598697,2.4257724225449744,0.32209303428230873,B,438.05295799393207,Correct
9,13,35,A,41.506157184338875,69.58706757700594,2.0753078592169434,1.0930711014238916,A,451.56137499725446,Correct
9,13,36,B,33.7645969841941,18.41757111934544,1.688229849209705,0.2893025306275158,B,434.2145409900695,Correct
9,13,37,A,15.50687148757536,41.2054611972454,0.7753435743787679,0.6472538709252272,A,348.0720830266364,Correct
9,13,38,A,56.81121192052687,68.62200672540276,2.840560596026344,1.0779119610155734,B,372.6525829988532,Incorrect
9,13,39,B,31.742302696381046,16.003474836856622,1.5871151348190522,0.2513819948968894,B,520.4452069592662,Correct
9,13,40,A,36.257623502772034,56.9915308220981,1.8128811751386018,0.8952208727376982,A,377.82045803032815,Correct
9,13,41,B,55.81072851950118,34.8283095337388,2.790536425975059,0.5470818068407259,B,351.38358297990635,Correct
9,13,42,B,56.29155319704165,33.45892039359124,2.8145776598520826,0.5255714925277598,B,1219.3729159771465,Correct
9,13,43,A,48.35046967766061,63.24806968065029,2.4175234838830306,0.9934983553123313,A,2190.1694160187617,Correct
9,13,44,A,42.351353320726375,70.35491707312974,2.1175676660363187,1.1051324531043176,A,428.508665994741,Correct
9,13,45,B,77.2722314381337,55.247198458151715,3.8636115719066852,0.8678209640377339,B,401.0934580001049,Correct
9,13,46,A,56.797008055875246,69.63633532287422,2.839850402793762,1.0938449973662854,A,384.84654104104266,Correct
9,13,47,A,12.609698894298859,30.947235185856584,0.630484944714943,0.486118033544013,A,477.7427910012193,Correct
9,13,48,A,56.959282220987475,74.38499871467373,2.8479641110493734,1.168436827496526,A,496.9499580329284,Correct
9,13,49,B,72.27266661673575,46.86915969638349,3.6136333308367874,0.7362190389104261,B,415.3203319874592,Correct
9,13,50,A,16.521787150399717,42.3574301883147,0.8260893575199859,0.66534895752276,A,427.00570699525997,Correct
9,13,51,A,41.434671170537776,66.43880575023056,2.071733558526889,1.043618320291018,A,391.39554102439433,Correct
9,13,52,B,49.48237227723301,18.961603276966308,2.4741186138616507,0.2978481677760075,B,471.34958201786503,Correct
9,13,53,B,31.767300143184528,11.229064531364155,1.5883650071592263,0.17638573319209672,B,492.7138749626465,Correct
9,13,54,A,37.07750413340509,53.76808515952749,1.8538752066702546,0.8445871066738098,A,635.1014570100233,Correct
9,13,55,B,66.56049402213827,53.66922050076351,3.328024701106914,0.8430341442454469,B,355.4897070280276,Correct
9,13,56,A,30.50078121299897,39.38407337701548,1.5250390606499484,0.618643577948366,A,652.2240409976803,Correct
9,13,57,A,32.95780906901969,53.07842552355335,1.6478904534509844,0.8337539584445409,A,412.9971659858711,Correct
9,13,58,A,33.07786959437696,60.52330884453246,1.6538934797188483,0.9506979121846465,A,396.66054100962356,Correct
9,13,59,B,56.0285907816561,44.89416655630453,2.8014295390828052,0.7051959192116144,B,431.5386660164222,Correct
9,13,60,B,57.09375107911325,39.520772303277724,2.8546875539556624,0.6207908396608612,B,393.68949900381267,Correct
9,13,61,B,83.21294256443946,64.7254713155816,4.160647128221973,1.01670532592584,B,525.9315829607658,Correct
9,13,62,B,63.27676174917068,52.3887860515752,3.163838087458534,0.8229211269505805,B,477.1114159957506,Correct
9,13,63,B,43.91413509768047,30.01917070416892,2.1957067548840232,0.4715400307553751,B,515.8429159782827,Correct
9,13,64,B,39.79764126482607,14.12915673936444,1.9898820632413035,0.2219402750690302,B,519.434166024439,Correct
9,13,65,B,52.59876128737322,28.570334046092974,2.629938064368661,0.4487817577490601,B,458.41320796171203,Correct
9,13,66,B,45.74743606153373,38.28976865457982,2.2873718030766867,0.6014542795644034,B,435.443333000876,Correct
9,13,67,A,54.541262090197876,80.74080877880192,2.7270631045098934,1.2682736585219119,A,443.9642489887774,Correct
9,13,68,B,62.571196774905054,46.64982679114223,3.128559838745253,0.7327737656914437,B,1963.2406240561977,Correct
9,13,69,B,54.96462365907611,38.10887748203374,2.7482311829538055,0.5986128476705534,B,408.55975000886247,Correct
9,13,70,B,52.44643829388779,44.70008109904699,2.6223219146943895,0.70214723197817,B,531.6457489971071,Correct
9,13,71,A,22.23721231346825,39.79267284787494,1.1118606156734123,0.6250618434279296,A,454.7665410209447,Correct
9,13,72,B,38.029437762640754,24.421456398542723,1.9014718881320376,0.3836113400581263,B,492.14304104680195,Correct
9,13,73,B,47.78251705772291,34.1992854268278,2.3891258528861457,0.5372011192747134,B,453.279999026563,Correct
9,13,74,A,23.393393231400065,43.3646397218462,1.1696696615700033,0.6811701678786009,A,446.3391660246998,Correct
9,13,75,A,57.30915250306175,71.37548945318571,2.8654576251530877,1.12116356656252,A,530.212624988053,Correct
9,13,76,B,73.20512340322064,41.53421645005465,3.660256170161032,0.6524179463605001,B,423.1073739938438,Correct
9,13,77,B,52.276574236915195,26.502128104048914,2.6138287118457595,0.4162944547808783,B,473.9112500101328,Correct
9,13,78,A,26.16049469388927,58.834918455426696,1.3080247346944633,0.9241767379706153,A,361.10112501773983,Correct
9,13,79,B,77.61247152321125,58.71732993175114,3.8806235761605627,0.9223296617599873,B,419.1557909944095,Correct
9,13,80,B,74.82720873656017,55.7150566399145,3.7413604368280087,0.8751700631714731,B,414.45912403287366,Correct
9,13,81,B,59.05538306967334,36.20767555013444,2.9527691534836666,0.5687488375593256,B,442.686083028093,Correct
9,13,82,A,27.6595622574638,39.216456158167176,1.3829781128731902,0.616010652831621,A,379.41724999109283,Correct
9,13,83,B,76.6855187843,45.76734997371346,3.8342759392150003,0.718911852258456,B,396.43008197890595,Correct
9,13,84,B,72.00396683763324,61.49317008536452,3.6001983418816623,0.9659324569306439,B,393.84820801205933,Correct
9,13,85,A,16.485414780071554,36.80524185748387,0.8242707390035777,0.5781353871653343,A,354.46287400554866,Correct
9,13,86,A,35.260856381527304,51.99072395081713,1.7630428190763652,0.8166683820935099,A,532.8693330520764,Correct
9,13,87,A,30.27387889711876,61.93265224158042,1.5136939448559381,0.9728358264974024,A,400.658791011665,Correct
9,13,88,B,65.50803788110476,53.05062229530964,3.275401894055238,0.8333172263565584,B,389.8860409972258,Correct
9,13,89,A,42.538702071690864,59.826602833592624,2.126935103584543,0.9397540797562444,A,384.9342070170678,Correct
9,13,90,A,37.319733769673014,61.096579671726246,1.8659866884836507,0.9597028292807934,A,369.2912079859525,Correct
9,13,91,B,67.8715045594845,48.46278606442503,3.393575227974225,0.7612516633624573,B,446.7869569780305,Correct
9,13,92,A,45.16522346623022,59.378609603802005,2.2582611733115114,0.9327170185584036,A,398.50545703666285,Correct
9,13,93,B,51.322759069274596,22.675119390358596,2.5661379534637296,0.35617994248011015,B,400.69749898975715,Correct
9,13,94,B,60.893464349153,39.461772883690884,3.04467321745765,0.619864078945161,B,441.8454159749672,Correct
9,13,95,B,51.027506458830416,28.062372374593043,2.551375322941521,0.44080271447161334,B,393.80070799961686,Correct
9,13,96,A,25.578117295673728,35.694383118274175,1.2789058647836864,0.5606860588939484,A,439.25054103601724,Correct
9,13,97,B,80.7293590647869,66.27518837541001,4.036467953239345,1.0410482245773387,B,402.1316660218872,Correct
9,13,98,A,33.59824684131509,41.596246051428565,1.6799123420657542,0.653392305060407,A,460.2481240290217,Correct
9,13,99,A,34.77466781140207,50.00897204680338,1.7387333905701035,0.7855390959790741,A,365.75679102679715,Correct
9,13,100,B,74.78788027956273,53.15227770510351,3.7393940139781363,0.8349140257995887,B,321.0479990229942,Correct
9,13,101,B,78.98427705068414,53.43927675083121,3.9492138525342066,0.8394221962678158,B,392.2855409909971,Correct
9,13,102,B,69.37409061837101,55.384255645146176,3.468704530918551,0.8699738532966512,B,490.4523749719374,Correct
9,13,103,B,64.93096122379093,33.09310463124625,3.2465480611895465,0.5198252719700078,B,386.2403740058653,Correct
9,13,104,B,66.86481381320003,39.14955997322614,3.343240690660002,0.6149598500158013,B,381.965123990085,Correct
9,13,105,A,22.2930141039893,47.56215935067192,1.114650705199465,0.7471046520246898,A,465.31420800602064,Correct
9,13,106,B,58.333923775433796,49.95302560706381,2.91669618877169,0.7846602913586723,A,612.605958012864,Incorrect
9,13,107,A,28.86986382246883,53.9943831945254,1.4434931911234414,0.8481417878951659,A,373.90770798083395,Correct
9,13,108,A,64.26499292350792,74.46206123239662,3.213249646175396,1.1696473226942528,A,778.094666020479,Correct
9,13,109,B,85.76252809033328,68.36233338237963,4.288126404516664,1.0738330216817005,B,462.94616599334404,Correct
9,13,110,B,43.61390834090944,30.86481872230404,2.180695417045472,0.48482343876185546,B,492.5841660005972,Correct
9,13,111,A,20.2022901044735,48.82074591318318,1.010114505223675,0.766874483518151,A,420.8613330265507,Correct
9,13,112,A,20.72363470477194,44.101173056021835,1.036181735238597,0.6927396064374516,A,396.1997070000507,Correct
9,13,113,A,63.798487392490514,80.4848000982522,3.189924369624526,1.2642522835715606,A,620.6085829762742,Correct
9,13,114,A,44.6777701841165,57.81207134089861,2.233888509205825,0.9081098930668803,A,444.0627489821054,Correct
9,13,115,B,31.924909324988825,15.473088464748205,1.5962454662494412,0.24305070524598965,B,566.4081249851733,Correct
9,13,116,A,37.216219291827464,66.36632341001018,1.860810964591373,1.0424797703532616,A,537.1212490135804,Correct
9,13,117,A,62.56692064414159,75.53729915689124,3.1283460322070793,1.18653712051652,A,1348.3096239506267,Correct
9,13,118,B,32.31177573888053,17.436814702633736,1.6155887869440264,0.2738968448590032,B,389.05050000175834,Correct
9,13,119,B,33.77118312133834,13.46863588758427,1.6885591560669169,0.2115648377915529,B,428.1030829879455,Correct
9,13,120,B,69.17423184495348,39.10224853203027,3.4587115922476745,0.6142166836353429,B,424.29820797406137,Correct
9,13,121,A,42.52863983383993,54.96216727038799,2.1264319916919963,0.8633437046101213,A,464.2951660207473,Correct
9,13,122,A,39.27320018134381,59.002721787415524,1.9636600090671905,0.9268125865457352,A,616.3016660138965,Correct
9,13,123,A,38.066582233953866,51.14490764621688,1.9033291116976931,0.803382330649417,A,632.5399579945952,Correct
9,13,124,B,67.20353730228537,49.41903807141316,3.3601768651142687,0.7762724347631295,B,516.2519990117289,Correct
9,13,125,B,47.26090725764826,22.113298001336105,2.363045362882413,0.3473548727381968,B,459.1422079829499,Correct
9,13,126,B,48.66075414345757,30.182033191426694,2.433037707172878,0.47409826872294697,B,433.7821659864858,Correct
9,13,127,B,44.891179397801785,36.955084269853664,2.244558969890089,0.5804891062748201,B,423.89979102881625,Correct
9,13,128,A,34.0198189863771,66.86263951970332,1.7009909493188553,1.0502758855736127,A,426.70904099941254,Correct
9,13,129,A,63.36726695074975,88.63932102693418,3.1683633475374875,1.3923431987870187,A,515.6307489960454,Correct
9,13,130,B,65.60229666007396,40.330298897633575,3.280114833003698,0.6335068536694309,B,371.0685829864815,Correct
9,13,131,B,65.6662050512719,57.05431767033364,3.283310252563595,0.8962071262434924,B,1132.3916660039686,Correct
9,13,132,A,31.834942336164744,46.09050079133949,1.591747116808237,0.7239878934317335,A,360.43145798612386,Correct
9,13,133,B,71.57932663796014,62.248648883837326,3.578966331898007,0.9777994901467691,B,360.49449897836894,Correct
9,13,134,B,59.755001683571294,28.95620872030714,2.987750084178565,0.45484306295764804,B,398.1149580213241,Correct
9,13,135,A,33.61184832037038,61.37886628363691,1.6805924160185188,0.9641369770117199,A,381.7182080238126,Correct
9,13,136,A,31.159322069850262,40.053534694042675,1.557966103492513,0.6291594517255418,A,822.6402080035768,Correct
9,13,137,B,34.9338760311572,11.830669264578908,1.7466938015578597,0.18583571824325829,B,451.097831944935,Correct
9,13,138,B,42.33673184510585,22.828565634025335,2.1168365922552925,0.3585902704392321,B,448.82675004191697,Correct
9,13,139,A,42.16661560199615,56.358240344852526,2.1083307800998075,0.8852731691831829,A,517.2765409806743,Correct
9,13,140,B,57.23371406264367,37.28542957555613,2.8616857031321836,0.5856781582025337,B,367.4179569934495,Correct
9,13,141,B,66.63244045646967,43.347207208134165,3.3316220228234834,0.6808963385935441,B,483.4313750034198,Correct
9,13,142,A,40.75839973908578,58.832716032485195,2.037919986954289,0.9241421423919495,A,478.154165961314,Correct
9,13,143,B,80.75560531835359,67.0839235028594,4.037780265917679,1.053751806252814,B,439.3528330256231,Correct
9,13,144,B,88.01867767912253,62.47694250975927,4.400933883956127,0.981385518037058,B,443.256332015153,Correct
9,13,145,A,64.28334222333879,83.95940257941527,3.2141671111669394,1.3188312117163947,A,433.0994570045732,Correct
9,13,146,A,12.562211533221681,30.48189462652421,0.6281105766610842,0.4788084811309332,A,601.1381249991246,Correct
9,13,147,A,30.053189578642098,57.16142375165576,1.502659478932105,0.8978895446346742,A,413.6305830325,Correct
9,13,148,A,33.71423603670407,46.540962231997796,1.6857118018352037,0.7310637251952216,A,432.288707990665,Correct
9,13,149,B,78.47466779860419,58.411333325190995,3.9237333899302094,0.9175230783040235,B,373.47954098368064,Correct
9,13,150,B,73.36348102006349,44.655052444059436,3.6681740510031746,0.7014399235196204,B,381.8679579999298,Correct
9,13,151,A,27.18951974298846,49.20912678361813,1.359475987149423,0.7729751559649174,A,380.9545830008574,Correct
9,13,152,A,38.64929482017837,64.8450385266065,1.9324647410089184,1.0185834832846703,A,429.68449904583395,Correct
9,13,153,A,47.43294093118304,63.70136269287744,2.3716470465591524,1.0006186652980136,A,360.3029579971917,Correct
9,13,154,A,55.037418180576005,65.17137934582853,2.7518709090288,1.0237096328858424,A,421.3631240418181,Correct
9,13,155,B,77.58940268635568,46.839917030268275,3.8794701343177844,0.7357596961852312,B,381.4735829946585,Correct
9,13,156,A,20.7856459051878,44.79584473179442,1.03928229525939,0.7036514836037718,A,380.6012070272118,Correct
9,13,157,A,20.990722109781398,34.44758238290721,1.04953610548907,0.5411013587403524,A,363.9603320043534,Correct
9,13,158,A,22.586596380781852,54.473290269231725,1.1293298190390926,0.8556644426334137,A,336.84845798416063,Correct
9,13,159,A,43.38400730714396,62.459384461596315,2.1692003653571983,0.9811097168614574,A,393.5572080081329,Correct
9,13,160,B,64.20039650055874,44.18006158596792,3.2100198250279366,0.6939787845681072,B,413.2612489629537,Correct
9,13,161,A,62.36812618653717,78.33910934476494,3.118406309326858,1.2305478520314053,A,374.5184160070494,Correct
9,13,162,A,20.337501545779606,46.37675467495063,1.0168750772889803,0.728484358920805,A,450.8880829671398,Correct
9,13,163,A,44.71926380330834,63.621728361762955,2.2359631901654167,0.9993677721499994,A,366.4301660028286,Correct
9,13,164,B,77.94512838655744,52.25841156952629,3.897256419327872,0.8208732093754783,B,419.384540989995,Correct
9,13,165,A,27.559882617506968,58.923607526471784,1.3779941308753485,0.92556986264086,A,359.8462489899248,Correct
9,13,166,B,58.023636640842575,44.37664149015356,2.9011818320421288,0.6970666544822722,B,477.4157489882782,Correct
9,13,167,A,15.347725561052282,38.95138198740989,0.7673862780526142,0.6118468774940835,A,341.95308201014996,Correct
9,13,168,A,23.234182360582757,44.6780200093844,1.161709118029138,0.7018006971920989,A,390.0165820377879,Correct
9,13,169,A,43.152019704637794,58.959299419809554,2.1576009852318894,0.9261305095903734,A,380.3080819780007,Correct
9,13,170,A,44.61303943628218,61.29555719398531,2.230651971814109,0.9628283608915863,A,415.972790971864,Correct
9,13,171,A,58.31589797849584,78.82540346391346,2.9157948989247924,1.2381865421924096,A,455.7105830172077,Correct
9,13,172,A,45.01381235382814,67.05597892671294,2.250690617691407,1.0533128538771668,A,403.5502500482835,Correct
9,13,173,B,87.5192020924978,69.47589470815396,4.375960104624891,1.0913248020835724,B,454.29212402086705,Correct
9,13,174,B,61.37110447890935,30.09180450542508,3.068555223945468,0.47268095983751834,B,410.27741599828005,Correct
9,13,175,A,25.696199230302142,43.76194849147615,1.2848099615151072,0.687411079437982,A,509.1235410072841,Correct
9,13,176,B,59.47987623398412,43.39590586383228,2.973993811699206,0.6816612952884485,B,415.48024903750047,Correct
9,13,177,B,45.35285489593612,18.120009635832268,2.267642744796806,0.28462844577453456,B,411.6138739627786,Correct
9,13,178,A,52.876552206135415,63.57620041196488,2.643827610306771,0.9986526207869062,A,442.2393739805557,Correct
9,13,179,B,52.27575409315741,43.71485408290925,2.6137877046578706,0.6866713221980874,B,437.7264160430059,Correct
9,13,180,A,69.22568195949533,86.1423311069848,3.4612840979747665,1.3531205728440148,A,420.1904989895411,Correct
9,13,181,A,19.852867617987357,32.70806075893309,0.9926433808993679,0.5137770169671639,A,447.7577490033582,Correct
9,13,182,A,11.172416032723795,33.9406100549747,0.5586208016361898,0.5331378560353219,A,1488.6142910108902,Correct
9,13,183,A,30.173149819734704,61.69356098204504,1.5086574909867352,0.969080189774933,A,381.4972910331562,Correct
9,13,184,B,47.29849592748976,26.862868345666037,2.364924796374488,0.4219609492454711,B,764.8686660104431,Correct
9,13,185,A,40.42289574419332,55.411873283779954,2.021144787209666,0.8704076701498582,A,624.3269990081899,Correct
9,13,186,A,49.352539089149175,72.95136836075145,2.4676269544574585,1.1459174145572981,A,473.65112497936934,Correct
9,13,187,B,30.532786799310067,11.171673785898573,1.5266393399655032,0.17548424147040315,B,474.9606249970384,Correct
9,13,188,B,52.659006550484605,24.640534290120836,2.63295032752423,0.38705260753185505,B,1006.3683319604024,Correct
9,13,189,B,68.1056354246929,57.571631823257206,3.405281771234645,0.9043330779556058,B,840.1104579679668,Correct
9,13,190,A,47.08853353582807,68.63726561504355,2.3544266767914035,1.0781516470935606,A,737.0529569452628,Correct
9,13,191,B,44.59501392360512,23.616940343190763,2.229750696180256,0.37097403141218255,B,424.2533330107108,Correct
9,13,192,A,25.9259240372665,40.48465447013639,1.296296201863325,0.6359314653325083,A,407.2623740066774,Correct
9,13,193,A,27.493865797086517,47.47287809218408,1.3746932898543258,0.7457022252958468,A,472.4209580454044,Correct
9,13,194,A,51.03624863959085,65.93402383958725,2.5518124319795423,1.035689224580308,A,486.88770801527426,Correct
9,13,195,A,43.31810202621245,67.88835136407658,2.1659051013106225,1.0663877295485282,A,480.63895804807544,Correct
9,13,196,A,44.08880109313889,58.761404078145546,2.2044400546569447,0.9230219768326167,A,453.4975819988176,Correct
9,13,197,A,65.78649703432794,77.30188569013379,3.2893248517163967,1.2142551809638114,A,513.7777079944499,Correct
9,13,198,B,52.06059618959761,30.06055264811668,2.6030298094798803,0.47219005681086285,B,523.6640410148539,Correct
9,13,199,A,54.13868699074208,65.02077407003783,2.7069343495371037,1.0213439307457628,A,773.8880410324782,Correct
9,13,200,A,39.82546293286341,69.46938900091072,1.9912731466431706,1.0912226106731635,A,335.8167079859413,Correct
9,13,201,A,27.65569404486338,48.956717365425476,1.382784702243169,0.7690103180954627,A,1092.333456967026,Correct
9,13,202,B,51.68456531233778,36.34506322991181,2.584228265616889,0.5709069181867373,B,472.1584159997292,Correct
9,13,203,A,30.48430856281842,48.42213212771242,1.524215428140921,0.7606130728178782,A,354.9614570220001,Correct
9,13,204,A,66.99027518409126,79.21372321700423,3.349513759204563,1.2442862546101787,A,514.874915999826,Correct
9,13,205,A,52.10865554724877,65.13412901846253,2.6054327773624384,1.0231245061118581,A,398.3868739451282,Correct
9,13,206,B,44.2470076609685,25.26538542061236,2.2123503830484252,0.39686774613755227,B,457.0557079860009,Correct
9,13,207,B,64.28109372284644,51.713888802900875,3.2140546861423216,0.8123198657587642,B,597.4694999749772,Correct
9,13,208,B,54.40721321520388,28.85116431019403,2.7203606607601944,0.45319302922208793,B,438.2376659777947,Correct
9,13,209,B,67.6613358211782,35.29627901341884,3.3830667910589103,0.5544326542380611,B,416.76258301595226,Correct
9,13,210,A,67.61287278074302,84.77386994265056,3.3806436390371513,1.3316248351410382,A,563.8070409768261,Correct
9,13,211,B,83.71287001624493,66.62126062581066,4.185643500812247,1.0464843147746885,B,379.10325004486367,Correct
9,13,212,A,42.04014784915289,52.51298079382453,2.1020073924576446,0.8248719733999051,A,352.46545798145235,Correct
9,13,213,B,57.58679691258077,29.374082715910802,2.8793398456290387,0.4614070123312215,B,409.3729990418069,Correct
9,13,214,B,55.94679732839325,29.63417750036608,2.7973398664196627,0.46549257165163005,B,375.6999989855103,Correct
9,13,215,B,79.04614829674682,62.31975980390503,3.952307414837341,0.9789164978671427,A,380.7965819723904,Incorrect
9,13,216,B,41.69906796430477,32.45760801519337,2.084953398215238,0.5098429144681434,B,501.3573319884017,Correct
9,13,217,B,39.00734188619442,27.73035257001183,1.9503670943097209,0.43558735957702005,B,464.61037400877103,Correct
9,13,218,B,64.64463222904655,39.433201716081314,3.232231611452328,0.6194152840938274,B,392.6139579853043,Correct
9,13,219,B,40.73458976167017,26.20883703795574,2.0367294880835085,0.4116874494878691,B,477.1425829967484,Correct
9,13,220,B,66.15140494780883,48.86396525140228,3.3075702473904416,0.7675533712953617,B,503.6439999821596,Correct
9,13,221,A,53.088235351832935,71.11961902839735,2.654411767591647,1.1171443633285898,A,597.3234580014832,Correct
9,13,222,B,58.63678523147895,31.26292133849439,2.9318392615739475,0.4910768200338478,B,383.13899998320267,Correct
9,13,223,B,80.23630106685908,52.58141987121825,4.011815053342954,0.8259470119136981,B,508.7549570016563,Correct
9,13,224,A,35.8255523729277,55.93042347511602,1.791277618646385,0.8785530375079531,A,364.78941596578807,Correct
9,13,225,B,73.46896086551166,60.49154258937962,3.673448043275583,0.9501989290155455,B,343.6635409598239,Correct
9,13,226,B,76.52856637799081,55.54528285922644,3.826428318899541,0.8725032628605641,B,378.54683300247416,Correct
9,13,227,B,64.10543107160301,34.07900890709352,3.2052715535801504,0.5353118201207305,B,426.6907489509322,Correct
9,13,228,B,49.1389245110109,22.088374416429946,2.4569462255505448,0.3469633739819853,B,397.5579579710029,Correct
9,13,229,B,38.18568733829089,26.647157807357722,1.9092843669145447,0.41857257603321457,B,502.16116599040106,Correct
9,13,230,A,37.61925003027763,46.702856053081945,1.8809625015138811,0.7336067473901192,A,1426.4320409856737,Correct
9,13,231,A,57.734024400811975,75.99348993801904,2.8867012200405986,1.1937029485496522,A,541.8814569711685,Correct
9,13,232,B,62.50608675433168,31.305463504782285,3.125304337716584,0.4917450708192371,B,398.3943740022369,Correct
9,13,233,A,28.888615751168103,46.382707285256885,1.4444307875584053,0.728577862304844,A,427.3690819973126,Correct
9,13,234,A,34.73039358734937,51.97271273762061,1.7365196793674684,0.8163854626182079,A,397.39916601683944,Correct
9,13,235,B,55.423152250401984,42.97058101294989,2.771157612520099,0.6749803081538422,B,443.3227910194546,Correct
9,13,236,A,12.370695835418612,33.34330821151736,0.6185347917709306,0.5237554606184158,A,405.39399901172146,Correct
9,13,237,B,81.57052841900105,61.425225717736794,4.078526420950053,0.9648651892996837,B,383.06566601386294,Correct
9,13,238,B,53.89052802396471,29.661989351323314,2.6945264011982357,0.46592943918488,B,493.3393750106916,Correct
9,13,239,A,32.20129952135588,61.37331489309561,1.6100649760677939,0.9640497759730111,A,360.96379096852615,Correct
9,13,240,A,27.21442798157682,38.43352582762782,1.360721399078841,0.6037124119581456,A,450.402665999718,Correct
9,13,241,A,44.0667152234989,55.00975033457928,2.2033357611749453,0.8640911376346145,A,424.06866600504145,Correct
9,13,242,B,53.7796771583902,42.64309985042091,2.68898385791951,0.6698362460818917,B,451.3313740026206,Correct
9,13,243,B,44.883575801974864,32.43350199215886,2.244178790098743,0.5094642579437809,B,473.02541602402925,Correct
9,13,244,A,37.346513937165774,64.4903480415116,1.8673256968582888,1.0130120181733087,A,378.7662489921786,Correct
9,13,245,A,36.54356291264457,56.09834951467553,1.8271781456322285,0.881190813569086,A,378.75908199930564,Correct
9,13,246,B,47.5516737608206,33.203810103120276,2.37758368804103,0.521564229455766,B,540.840374014806,Correct
9,13,247,A,54.42135487504305,62.57488414695651,2.7210677437521524,0.9829239816765549,A,577.380916045513,Correct
9,13,248,B,72.08320281912677,45.62345818274802,3.6041601409563384,0.7166516052914116,B,410.9634580090642,Correct
9,13,249,B,87.07341170393504,69.34737653796158,4.353670585196752,1.0893060433869264,B,525.187666004058,Correct
9,13,250,A,20.125196476021802,38.51645076303546,1.00625982380109,0.6050149937975259,A,470.4738319851458,Correct
9,13,251,A,35.68149568509145,54.40663788823166,1.7840747842545723,0.8546174694809434,A,516.1499999812804,Correct
9,13,252,A,40.207915944694015,51.76613918121062,2.010395797234701,0.81314061278199,A,782.6682909508236,Correct
9,13,253,A,60.44571987897268,78.73663662073996,3.022285993948634,1.2367921958804287,A,776.373416010756,Correct
9,13,254,A,51.644025130798525,67.07826556813832,2.582201256539926,1.0536629316220425,A,840.3178330045193,Correct
9,13,255,A,26.969754672531522,51.08879968095506,1.348487733626576,0.8025009887920449,A,830.8361660456285,Correct
9,13,256,B,48.40509975518971,32.86808506767842,2.4202549877594857,0.5162906729309145,B,465.44712397735566,Correct
9,13,257,B,67.55899783743705,40.93473076535708,3.3779498918718525,0.6430012472456095,B,510.5933740269393,Correct
9,13,258,A,35.27963890940544,43.3769179933287,1.763981945470272,0.6813630345160417,A,444.4391659926623,Correct
9,13,259,B,47.15965109582636,31.194871791275027,2.357982554791318,0.49000790024572544,B,415.4139159945771,Correct
9,13,260,A,56.07914954195564,82.53382719677089,2.8039574770977818,1.2964383259701244,A,479.340998979751,Correct
9,13,261,B,43.444930580324126,19.769530777591527,2.1722465290162063,0.3105390632789943,B,651.4859579619952,Correct
9,13,262,A,65.99905105840784,89.48248596639073,3.2999525529203924,1.4055876026848242,A,451.90658199135214,Correct
9,13,263,A,51.02665741780323,57.790879120755065,2.5513328708901613,0.9077770064512994,A,827.3364990018308,Correct
9,13,264,A,39.8493478111441,53.4679565598492,1.992467390557205,0.839872697654402,A,1365.0552909821272,Correct
9,13,265,B,73.48758253567263,46.17212374886442,3.6743791267836317,0.7252700238503565,B,693.8546659657732,Correct
9,13,266,B,51.59346210840828,31.627145434073,2.579673105420414,0.49679803874849854,B,940.2790410094894,Correct
9,13,267,A,51.22334525893543,59.07287074823242,2.5611672629467717,0.9279144838455318,A,1101.940458000172,Correct
9,13,268,A,43.17572308537075,66.20746315644197,2.1587861542685376,1.039984399325475,A,420.3444159938954,Correct
9,13,269,A,43.210031077069985,50.67441415695938,2.160501553853499,0.7959918362023509,A,465.0993330287747,Correct
9,13,270,B,56.54277548265701,27.22785553603763,2.8271387741328504,0.42769415462509996,B,362.88591602351516,Correct
9,13,271,B,47.97122956516188,30.384313476675416,2.398561478258094,0.4772756800134641,B,438.92654101364315,Correct
9,13,272,B,49.97363348145046,28.568839006553794,2.498681674072523,0.4487582737228946,B,444.97420702828094,Correct
9,13,273,B,45.420074572764776,28.91195962586258,2.271003728638239,0.4541479998074729,B,506.10820698784664,Correct
9,13,274,A,46.62565528415256,75.82078493158494,2.331282764207628,1.1909901046523947,A,667.6014160038903,Correct
9,13,275,B,85.69497321684011,66.0208774076745,4.284748660842006,1.0370535172375128,B,484.83704100362957,Correct
9,13,276,A,25.60420363695835,52.99878526032274,1.2802101818479175,0.8325029721150646,A,560.1966659887694,Correct
9,13,277,A,33.55676160606875,50.1716753394723,1.6778380803034372,0.788094833323892,A,699.6958740055561,Correct
9,13,278,B,84.23222158080783,57.831657023814756,4.211611079040392,0.908417544254705,B,402.804457989987,Correct
9,13,279,B,52.40560364663222,23.945215027713754,2.620280182331611,0.37613055809846724,B,413.12399896560237,Correct
9,13,280,B,55.09583082353553,46.33481851158165,2.7547915411767763,0.7278256272070064,B,413.0324579891749,Correct
9,13,281,B,83.98225690848878,62.96074052857139,4.199112845424439,0.9889849995456653,B,429.05920796329156,Correct
9,13,282,B,35.64640909301051,24.517605472861135,1.7823204546505256,0.3851216461857672,B,761.5590829518624,Correct
9,13,283,B,71.28484931937643,56.70288417384552,3.564242465968822,0.8906868217895302,B,1115.486499038525,Correct
9,13,284,B,77.14066779959109,60.176140026045914,3.8570333899795544,0.9452445971360827,B,791.5590410120785,Correct
9,13,285,B,76.94501533572794,50.259327355003336,3.847250766786397,0.7894716679642151,B,476.6411659657024,Correct
9,13,286,B,75.27967620476005,53.51181017611566,3.7639838102380025,0.8405615486478822,B,741.8977500055917,Correct
9,13,287,A,17.78243431403714,34.03178767943163,0.889121715701857,0.5345700708111502,A,409.38758302945644,Correct
9,13,288,A,53.031309559367884,64.7172089679714,2.651565477968394,1.0165755412730721,A,502.70937400637195,Correct
9,13,289,B,50.73030194155271,40.75186445443267,2.5365150970776353,0.6401287899506635,B,473.0315830092877,Correct
9,13,290,A,66.00102136883453,77.9902960111944,3.3000510684417264,1.2250687050003084,A,469.5808749529533,Correct
9,13,291,A,19.743382949326612,43.9159825866933,0.9871691474663307,0.6898306413476647,A,459.6072909771465,Correct
9,13,292,A,28.749340509789967,44.531606028298,1.4374670254894983,0.6995008317552797,A,598.5132079804316,Correct
9,13,293,A,31.687121325700794,47.37394467291294,1.5843560662850396,0.744148182779963,A,447.25204101996496,Correct
9,13,294,B,53.50159747103281,27.81749013674973,2.6750798735516406,0.4369561132745974,B,1031.1052489560097,Correct
9,13,295,B,84.94994497423839,67.1860614258407,4.24749724871192,1.0553561849952686,B,1296.1647070478648,Correct
9,13,296,A,31.170295769606284,59.25277795328376,1.5585147884803143,0.9307404596141177,A,1116.7723319958895,Correct
9,13,297,A,52.46263203165413,73.8548548015923,2.6231316015827066,1.160109346383116,A,1265.7538740313612,Correct
9,13,298,B,80.32028623616986,61.400556103386165,4.016014311808493,0.9644776799036295,B,661.8762069847435,Correct
9,13,299,A,19.44628170525509,45.771549638708365,0.9723140852627544,0.7189778204419337,A,724.72195798764,Correct
