subject,day,trial,cat,x,y,xt,yt,resp,rt,fb
9,12,0,B,74.52379795350994,62.456984477528444,3.726189897675497,0.9810720179998755,B,1282.1735829929821,Correct
9,12,1,B,47.370064259714226,23.91387570754191,2.3685032129857113,0.37563828120836534,B,671.724165964406,Correct
9,12,2,A,48.32610362429042,76.91974014144654,2.416305181214521,1.2082524527220218,A,600.5146250245161,Correct
9,12,3,A,47.28611168311829,76.33379944967128,2.3643055841559146,1.1990485178584191,A,447.78216700069606,Correct
9,12,4,A,21.87211435337687,52.979882987428624,1.0936057176688434,0.8322060559067631,A,462.78058300958946,Correct
9,12,5,B,42.09854519105965,23.26734089268566,2.1049272595529827,0.36548253608515324,B,397.85466698231176,Correct
9,12,6,A,23.066681148658517,53.912483365132076,1.1533340574329258,0.8468553083834043,A,396.3954580249265,Correct
9,12,7,B,56.640820705009354,29.582356990207245,2.8320410352504677,0.4646785769815287,B,360.43512501055375,Correct
9,12,8,B,44.52098035425567,27.410906349960015,2.2260490177127834,0.43056951008636096,B,387.1970000327565,Correct
9,12,9,B,81.91417540475479,59.02171502702136,4.0957087702377395,0.9271109316558029,B,558.6931670550257,Correct
9,12,10,A,15.78087082108323,31.796956968742506,0.7890435410541614,0.4994654320975611,A,394.99670901568606,Correct
9,12,11,A,39.35884235146587,69.50575699136155,1.9679421175732932,1.0917938777312943,A,390.16570802778006,Correct
9,12,12,A,46.48231414126716,55.85806368170586,2.324115707063358,0.8774164125309898,A,425.8516670088284,Correct
9,12,13,A,21.96190657861487,49.102711149521916,1.0980953289307436,0.7713035830933985,A,391.1059169913642,Correct
9,12,14,B,57.917181083062474,49.889722253408266,2.8958590541531235,0.7836659246047132,B,1663.2825420238078,Correct
9,12,15,B,52.60132767409668,44.64704541890337,2.6300663837048344,0.7013141494625833,B,609.1487919911742,Correct
9,12,16,A,52.89450831995735,74.73180244809603,2.644725415997868,1.1738844078023112,A,363.7837920105085,Correct
9,12,17,A,43.94508985134566,71.2975965229835,2.1972544925672826,1.1199400272760707,A,406.6678750095889,Correct
9,12,18,B,53.216307843199814,28.845692456337737,2.660815392159991,0.4531070775427058,B,375.549582997337,Correct
9,12,19,A,38.40839443298005,68.6562008926439,1.9204197216490027,1.0784490817385752,A,401.23449999373406,Correct
9,12,20,A,35.87595422338384,47.541735332556485,1.793797711169192,0.7467838322983489,A,426.87887500505894,Correct
9,12,21,B,65.94445069624634,48.314524541639734,3.2972225348123168,0.7589227768084956,B,399.2362089920789,Correct
9,12,22,B,59.82926250930778,51.4742080818508,2.991463125465389,0.808554969796474,B,369.9966669664718,Correct
9,12,23,B,56.88594249550843,42.82329360528005,2.844297124775421,0.6726667229643328,B,425.7418329943903,Correct
9,12,24,B,64.75151090465938,46.338415773456006,3.237575545232969,0.727882132864394,B,356.42679198645055,Correct
9,12,25,B,39.50997436603792,21.873130390750042,1.975498718301896,0.34358232873295985,B,528.3794999704696,Correct
9,12,26,A,21.174955689630305,43.38226227271755,1.0587477844815154,0.6814469822603755,A,497.9692919878289,Correct
9,12,27,B,40.80756256337283,27.372767535156264,2.040378128168641,0.4299704269843405,B,451.1145420256071,Correct
9,12,28,A,38.20683625764767,68.17643358449733,1.9103418128823835,1.0709129144850462,A,409.8994169617072,Correct
9,12,29,A,66.19904549442828,83.94891151920245,3.3099522747214136,1.31866641852793,A,1132.8042919631116,Correct
9,12,30,A,26.541740115880884,53.33833052206357,1.3270870057940443,0.8378365366142957,A,459.7764579812065,Correct
9,12,31,B,39.18760297124965,27.650404348416615,1.9593801485624827,0.4343315358488645,B,414.88150000805035,Correct
9,12,32,A,50.99201221729811,80.46652980968867,2.5496006108649056,1.2639652945499098,A,380.5805000010878,Correct
9,12,33,A,59.64593544274508,87.27345516101525,2.982296772137254,1.3708882279362187,A,449.02749999891967,Correct
9,12,34,B,64.73770298752561,43.136951821496304,3.2368851493762802,0.6775936547033481,B,406.85137500986457,Correct
9,12,35,A,40.54189484046847,60.073950576790736,2.0270947420234235,0.9436394090208104,A,757.1159170474857,Correct
9,12,36,B,82.22574859735413,60.79951149651407,4.111287429867707,0.9550364932964838,B,401.7075840383768,Correct
9,12,37,B,73.9568160748791,55.86240139664617,3.697840803743955,0.877484549197939,B,424.81987504288554,Correct
9,12,38,B,69.82933074704917,59.48637368726638,3.491466537352459,0.934409772823066,B,453.1781669938937,Correct
9,12,39,B,70.64701873142522,41.43867772346358,3.5323509365712606,0.6509172275525409,B,397.7287499583326,Correct
9,12,40,B,31.624940626002623,13.545798705902715,1.581247031300131,0.21277690850735048,B,625.3515419666655,Correct
9,12,41,B,49.15287346692691,25.110905725088628,2.4576436733463454,0.39444118475462164,B,388.4667500387877,Correct
9,12,42,A,36.145043578233526,52.07029701524904,1.8072521789116762,0.8179183128667246,A,669.3662920151837,Correct
9,12,43,B,58.59344942208259,31.770443922017893,2.92967247110413,0.4990489661334896,B,373.26041696360335,Correct
9,12,44,B,53.59693013449024,41.07223371903073,2.679846506724512,0.6451611385911495,B,396.91900002071634,Correct
9,12,45,A,44.80370778649498,61.6000710440303,2.240185389324749,0.9676116532626747,A,507.9663749784231,Correct
9,12,46,B,45.13339478254402,32.24680939650194,2.2566697391272013,0.506531697508804,B,400.78054199693725,Correct
9,12,47,A,57.8214217882044,67.0450314209228,2.89107108941022,1.0531408908583395,A,575.4622499807738,Correct
9,12,48,B,38.919467170009014,29.68518205999905,1.9459733585004506,0.4662937494008426,B,396.8222080147825,Correct
9,12,49,A,53.3729798840406,61.35326852860463,2.66864899420203,0.9637348884159309,A,465.2383330394514,Correct
9,12,50,B,68.03031007799683,55.07704240592016,3.4015155038998417,0.8651481590194614,B,461.34787501068786,Correct
9,12,51,A,41.144463620957254,67.07488811980548,2.0572231810478625,1.0536098787876909,A,388.5947910021059,Correct
9,12,52,B,45.08144047645814,37.36107943292327,2.254072023822907,0.5868664633832823,B,430.18341704737395,Correct
9,12,53,B,77.52435364702173,45.158770905090954,3.8762176823510863,0.7093523146028912,B,365.9635840449482,Correct
9,12,54,A,36.28335761791576,51.570952956547956,1.814167880895788,0.8100746347345795,A,383.2911250065081,Correct
9,12,55,A,21.863467922066945,36.63415327125001,1.0931733961033472,0.5754479339372075,A,437.96470802044496,Correct
9,12,56,B,68.8229374910046,52.06480120921484,3.44114687455023,0.8178319849474117,B,503.2966670114547,Correct
9,12,57,A,45.57911780501885,75.0461527428442,2.2789558902509426,1.1788222106854842,A,658.4520000033081,Correct
9,12,58,A,22.756189507891275,36.37341060894596,1.1378094753945638,0.5713521977753483,A,1142.0679590082727,Correct
9,12,59,A,22.44821891367365,51.79547150039939,1.1224109456836826,0.8136013637743711,A,667.1587080345489,Correct
9,12,60,B,69.87748016741679,42.92397391037574,3.49387400837084,0.6742482054985819,B,460.57829103665426,Correct
9,12,61,A,52.30881988083559,69.21936401398317,2.61544099404178,1.0872952273624361,A,431.29616702208295,Correct
9,12,62,B,52.94068799792868,34.19954359811847,2.6470343998964334,0.5372051746198641,B,1042.8590839728713,Correct
9,12,63,B,87.2372354204657,68.39879943261981,4.3618617710232845,1.0744058290594005,B,506.984708015807,Correct
9,12,64,A,17.233011595971544,34.23645812191718,0.8616505797985772,0.537785026603748,A,876.3675419613719,Correct
9,12,65,B,54.152731231131,31.083149037756414,2.7076365615565496,0.488252963337261,B,452.35216699074954,Correct
9,12,66,A,60.33142666765202,81.6637521623142,3.016571333382601,1.2827712192885192,A,456.73150004586205,Correct
9,12,67,A,54.052019283507484,77.63801024059663,2.702600964175374,1.2195350130559375,A,380.1832089666277,Correct
9,12,68,B,66.89985238217078,48.891558878978756,3.3449926191085386,0.7679868109837623,B,658.1987090175971,Correct
9,12,69,B,44.421559458378994,28.335222974057547,2.2210779729189496,0.4450886416656396,B,465.84062499459833,Correct
9,12,70,A,22.902095467869913,45.595527683047415,1.1451047733934956,0.716212874028059,A,425.1153340446763,Correct
9,12,71,A,69.17614837906564,88.16811200470596,3.458807418953282,1.3849414647743314,A,526.1185829876922,Correct
9,12,72,A,43.14953810178306,52.91701016541047,2.157476905089153,0.8312184519279496,A,819.8977090069093,Correct
9,12,73,A,31.88916864352152,43.54517220409177,1.594458432176076,0.6840059654783859,A,499.9095000093803,Correct
9,12,74,A,51.41982724830197,64.17215564405646,2.5709913624150986,1.0080138636819427,A,693.5764169902541,Correct
9,12,75,B,67.43755987106054,34.09424715084347,3.3718779935530274,0.5355511818938229,B,382.04691698774695,Correct
9,12,76,A,37.77249292678895,69.66380197866731,1.8886246463394474,1.0942764425865765,A,390.02387499203905,Correct
9,12,77,A,52.07905474372187,82.82014124454295,2.6039527371860935,1.300935736515626,A,512.8343749674968,Correct
9,12,78,A,13.163282604983685,36.36280574442691,0.6581641302491843,0.5711856169530215,A,483.17799996584654,Correct
9,12,79,A,24.263275737256606,35.63979506730209,1.2131637868628302,0.5598285917944099,A,552.4279170203954,Correct
9,12,80,B,69.84657941378421,48.86275515193561,3.4923289706892104,0.7675343630973886,B,405.76883300673217,Correct
9,12,81,B,62.46797998328987,51.128625489113865,3.1233989991644937,0.8031265711237198,B,404.5263330335729,Correct
9,12,82,B,45.98807079435731,20.150248889109246,2.299403539717866,0.31651936939015746,B,411.05358401546255,Correct
9,12,83,B,58.23582529077006,43.903186438762674,2.911791264538503,0.6896296399259992,B,438.0764159723185,Correct
9,12,84,A,50.76138971439432,63.05821780700859,2.5380694857197157,0.9905161690548163,A,571.0293329902925,Correct
9,12,85,A,56.00463849189664,70.46301941666628,2.800231924594832,1.106830520745769,A,450.1544159720652,Correct
9,12,86,A,47.48291673887785,63.05795517156486,2.3741458369438924,0.9905120435869135,A,437.2402500011958,Correct
9,12,87,B,88.96380199998679,66.68523936807976,4.44819009999934,1.0474892905081812,B,396.2734169908799,Correct
9,12,88,B,43.208720729394216,14.891045570427636,2.1604360364697106,0.2339079968416314,B,490.4415000346489,Correct
9,12,89,A,59.81285648431398,78.08333342554653,2.9906428242156995,1.2265301332874967,A,840.9516660030931,Correct
9,12,90,B,81.40032974035665,63.265266290818545,4.070016487017833,0.9937684790331877,B,364.5613750559278,Correct
9,12,91,A,52.80211135155528,74.2217918908297,2.640105567577764,1.1658731807025056,A,441.15329097257927,Correct
9,12,92,A,16.010998755061422,40.628607002986996,0.8005499377530712,0.6381926664308538,A,500.7465410162695,Correct
9,12,93,B,40.97226251482991,21.87870528703376,2.0486131257414955,0.3436698989990071,B,386.8083329871297,Correct
9,12,94,B,64.98409726807377,37.79721211147593,3.2492048634036883,0.5937172194779397,B,379.94970800355077,Correct
9,12,95,A,66.22593362741337,81.03161033802141,3.311296681370669,1.272841558732394,A,470.64091602806,Correct
9,12,96,A,41.32743494028484,63.766896633055225,2.0663717470142418,1.00164807002313,A,429.0344580076635,Correct
9,12,97,A,26.63779006481672,51.412312092800185,1.331889503240836,0.8075827098740337,A,368.36304201278836,Correct
9,12,98,B,61.62057273674051,51.551310444160876,3.081028636837026,0.8097660908715129,B,368.8618750311434,Correct
9,12,99,B,75.1055757119548,43.68974808226115,3.75527878559774,0.6862769580621019,B,425.77837500721216,Correct
9,12,100,B,53.094780095944,24.94853221767556,2.6547390047971997,0.39189062766448907,B,425.528249994386,Correct
9,12,101,A,30.089460477779614,40.97937159523111,1.5044730238889807,0.6437024637615214,A,429.4119590194896,Correct
9,12,102,A,57.69440303226173,72.71539446656014,2.8847201516130867,1.1422107452951464,A,559.865000017453,Correct
9,12,103,B,74.61508120289693,58.67013377506866,3.7307540601448466,0.9215883062644306,B,453.3588329795748,Correct
9,12,104,A,56.50636338664098,64.7985434654552,2.8253181693320486,1.0178531405719649,A,421.1334169958718,Correct
9,12,105,B,56.684996663437445,31.893938643212394,2.8342498331718726,0.5009888166777984,B,410.72645800886676,Correct
9,12,106,A,51.272795007391046,58.932936425931516,2.5636397503695525,0.9257164006509039,A,437.668208964169,Correct
9,12,107,B,79.31722301396951,50.69672251686764,3.9658611506984753,0.796342255100358,B,380.09041600162163,Correct
9,12,108,B,45.37362285914564,37.09655203622568,2.2686811429572824,0.5827112767525904,B,823.1722500058822,Correct
9,12,109,A,22.345357872815473,43.644350371502654,1.1172678936407736,0.6855638524890585,A,435.69133296841756,Correct
9,12,110,B,77.03318008627502,46.98207999574438,3.8516590043137513,0.7379927868249925,B,399.3082079687156,Correct
9,12,111,A,35.2828872406284,46.0169611496338,1.7641443620314197,0.7228327354410823,A,375.36004098365083,Correct
9,12,112,A,39.293187511027845,47.42631725735302,1.9646593755513921,0.7449708494125954,A,429.57470897817984,Correct
9,12,113,B,80.4082383617843,53.94034115154227,4.020411918089215,0.8472928974690619,B,341.2713330471888,Correct
9,12,114,B,62.28525196040602,35.29452936940314,3.1142625980203014,0.5544051708941306,B,402.45929203229025,Correct
9,12,115,B,71.06888029597451,54.8826489447023,3.5534440147987256,0.8620946336711217,B,448.4141250140965,Correct
9,12,116,B,85.61302115608896,65.57319933851382,4.280651057804448,1.0300214065712703,B,569.6822080062702,Correct
9,12,117,B,72.10159925838605,50.046912439372804,3.6050799629193024,0.7861350622719262,B,456.8431250518188,Correct
9,12,118,B,78.04771528784515,51.86004546677718,3.9023857643922577,0.8146156892662991,B,342.7494590287097,Correct
9,12,119,B,45.84006561239695,19.426226237013054,2.2920032806198476,0.30514644816586745,B,512.7637920086272,Correct
9,12,120,A,44.06756530031499,65.77046062814864,2.203378265015749,1.0331199796630424,A,330.167124979198,Correct
9,12,121,A,65.46821120818156,87.05290477201203,3.273410560409078,1.367423830527024,A,433.7753750151023,Correct
9,12,122,B,37.258748499788254,21.985568883501255,1.8629374249894126,0.34534850844699944,B,832.8418339951895,Correct
9,12,123,B,52.066150321952804,35.39106423254025,2.60330751609764,0.5559215369783647,B,764.5406250376254,Correct
9,12,124,A,46.70321404566393,66.16903060882046,2.335160702283196,1.0393807022791426,A,325.0366669963114,Correct
9,12,125,B,78.81347610062718,58.079529015299585,3.9406738050313597,0.912311108392102,B,401.81233297334984,Correct
9,12,126,A,55.41128239477534,75.44067758823486,2.770564119738767,1.185019392465174,A,525.0236670253798,Correct
9,12,127,B,57.132814863067225,35.359119899966416,2.856640743153361,0.5554197565756758,B,473.840165999718,Correct
9,12,128,B,66.56812543036195,38.84180051895438,3.328406271518097,0.6101255758127365,B,366.44083296414465,Correct
9,12,129,A,56.78914199373895,83.24692249513545,2.8394570996869475,1.307639600723382,A,338.4975409717299,Correct
9,12,130,B,81.32588190780507,60.42017896267258,4.066294095390253,0.9490779517885637,B,340.1151250000112,Correct
9,12,131,A,39.7073169968081,64.23306859347592,1.9853658498404052,1.008970682053966,A,416.48579097818583,Correct
9,12,132,A,24.155770364924884,41.2387542701354,1.207788518246244,0.6477768372912603,A,395.0874999864027,Correct
9,12,133,A,60.696965615671985,82.33980979419306,3.034848280783599,1.2933907077370888,A,440.9057500306517,Correct
9,12,134,A,46.16903217112518,69.77453903996772,2.3084516085562594,1.096015896277884,A,387.85612501669675,Correct
9,12,135,A,22.724283211314045,41.057654732995516,1.1362141605657023,0.6449321324140245,A,598.7153750029393,Correct
9,12,136,B,79.70640762084831,65.79986014632766,3.9853203810424156,1.0335817862146939,B,875.7568330038339,Correct
9,12,137,B,42.20884423490758,22.00203303101816,2.110442211745379,0.3456071266714331,B,828.6235409905203,Correct
9,12,138,B,33.215155070036445,11.188417929603489,1.6607577535018223,0.1757472578646732,B,436.92079198081046,Correct
9,12,139,A,64.58081370870325,80.28975574828132,3.2290406854351623,1.2611885340865971,A,527.5412079645321,Correct
9,12,140,A,44.80189414547746,53.67256467904357,2.2400947072738733,0.8430866744750314,B,429.7265420318581,Incorrect
9,12,141,B,63.87921379220103,48.83704504437861,3.1939606896100514,0.7671305096722685,B,525.9898749645799,Correct
9,12,142,B,67.21432313345107,42.818458630650355,3.360716156672554,0.6725907753604481,B,594.4015000131913,Correct
9,12,143,A,39.910441752974805,70.33432644208557,1.9955220876487403,1.1048090162282118,A,334.9780419957824,Correct
9,12,144,B,61.60665744677972,36.317006484872444,3.080332872338986,0.5704662038662407,B,374.35308296699077,Correct
9,12,145,B,60.738361667341145,43.87916077326454,3.0369180833670573,0.6892522456548665,B,904.3271249975078,Correct
9,12,146,B,51.09288787938588,39.4419398555559,2.5546443939692938,0.6195525424677245,B,363.5038339998573,Correct
9,12,147,A,63.48402705640562,88.1475964074915,3.1742013528202815,1.384619206526867,A,385.52462501684204,Correct
9,12,148,B,31.41904856725872,15.936695416300264,1.5709524283629361,0.25033302621173525,B,477.788291987963,Correct
9,12,149,B,46.607871356139654,18.998251591623664,2.3303935678069827,0.29842383815647744,B,361.32433300372213,Correct
9,12,150,B,38.75411455375375,16.270821040223822,1.9377057276876877,0.25558145923920694,B,345.87508300319314,Correct
9,12,151,B,49.174597282865676,38.75131486289294,2.458729864143284,0.608704230451047,B,1150.0748340040445,Correct
9,12,152,B,48.406690824151376,35.936692727158906,2.420334541207569,0.5644922493297808,B,381.3230409868993,Correct
9,12,153,A,26.33798592428189,41.71637355635695,1.3168992962140944,0.6552792634952925,A,584.9378329585306,Correct
9,12,154,B,39.2402778254653,18.671735269757903,1.9620138912732648,0.29329493176622434,B,452.58499996270984,Correct
9,12,155,B,88.44635016844475,62.68396350421264,4.422317508422237,0.9846373962136257,B,481.1650419724174,Correct
9,12,156,B,62.00642153767252,51.61117974458085,3.100321076883626,0.8107065156433876,B,759.4687080127187,Correct
9,12,157,B,83.94464168796978,58.72557625569435,4.19723208439849,0.9224591947135828,B,402.01662498293445,Correct
9,12,158,A,28.357202044985844,39.68024478061606,1.417860102249292,0.6232958274771406,A,434.98287501279265,Correct
9,12,159,B,40.583709506609424,18.08354160495535,2.029185475330471,0.28405560728506557,B,411.1856250092387,Correct
9,12,160,B,60.557388043419316,51.801210759152696,3.027869402170966,0.8136915158400533,A,744.2750410409644,Incorrect
9,12,161,B,69.58736148888403,42.719792838311605,3.4793680744442015,0.671040936718588,B,459.16787500027567,Correct
9,12,162,B,81.67881297492664,64.85067171837025,4.083940648746332,1.0186719692539765,B,434.47270803153515,Correct
9,12,163,A,37.16854208659234,60.392572829452476,1.858427104329617,0.9486443156619722,A,433.2737500080839,Correct
9,12,164,A,67.6457228884869,80.98082613530259,3.382286144424345,1.2720438423414948,A,498.41050000395626,Correct
9,12,165,A,17.704493401280423,46.37588578911972,0.8852246700640211,0.728470710494089,A,459.70091701019555,Correct
9,12,166,B,39.49858003904318,28.71987981548331,1.9749290019521593,0.4511308172015207,B,490.20670796744525,Correct
9,12,167,A,41.7074348738002,71.65767003006756,2.08537174369001,1.1255960486991086,A,375.691709050443,Correct
9,12,168,A,57.64357861738915,74.3558734900484,2.8821789308694576,1.1679793295379404,A,559.7864169976674,Correct
9,12,169,A,42.551291260131876,64.55792655449336,2.127564563006594,1.0140735389729287,A,397.10779197048396,Correct
9,12,170,A,26.710565204226505,38.92041576803161,1.3355282602113252,0.6113604612575423,A,963.3732909569517,Correct
9,12,171,B,36.65893855369929,22.524473651670924,1.8329469276849648,0.3538136047503312,B,431.18454195791855,Correct
9,12,172,A,47.94653036656048,55.85978792269843,2.3973265183280237,0.8774434968451662,A,432.3222909588367,Correct
9,12,173,B,58.97317849024271,41.81713136292974,2.9486589245121353,0.6568619634198971,B,437.0160410180688,Correct
9,12,174,A,67.18924587199524,85.80728253463738,3.359462293599762,1.3478576421766026,A,472.48845896683633,Correct
9,12,175,B,45.338986713339196,33.70386777045952,2.2669493356669594,0.529419116926187,B,400.3949170000851,Correct
9,12,176,A,40.15077359856148,54.83535806389257,2.0075386799280737,0.8613517902524537,B,391.69079199200496,Incorrect
9,12,177,A,14.250557447605313,41.67250936221012,0.7125278723802657,0.654590246344856,A,348.25074998661876,Correct
9,12,178,B,78.8927665820215,60.10305758901651,3.944638329101075,0.9440966208996926,B,492.72141698747873,Correct
9,12,179,A,36.931831790457295,67.11096665008048,1.8465915895228648,1.0541765990160124,A,336.9517920073122,Correct
9,12,180,A,12.602468016222033,31.312843511285653,0.6301234008111016,0.49186099569030917,A,429.25704101799056,Correct
9,12,181,A,60.73164615109212,81.7071100453616,3.0365823075546063,1.2834522833228041,A,426.4515829854645,Correct
9,12,182,A,67.23996074440524,85.60958300001892,3.3619980372202622,1.3447521851487254,A,438.0851250025444,Correct
9,12,183,A,38.308047223772256,59.800604728320366,1.9154023611886128,0.9393457024735915,A,455.91933303512633,Correct
9,12,184,A,48.89588565884487,63.73769407112565,2.4447942829422433,1.0011893572530102,A,445.53479098249227,Correct
9,12,185,B,61.80356498981322,36.35489436691571,3.090178249490661,0.5710613453256767,B,436.6939580067992,Correct
9,12,186,A,48.87258183583554,65.13508036334396,2.443629091791777,1.023139449802311,A,485.6704580015503,Correct
9,12,187,B,34.76719711135418,10.57360528592605,1.738359855567709,0.16608980344111743,B,402.87220798199996,Correct
9,12,188,A,14.248282857933052,42.310661261469455,0.7124141428966526,0.6646143129377935,A,450.1473749987781,Correct
9,12,189,B,38.5914742925504,17.799287830609558,1.92957371462752,0.27959055943886596,B,1128.2539580133744,Correct
9,12,190,A,27.42582980294897,55.72873999737721,1.3712914901474484,0.8753850008478796,A,344.0744999679737,Correct
9,12,191,B,66.17211250109915,42.26206612026031,3.3086056250549576,0.6638509822446793,B,365.44929101364687,Correct
9,12,192,A,36.78911118701785,53.78951668884808,1.8394555593508926,0.8449237523491534,A,716.2275000009686,Correct
9,12,193,A,60.27175173725005,84.65919783371378,3.013587586862503,1.3298235698660006,A,538.4276660042815,Correct
9,12,194,B,60.093990385254344,36.346854128049515,3.0046995192627173,0.570935049548901,B,377.36745801521465,Correct
9,12,195,A,48.90219350035608,62.95491833982758,2.445109675017804,0.9888935448187383,A,333.15274998312816,Correct
9,12,196,A,35.98236521418583,56.0724076922435,1.7991182607092917,0.8807833203752201,A,390.9202499780804,Correct
9,12,197,B,57.56176028665776,30.73360228298673,2.878088014332888,0.48276229575290797,B,356.5500409458764,Correct
9,12,198,A,17.565989043882215,39.77502770461647,0.8782994521941108,0.624784674165768,A,472.05849998863414,Correct
9,12,199,A,38.70897490842138,60.40592002787139,1.9354487454210691,0.9488539729644666,A,473.9534590044059,Correct
9,12,200,B,65.73395774143489,37.223971714991166,3.2866978870717447,0.5847127803862525,B,435.44720800127834,Correct
9,12,201,A,37.179443219678355,54.523488704022476,1.8589721609839176,0.8564529578032154,A,340.01874999376014,Correct
9,12,202,A,63.94548219631534,82.50419603479324,3.197274109815767,1.295972880766193,A,431.6041669808328,Correct
9,12,203,A,37.132152790664506,69.81284513213156,1.8566076395332254,1.0966176069665323,A,414.168959017843,Correct
9,12,204,B,59.55480179632431,35.11531852343187,2.977740089816216,0.5515901335083956,B,677.6384170516394,Correct
9,12,205,B,52.30921868252208,37.26055170923452,2.6154609341261037,0.5852873775921689,B,391.1128340405412,Correct
9,12,206,A,52.38436881869333,62.11024555785141,2.619218440934667,0.9756254557860204,A,359.56458299187943,Correct
9,12,207,A,64.89957217396152,84.1050759925975,3.244978608698076,1.321119444339778,A,524.7887080186047,Correct
9,12,208,A,41.89715538772283,66.49897127748935,2.0948577693861417,1.0445633981831959,A,562.0928339776583,Correct
9,12,209,B,64.81210323253899,45.39635686046003,3.2406051616269496,0.7130843060628091,B,718.4053750243038,Correct
9,12,210,A,20.609023535877487,47.99526986377674,1.0304511767938742,0.7539079360555031,A,715.8996660145931,Correct
9,12,211,B,36.65117090404832,26.77381165211987,1.832558545202416,0.42056204997448293,B,464.4267500261776,Correct
9,12,212,A,42.206098227868594,57.399516096121204,2.11030491139343,0.9016294904359172,A,311.53274996904656,Correct
9,12,213,B,41.26563538155929,13.134875019547977,2.063281769077965,0.2063221343361601,B,981.052124989219,Correct
9,12,214,A,58.50518331646157,67.79378028542013,2.9252591658230784,1.064902210518782,A,1388.1049170158803,Correct
9,12,215,B,75.04375411482822,61.63401887152729,3.7521877057414112,0.968144904490024,B,1118.9152500010096,Correct
9,12,216,B,72.21506570100969,57.68815340201884,3.6107532850504844,0.9061633946347172,B,2362.288875039667,Correct
9,12,217,B,47.51767202908857,20.21180095400567,2.3758836014544285,0.3174862269646169,B,984.8033749731258,Correct
9,12,218,B,80.51846386752433,55.631375113765216,4.025923193376217,0.8738555968325141,B,988.9908749610186,Correct
9,12,219,B,76.60894639449222,47.21461508515514,3.830447319724611,0.7416454394679661,B,979.4383329572156,Correct
9,12,220,A,44.85332177339064,70.702476778858,2.242666088669532,1.1105919081953162,A,828.2489170087501,Correct
9,12,221,A,55.55146405738323,84.25795716755565,2.7775732028691613,1.3235208962203813,A,889.902249968145,Correct
9,12,222,A,27.246044931100602,41.78701171591187,1.36230224655503,0.6563888451108968,A,694.2016249522567,Correct
9,12,223,A,55.51634623697398,64.36188251912486,2.7758173118486993,1.01099408646646,A,964.1461669816636,Correct
9,12,224,A,35.550820178655314,53.21605016011044,1.777541008932766,0.8359157611803446,A,799.84345799312,Correct
9,12,225,B,79.55336398861361,48.89063484829065,3.977668199430681,0.7679722963436553,B,859.7780829877593,Correct
9,12,226,A,22.05776928245789,54.14317664680332,1.1028884641228944,0.8504790299780587,A,813.8893749564886,Correct
9,12,227,A,22.74002650988759,41.87967477597361,1.1370013254943794,0.6578443930546424,A,625.9398750262335,Correct
9,12,228,B,63.5050295069338,45.87884202209985,3.1752514753466903,0.7206631652591778,B,638.3612499921583,Correct
9,12,229,A,24.63934075118486,56.36214380015641,1.231967037559243,0.8853344845157144,A,946.9424589769915,Correct
9,12,230,B,39.592663082034676,20.086550270708354,1.9796331541017338,0.3155187938320972,B,544.3923340062611,Correct
9,12,231,A,23.785439185463265,54.74502794783858,1.189271959273163,0.8599328881074879,A,617.9690409917384,Correct
9,12,232,B,63.220107085270214,37.6640406597281,3.161005354263511,0.5916253672055454,B,325.6801660172641,Correct
9,12,233,B,63.21868920210182,51.98854375552847,3.160934460105091,0.8166341356659989,B,443.03150003543124,Correct
9,12,234,B,69.68840862221694,48.46374791284382,3.4844204311108466,0.761266772042089,B,763.8907500077039,Correct
9,12,235,A,50.25454535431224,70.71645906828212,2.5127272677156123,1.110811541483992,A,776.2550839688629,Correct
9,12,236,A,59.495937520588285,81.11514929347206,2.9747968760294143,1.2741537855760554,A,738.5327499941923,Correct
9,12,237,A,29.434301543890054,46.637804337465475,1.4717150771945027,0.7325849174306985,A,899.4172500097193,Correct
9,12,238,A,57.5539640034662,74.36966279037236,2.8776982001733096,1.16819593136092,A,457.04304199898615,Correct
9,12,239,B,62.68476633792231,37.82043545485831,3.134238316896116,0.594082010902749,B,390.68987499922514,Correct
9,12,240,B,76.91471891788338,55.653225202592566,3.8457359458941687,0.8741988172252155,B,561.4142499980517,Correct
9,12,241,B,87.66236098900254,63.85953550315755,4.383118049450127,1.0031032379918818,B,386.99704204918817,Correct
9,12,242,B,62.0570769463777,37.920111968675364,3.102853847318885,0.5956477259204646,B,356.34258296340704,Correct
9,12,243,B,62.0435954821025,35.88311739362442,3.102179774105125,0.5636506899585529,B,331.8784589646384,Correct
9,12,244,B,77.64761930013924,46.97829401498458,3.882380965006962,0.7379333167782844,B,335.9717080020346,Correct
9,12,245,A,41.065754210535154,65.5013058877054,2.0532877105267575,1.0288921068867656,A,454.9795410130173,Correct
9,12,246,B,42.68250385215907,30.826197254518718,2.1341251926079536,0.4842167741645293,B,429.91679202532396,Correct
9,12,247,A,63.38275104032108,77.23681476611844,3.169137552016054,1.2132330492795669,A,336.48687502136454,Correct
9,12,248,B,57.34583454668523,32.381190667352634,2.8672917273342615,0.508642553575227,B,385.59366698609665,Correct
9,12,249,B,52.12302583632001,45.45187316677264,2.606151291816001,0.7139563541631399,B,438.5410420363769,Correct
9,12,250,A,37.4095098657842,64.21220884029185,1.87047549328921,1.0086430178171724,A,379.44395799422637,Correct
9,12,251,A,44.454071927344636,75.20731347955551,2.2227035963672317,1.1813537176179811,A,418.63679100060835,Correct
9,12,252,A,63.88039595298915,87.43100502305496,3.1940197976494575,1.373363015382009,A,629.489624989219,Correct
9,12,253,A,47.71282779010879,61.049567838282606,2.3856413895054396,0.9589643691279016,A,592.5263750250451,Correct
9,12,254,A,45.137373123681364,54.03868468358468,2.2568686561840683,0.8488376740580246,A,383.01104202400893,Correct
9,12,255,B,45.80519814684425,19.385277459394768,2.2902599073422123,0.30450322627117204,B,387.4943750561215,Correct
9,12,256,B,67.28607117584741,34.24261987496998,3.36430355879237,0.5378818151943677,B,1239.0817500418052,Correct
9,12,257,A,46.53309227189483,66.53328611348907,2.3266546135947412,1.0451024143666252,A,866.7493750108406,Correct
9,12,258,B,80.42139728631625,52.87961556372181,4.0210698643158125,0.8306310588982047,B,950.3860829863697,Correct
9,12,259,A,43.5981191237823,67.99256048108556,2.1799059561891148,1.0680246425306903,A,526.583666971419,Correct
9,12,260,B,63.78563134887394,41.34551855569919,3.1892815674436967,0.6494538867672254,B,475.95754195936024,Correct
9,12,261,A,43.22912432349671,60.89777983299661,2.1614562161748356,0.9565800887163541,A,435.5465419939719,Correct
9,12,262,B,68.8970365718074,37.661483779457434,3.4448518285903704,0.5915852038241732,B,354.9423750373535,Correct
9,12,263,B,50.05301076336693,42.5891389437123,2.5026505381683464,0.6689886301414075,B,437.3308749636635,Correct
9,12,264,A,13.746076496787985,36.481510910106365,0.6873038248393993,0.5730502333352303,A,408.027250028681,Correct
9,12,265,A,26.332469184707584,37.826767899610445,1.3166234592353792,0.5941814807123119,A,389.18237504549325,Correct
9,12,266,B,67.90151872057638,35.09262161969397,3.395075936028819,0.5512336113781846,B,350.65845894860104,Correct
9,12,267,B,74.24403843512549,49.573687801284464,3.7122019217562747,0.7787016670393461,B,408.8120000087656,Correct
9,12,268,B,51.751983197429524,37.10388075951086,2.587599159871476,0.5828263960687549,B,589.7906660102308,Correct
9,12,269,A,58.31587471474138,83.76140773761955,2.915793735737069,1.3157211160142241,A,369.41275000572205,Correct
9,12,270,A,22.70999423659287,43.42896644165978,1.1354997118296435,0.6821806096305801,A,491.99470900930464,Correct
9,12,271,B,78.58738713567965,53.19280308246766,3.9293693567839822,0.8355505969386445,B,385.9708749805577,Correct
9,12,272,B,63.941128783252374,41.634154067752505,3.1970564391626186,0.6539877627883843,B,360.49691698281094,Correct
9,12,273,A,38.315519235442665,57.14795092268901,1.915775961772133,0.8976779139321492,A,345.65129200927913,Correct
9,12,274,B,84.42441445019581,68.79284951084105,4.22122072250979,1.080595553213832,B,367.07316600950435,Correct
9,12,275,B,73.84063314329092,45.73029390202022,3.692031657164546,0.7183297768454444,B,346.9346250058152,Correct
9,12,276,B,65.51982628540412,49.19969892663713,3.275991314270206,0.7728270635337642,B,379.3806249741465,Correct
9,12,277,B,63.59558344878279,45.85040680104109,3.1797791724391398,0.720216505851271,B,348.33000000799075,Correct
9,12,278,A,44.93020592538906,69.04355840185661,2.246510296269453,1.084533679264853,A,343.4122080216184,Correct
9,12,279,B,57.723092321877644,42.82274029991481,2.886154616093882,0.6726580316639797,B,390.4917920008302,Correct
9,12,280,B,51.6725806584144,28.971866156871698,2.5836290329207197,0.45508900939607433,B,351.09537502285093,Correct
9,12,281,A,53.38116775340721,83.34619953236835,2.669058387670361,1.3091990407775873,A,338.94749998580664,Correct
9,12,282,A,28.355226863531154,45.760776951289174,1.4177613431765577,0.7188086034636559,A,392.01487496029586,Correct
9,12,283,B,74.66222309538206,44.34380729288414,3.733111154769103,0.6965508961176314,B,353.65104099037126,Correct
9,12,284,A,53.470824403785116,64.11424790111766,2.673541220189256,1.0071042509829304,A,349.6152500156313,Correct
9,12,285,A,51.029149516989236,80.63155321475658,2.5514574758494617,1.2665574761350686,A,431.7075420403853,Correct
9,12,286,A,61.53323474450722,72.77383086596599,3.076661737225361,1.1431286621105243,A,409.2529169865884,Correct
9,12,287,A,10.185340038695873,32.90666472837525,0.5092670019347936,0.5168966808240303,A,457.4983339989558,Correct
9,12,288,A,48.04778817432655,63.16246905875837,2.4023894087163273,0.9921537438879394,B,356.3913750112988,Incorrect
9,12,289,A,32.155797638326405,41.39282610547591,1.6077898819163203,0.6501969920214147,A,356.998042028863,Correct
9,12,290,A,59.06904894330721,80.52365769417062,2.9534524471653607,1.2648626572609283,A,524.6863749925978,Correct
9,12,291,B,75.14624509020177,50.21847373852919,3.7573122545100888,0.7888299408572763,B,389.31416696868837,Correct
9,12,292,B,66.86293360481223,45.65847616576901,3.3431466802406113,0.7172016664824229,B,408.7199170025997,Correct
9,12,293,B,61.0336742737939,47.147991289154405,3.0516837136896946,0.7405989153276152,B,413.37216598913074,Correct
9,12,294,A,60.38848342003561,81.29335998113166,3.019424171001781,1.2769531125117686,A,369.41841698717326,Correct
9,12,295,B,50.89647413193226,26.393747088348455,2.544823706596613,0.41459200976731253,B,414.66616600519046,Correct
9,12,296,A,53.459958705799345,74.57603298032215,2.672997935289967,1.1714375867242508,A,358.1793330376968,Correct
9,12,297,B,69.00646378907481,44.89033161771685,3.4503231894537407,0.7051356801371443,B,397.05991599475965,Correct
9,12,298,A,17.99707385298413,43.39149972692891,0.8998536926492064,0.6815920838518169,A,348.118334019091,Correct
9,12,299,B,35.327521111568615,18.66767651114419,1.7663760555784307,0.29323117693500667,B,429.82145899441093,Correct
