subject,day,trial,cat,x,y,xt,yt,resp,rt,fb,resp_key
9,24,0,A,24.331857896539397,51.3057262667667,1.2165928948269698,0.8059084636338157,A,1090.5022910010302,Correct,k
9,24,1,A,32.18746571532337,64.50519880553078,1.6093732857661684,1.013245293429023,A,391.96445800189395,Correct,k
9,24,2,B,68.96689491139591,53.651352620938304,3.4483447455697958,0.8427534762454765,B,524.62199999718,Correct,d
9,24,3,B,56.36895233177046,25.994492629909875,2.818447616588523,0.40832053539959434,B,447.1300830045948,Correct,d
9,24,4,B,32.682692528065544,17.430165664360025,1.6341346264032774,0.2737924020100326,B,441.74987400037935,Correct,d
9,24,5,A,20.79087896791559,37.36676474181711,1.0395439483957793,0.5869557680065536,A,383.37862500338815,Correct,k
9,24,6,B,63.23300147867049,54.85899410628525,3.161650073933524,0.8617230643381575,B,362.32620800001314,Correct,d
9,24,7,B,57.79051295529133,38.42317241847117,2.8895256477645663,0.6035497809874149,B,411.1218739999458,Correct,d
9,24,8,A,43.17871381326547,72.54001179500757,2.1589356906632733,1.1394558407325637,A,381.21195799612906,Correct,k
9,24,9,B,47.802214040273114,38.394949351445376,2.3901107020136556,0.6031064540872649,B,394.10137399681844,Correct,d
9,24,10,B,82.51027301026912,62.02978813081944,4.125513650513455,0.9743616334775685,B,510.30991599691333,Correct,d
9,24,11,B,58.422077418914164,39.946252977099086,2.921103870945708,0.6274742744564694,B,356.89774899947224,Correct,d
9,24,12,A,56.02122334287978,69.02693974187213,2.801061167143989,1.084272633964254,A,408.39087500353344,Correct,k
9,24,13,A,48.36777693046095,75.56551139487466,2.4183888465230474,1.1869802773144702,A,367.5048329969286,Correct,k
9,24,14,A,44.93123272504743,51.795206801871316,2.2465616362523715,0.813597205899615,A,364.26191599457525,Correct,k
9,24,15,B,73.93499677728454,48.38762007355867,3.696749838864227,0.7600709587389296,B,395.3590000019176,Correct,d
9,24,16,A,15.952353703117375,40.319428774237196,0.7976176851558688,0.6333361061704025,A,419.0130409988342,Correct,k
9,24,17,A,49.86750418458294,73.9518810659424,2.4933752092291472,1.161633431379554,A,413.6886659980519,Correct,k
9,24,18,B,74.43818346885975,59.890833418423,3.721909173442987,0.9407630114234389,B,345.6670829982613,Correct,d
9,24,19,B,35.98987749611438,23.27284840051051,1.7994938748057192,0.36556904781576394,B,446.21720800205367,Correct,d
9,24,20,B,51.04009314499605,26.462982771378677,2.5520046572498023,0.41567956133318257,B,363.3551669990993,Correct,d
9,24,21,A,13.584396240582915,34.82815101148327,0.6792198120291458,0.5470793167789588,A,422.7932909998344,Correct,k
9,24,22,B,44.61920481575177,17.104877729150783,2.2309602407875886,0.2686827910722588,B,313.66658300248673,Correct,d
9,24,23,A,50.34558201439992,78.01533669765936,2.517279100719996,1.2254620431835044,A,460.2360829958343,Correct,k
9,24,24,A,39.874081972863095,60.85749125755447,1.993704098643155,0.9559472372531911,A,408.0347920025815,Correct,k
9,24,25,B,66.72343491291757,43.95754035904098,3.3361717456458786,0.6904834293092,B,343.3783329965081,Correct,d
9,24,26,B,64.74402749949006,39.848167702378696,3.237201374974503,0.6259335545640349,B,418.9274580057827,Correct,d
9,24,27,B,57.625580050983935,41.91003292654536,2.8812790025491966,0.6583212577687062,B,334.48458299972117,Correct,d
9,24,28,A,29.56880248462012,46.05908216515539,1.478440124231006,0.7234943708057042,A,382.8551240003435,Correct,k
9,24,29,B,66.37138256500306,50.82286113963579,3.318569128250153,0.7983236359534699,B,342.304707999574,Correct,d
9,24,30,B,73.88115504935419,42.65447916334199,3.69405775246771,0.6700149919112703,B,377.49962499947287,Correct,d
9,24,31,A,38.45889237437041,56.800199237748025,1.9229446187185204,0.8922154432387289,A,633.904624999559,Correct,k
9,24,32,B,87.52896885848558,66.00858790540477,4.376448442924279,1.0368604741872784,B,346.72383299766807,Correct,d
9,24,33,A,16.419771971140385,41.29230334380807,0.8209885985570193,0.6486179841735434,A,358.1839160033269,Correct,k
9,24,34,B,72.31413494135033,54.33941429385357,3.6157067470675166,0.8535615237297127,B,347.32741699554026,Correct,d
9,24,35,A,43.6624577577626,60.771363979119926,2.18312288788813,0.9545943531271727,A,507.18795799912186,Correct,k
9,24,36,A,22.360125635517043,51.41968158895309,1.1180062817758523,0.8076984696489069,A,416.12837499997113,Correct,k
9,24,37,B,45.77910214848247,22.07076408111385,2.288955107424124,0.34668675148170375,B,323.40845800354145,Correct,d
9,24,38,A,47.91813893115691,77.18754999919585,2.3959069465578455,1.2124592001303427,A,350.91937400284223,Correct,k
9,24,39,A,53.270505161055326,66.83948456866075,2.663525258052766,1.0499121684531647,A,396.79495800373843,Correct,k
9,24,40,B,46.163223394852096,28.21867095049045,2.3081611697426045,0.4432578467606425,B,335.06695800315356,Correct,d
9,24,41,B,74.3338828211053,51.81937856274491,3.716694141055265,0.813976895031539,B,461.2925830006134,Correct,d
9,24,42,A,53.622592704572924,69.69133409189611,2.681129635228646,1.0947089160098635,A,545.0226660032058,Correct,k
9,24,43,B,72.97887744708734,45.7473214030327,3.6489438723543675,0.7185972442058932,B,435.6595409990405,Correct,d
9,24,44,B,67.04805255210337,51.113743302730164,3.352402627605169,0.8028928022866577,B,347.20787499827566,Correct,d
9,24,45,A,28.07221813309268,54.48110233069603,1.4036109066546338,0.855787154207942,A,366.96220799785806,Correct,k
9,24,46,A,40.97197713983204,63.538055540599714,2.048598856991602,0.9980534425486416,A,412.5054999967688,Correct,k
9,24,47,B,79.43978152086883,58.25284550257065,3.971989076043442,0.9150335574078861,B,322.6615829989896,Correct,d
9,24,48,B,42.92932989606241,14.802983501165336,2.146466494803121,0.23252472109235967,B,354.8624579998432,Correct,d
9,24,49,B,57.215214225467484,28.190057083201168,2.860760711273374,0.44280838118430854,B,348.4856669965666,Correct,d
9,24,50,A,58.97279979944952,68.63788396414826,2.9486399899724756,1.0781613600985842,A,513.028874003794,Correct,k
9,24,51,B,79.78070918335534,51.131272624320005,3.989035459167767,0.8031681522263031,B,373.5508329991717,Correct,d
9,24,52,B,48.25842033194408,37.23153644936919,2.412921016597204,0.5848316069559942,B,615.7061659978353,Correct,d
9,24,53,B,33.619809131769856,14.401269642775876,1.6809904565884926,0.22621461456055197,B,482.4791240025661,Correct,d
9,24,54,B,60.070108919012036,44.99697493757429,3.003505445950602,0.706810829488237,B,350.3456250036834,Correct,d
9,24,55,A,24.362028093290007,46.04666838089156,1.2181014046645005,0.7232993755384718,A,411.0854169994127,Correct,k
9,24,56,A,10.534635649117241,35.810771013292566,0.526731782455862,0.5625142756737312,A,383.30683299864177,Correct,k
9,24,57,B,34.58873460185681,17.344862907665327,1.7294367300928402,0.2724524694412174,B,431.30762499640696,Correct,d
9,24,58,B,67.73066656479992,45.271328656867354,3.3865333282399956,0.7111203676333178,B,399.41512500081444,Correct,d
9,24,59,B,87.73019517631062,67.31996658679802,4.3865097588155315,1.057459562344975,B,315.81445800111396,Correct,d
9,24,60,B,86.17120811095606,63.136593515177736,4.308560405547803,0.9917472917998367,B,317.3967080001603,Correct,d
9,24,61,B,55.781860558798684,48.95899856795028,2.7890930279399346,0.769046151140929,B,397.88195800065296,Correct,d
9,24,62,B,45.35499544465003,37.31866952505146,2.2677497722325013,0.5862002901082348,B,395.95037500112085,Correct,d
9,24,63,A,28.451350158981782,50.341135272584175,1.422567507949089,0.7907567037286023,A,535.9775830002036,Correct,k
9,24,64,B,64.9480745176515,47.03467745743078,3.247403725882575,0.7388189858211499,B,300.38049900031183,Correct,d
9,24,65,A,54.107406503389704,70.92682245526119,2.705370325169485,1.1141159218395806,A,592.0672079955693,Correct,k
9,24,66,A,41.34989090204696,73.82720107097703,2.0674945451023476,1.1596749625983898,A,398.14929100248264,Correct,k
9,24,67,A,20.546623828600776,32.59711088012628,1.0273311914300387,0.5120342203462832,A,369.6675419996609,Correct,k
9,24,68,A,50.17347213956842,58.87673729701115,2.508673606978421,0.924833626798132,A,376.71899999986636,Correct,k
9,24,69,A,44.70593593514263,62.61990618988358,2.2352967967571313,0.9836311862731013,A,408.5341660029371,Correct,k
9,24,70,B,36.329415936258414,20.924658662684294,1.8164707968129208,0.32868376966781504,B,398.3471669998835,Correct,d
9,24,71,A,18.60960010898499,39.25454162985531,0.9304800054492495,0.6166088980219407,A,445.4213740027626,Correct,k
9,24,72,B,79.06559248095733,67.15262543627472,3.9532796240478665,1.0548309736993386,B,456.8457909990684,Correct,d
9,24,73,A,46.09691039392438,57.798614631733265,2.304845519696219,0.9078985155736038,A,584.4989580000401,Correct,k
9,24,74,B,65.0514884590165,54.84920493138936,3.2525744229508247,0.8615692963384693,B,446.7650410006172,Correct,d
9,24,75,A,53.37135123601884,69.18402885456548,2.6685675618009417,1.0867401839762358,A,452.75304099777713,Correct,k
9,24,76,A,35.55584261513297,62.568941822931315,1.7777921307566484,0.982830639869041,A,429.1837080018013,Correct,k
9,24,77,B,60.464660483014974,42.7340573307431,3.023233024150749,0.6712650028417377,B,863.3861659982358,Correct,d
9,24,78,A,31.286637954329347,49.08618885425321,1.5643318977164673,0.7710440514862152,A,394.2263749995618,Correct,k
9,24,79,A,62.277634947721516,71.9428695355535,3.113881747386076,1.130075952055319,B,319.98625000414904,Incorrect,d
9,24,80,B,60.651813614632026,27.8281478507206,3.032590680731601,0.43712352425417217,B,377.8678739981842,Correct,d
9,24,81,A,41.09099853614771,72.6412108086469,2.0545499268073852,1.141045471121563,A,428.6450829968089,Correct,k
9,24,82,B,65.67777703346442,57.876926466063395,3.283888851673221,0.9091286349907072,A,412.2780409961706,Incorrect,k
9,24,83,A,31.955382299761347,51.61578061526584,1.5977691149880673,0.8107787859511081,A,408.75037500518374,Correct,k
9,24,84,B,62.49536873479334,36.04931406319697,3.124768436739667,0.5662613011394539,B,458.61095799773466,Correct,d
9,24,85,A,58.76833208206434,71.88484545443805,2.938416604103217,1.1291645119205012,A,425.12958299630554,Correct,k
9,24,86,A,43.09301573878266,58.363962293392184,2.154650786939133,0.9167789758765628,A,452.39425000181654,Correct,k
9,24,87,A,35.219313900003996,46.18708113117707,1.7609656950002,0.725504973862308,A,895.9632080004667,Correct,k
9,24,88,A,64.21540167883018,85.62353605474881,3.210770083941509,1.3449713592198982,A,443.37362499936717,Correct,k
9,24,89,A,43.06692085468242,61.00034082591824,2.153346042734121,0.9581911130258913,A,453.1662500012317,Correct,k
9,24,90,B,78.93473573073393,57.31083851713288,3.9467367865366962,0.900236546282478,B,412.56104199419497,Correct,d
9,24,91,A,24.72479569261051,48.02775743416342,1.2362397846305255,0.7544182496178019,A,742.7266240047175,Correct,k
9,24,92,B,46.109883833231216,28.13583343418892,2.3054941916615608,0.44195663809737,B,631.8087079998804,Correct,d
9,24,93,B,74.0965123147179,59.29427278529589,3.7048256157358948,0.9313922589111737,B,554.6136659977492,Correct,d
9,24,94,B,79.90476786149544,65.5661849322515,3.995238393074772,1.0299112245353554,B,361.04708300263155,Correct,d
9,24,95,A,47.00185888925208,76.17466304520423,2.3500929444626038,1.1965488090624574,A,434.3197499983944,Correct,k
9,24,96,A,11.592065185585486,37.142359773494874,0.5796032592792743,0.5834308230070028,A,605.7972909984528,Correct,k
9,24,97,B,64.7829857197412,35.10613648759954,3.23914928598706,0.5514459024268166,B,386.3892920053331,Correct,d
9,24,98,A,51.194209144975034,66.10847436101417,2.5597104572487517,1.0384294869629567,A,726.7911659946549,Correct,k
9,24,99,B,50.08049911536415,42.6112352531366,2.5040249557682075,0.6693357181582017,B,433.62408300163224,Correct,d
9,24,100,A,53.61157054232622,65.6742492217371,2.6805785271163107,1.0316086944251723,A,390.21924899861915,Correct,k
9,24,101,B,76.83150042133721,49.19068693186174,3.8415750210668604,0.7726855034508614,B,518.6522919975687,Correct,d
9,24,102,B,42.1982227718956,34.44254672892588,2.10991113859478,0.5410222588725836,B,503.72141600382747,Correct,d
9,24,103,A,29.428178878902003,58.68533923285182,1.4714089439451001,0.9218271530367607,A,466.9139580000774,Correct,k
9,24,104,A,40.09886032947133,63.555374887547124,2.0049430164735664,0.9983254942143164,A,1945.6407489997218,Correct,k
9,24,105,B,80.16540895431166,49.44350425934742,4.008270447715583,0.7766567487445074,B,882.2979999968084,Correct,d
9,24,106,A,55.76263322193042,78.64632771049867,2.788131661096521,1.23537362683559,A,624.8863330038148,Correct,k
9,24,107,B,65.01138893819633,41.39950062916597,3.2505694469098163,0.6503018351943691,B,744.3002080035512,Correct,d
9,24,108,A,55.682995195012545,70.20725985913133,2.784149759750627,1.1028130590105827,A,1093.0030410017935,Correct,k
9,24,109,B,74.46075236616703,62.91430506155688,3.7230376183083513,0.9882555929354712,A,1349.423832994944,Incorrect,k
9,24,110,B,40.555359584538515,13.263987333019191,2.0277679792269256,0.2083502258136058,B,722.8947499970673,Correct,d
9,24,111,B,42.91087244439118,31.015511546401964,2.145543622219559,0.48719051610752906,B,829.3089990038425,Correct,d
9,24,112,A,50.128145785766066,63.40782469288238,2.5064072892883034,0.9960077811763439,A,546.2080829965998,Correct,k
9,24,113,B,56.50043988530514,30.849070684587502,2.825021994265257,0.48457606916386176,B,1012.6875830028439,Correct,d
9,24,114,A,48.379468602974534,66.80446206399107,2.4189734301487267,1.049362036236262,A,596.0592080009519,Correct,k
9,24,115,A,62.63064779600754,85.51910262006626,3.1315323898003773,1.343330922663959,A,605.0789159999113,Correct,k
9,24,116,A,54.62043959293028,80.86939202393313,2.731021979646514,1.2702934394133067,A,563.2811660034349,Correct,k
9,24,117,A,23.966444059542667,53.301066001768135,1.1983222029771334,0.8372511868982971,A,505.29716599703534,Correct,k
9,24,118,A,49.16110462009874,66.7365587354015,2.458055231004937,1.0482954132450053,A,636.5557499957504,Correct,k
9,24,119,B,56.00392733457775,47.75400977969389,2.8001963667288874,0.7501182315167073,B,663.4651669955929,Correct,d
9,24,120,A,31.390494232636353,58.76313264675927,1.5695247116318176,0.9230491291249072,A,628.989791002823,Correct,k
9,24,121,A,60.940854999958944,72.92668220681838,3.0470427499979476,1.1455296453580905,B,90.76245800679317,Incorrect,d
9,24,122,B,77.54897012380096,60.20816318193879,3.8774485061900474,0.9457476156925717,B,760.1875000036671,Correct,d
9,24,123,B,62.82160801684942,33.16477583579766,3.141080400842471,0.5209510806184712,B,386.3716670020949,Correct,d
9,24,124,B,73.37364919010382,43.50394920527355,3.6686824595051912,0.6833584361271546,B,374.7561250056606,Correct,d
9,24,125,A,48.821831501686965,77.56378181867515,2.4410915750843483,1.2183690357309571,A,400.5029999971157,Correct,k
9,24,126,B,87.50653372546822,61.91551355543933,4.375326686273411,0.9725666126450373,B,657.1078749984736,Correct,d
9,24,127,B,50.74882266229666,29.50708032135497,2.537441133114833,0.46349613383226357,B,394.6699579973938,Correct,d
9,24,128,A,17.42855226701394,32.554629228707014,0.8714276133506971,0.5113669201262275,A,493.0377499986207,Correct,k
9,24,129,A,20.402618023524155,39.77775487987272,1.0201309011762079,0.6248275125345183,A,414.1962080029771,Correct,k
9,24,130,A,67.60733183638371,86.51612069428056,3.380366591819185,1.3589920459511984,A,538.3617910047178,Correct,k
9,24,131,A,27.695562827357683,42.26266798965791,1.3847781413678844,0.663860436387069,A,495.1258740038611,Correct,k
9,24,132,A,33.302922596631454,56.04954403921576,1.6651461298315726,0.8804241789532891,A,417.6143750009942,Correct,k
9,24,133,B,44.5799581463135,30.5450085594235,2.228997907315675,0.4797998724706111,B,372.0835830026772,Correct,d
9,24,134,A,52.65047656027499,71.04249425763615,2.6325238280137495,1.1159328902624241,A,413.7850410043029,Correct,k
9,24,135,B,56.0964347590573,24.13022823894681,2.804821737952865,0.37903673882460137,B,368.21587400481803,Correct,d
9,24,136,B,69.17430419533041,60.18710408511497,3.4587152097665204,0.945416820173207,B,561.3757910032291,Correct,d
9,24,137,B,41.3379201164055,28.143519899516704,2.0668960058202748,0.44207737681239917,B,509.340249998786,Correct,d
9,24,138,B,54.513229990811325,23.88776107540766,2.7256614995405664,0.37522807352604465,B,438.49979100195924,Correct,d
9,24,139,B,50.139239562635325,27.960250331012347,2.5069619781317662,0.43919858516219984,B,437.1841249958379,Correct,d
9,24,140,A,35.38425137766259,52.81139544779457,1.7692125688831297,0.8295594598230843,A,573.4547910033143,Correct,k
9,24,141,A,37.254367189128615,54.095261173070284,1.862718359456431,0.8497263754766938,A,428.7736659971415,Correct,k
9,24,142,A,63.600929947434594,84.50370442586859,3.1800464973717295,1.3273810851271601,A,536.8249580060365,Correct,k
9,24,143,B,38.96561047463034,15.75160348945208,1.948280523731517,0.24742560902361,B,405.81974999804515,Correct,d
9,24,144,A,11.925984578071184,30.907282098219945,0.5962992289035591,0.4854904519109755,A,391.48512500105426,Correct,k
9,24,145,B,48.75455384456777,25.781117352491567,2.4377276922283886,0.4049688443796192,B,428.03683300007833,Correct,d
9,24,146,B,80.25878527584128,51.48119510212091,4.012939263792064,0.8086647216542294,B,509.8490000018501,Correct,d
9,24,147,A,67.12554412540811,82.20204056522013,3.3562772062704056,1.2912266337489284,A,419.86970800644485,Correct,k
9,24,148,B,76.52642217150124,52.28396714925364,3.826321108575062,0.8212746354831266,B,436.81466699490556,Correct,d
9,24,149,A,28.500002569690935,50.38484203639376,1.4250001284845468,0.7914432479690842,A,359.88737500156276,Correct,k
9,24,150,A,31.505131364080032,60.446135526288614,1.5752565682040016,0.9494856765364066,A,388.3764999991399,Correct,k
9,24,151,B,59.312481059694974,29.9560200611555,2.9656240529847486,0.4705480627745729,B,404.5642919954844,Correct,d
9,24,152,A,27.558277657182245,39.89677496485327,1.3779138828591124,0.6266970756575411,A,653.9137910003774,Correct,k
9,24,153,B,52.66362665150286,30.319743228318288,2.633181332575143,0.47626141292406804,B,458.3277080018888,Correct,d
9,24,154,A,21.702450113777445,47.391060994248015,1.0851225056888723,0.7444170453267769,A,395.6927910039667,Correct,k
9,24,155,A,68.0943301782087,88.95937838207391,3.4047165089104343,1.3973706479651904,A,502.87462399865035,Correct,k
9,24,156,A,61.259303978403004,75.50598762512114,3.06296519892015,1.186045280125612,A,410.5404579968308,Correct,k
9,24,157,B,60.553872493562785,48.838364463809064,3.0276936246781396,0.7671512350642169,B,455.74420799675863,Correct,d
9,24,158,A,35.61045236034163,64.96098935225913,1.7805226180170817,1.0204048345949102,A,339.79354099574266,Correct,k
9,24,159,B,47.84735803877719,22.850330636470765,2.3923679019388597,0.3589321542981717,B,420.47237399674486,Correct,d
9,24,160,A,22.404637580391753,33.724546249053546,1.1202318790195875,0.5297439337083792,A,463.7910000019474,Correct,k
9,24,161,A,22.825358798129653,43.879263925023,1.1412679399064827,0.6892538659588994,A,387.86608299415093,Correct,k
9,24,162,B,49.518934119598256,40.53376016542326,2.475946705979913,0.6367028157903216,B,444.93191599758575,Correct,d
9,24,163,A,42.91185261217847,72.74697725166907,2.1455926306089235,1.1427068465235366,A,358.5730409977259,Correct,k
9,24,164,B,78.78242182339335,66.5145915382819,3.9391210911696675,1.0448087606659613,B,429.65704100060975,Correct,d
9,24,165,B,53.66452500521105,32.60976894600611,2.683226250260552,0.512233052780167,B,417.72929100261535,Correct,d
9,24,166,A,11.374551348770012,37.137175131895745,0.5687275674385006,0.5833493828472062,A,750.1322500029346,Correct,k
9,24,167,A,25.27035200837881,38.929421584040256,1.2635176004189406,0.6115019242846039,A,516.5640000050189,Correct,k
9,24,168,B,41.17187363409583,22.643002532692602,2.058593681704792,0.35567545205961076,B,699.4492079975316,Correct,d
9,24,169,B,61.462320940685224,37.4360267604671,3.073116047034261,0.5880437332513716,B,671.1566660014796,Correct,d
9,24,170,A,15.293175980676637,35.42004573515962,0.7646587990338318,0.5563767773569597,A,352.80112399777863,Correct,k
9,24,171,B,59.034067735878,33.25506295511349,2.9517033867939,0.5223693073722531,B,478.88275000150315,Correct,d
9,24,172,A,61.809197588581924,88.15223386118141,3.0904598794290963,1.3846920514790846,A,763.1859160028398,Correct,k
9,24,173,A,41.1322970545432,49.180406621365535,2.0566148527271597,0.7725240207112039,A,599.0420410016668,Correct,k
9,24,174,B,55.559290537466595,26.83370365182141,2.7779645268733297,0.42150283130583877,B,933.8034169995808,Correct,d
9,24,175,A,26.165541136884112,55.365304141941145,1.3082770568442055,0.8696761637804341,A,613.7549159975606,Correct,k
9,24,176,A,61.511595868585,71.03617413906152,3.0755797934292497,1.1158336140720044,A,491.8772910023108,Correct,k
9,24,177,A,57.772645875866814,86.3358496461444,2.888632293793341,1.3561603549488008,A,746.650540997507,Correct,k
9,24,178,A,15.017531220657688,36.08558330198811,0.7508765610328844,0.5668310170101418,A,978.9859579977929,Correct,k
9,24,179,A,51.91219303199631,64.60272561286533,2.5956096515998155,1.0147772409362745,A,597.2532500018133,Correct,k
9,24,180,B,79.5468975870869,56.744247356929314,3.9773448793543453,0.8913365531500558,B,828.2035410011304,Correct,d
9,24,181,B,39.3055685674118,29.989473162265146,1.9652784283705897,0.4710735428580023,B,1113.2019579963526,Correct,d
9,24,182,B,66.16309417533147,48.85503861530826,3.3081547087665735,0.7674131520234904,B,797.6993740012404,Correct,d
9,24,183,A,40.427260651845664,47.84926334992964,2.021363032592283,0.7516144710991115,A,618.9038330048788,Correct,k
9,24,184,B,46.32439706797273,24.2977007831501,2.316219853398637,0.3816673913973366,B,584.2715830003726,Correct,d
9,24,185,A,32.42343127102844,54.151170331300406,1.6211715635514221,0.8506045944805145,A,500.985207996564,Correct,k
9,24,186,B,46.658152557397,24.63005567064466,2.33290762786985,0.38688800976202437,B,413.6009159992682,Correct,d
9,24,187,B,80.23253576500284,62.52019987390178,4.011626788250141,0.9820650031240767,B,492.4775000035879,Correct,d
9,24,188,B,54.34698875308309,38.02895668254478,2.7173494376541543,0.5973574546878357,B,417.115415999433,Correct,d
9,24,189,A,42.45866433027498,55.19419865046059,2.122933216513749,0.8669884450053134,A,725.8017079948331,Correct,k
9,24,190,A,57.775025729507256,68.35874536514696,2.8887512864753626,1.073776661238805,A,787.9083329971763,Correct,k
9,24,191,A,46.740759564723646,61.671049847146435,2.3370379782361823,0.9687265856948258,A,447.55504099885,Correct,k
9,24,192,A,18.126432112470532,40.080926492083194,0.9063216056235265,0.6295897210830054,A,456.53295800002525,Correct,k
9,24,193,B,42.12225906940402,19.463204956223166,2.1061129534702014,0.3057273085289157,B,670.2162079964182,Correct,d
9,24,194,A,19.82962066773124,38.05439428570412,0.991481033386562,0.5977570276238874,A,877.7952079981333,Correct,k
9,24,195,A,35.23229584597374,67.03531876892528,1.761614792298687,1.0529883248775282,A,426.22812499757856,Correct,k
9,24,196,B,57.60343589227024,25.42219019435277,2.8801717946135117,0.39933082976370565,B,467.01545800169697,Correct,d
9,24,197,B,68.13240116222603,55.08167882976729,3.4066200581113013,0.8652209877949468,B,543.0393329952494,Correct,d
9,24,198,A,45.25437197507342,60.15098173552345,2.2627185987536707,0.9448494116326716,A,633.4912909951527,Correct,k
9,24,199,B,62.09610901013281,29.010657053058637,3.1048054505066403,0.4556983353685096,B,1076.0659580046195,Correct,d
9,24,200,B,42.47354516899159,21.587139693293235,2.1236772584495798,0.33908999736233325,B,390.8002500029397,Correct,d
9,24,201,B,79.07140082131352,51.63176467893456,3.953570041065676,0.811029863036089,B,397.78020799712976,Correct,d
9,24,202,A,12.202513090355332,33.79788118706868,0.6101256545177666,0.5308958762209782,A,413.36041600152384,Correct,k
9,24,203,B,53.98166103098388,24.65209222724074,2.6990830515491937,0.3872341591835878,B,324.7271660002298,Correct,d
9,24,204,A,17.954882628304006,36.25349526337571,0.8977441314152003,0.5694685719318675,A,347.46391600492643,Correct,k
9,24,205,B,84.1435825915442,56.497064120709496,4.20717912957721,0.8874538079550622,B,404.09687499777647,Correct,d
9,24,206,A,28.443918810124465,60.932789289934895,1.4221959405062234,0.9571300159799715,A,333.4582910028985,Correct,k
9,24,207,B,30.723780525729435,13.312740808728421,1.5361890262864717,0.20911604361923125,B,789.8769579987857,Correct,d
9,24,208,B,55.70140171713666,30.41719528037509,2.785070085856833,0.47779218617816255,B,1555.2967080002418,Correct,d
9,24,209,B,58.10257465029764,34.53714552874594,2.905128732514882,0.542508213345349,B,385.7761660037795,Correct,d
9,24,210,B,39.97415476457137,20.421096414637905,1.9987077382285685,0.32077383237237655,B,393.7844160027453,Correct,d
9,24,211,B,37.55372187841898,15.995259177331203,1.877686093920949,0.2512529436188421,B,412.40712400031043,Correct,d
9,24,212,B,74.55804752003104,50.24838369705991,3.727902376001552,0.7892997653872226,B,382.48475000000326,Correct,d
9,24,213,B,34.894120675447866,11.175478729716438,1.7447060337723934,0.17554400938813078,B,375.61024900060147,Correct,d
9,24,214,B,35.00235471909993,23.28221679957863,1.7501177359549962,0.3657162062842055,B,426.93004199827556,Correct,d
9,24,215,B,74.70062792226697,47.45379466667699,3.7350313961133486,0.7454024635489548,B,316.969915998925,Correct,d
9,24,216,B,68.47940308669274,56.64341471833826,3.4239701543346373,0.8897526777668573,B,326.2527500046417,Correct,d
9,24,217,A,27.642172661094605,54.87543065548001,1.3821086330547303,0.8619812490491605,A,419.6105830051238,Correct,k
9,24,218,A,40.978622762030476,54.064727536072844,2.048931138101524,0.8492467542283011,A,504.42370800010394,Correct,k
9,24,219,A,33.50522627657976,59.69298329650724,1.6752613138289882,0.9376551889758269,A,1356.0894990005181,Correct,k
9,24,220,B,70.15273076491988,58.294029711312255,3.5076365382459938,0.9156804774460185,B,2212.877165999089,Correct,d
9,24,221,B,37.09082466506422,24.55868359366959,1.854541233253211,0.3857668997985428,B,1174.9395000006189,Correct,d
9,24,222,A,61.204453996610894,76.90948577529667,3.0602226998305446,1.2080913775152036,A,575.2413740046904,Correct,k
9,24,223,B,70.1354065936268,42.069760138017244,3.5067703296813395,0.6608302469393984,B,316.7249170001014,Correct,d
9,24,224,B,68.53278204195831,49.516323699997585,3.4266391020979152,0.7778005938434328,B,446.6144580001128,Correct,d
9,24,225,B,53.996379573529445,33.13516170946389,2.699818978676472,0.5204859030098078,B,445.818958003656,Correct,d
9,24,226,B,51.042294735517615,26.819555366172963,2.5521147367758807,0.42128059055456846,B,399.3997910001781,Correct,d
9,24,227,B,61.79596122831811,46.418834138138116,3.0897980614159057,0.7291453415828891,B,425.5694579987903,Correct,d
9,24,228,A,19.871816998880117,41.76113064632965,0.9935908499440059,0.655982306220564,A,365.9763739997288,Correct,k
9,24,229,A,59.46126707459345,80.82359411098841,2.973063353729673,1.269574047479022,A,504.3481239990797,Correct,k
9,24,230,B,64.9292412583184,52.72890744979124,3.2464620629159198,0.8282637413804013,B,442.5647489988478,Correct,d
9,24,231,B,33.85064425322636,10.999267909863274,1.6925322126613183,0.17277609630246213,B,475.84333299892023,Correct,d
9,24,232,A,18.341658447878366,45.810792179996106,0.9170829223939182,0.7195942408390225,A,515.6439999991562,Correct,k
9,24,233,A,38.946801857718256,47.20327812073748,1.9473400928859126,0.7414673588473234,A,383.8525000028312,Correct,k
9,24,234,B,77.46113488578358,52.19675399230974,3.873056744289179,0.8199046944173699,B,2393.2354999997187,Correct,d
9,24,235,A,41.878367059989145,71.51677192250907,2.0939183529994576,1.1233828264010564,A,457.92241600429406,Correct,k
9,24,236,A,38.06943862457917,59.585872561856284,1.9034719312289585,0.9359726974903266,A,343.3272079928429,Correct,k
9,24,237,B,40.032734165555226,20.432511861479263,2.0016367082777613,0.3209531457920478,B,321.59545800095657,Correct,d
9,24,238,A,45.57168214986466,72.02452749352011,2.278584107493233,1.1313586322595943,A,370.20191599731334,Correct,k
9,24,239,A,15.950072188974584,34.50553552234478,0.7975036094487292,0.5420116845259,A,387.51720800064504,Correct,k
9,24,240,B,87.80727848635978,67.39577632753384,4.390363924317989,1.058650378967806,B,312.91845799569273,Correct,d
9,24,241,B,36.81866958420791,12.97356479952554,1.8409334792103953,0.20378827932530286,B,494.665582999005,Correct,d
9,24,242,B,71.81475131887146,54.06449927879691,3.5907375659435727,0.8492431687713953,B,470.25041599408723,Correct,d
9,24,243,B,66.34253034638593,36.959359249244365,3.3171265173192968,0.5805562574940604,B,359.43412499909755,Correct,d
9,24,244,B,62.142696903321365,35.78649290663697,3.1071348451660685,0.5621329160661698,B,360.495583001466,Correct,d
9,24,245,B,65.48082873154812,55.79326105142898,3.2740414365774058,0.8763984951949341,B,481.3589170007617,Correct,d
9,24,246,A,50.23955276824856,72.71320475892463,2.5119776384124277,1.14217634944804,A,810.9238329998334,Correct,k
9,24,247,B,66.01902242975095,50.432891099285605,3.3009511214875475,0.7921980008840486,B,379.8877500012168,Correct,d
9,24,248,A,42.42807498156668,67.53738506765589,2.121403749078334,1.0608747638560638,A,473.21987499890383,Correct,k
9,24,249,A,14.836787820011878,41.260690408217854,0.7418393910005939,0.6481214093425003,A,414.1443749977043,Correct,k
9,24,250,B,46.115671082420235,27.780791041541804,2.305783554121012,0.4363796452351043,B,385.7417910039658,Correct,d
9,24,251,A,43.18459949872994,61.05362874063042,2.1592299749364967,0.959028157632816,A,393.3811250026338,Correct,k
9,24,252,B,83.36048877375745,57.187138589065,4.168024438687873,0.89829347235614,B,1101.45699900022,Correct,d
9,24,253,A,48.50191719009932,74.79527151971463,2.425095859504966,1.174881377647947,A,380.8217080004397,Correct,k
9,24,254,A,33.687596536663875,63.76856428947521,1.6843798268331938,1.0016742655089188,A,498.5935829972732,Correct,k
9,24,255,A,37.096947448968315,69.34879126764068,1.8548473724484156,1.0893282659087598,A,371.16920800326625,Correct,k
9,24,256,B,33.58591485085083,11.009060336353002,1.6792957425425414,0.17292991537806682,B,473.6946249977336,Correct,d
9,24,257,B,78.34419380967424,55.946470300260124,3.917209690483712,0.8788051004478837,B,444.4726669971715,Correct,d
9,24,258,A,27.457522068408526,57.82949014022885,1.3728761034204262,0.9083835069269317,A,654.3704169962439,Correct,k
9,24,259,A,31.395558739590967,40.193279927210966,1.5697779369795484,0.6313545647150204,A,379.0997079995577,Correct,k
9,24,260,A,40.79229527139972,61.604132310620834,2.039614763569986,0.9676754474891,A,366.41408300056355,Correct,k
9,24,261,A,45.7863724867724,64.51493433954398,2.28931862433862,1.0133982188396962,A,389.7430830038502,Correct,k
9,24,262,B,79.76822915352653,61.62024007756922,3.9884114576763268,0.967928467700654,B,357.21333300170954,Correct,d
9,24,263,A,38.273760190291924,68.74505146366023,1.913688009514596,1.0798447432444362,A,969.6173739939695,Correct,k
9,24,264,A,45.427781370194026,58.3428831536224,2.271389068509701,0.9164478655233391,A,587.6037080015521,Correct,k
9,24,265,A,13.785245430059575,35.474771448658686,0.6892622715029788,0.5572364068544153,A,439.6489159989869,Correct,k
9,24,266,B,66.21975216245936,33.48296891543409,3.310987608122968,0.5259492458255157,B,679.6087080001598,Correct,d
9,24,267,A,55.17807277884032,81.03162155745335,2.758903638942016,1.2728417349668186,A,702.9579170048237,Correct,k
9,24,268,A,47.794468659411855,73.99049027351047,2.3897234329705928,1.162239903393838,A,408.00566600228194,Correct,k
9,24,269,A,47.79727676768769,75.22682677841637,2.3898638383843847,1.181660231799724,A,399.5251250016736,Correct,k
9,24,270,B,80.58165379041489,53.64994874056357,4.029082689520744,0.8427314241441173,B,369.93083299603313,Correct,d
9,24,271,A,32.39456990668795,45.444806370877885,1.6197284953343973,0.713845349192803,A,656.4847490008106,Correct,k
9,24,272,B,42.31745812000386,33.30157901609872,2.115872906000193,0.5230999799495787,B,1018.821833000402,Correct,d
9,24,273,A,37.276862285095454,58.205529904757604,1.863843114254773,0.9142903257354374,A,575.9987080018618,Correct,k
9,24,274,A,33.16899583176845,60.490699905539664,1.6584497915884224,0.950185692168741,A,473.9589579985477,Correct,k
9,24,275,A,36.63630107518236,67.02146539418433,1.831815053759118,1.05277071657596,A,386.6564989948529,Correct,k
9,24,276,B,84.52920946567109,63.72041477822561,4.226460473283555,1.0009179347548403,B,420.69333299878053,Correct,d
9,24,277,B,64.39997869123748,34.31518163293826,3.219998934561874,0.5390216126231913,B,492.83099999593105,Correct,d
9,24,278,B,45.7812987890546,16.781621831243395,2.28906493945273,0.2636050993017817,A,411.8638329964597,Incorrect,k
9,24,279,B,33.87358498986817,10.79771709504708,1.6936792494934085,0.16961014350670414,B,535.5675829996471,Correct,d
9,24,280,A,50.944708627597485,74.2216814478019,2.547235431379874,1.1658714458674815,A,584.5564999981434,Correct,k
9,24,281,B,44.08543109295706,28.13923233924609,2.204271554647853,0.44201002797315925,B,513.7698329999694,Correct,d
9,24,282,A,20.755299290007578,48.718190390637844,1.0377649645003788,0.7652635451370836,A,414.8747910003294,Correct,k
9,24,283,B,65.05192380749018,55.357979778705115,3.2525961903745095,0.8695611129517615,B,626.69737500255,Correct,d
9,24,284,B,59.58488736682579,50.75719060176009,2.9792443683412895,0.7972920855567319,B,1038.1112909963122,Correct,d
9,24,285,B,53.65923000809454,26.30391108025811,2.682961500404727,0.41318086905209017,B,459.5928329945309,Correct,d
9,24,286,A,38.410211604040946,61.92069969278159,1.9205105802020472,0.9726480762999118,A,650.8480830016197,Correct,k
9,24,287,B,68.78383790475189,53.37232311846473,3.4391918952375944,0.8383704910699473,B,502.2956660031923,Correct,d
9,24,288,A,19.085510784119055,40.39580500410787,0.9542755392059528,0.6345358211837555,A,490.768042000127,Correct,k
9,24,289,A,48.85221601792655,74.60353608454186,2.442610800896327,1.1718696044750887,A,448.0771669987007,Correct,k
9,24,290,B,64.66428593939817,42.814178314390354,3.2332142969699085,0.6725235403098608,B,463.83987499575596,Correct,d
9,24,291,A,52.93187973979231,78.57143363492912,2.646593986989615,1.2341971934475566,A,522.5194160011597,Correct,k
9,24,292,B,61.76654874595026,34.17587721673221,3.0883274372975134,0.5368334239703635,B,431.46641600469593,Correct,d
9,24,293,A,32.83089033527929,49.19415552085816,1.6415445167639646,0.7727399879194088,A,378.4485830037738,Correct,k
9,24,294,A,66.64488575706189,89.47214699696164,3.3322442878530945,1.405425198532804,B,398.79724999627797,Incorrect,d
9,24,295,B,61.93940170792823,39.52172509375234,3.0969700853964115,0.6208058060586386,A,465.56404199509416,Incorrect,k
9,24,296,A,50.030067995775894,77.93178987767706,2.5015033997887945,1.2241496928040683,A,361.4659160011797,Correct,k
9,24,297,A,56.88168839076754,68.29255808099738,2.8440844195383774,1.0727369938105782,A,463.59945799486013,Correct,k
9,24,298,B,89.10883302874714,66.57775818798231,4.455441651437357,1.0458009800792147,B,842.9990000004182,Correct,d
9,24,299,B,63.44239115523093,44.478477681820834,3.172119557761546,0.6986662936403295,B,1091.3068749941885,Correct,d
9,24,300,B,47.159425035838034,39.117961753618545,2.3579712517919016,0.6144635063428727,B,2602.046167005028,Correct,d
9,24,301,B,74.37270602984783,51.0617352024968,3.718635301492392,0.8020758609585562,B,951.2538330018288,Correct,d
9,24,302,A,43.34156228386812,57.05118718555616,2.167078114193406,0.8961579527035969,A,5054.363040995668,Correct,k
9,24,303,A,37.56370178284349,60.6701961128724,1.8781850891421743,0.9530052120002597,A,404.73629100597464,Correct,k
9,24,304,B,58.43677618509418,49.04522450437018,2.921838809254709,0.7704005849829573,A,1088.033332998748,Incorrect,k
9,24,305,B,75.57631153789939,64.90316456122662,3.7788155768949694,1.019496524901395,B,594.0648329997202,Correct,d
9,24,306,B,48.319886745490614,31.094459335087606,2.4159943372745305,0.4884306250722889,B,445.1786670033471,Correct,d
9,24,307,B,61.02114289420007,31.48419316905156,3.051057144710003,0.49455254982047164,B,429.85995799972443,Correct,d
9,24,308,A,53.83078179017093,62.11231101542283,2.6915390895085465,0.9756578999176838,A,362.2572910026065,Correct,k
9,24,309,A,53.988117549705926,66.60759653296911,2.6994058774852965,1.0462696797062436,A,424.70341700391145,Correct,k
9,24,310,B,52.04518016054084,37.82713466041657,2.602259008027042,0.5941872417775826,B,485.3423329986981,Correct,d
9,24,311,A,46.99400783363882,69.67021651689856,2.349700391681941,1.094377201917494,A,444.18329099426046,Correct,k
9,24,312,A,36.593905498642336,48.33424559192358,1.8296952749321167,0.75923255434196,A,454.70695800031535,Correct,k
9,24,313,B,52.626548973269614,44.122647996019886,2.6313274486634803,0.6930769340061224,A,675.5898330011405,Incorrect,k
9,24,314,B,46.88981164562105,21.49231906015174,2.3444905822810527,0.33760055833990293,B,514.5396669977345,Correct,d
9,24,315,A,34.71598078325532,62.75337466654923,1.7357990391627658,0.9857277042019945,A,307.6841240035719,Correct,k
9,24,316,B,62.10560902985234,51.44356531924893,3.1052804514926167,0.8080736344070955,B,432.9407499972149,Correct,d
9,24,317,B,49.14756992364252,21.99009299094182,2.457378496182126,0.34541957296049614,B,719.8688749995199,Correct,d
9,24,318,A,43.341542040164455,66.98693505552853,2.1670771020082227,1.0522283152847252,A,484.8002910002833,Correct,k
9,24,319,A,38.0273750876372,50.53668599080252,1.9013687543818603,0.7938284072273971,A,403.42404099646956,Correct,k
9,24,320,B,64.18003115180727,51.876898173874814,3.2090015575903634,0.8148804109703545,B,461.25987399864243,Correct,d
9,24,321,A,27.0273393720135,49.701493055230955,1.351366968600675,0.7807092272737886,A,381.3689169983263,Correct,k
9,24,322,B,85.44993750748453,67.56321346344795,4.272496875374227,1.0612804753484355,B,435.59383299725596,Correct,d
9,24,323,A,42.013272800178754,56.43246412959907,2.100663640008938,0.8864390736675897,A,394.40120800281875,Correct,k
9,24,324,B,84.51187527519366,61.8825545262322,4.225593763759683,0.9720488934249044,B,486.6777909992379,Correct,d
9,24,325,B,52.2808475913571,42.564160631533476,2.614042379567855,0.6685962717312072,B,1210.3025410033297,Correct,d
9,24,326,B,47.487440978543944,35.98745444032238,2.374372048927197,0.5652896124555709,B,401.7025410066708,Correct,d
9,24,327,B,50.87442709149643,19.44187250764093,2.5437213545748216,0.3053922192101705,B,426.71570800303016,Correct,d
9,24,328,A,59.917786580717475,82.67805522288324,2.9958893290358737,1.2987038545065062,A,402.14533299877075,Correct,k
9,24,329,A,29.283118447146524,45.60824777850256,1.4641559223573262,0.7164126808202332,A,391.9689579997794,Correct,k
9,24,330,B,61.52912139705082,33.32218063814126,3.0764560698525414,0.5234235894718832,B,729.95391600125,Correct,d
9,24,331,B,45.82703409421369,34.032285105088214,2.291351704710684,0.5345778843550923,B,631.9462499959627,Correct,d
9,24,332,A,38.72174961500804,70.27263005701188,1.9360874807504018,1.1038398916777092,A,329.6534580003936,Correct,k
9,24,333,A,27.821016988815426,40.62466343417209,1.3910508494407714,0.6381307209967648,A,405.97254099702695,Correct,k
9,24,334,A,35.064847129078636,46.8109450702315,1.7532423564539317,0.7353046057011731,A,444.66854100028286,Correct,k
9,24,335,A,44.73656635047215,60.25491867505855,2.2368283175236074,0.9464820492610717,A,431.6393330009305,Correct,k
9,24,336,A,61.12501447853309,77.60617311539652,3.0562507239266545,1.2190349166627368,A,414.15683300147066,Correct,k
9,24,337,A,42.731915833517554,61.236299736610476,2.1365957916758775,0.9618975469277902,A,374.0577079952345,Correct,k
9,24,338,B,43.63330514727414,29.495357258590474,2.181665257363707,0.46331198839297105,B,438.918248997652,Correct,d
9,24,339,A,53.00562221367386,80.37662924970388,2.650281110683693,1.262553139855901,A,397.57958299742313,Correct,k
9,24,340,A,49.12360686674697,65.81645993726575,2.4561803433373486,1.033842535121005,A,696.2616250020801,Correct,k
9,24,341,B,51.47499625909463,32.23204932477592,2.573749812954732,0.5062998468442994,B,358.2312500002445,Correct,d
9,24,342,B,71.07917771563399,60.693479617589226,3.5539588857816993,0.9533709484371008,B,613.384208001662,Correct,d
9,24,343,A,36.569171323423696,59.00595123672979,1.8284585661711847,0.9268633146169394,A,381.2737490006839,Correct,k
9,24,344,A,68.17758718460273,84.02634846123593,3.408879359230136,1.3198827951689742,A,461.7995000007795,Correct,k
9,24,345,A,38.90537164136209,67.48351211471378,1.9452685820681044,1.060028529490113,A,478.0697919995873,Correct,k
9,24,346,A,33.40109610862571,52.261999342600035,1.6700548054312856,0.8209295659831344,A,493.41370799811557,Correct,k
9,24,347,B,63.5295897431884,49.80845581834623,3.17647948715942,0.7823893944278416,B,472.14395799528575,Correct,d
9,24,348,A,17.263281912314145,39.97344095958683,0.8631640956157072,0.6279013422867166,A,401.53770799952326,Correct,k
9,24,349,B,52.90181952524447,34.34853511411111,2.6450909762622232,0.5395455278803125,B,475.82704199885484,Correct,d
9,24,350,A,13.990857453782844,37.285046785276705,0.6995428726891422,0.5856721453468852,A,492.1478329997626,Correct,k
9,24,351,B,38.75956271888039,25.737007380255776,1.9379781359440194,0.4042759665559892,B,424.4515410027816,Correct,d
9,24,352,A,64.84097428450869,87.24441452447519,3.2420487142254344,1.3704320586841694,A,506.64741600485286,Correct,k
9,24,353,A,50.965361103164994,78.46023315232867,2.5482680551582497,1.2324504603514903,A,361.9667910024873,Correct,k
9,24,354,B,81.89028619644743,52.88839601094071,4.0945143098223715,0.8307689818405952,B,439.34895799611695,Correct,d
9,24,355,B,69.12908476246356,37.681986445573116,3.456454238123178,0.5919072589504133,B,523.9749579995987,Correct,d
9,24,356,A,31.444087444543758,63.56679029221815,1.572204372227188,0.9985048069715776,A,384.20291600050405,Correct,k
9,24,357,B,61.39999661544719,41.08373470586427,3.06999983077236,0.645341795669876,B,417.8012080010376,Correct,d
9,24,358,B,70.9903272030754,45.20944213776343,3.5495163601537696,0.7101482564644521,B,516.1946240041289,Correct,d
9,24,359,B,62.66407137038832,44.3087540490648,3.133203568519416,0.696000281051295,B,400.1791660048184,Correct,d
9,24,360,A,62.07083204019703,87.89396232566224,3.1035416020098516,1.3806351316859928,A,430.1331660026335,Correct,k
9,24,361,B,54.79371913984123,37.047952553852745,2.7396859569920617,0.581947877868635,B,441.2944579962641,Correct,d
9,24,362,B,44.29714567512479,24.530305970772233,2.2148572837562397,0.3853211451404394,B,479.75791600038065,Correct,d
9,24,363,B,42.12148445697683,27.111662872495728,2.106074222848841,0.4258690045341787,B,424.1800419986248,Correct,d
9,24,364,B,67.38261790322188,50.18441889517289,3.3691308951610943,0.7882950086287399,B,484.6670830011135,Correct,d
9,24,365,B,85.08469540910869,60.44894159334336,4.254234770455435,0.9495297541346299,B,457.7974159983569,Correct,d
9,24,366,B,77.66743072044451,62.42380085693749,3.8833715360222256,0.9805507709065351,B,406.7176659955294,Correct,d
9,24,367,A,51.575140338508675,74.53605201347933,2.578757016925434,1.170809567165667,A,413.9984990033554,Correct,k
9,24,368,B,56.47740531205167,47.322359216104985,2.823870265602584,0.7433378803192634,B,568.8784579979256,Correct,d
9,24,369,B,37.30211150948426,22.639460829523006,1.8651055754742132,0.35561981911631685,B,739.6048750015325,Correct,d
9,24,370,A,68.25617358258845,85.71992409722705,3.412808679129422,1.3464854190506157,A,871.6922500025248,Correct,k
9,24,371,A,19.567150022884938,34.106296912591475,0.9783575011442468,0.5357404591087481,A,1332.173499999044,Correct,k
9,24,372,A,51.650979074832364,66.81546394408998,2.582548953741618,1.049534853364734,A,1248.350500005472,Correct,k
9,24,373,B,35.96643506443925,11.65372544496519,1.7983217532219626,0.18305629122427544,B,454.17133300361456,Correct,d
9,24,374,B,72.37517267070743,53.74216197098222,3.618758633535372,0.8441799061803525,B,1121.3142920023529,Correct,d
9,24,375,B,77.90116358172634,62.16422105996472,3.895058179086317,0.9764733009905854,B,401.3374999994994,Correct,d
9,24,376,B,89.44079117767959,65.48886334474234,4.472039558883979,1.0286966598789422,B,709.2124580012751,Correct,d
9,24,377,B,88.1463936236664,61.77044201764972,4.407319681183321,0.9702878342582131,B,607.6530829959665,Correct,d
9,24,378,B,44.08435717221342,33.72121872174622,2.2042178586106713,0.5296916650316625,A,350.82195800350746,Incorrect,k
9,24,379,A,27.01969096142148,48.19796865928698,1.350984548071074,0.7570919212898353,A,5191.855666002084,Correct,k
9,24,380,B,41.366128384699365,27.963213845796734,2.0683064192349683,0.43924513594357706,B,919.9804580057389,Correct,d
9,24,381,A,21.09320951482546,46.44276825515884,1.054660475741273,0.7295212978139012,A,427.13370799901895,Correct,k
9,24,382,A,34.40980999716693,47.209964972603494,1.7204904998583463,0.741572395670813,A,491.37208300089696,Correct,k
9,24,383,B,45.85377435474745,38.65770328601419,2.2926887177373727,0.6072337832399809,B,526.1104989986052,Correct,d
9,24,384,B,71.18951773009664,39.13454370048153,3.559475886504832,0.6147239749551074,B,382.2887919959612,Correct,d
9,24,385,B,45.3016990636588,18.992076129141225,2.2650849531829405,0.29832683421864076,B,401.6383739945013,Correct,d
9,24,386,B,72.78596923136477,61.81893534857157,3.639298461568239,0.971049565719074,B,412.1842490058043,Correct,d
9,24,387,B,64.1354600579009,45.422800356042025,3.206773002895045,0.7134996795200874,B,423.4057079956983,Correct,d
9,24,388,B,76.67804257834163,57.627827173642316,3.833902128917082,0.9052157924552847,B,589.8651660027099,Correct,d
9,24,389,B,45.443701810587925,31.076204808575476,2.2721850905293963,0.48814388364036254,B,416.67887500079814,Correct,d
9,24,390,B,42.01763763230478,21.70266190948565,2.1008818816152393,0.34090461609091577,B,449.60762499977136,Correct,d
9,24,391,A,23.16802800514367,45.546746619921464,1.1584014002571834,0.7154466228803051,B,461.80454100249335,Incorrect,d
9,24,392,A,54.49949534258515,79.62608526610722,2.7249747671292575,1.2507636225305847,A,552.2690419966239,Correct,k
9,24,393,A,40.167700289286216,49.19068307375035,2.0083850144643107,0.7726854428477894,A,1326.7395419970853,Correct,k
9,24,394,A,14.828226369304605,41.13948479384929,0.7414113184652302,0.6462175160041297,A,537.7093330025673,Correct,k
9,24,395,B,70.44763010582618,41.037793066993096,3.522381505291309,0.6446201460940183,B,544.273040999542,Correct,d
9,24,396,B,42.67720496508534,14.404310791002395,2.133860248254267,0.22626238480518654,B,508.84929099993315,Correct,d
9,24,397,A,63.08581055719925,75.8982354259304,3.1542905278599624,1.1922066941726577,A,590.9937079995871,Correct,k
9,24,398,A,54.45683967613686,76.505770742002,2.722841983806843,1.201749836601492,A,450.40812400111463,Correct,k
9,24,399,B,42.43322832646285,25.573352017395056,2.1216614163231426,0.40170527412757007,B,481.0177909967024,Correct,d
9,24,400,B,73.245747397917,55.08563613982106,3.66228736989585,0.8652831490759114,B,569.4465830019908,Correct,d
9,24,401,B,68.6952724404126,38.965068391917875,3.43476362202063,0.6120618630333652,B,437.23758299893234,Correct,d
9,24,402,A,42.99737302576342,74.46136551304207,2.149868651288171,1.1696363943601866,A,727.8357499963022,Correct,k
9,24,403,A,48.50526493039795,71.70574809396037,2.4252632465198976,1.126351257160731,A,444.42399900435703,Correct,k
9,24,404,A,23.575227118606108,55.74717302383387,1.1787613559303054,0.8756745461503777,A,369.66349999420345,Correct,k
9,24,405,B,68.88515351852055,45.76960302982014,3.4442576759260275,0.7189472431810203,B,369.49595799524104,Correct,d
9,24,406,A,22.653722018353974,47.356843646099605,1.1326861009176987,0.743879560478935,A,407.7596249990165,Correct,k
9,24,407,A,42.51643080811669,71.58318933560908,2.1258215404058345,1.1244261086863836,A,386.4604580012383,Correct,k
9,24,408,B,73.5195935666144,54.40896460669431,3.67597967833072,0.8546540174890894,B,465.0204159988789,Correct,d
9,24,409,A,44.733934121698965,52.41611175873008,2.236696706084948,0.82335035815484,A,739.6236660060822,Correct,k
9,24,410,B,53.233213195068984,26.610908997980605,2.661660659753449,0.418003181067012,B,488.93754099844955,Correct,d
9,24,411,B,50.49168934587222,29.53680634721835,2.524584467293611,0.4639630691546276,B,1287.6714169979095,Correct,d
9,24,412,A,42.12952283994597,73.78811531768689,2.1064761419972986,1.159061005021408,A,876.6980000000331,Correct,k
9,24,413,B,57.148761909802175,50.45009848830418,2.8574380954901084,0.7924682939186898,B,408.02233300200896,Correct,d
9,24,414,B,76.40758427024038,51.67474528503633,3.8203792135120187,0.8117050008179697,B,651.7544989983435,Correct,d
9,24,415,A,65.29464863867327,80.29023801849429,3.2647324319336635,1.261196109569388,A,493.9207920033368,Correct,k
9,24,416,A,19.415482119549104,36.44569901276756,0.9707741059774552,0.5724877013672767,A,786.2687499946333,Correct,k
9,24,417,A,38.42772912780245,49.18024869539867,1.9213864563901226,0.7725215400159172,A,520.0293329980923,Correct,k
9,24,418,A,57.12995476657392,74.12295232355883,2.856497738328696,1.1643206124103946,A,466.88949900271837,Correct,k
9,24,419,B,69.44967049563154,60.590711180339234,3.472483524781577,0.9517566655996734,B,433.7347079999745,Correct,d
9,24,420,A,60.77306117536229,80.94242403729524,3.038653058768114,1.271440623596583,A,874.320249997254,Correct,k
9,24,421,A,55.16223654910016,84.78366116710177,2.758111827455008,1.3317786353350658,A,557.4427079991437,Correct,k
9,24,422,B,74.08334474856285,41.69589169130052,3.704167237428143,0.6549575351113269,B,398.9751250046538,Correct,d
9,24,423,A,41.18156167370813,63.960195727286894,2.0590780836854066,1.0046844050950492,A,511.4999580036965,Correct,k
9,24,424,A,43.87532464946141,67.40518426841741,2.1937662324730707,1.0587981585576323,A,529.1936240028008,Correct,k
9,24,425,B,51.22618233323294,40.67728563562076,2.561309116661647,0.638957308604199,B,666.4432499965187,Correct,d
9,24,426,B,85.15238421136527,56.59005211449477,4.257619210568264,0.8889144599458014,B,423.4954579951591,Correct,d
9,24,427,A,47.97654488124021,77.57771139387022,2.3988272440620104,1.2185878409864594,A,384.3852499994682,Correct,k
9,24,428,A,43.63504276792523,55.838124810993875,2.1817521383962615,0.8771032134822416,A,464.4042910003918,Correct,k
9,24,429,B,72.29831894844291,48.6590341872668,3.6149159474221455,0.76433432166746,B,549.0651250001974,Correct,d
9,24,430,A,60.54255020002219,77.63131603202879,3.02712751000111,1.219429860673646,A,569.0711659990484,Correct,k
9,24,431,B,48.992981950783,27.638613010006075,2.4496490975391496,0.43414631793823183,B,442.8232080026646,Correct,d
9,24,432,A,49.198294719306645,61.75930096137557,2.4599147359653326,0.9701128309554927,A,466.8761659995653,Correct,k
9,24,433,A,16.920834875148177,36.277050994286185,0.8460417437574088,0.5698385844877589,A,466.6935420027585,Correct,k
9,24,434,B,65.0928970383676,32.40225199699847,3.2546448519183797,0.5089733841676781,B,437.79516700305976,Correct,d
9,24,435,B,54.39982584791687,25.359922583900175,2.719991292395844,0.3983527324259334,B,833.5571240022546,Correct,d
9,24,436,A,41.70008462428199,69.37406671717697,2.0850042312140995,1.0897252917416567,A,775.2432909983327,Correct,k
9,24,437,A,15.227944514987403,40.369646702149076,0.7613972257493701,0.6341249275374348,A,416.6705409952556,Correct,k
9,24,438,B,33.02007562024817,15.96810046563019,1.6510037810124087,0.2508263355730378,B,540.1293329996406,Correct,d
9,24,439,A,33.370992059048284,48.37276428247728,1.6685496029524143,0.7598376045183068,A,502.1284579997882,Correct,k
9,24,440,A,32.57864766025759,51.887712578639906,1.6289323830128795,0.815050283243169,A,513.6272500021732,Correct,k
9,24,441,B,48.503617699527766,26.56153017190519,2.4251808849763883,0.4172275402808049,B,416.13912399770925,Correct,d
9,24,442,B,60.38223888301529,36.81390999820386,3.019111944150765,0.5782715460013654,B,434.3812080041971,Correct,d
9,24,443,B,50.83510397689489,34.824211860092944,2.5417551988447444,0.5470174407336127,B,403.7519580015214,Correct,d
9,24,444,B,30.001665161379577,12.911105200304249,1.500083258068979,0.202807166235004,B,440.17579199862666,Correct,d
9,24,445,B,43.87503917596544,24.84037869014655,2.193751958798272,0.3901917560267642,B,375.3988329990534,Correct,d
9,24,446,B,70.97826362038911,55.86915626073484,3.5489131810194556,0.8775906543549239,B,337.77120799641125,Correct,d
9,24,447,A,39.561724358251695,57.36894531381764,1.9780862179125847,0.9011492857104203,A,485.6357079988811,Correct,k
9,24,448,A,34.216177450131944,65.96048740213179,1.710808872506597,1.0361049132486966,A,445.5240829993272,Correct,k
9,24,449,A,48.64264250066751,73.84353952677873,2.4321321250333754,1.1599316064619778,A,465.5476250045467,Correct,k
9,24,450,A,54.96184105292753,63.335048530919394,2.748092052646377,0.9948646158974469,A,426.2700830004178,Correct,k
9,24,451,A,64.6878592547793,87.93652087043588,3.234392962738965,1.3813036397440346,A,433.17083299916703,Correct,k
9,24,452,A,20.768753574095236,43.145727294059895,1.0384376787047618,0.677731499504036,A,436.56479100172874,Correct,k
9,24,453,A,28.440264792583925,49.8314679849262,1.4220132396291962,0.7827508686951957,A,360.50258300383575,Correct,k
9,24,454,A,46.532826666426686,67.895158879819,2.326641333321334,1.0664946617557558,A,400.41850000125123,Correct,k
9,24,455,A,26.1156155931231,58.09566352117291,1.3057807796561551,0.9125645486177069,A,390.11041699995985,Correct,k
9,24,456,A,53.38826056863245,72.90050289092402,2.6694130284316224,1.1451184216256418,A,384.47795800311724,Correct,k
9,24,457,A,57.185073534980575,82.89519890349892,2.8592536767490286,1.3021147394654844,A,396.6100830002688,Correct,k
9,24,458,B,64.27521734245832,42.274050293616185,3.213760867122916,0.6640392291995502,B,401.54320799774723,Correct,d
9,24,459,A,26.683939052608686,38.061574988663764,1.3341969526304343,0.5978698218422155,A,401.82766700309,Correct,k
9,24,460,B,70.58986874560516,44.0392919696829,3.5294934372802578,0.6917675806062589,B,691.1440420008148,Correct,d
9,24,461,A,40.77785693240833,59.19144475131948,2.0388928466204166,0.929777039930557,A,377.1471250001923,Correct,k
9,24,462,A,48.560165874418594,65.86783922063479,2.42800829372093,1.0346495990168993,A,407.864624998183,Correct,k
9,24,463,A,43.2167525781901,75.43979541233921,2.1608376289095053,1.185005535278609,A,438.02266599959694,Correct,k
9,24,464,A,45.32032764050418,54.55422506237608,2.2660163820252093,0.8569357633912245,A,373.7534579995554,Correct,k
9,24,465,A,57.33893198799334,67.94287870167403,2.866946599399667,1.0672442429646078,A,479.61462400417076,Correct,k
9,24,466,A,30.47297868467691,55.695483664616035,1.5236489342338455,0.8748626115944402,A,374.2028330016183,Correct,k
9,24,467,A,39.051500837893805,53.72774768397849,1.95257504189469,0.8439534870895643,A,363.14566699729767,Correct,k
9,24,468,B,67.48916607584205,50.70673688659466,3.3744583037921023,0.796499560452182,B,351.48175000358606,Correct,d
9,24,469,A,24.642673411128232,50.31999795401018,1.2321336705564117,0.790424679504859,A,316.190582998388,Correct,k
9,24,470,A,24.064808918516725,48.449860062675114,1.2032404459258361,0.7610486222017684,A,341.004707996035,Correct,k
9,24,471,B,83.21043708567794,55.25760386985679,4.160521854283897,0.867984411862585,B,472.0794989989372,Correct,d
9,24,472,A,31.543576465174887,53.108062970684124,1.5771788232587443,0.8342195023754269,A,340.62024900049437,Correct,k
9,24,473,A,56.65331255992294,83.31530100932905,2.832665627996147,1.308713687912652,A,455.70787500037113,Correct,k
9,24,474,A,43.15868495703026,60.006277155598085,2.157934247851513,0.9425763974064998,A,371.01287500263425,Correct,k
9,24,475,A,64.54130289149535,80.05310639377616,3.2270651445747673,1.2574712547186464,A,392.85587499762187,Correct,k
9,24,476,B,67.98094091970081,38.747757685273456,3.3990470459850406,0.6086483544356628,B,598.8836670003366,Correct,d
9,24,477,A,40.19972677618577,65.84408174709341,2.0099863388092887,1.0342764174951724,A,369.53995800286066,Correct,k
9,24,478,A,20.586750817919842,50.38192100892226,1.029337540895992,0.7913973645768573,A,375.6573330028914,Correct,k
9,24,479,B,58.84277386274991,34.114499304981095,2.9421386931374958,0.5358693019871136,B,372.78116599918576,Correct,d
9,24,480,A,52.39602850745685,61.32963466149867,2.619801425372842,0.9633636484995509,A,350.7410410020384,Correct,k
9,24,481,A,16.199798173554445,32.003133002094685,0.8099899086777222,0.5027040376561887,A,394.3737490044441,Correct,k
9,24,482,A,22.883095757475743,52.039187453747495,1.1441547878737872,0.8174296450173762,A,375.9028330023284,Correct,k
9,24,483,B,54.86335987380514,33.632353772016614,2.7431679936902573,0.5282957776655018,B,543.8340830005473,Correct,d
9,24,484,A,58.650417020997665,67.73148571004535,2.9325208510498832,1.0639236896170026,A,410.0441240007058,Correct,k
9,24,485,A,26.634462257626033,40.596997221396585,1.3317231128813019,0.6376961411427237,A,380.53137499809964,Correct,k
9,24,486,B,66.88123879550407,54.59007499593761,3.344061939775204,0.8574988928307672,B,1132.085332996212,Correct,d
9,24,487,B,41.59508757685544,23.22067351954244,2.079754378842772,0.3647494867020079,B,492.4850410025101,Correct,d
9,24,488,A,42.378741423023726,72.87740980226698,2.118937071151186,1.1447556762372735,A,416.38483299902873,Correct,k
9,24,489,A,21.498368051451436,48.93058495990403,1.0749184025725718,0.7685998312294287,A,357.88145800324855,Correct,k
9,24,490,B,55.70807505543994,35.4176672966371,2.785403752771997,0.5563394169320128,B,437.9402909980854,Correct,d
9,24,491,B,78.28814741361718,53.605933518189794,3.914407370680859,0.8420400346478396,B,436.9171250000363,Correct,d
9,24,492,B,40.6660179912626,28.976535345135964,2.03330089956313,0.45516235283382067,B,521.8093750008848,Correct,d
9,24,493,A,21.21878901674225,49.09633516934633,1.0609394508371124,0.7712034294310032,A,371.58908300625626,Correct,k
9,24,494,B,70.2363616205453,54.8728231772244,3.5118180810272643,0.8619402908764995,B,474.71220800071023,Correct,d
9,24,495,A,27.073164120011562,52.33210067094682,1.3536582060005782,0.8220307150738401,A,654.9009169975761,Correct,k
9,24,496,B,56.37191556304625,46.8709495043828,2.8185957781523125,0.7362471531487358,B,750.7959159993334,Correct,d
9,24,497,A,58.16507716099544,77.11316635860672,2.908253858049772,1.2112907846362324,A,479.87437499978114,Correct,k
9,24,498,B,37.032281303303535,24.138198665019228,1.8516140651651767,0.37916193798457676,B,844.9934579984983,Correct,d
9,24,499,A,42.90775134946529,50.38858483226492,2.1453875674732648,0.7915020396691478,A,631.3746669984539,Correct,k
9,24,500,B,49.58634092149709,31.618840703438607,2.4793170460748546,0.49666758834474334,B,742.8556669983664,Correct,d
9,24,501,B,37.07437240397769,15.315893635986896,1.8537186201988844,0.24058149464989545,B,599.4805420050398,Correct,d
9,24,502,A,13.228280447762877,37.06310858530446,0.6614140223881438,0.5821859482539665,A,595.2571660018293,Correct,k
9,24,503,A,64.89377139430995,81.86321904555936,3.244688569715498,1.2859044377637066,A,839.922375002061,Correct,k
9,24,504,A,34.30134805287281,67.30387618977208,1.7150674026436405,1.0572068149795248,A,360.29024999879766,Correct,k
9,24,505,B,67.56817870600999,53.06836172798848,3.378408935300499,0.8335958767134718,B,869.8268740045023,Correct,d
9,24,506,B,73.63416241217112,56.05382788715113,3.681708120608556,0.8804914694793031,B,1336.77129100397,Correct,d
9,24,507,B,37.55981663358917,25.845325543821158,1.8779908316794587,0.4059774242905259,B,669.0967079994152,Correct,d
9,24,508,A,51.444012641550984,67.89024409485563,2.5722006320775495,1.0664174604940815,A,484.3786249984987,Correct,k
9,24,509,B,79.808698948106,50.919598181042424,3.9904349474052996,0.7998431778465354,B,591.2304579978809,Correct,d
9,24,510,B,38.8815689578874,27.13180920921615,1.94407844789437,0.4261854624513668,B,630.9800410017488,Correct,d
9,24,511,B,80.14387800661459,55.88958974066623,4.00719390033073,0.8779116227071224,B,392.4108330029412,Correct,d
9,24,512,A,28.349452134666237,54.0222650886106,1.4174726067333119,0.8485797556632972,A,449.06733300013,Correct,k
9,24,513,B,71.14018264140506,49.0586101562085,3.5570091320702533,0.770610846310351,B,880.0782909966074,Correct,d
9,24,514,B,49.24192998757799,41.05396870075644,2.4620964993788994,0.6448742323550087,B,862.3687920044176,Correct,d
9,24,515,A,36.14500322407275,68.39358527887477,1.8072501612036376,1.0743239253239,A,411.37358299602056,Correct,k
9,24,516,B,74.36954200653503,62.11002607972161,3.7184771003267514,0.9756220082316194,B,705.1817079991451,Correct,d
9,24,517,A,28.831818575446412,42.39220648552262,1.4415909287723208,0.6658952223218972,A,397.7461670001503,Correct,k
9,24,518,B,65.95119019253544,37.188743117238936,3.2975595096267716,0.5841594108667791,B,650.3469579984085,Correct,d
9,24,519,A,17.897329034625514,48.58586305147227,0.8948664517312757,0.7631849521541252,A,632.5996240047971,Correct,k
9,24,520,B,65.39389428971681,33.71263859223235,3.2696947144858406,0.5295568886724245,B,1200.145041999349,Correct,d
9,24,521,A,34.62828912014918,46.58573060685276,1.731414456007459,0.7317669451830091,A,862.4873740045587,Correct,k
9,24,522,A,13.438115192187006,30.37619880099867,0.6719057596093504,0.4771482149860026,A,795.5516660003923,Correct,k
9,24,523,A,54.2227870599267,64.17046867376065,2.711139352996335,1.0079873648145021,A,389.828416002274,Correct,k
9,24,524,B,85.63971434444554,61.255153990709225,4.281985717222277,0.9621937088586181,B,556.489499998861,Correct,d
9,24,525,B,78.32383980390647,59.64063815480792,3.9161919901953235,0.9368329534127584,B,536.837874999037,Correct,d
9,24,526,A,46.791803351199405,72.25507268139856,2.33959016755997,1.1349800276023916,A,337.14758299902314,Correct,k
9,24,527,B,41.41217776157113,26.828754658104664,2.0706088880785565,0.4214250926943227,B,676.1167079966981,Correct,d
9,24,528,A,22.596355944141425,41.74129857299347,1.1298177972070713,0.655670784741072,A,337.5385000035749,Correct,k
9,24,529,B,54.684055649676,25.11318811486288,2.7342027824837998,0.39447703644935866,B,1116.0614580003312,Correct,d
9,24,530,A,19.29172415020205,41.57565191390205,0.9645862075101025,0.6530688131046055,A,366.81333299929975,Correct,k
9,24,531,B,52.37599493735188,38.190190643523906,2.618799746867594,0.5998901118244417,B,489.0575829995214,Correct,d
9,24,532,B,30.71443090797757,16.134815885009495,1.5357215453988784,0.25344509525684866,B,550.6434170019929,Correct,d
9,24,533,A,54.05847578360748,71.03488174963304,2.702923789180374,1.1158133132663342,A,1932.7874160007923,Correct,k
9,24,534,B,53.84263837891158,25.820997091865557,2.692131918945579,0.40559527386084127,B,429.43320800259244,Correct,d
9,24,535,A,18.185561861689592,39.036988304612365,0.9092780930844796,0.6131915783802044,A,388.9122909968137,Correct,k
9,24,536,B,42.725768063826294,28.472542248209862,2.136288403191315,0.4472456477800056,B,496.2462909970782,Correct,d
9,24,537,A,42.264579687719255,56.71601447074676,2.113228984385963,0.890893072010952,A,409.32354100368684,Correct,k
9,24,538,B,79.04383533680218,66.11376268054853,3.952191766840109,1.0385125556919514,B,496.95579199760687,Correct,d
9,24,539,A,47.64850182785854,68.15790908074185,2.3824250913929266,1.0706219322604982,A,388.0492489988683,Correct,k
9,24,540,A,19.148264045499193,50.191841050080484,0.9574132022749596,0.7884115955653973,A,367.94662500324193,Correct,k
9,24,541,A,50.566962480076164,72.93691901449341,2.5283481240038084,1.1456904447570309,A,366.71845800447045,Correct,k
9,24,542,A,67.97249072605982,83.40691108524682,3.398624536302991,1.3101526956201424,A,449.2977910049376,Correct,k
9,24,543,B,45.59202751604144,33.25614946441505,2.279601375802072,0.5223863742204523,B,377.3224169999594,Correct,d
9,24,544,A,27.985504556379762,41.71896996340094,1.399275227818988,0.6553200477617681,A,346.2824579983135,Correct,k
9,24,545,A,27.023771183060735,56.967647424100335,1.3511885591530366,0.8948457131992356,A,309.54779100284213,Correct,k
9,24,546,A,38.52870709589481,68.04604788695457,1.9264353547947406,1.0688648207373785,A,336.1672500032,Correct,k
9,24,547,B,86.693779936917,62.13202385095275,4.33468899684585,0.9759675484140947,B,411.888374001137,Correct,d
9,24,548,B,53.386600918311956,44.57742769813827,2.669330045915598,0.7002205968620068,A,367.88950000482146,Incorrect,k
9,24,549,B,54.02934936511257,33.994914886389516,2.7014674682556286,0.533990874332458,B,493.4008330019424,Correct,d
9,24,550,B,57.671938396512545,34.188381368300284,2.883596919825627,0.5370298387238917,B,356.3731249960256,Correct,d
9,24,551,B,45.227070094910495,26.134524994059614,2.2613535047455247,0.4105201586319826,B,349.515000001702,Correct,d
9,24,552,B,56.38381571245884,27.535742977052454,2.819190785622942,0.43253043923922363,B,373.06483300199034,Correct,d
9,24,553,B,51.985244346280005,42.15613957595936,2.599262217314,0.6621870919776993,B,458.79274899925804,Correct,d
9,24,554,B,83.55134766604,58.412391408711386,4.177567383302,0.9175396986410961,B,397.3542079984327,Correct,d
9,24,555,A,29.537430935012477,40.433022648422345,1.4768715467506237,0.6351204345735668,A,417.5790829976904,Correct,k
9,24,556,A,44.365104220052636,74.8092613128608,2.218255211002632,1.175101128804813,A,398.43287500116276,Correct,k
9,24,557,B,55.74995411351298,37.606112887134906,2.787497705675649,0.5907154398814574,B,396.45875000132946,Correct,d
9,24,558,A,52.48697008782408,76.02290510881087,2.624348504391204,1.1941650009719709,A,394.2681240005186,Correct,k
9,24,559,A,56.61597224828327,69.97889791536164,2.830798612414163,1.099225957986051,A,1230.9663749983883,Correct,k
9,24,560,A,52.61275392924923,61.09681517046124,2.6306376964624616,0.9597065284862722,A,601.3144579992513,Correct,k
9,24,561,B,83.04166459528102,54.397198396608765,4.152083229764051,0.8544691942932628,A,365.20891600230243,Incorrect,k
9,24,562,A,52.37748560050318,63.176392741867055,2.618874280025159,0.9923724565907655,A,483.3302909974009,Correct,k
9,24,563,B,62.76735439752238,53.16777835682183,3.138367719876119,0.8351575094674093,B,870.4806250025285,Correct,d
9,24,564,B,75.80086951295824,44.13610752788647,3.790043475647912,0.6932883558382865,B,584.888999001123,Correct,d
9,24,565,B,63.961337893393875,33.37132783201881,3.1980668946696937,0.5241955917880344,B,408.04124900023453,Correct,d
9,24,566,B,57.46829191143165,26.304051067802092,2.8734145955715826,0.41318306797128906,B,444.40533300075913,Correct,d
9,24,567,B,44.23026079705046,19.761937152216603,2.211513039852523,0.3104197828905344,B,400.9896240022499,Correct,d
9,24,568,B,83.93284349043053,55.07602975467541,4.196642174521526,0.8651322523309056,B,426.63433300185716,Correct,d
9,24,569,A,40.786359332597705,58.19415327534804,2.039317966629885,0.914111622058559,A,494.26766699616564,Correct,k
9,24,570,A,48.0305031356641,59.08744403271778,2.401525156783205,0.9281434004629212,A,716.135957998631,Correct,k
9,24,571,B,72.29678191146336,40.95243203126433,3.614839095573168,0.6432792980802767,B,416.38804099784466,Correct,d
9,24,572,B,67.39824677933619,53.75735160155336,3.3699123389668095,0.8444185043394177,B,414.97979200357804,Correct,d
9,24,573,A,24.943162436654873,43.29464024441299,1.2471581218327437,0.6800706186583042,A,365.5424579992541,Correct,k
9,24,574,A,15.936341513295336,32.22629919420643,0.7968170756647668,0.506209524004528,A,453.45808300044155,Correct,k
9,24,575,A,37.0599840979253,61.798243977615265,1.8529992048962651,0.9707245464241289,A,374.2329160013469,Correct,k
9,24,576,B,34.71975815209833,12.774656093233691,1.7359879076049165,0.20066382867319527,B,460.9227490000194,Correct,d
9,24,577,B,34.21052205459659,21.319707409737926,1.7105261027298295,0.3348891808755828,B,427.9435829957947,Correct,d
9,24,578,A,18.868957173864317,39.44772722575017,0.9434478586932158,0.6196434502661541,A,385.8602920008707,Correct,k
9,24,579,B,44.00443418278216,14.964026178390291,2.2002217091391083,0.2350543735507814,B,343.83091700146906,Correct,d
9,24,580,A,30.83310596577372,49.93769533899103,1.5416552982886857,0.7844194840708973,A,391.7461250021006,Correct,k
9,24,581,B,87.85794257339995,62.488332844226555,4.392897128669998,0.9815644369924795,B,390.0829580015852,Correct,d
9,24,582,B,56.16061515443861,48.06012177037926,2.8080307577219306,0.7549266274222718,B,962.4184159983997,Correct,d
9,24,583,A,38.08138799977777,58.99935785788111,1.9040693999888885,0.9267597460641726,A,378.9557909985888,Correct,k
9,24,584,B,53.56993312736218,26.911215841556817,2.6784966563681087,0.4227203899350208,B,466.2253740025335,Correct,d
9,24,585,A,57.833301786643844,65.71457778200174,2.8916650893321925,1.0322421739684586,A,534.8135829990497,Correct,k
9,24,586,B,76.6454381891406,48.65889134233282,3.83227190945703,0.764332077864484,B,360.45329199987464,Correct,d
9,24,587,A,61.65613236678492,77.3980588843799,3.0828066183392457,1.2157658659663906,A,519.1311669987044,Correct,k
9,24,588,A,20.318407508984187,48.49413443376321,1.0159203754492094,0.7617440823965315,A,380.47479200031376,Correct,k
9,24,589,A,28.933363987368995,53.58494548402817,1.4466681993684498,0.8417103553781623,A,401.1709990008967,Correct,k
9,24,590,B,53.564364111785785,33.085983569081336,2.6782182055892894,0.5197134145870927,B,338.11758299998473,Correct,d
9,24,591,B,57.917214374206566,31.435470912849844,2.895860718710328,0.4937872224097235,B,396.45795799879124,Correct,d
9,24,592,B,73.60333892893756,60.95512470549728,3.680166946446878,0.9574808598671998,B,403.60237500135554,Correct,d
9,24,593,B,83.11297519932718,63.52781990702917,4.155648759966359,0.9978926615924913,B,406.29229100159137,Correct,d
9,24,594,A,17.51782454751513,38.88832388804755,0.8758912273757565,0.6108563631855531,A,379.2260409973096,Correct,k
9,24,595,A,39.32204988348889,72.12898121025205,1.9661024941744443,1.1329993874052204,A,488.0238750047283,Correct,k
9,24,596,A,33.293100906697816,51.45698520620298,1.6646550453348907,0.8082844334984297,A,346.6959169963957,Correct,k
9,24,597,A,21.017404759431248,32.8933470202437,1.0508702379715624,0.5166874867538866,A,357.7672920000623,Correct,k
9,24,598,B,69.30564320987001,38.72535966909251,3.465282160493501,0.6082965272202174,B,439.86716699873796,Correct,d
9,24,599,B,48.94152365538534,38.80020787632809,2.447076182769267,0.6094722401101458,B,526.6232079957263,Correct,d
