subject,day,trial,cat,x,y,xt,yt,resp,rt,fb
9,5,0,A,29.202204609851435,46.22695531102161,1.4601102304925717,0.7261313160146458,B,2595.3092909999214,Incorrect
9,5,1,A,30.208532482576338,41.00148233643454,1.510426624128817,0.6440497784721722,A,663.710791000085,Correct
9,5,2,B,50.497797132048646,33.93548939168059,2.5248898566024325,0.5330574208443906,B,2751.074749000054,Correct
9,5,3,A,38.04174533158348,45.874917320982206,1.902087266579174,0.7206015161981844,B,3757.8607909999846,Incorrect
9,5,4,B,46.53405790099005,32.45323815103971,2.326702895049502,0.5097742728025318,B,1835.3832910001984,Correct
9,5,5,A,41.19822255475005,63.85837838589701,2.059911127737503,1.0030850620364564,A,804.7866239999166,Correct
9,5,6,A,34.415221801606826,66.4353578306586,1.7207610900803414,1.043564160497031,A,467.5629159996788,Correct
9,5,7,B,64.32786755253495,35.90364381350531,3.2163933776267477,0.5639731182080645,B,562.155666000308,Correct
9,5,8,B,82.00194724470751,54.27750883489175,4.100097362235375,0.852589115054255,B,1168.1156240001656,Correct
9,5,9,A,29.82448345619249,58.68332295767668,1.4912241728096245,0.9217954814603716,A,1338.930624999648,Correct
9,5,10,B,52.795103924153175,32.99090610233621,2.6397551962076586,0.5182199412318506,B,583.0334990000665,Correct
9,5,11,B,57.25426808321671,34.24475010249735,2.8627134041608353,0.53791527673012,B,1104.151082000044,Correct
9,5,12,B,61.1589396861802,30.68216073337551,3.05794698430901,0.4819542537811686,B,529.4203750004272,Correct
9,5,13,B,62.408907359217,41.18683483509238,3.1204453679608495,0.646961288712712,B,2473.348458000146,Correct
9,5,14,B,48.763117914943294,21.442843206278297,2.4381558957471645,0.33682339344460854,B,701.5010000000075,Correct
9,5,15,A,26.297036257882628,46.47422800230923,1.3148518128941313,0.7300154663665587,A,1039.5082909999473,Correct
9,5,16,B,60.407950598019816,50.65835616668981,3.020397529900991,0.7957395978810397,A,5150.5796239998745,Incorrect
9,5,17,A,38.01933619704104,45.88861416352691,1.900966809852052,0.7208166656977633,A,700.611249999838,Correct
9,5,18,B,43.872397607359204,25.925442928681214,2.1936198803679603,0.4072359052290318,B,708.9270830001624,Correct
9,5,19,A,28.371677342213818,43.28906620743731,1.418583867110691,0.679983061890236,A,6160.268957999961,Correct
9,5,20,B,56.78057061005648,40.89244084953619,2.8390285305028238,0.6423369588012904,B,1281.4204579999569,Correct
9,5,21,A,50.51715265371282,63.125841390555,2.525857632685641,0.9915783978212105,A,855.6487910000214,Correct
9,5,22,B,34.22067988466543,22.588470460257433,1.7110339942332715,0.35481886426887405,B,1225.2632909999193,Correct
9,5,23,B,46.66042186060205,18.78766232545877,2.3330210930301023,0.295115909698935,B,745.0623749996339,Correct
9,5,24,A,25.503852312132942,46.494569513295154,1.275192615606647,0.7303349900739401,A,650.0985409998066,Correct
9,5,25,B,69.33335413972785,46.949887588549764,3.466667706986392,0.7374871096752725,B,1236.2525819999064,Correct
9,5,26,A,40.996741554851184,64.22064729753393,2.049837077742559,1.008775568793569,A,664.3981660004101,Correct
9,5,27,B,84.5007009934559,58.67157591352377,4.225035049672795,0.9216109593223106,B,791.6003749996889,Correct
9,5,28,B,47.35754731136117,35.37779130663924,2.3678773655680585,0.5557130463458535,B,1120.145416000014,Correct
9,5,29,B,37.71607864990234,25.03852585807065,1.885803932495117,0.3933042444621641,B,1140.4822069998772,Correct
9,5,30,B,65.51196136994392,46.56781892894746,3.2755980684971964,0.7314855892044052,B,1280.5507499997475,Correct
9,5,31,B,49.25903227503936,23.32920634976137,2.4629516137519682,0.3664543164124534,B,918.4114159997989,Correct
9,5,32,B,57.308769145849965,26.861383989333582,2.8654384572924982,0.4219376330307243,B,690.6592489999639,Correct
9,5,33,B,60.95212232567836,37.53813836776256,3.047606116283918,0.589647698628,B,2593.9446239999597,Correct
9,5,34,B,38.627975982074936,27.999959070795924,1.9313987991037467,0.43982232858813686,B,3326.222623999911,Correct
9,5,35,B,59.412047869308864,40.2827879347608,2.9706023934654433,0.6327605532098003,B,3057.92187499992,Correct
9,5,36,A,39.866251946678034,57.42213904503726,1.9933125973339016,0.9019848508865034,A,558.6631659998602,Correct
9,5,37,A,44.133963647323796,55.24340844566991,2.20669818236619,0.8677614306608845,A,739.0822910001589,Correct
9,5,38,B,51.2127715249687,24.385243652430038,2.560638576248435,0.3830425115723567,B,572.5896660001126,Correct
9,5,39,A,47.874378670115846,66.51531774249928,2.3937189335057925,1.0448201678551325,A,496.1689579999984,Correct
9,5,40,A,53.50463875813562,62.575610613461336,2.675231937906781,0.982935392985728,A,1572.3764999997911,Correct
9,5,41,A,48.933474143269486,70.64863726582463,2.446673707163474,1.1097461991022237,A,1171.9730830000117,Correct
9,5,42,A,37.18553836291783,65.08377944554725,1.8592769181458917,1.0223336168699482,A,1119.6579580000616,Correct
9,5,43,A,21.816472964236382,38.33585285104735,1.0908236482118192,0.6021781684297485,A,1362.3120409997682,Correct
9,5,44,A,54.320684154335694,70.96539277279733,2.7160342077167847,1.1147217829706715,A,581.1240000002726,Correct
9,5,45,A,60.46774471421806,81.37842963112107,3.023387235710903,1.2782893834490194,A,1361.750124000082,Correct
9,5,46,B,60.61531601582323,52.11689795673607,3.030765800791162,0.8186503187438546,A,472.67629099997066,Incorrect
9,5,47,A,65.53777228312094,83.71646119165763,3.2768886141560474,1.3150150973212331,A,560.9336659999826,Correct
9,5,48,B,83.48020794597684,69.15259295841234,4.174010397298843,1.0862463900741675,A,2305.2649989999736,Incorrect
9,5,49,A,20.35927064653795,35.544655828511566,1.0179635323268976,0.5583341481261479,A,430.777333000151,Correct
9,5,50,B,40.54016325943296,14.80126200868364,2.027008162971648,0.23249767995169113,B,544.0774160001638,Correct
9,5,51,B,64.03123646689947,38.58949125482832,3.201561823344974,0.6061623111596811,B,1780.6122080000932,Correct
9,5,52,B,42.236844558114555,15.172546347345502,2.111842227905728,0.2383298007053564,B,937.6872500001809,Correct
9,5,53,A,12.539131431243487,34.486591684903566,0.6269565715621743,0.5417141154232193,A,594.2558750002718,Correct
9,5,54,B,54.53475647703169,46.720866095596705,2.7267378238515847,0.7338896484763953,B,4340.263083000082,Correct
9,5,55,A,40.69515316663711,64.41403805842975,2.0347576583318556,1.0118133437620813,A,707.8638329999194,Correct
9,5,56,B,39.36335448031187,24.78144148877891,1.9681677240155935,0.3892659726325656,B,760.5184159997407,Correct
9,5,57,A,22.32809087701223,49.3962283351667,1.1164045438506114,0.7759141402640184,A,409.8282069999186,Correct
9,5,58,B,57.789719366389164,46.79385732196945,2.889485968319458,0.7350361919791407,B,1009.8545409996404,Correct
9,5,59,A,50.61881498802771,77.62215609713468,2.5309407494013856,1.2192859767527924,A,523.2980830000997,Correct
9,5,60,B,64.04571246838115,51.78263885556612,3.202285623419058,0.8133997890606993,B,889.9604160001218,Correct
9,5,61,A,39.88275544841262,68.52015615047861,1.9941377724206308,1.0763120959258454,A,629.5423739998114,Correct
9,5,62,A,36.138055542834714,65.17420503069573,1.8069027771417356,1.0237540186399432,A,629.4769159999305,Correct
9,5,63,B,87.67697211643006,64.37818368774266,4.383848605821504,1.011250144624333,B,658.8362489997053,Correct
9,5,64,A,29.531914506560494,39.795603783752966,1.4765957253280246,0.6251078824610425,A,1873.653041000125,Correct
9,5,65,B,41.99382390581164,16.00093787444745,2.099691195290582,0.251342144384554,B,722.6267500000176,Correct
9,5,66,B,47.614031038824905,32.37684264867158,2.3807015519412453,0.5085742550574966,B,1132.1481240001958,Correct
9,5,67,A,43.14600551343263,66.4877564958082,2.157300275671631,1.0443872368044904,A,602.5213739999344,Correct
9,5,68,A,19.9942998274874,48.90586991433063,0.9997149913743699,0.7682116082013959,A,468.97512400028063,Correct
9,5,69,B,52.04753061390902,37.45273754083439,2.602376530695451,0.5883062255755599,B,696.2641240002085,Correct
9,5,70,A,50.97025058206766,79.67554644552754,2.548512529103383,1.2515405569201083,A,588.8622909997139,Correct
9,5,71,B,56.721727312888035,39.33839893251699,2.8360863656444018,0.6179261254518997,B,764.9314579998645,Correct
9,5,72,B,48.422146264505656,31.16728460076265,2.421107313225283,0.4895745616704911,B,587.389957999676,Correct
9,5,73,B,61.13216115674279,41.27055644424271,3.0566080578371397,0.6482763846739789,B,844.6472489999906,Correct
9,5,74,A,46.1916629859615,60.61660476873387,2.309583149298075,0.9521634011350518,A,593.8564159996531,Correct
9,5,75,B,61.88760245227009,35.072010755987165,3.0943801226135044,0.5509098566881575,B,584.2031239999415,Correct
9,5,76,B,52.424690824192204,23.0397913476908,2.6212345412096103,0.3619081961907355,B,848.1272079998234,Correct
9,5,77,A,67.12949730133536,86.07761877918111,3.3564748650667684,1.352104073975891,A,862.4272080000992,Correct
9,5,78,B,75.24510101199964,54.54525673415219,3.7622550505999817,0.8567948892209085,B,904.6564569998736,Correct
9,5,79,A,39.791717693691126,59.78199246627016,1.9895858846845562,0.9390533417449735,A,721.2072909997005,Correct
9,5,80,B,45.59745438340711,19.92895785783817,2.279872719170356,0.3130433379994249,B,777.0413319999534,Correct
9,5,81,B,60.567237926874874,43.20103419543546,3.0283618963437435,0.6786002582793075,B,953.4930830000121,Correct
9,5,82,B,87.09595635631209,68.42113269846831,4.354797817815604,1.0747566391790022,B,906.7711659999986,Correct
9,5,83,B,70.55927609826439,58.01515887695973,3.5279638049132194,0.9112999846235067,B,2250.111000000288,Correct
9,5,84,A,36.59600568668375,48.890515066990446,1.8298002843341876,0.7679704148233915,A,1068.020166000224,Correct
9,5,85,A,25.51582211018173,36.80200365016141,1.2757911055090865,0.5780845215236592,B,1203.0095000000074,Incorrect
9,5,86,A,47.7178298827631,60.56265222450467,2.3858914941381553,0.9513159165520869,A,601.328206999824,Correct
9,5,87,B,32.397798118819004,20.140121487088777,1.6198899059409502,0.31636028853122017,B,788.2463739997547,Correct
9,5,88,B,34.85634912840955,16.028192806103974,1.7428174564204773,0.2517702638498851,B,789.2219579998709,Correct
9,5,89,A,30.370694279121963,58.27376476292222,1.518534713956098,0.915362156381081,A,934.8269990000517,Correct
9,5,90,A,62.197612912493284,86.85963784552726,3.1098806456246644,1.364388000744892,A,784.0110410002126,Correct
9,5,91,B,79.09158346083603,55.060087064781165,3.9545791730418016,0.8648818251436545,B,1118.9376239999547,Correct
9,5,92,B,44.15823285771501,17.553210778223832,2.20791164288575,0.27572519013890584,B,790.7461240001794,Correct
9,5,93,A,34.85551106294106,44.2376992347493,1.742775553147053,0.6948841546380161,A,7040.082958000312,Correct
9,5,94,B,56.36262219078417,40.967458483869244,2.8181311095392085,0.6435153330458423,B,581.1579569999594,Correct
9,5,95,B,34.0827852274156,12.140530639297427,1.70413926137078,0.19070300933549295,B,666.8462910001836,Correct
9,5,96,B,69.52079569164677,58.46986640092566,3.4760397845823383,0.9184425137076236,B,1334.6480410000368,Correct
9,5,97,A,54.368055700643126,72.93180996808628,2.7184027850321564,1.1456101920437336,A,828.0063740003243,Correct
9,5,98,B,63.78459981375072,48.20029424109276,3.189229990687536,0.7571284514434173,B,1739.1207489999942,Correct
9,5,99,A,61.10791445783268,71.39600576635422,3.055395722891634,1.1214858360561648,A,1817.8438739996636,Correct
9,5,100,B,62.997213298442986,29.90911164139625,3.1498606649221497,0.46981122704003714,B,3042.294915999719,Correct
9,5,101,A,42.539683806919506,58.11360323466852,2.126984190345975,0.9128463449783333,A,2246.3947909996023,Correct
9,5,102,A,12.968978894790816,30.08543046632202,0.6484489447395407,0.472580836665419,A,3038.1356660000165,Correct
9,5,103,B,75.28690060665842,63.536212984753824,3.764345030332921,0.998024499749095,B,1454.4614159999583,Correct
9,5,104,B,66.09965365693613,45.67757438813044,3.3049826828468065,0.7175016606577593,B,1176.3632490001328,Correct
9,5,105,A,60.44791867097449,79.51695636326264,3.0223959335487245,1.2490494297332302,A,1462.9491660002714,Correct
9,5,106,B,73.8395834992417,52.70259971491121,3.691979174962085,0.827850500447243,B,1654.2250819998117,Correct
9,5,107,B,60.55453825829245,30.069716915737544,3.0277269129146225,0.472334008790029,B,1105.6831239998246,Correct
9,5,108,A,55.65505295859764,72.84255076476936,2.782752647929882,1.144208111756705,A,476.4854989998639,Correct
9,5,109,B,36.728987632292984,19.22374262321714,1.8364493816146492,0.3019658429979998,B,2002.9455820003932,Correct
9,5,110,A,36.133957118086116,44.41991744017097,1.8066978559043059,0.6977464315155313,A,3780.815249999705,Correct
9,5,111,B,38.332099600314535,19.34348681994704,1.9166049800157268,0.303846780441783,B,1172.3816240000815,Correct
9,5,112,B,54.956578471790245,30.634437661668343,2.7478289235895126,0.4812046215237587,B,738.9271659999395,Correct
9,5,113,A,20.313130268760354,44.474025638432494,1.0156565134380175,0.6985963611063182,A,873.759790999884,Correct
9,5,114,B,59.72661167607262,31.458042266817962,2.986330583803631,0.49414177240876256,B,991.5167490003114,Correct
9,5,115,B,65.4954455251655,52.68715895295534,3.274772276258275,0.827607957525611,B,1165.7575819999693,Correct
9,5,116,B,53.28107533808496,21.82306221338747,2.664053766904248,0.34279585964205544,B,680.577123999683,Correct
9,5,117,A,23.033491129453875,36.979402190652095,1.1516745564726938,0.5808710912814746,A,653.8706239998646,Correct
9,5,118,A,45.82143587404113,67.47774108455778,2.2910717937020566,1.0599378783604043,B,1059.9637909999728,Incorrect
9,5,119,A,34.56922581335748,55.58825632986148,1.728461290667874,0.8731782885587956,A,1032.993040999827,Correct
9,5,120,B,56.80145572579041,35.55918514110844,2.8400727862895208,0.5585623740347281,B,1251.985416000025,Correct
9,5,121,B,42.2180303692537,16.28138987489638,2.110901518462685,0.25574747410602855,B,666.5103740001541,Correct
9,5,122,A,19.626562908962622,35.84058348451346,0.9813281454481312,0.5629825688765958,A,899.5412069998565,Correct
9,5,123,A,59.56134244899532,76.02927527480963,2.978067122449766,1.1942650633054903,A,975.5092069999591,Correct
9,5,124,B,73.09613084824701,57.196154990022,3.654806542412351,0.8984351016511816,B,604.9942909999118,Correct
9,5,125,A,58.74413192084792,67.35914816946608,2.9372065960423956,1.058075025206305,A,1250.8229569998548,Correct
9,5,126,A,53.60227613820645,70.90021725337542,2.680113806910322,1.1136980083056225,A,1300.0046239999392,Correct
9,5,127,B,83.75232770807136,68.59246551659257,4.187616385403568,1.0774479287926921,B,1065.0611249998292,Correct
9,5,128,A,40.51453270019614,70.34757234241306,2.025726635009807,1.1050170823440069,A,1233.5729999999785,Correct
9,5,129,A,39.639034867657784,59.163343748307774,1.9819517433828893,0.9293356304074566,A,979.2960409999978,Correct
9,5,130,A,45.63924197685351,77.41399586479878,2.2819620988426754,1.2160162034694122,A,703.4818739998627,Correct
9,5,131,A,27.670054259911243,40.5345019398021,1.3835027129955622,0.6367144675550175,A,992.4460410002212,Correct
9,5,132,B,33.92256796701714,20.42745317103787,1.6961283983508568,0.32087368406841055,B,1400.7011660000899,Correct
9,5,133,A,52.34617267655497,63.0322301030057,2.6173086338277485,0.9901079551549207,A,611.3603320000038,Correct
9,5,134,B,60.32178842495245,52.54399790753305,3.0160894212476226,0.8253591890827163,B,3024.8946239998986,Correct
9,5,135,A,41.70117656763392,67.50367007978315,2.085058828381696,1.0603451700649793,A,950.4154159999416,Correct
9,5,136,A,52.34264038793222,74.20374977162136,2.6171320193966108,1.1655897757567046,A,960.0901660001,Correct
9,5,137,A,43.859056705118114,71.86653837281835,2.192952835255906,1.1288769449548754,A,718.7415829998827,Correct
9,5,138,A,18.85919085912468,38.46461308911826,0.9429595429562341,0.6042007295197386,A,786.7524160001267,Correct
9,5,139,B,51.95199518646149,42.36640999911486,2.5975997593230744,0.6654900120609619,B,1561.5695410001535,Correct
9,5,140,A,44.24708453718682,73.83439626521667,2.212354226859341,1.1597879844452117,A,583.9882489999582,Correct
9,5,141,B,74.92851472748175,48.1261018198454,3.7464257363740874,0.7559630396157034,B,588.3307910003168,Correct
9,5,142,B,62.85186579171387,35.7774814213142,3.142593289585694,0.56199136398573,B,1045.0787909999235,Correct
9,5,143,A,60.131531807565466,78.38255443945873,3.0065765903782733,1.231230285983028,A,777.9998329997397,Correct
9,5,144,A,33.119569259036986,62.314614129134476,1.6559784629518493,0.978835669796858,A,708.1776660002106,Correct
9,5,145,B,82.90545289014334,65.89461894264721,4.145272644507167,1.0350702539065966,B,479.74599999997736,Correct
9,5,146,A,50.802986931615834,67.37370181233399,2.5401493465807916,1.058303633293889,A,591.9621240000197,Correct
9,5,147,B,83.59719371281324,64.06770736153351,4.179859685640662,1.0063731938966718,B,650.0763740000366,Correct
9,5,148,B,71.41103705723103,52.5892984274882,3.5705518528615516,0.8260707679861911,B,1039.3317069997465,Correct
9,5,149,B,55.40731748141698,25.996515188617416,2.770365874070849,0.4083523056774797,B,720.0928329998533,Correct
9,5,150,A,52.065872258564994,70.26294906104066,2.6032936129282493,1.103687822948596,A,763.0461660000947,Correct
9,5,151,A,28.818722171752206,46.582093747585375,1.4409361085876102,0.7317098175312263,A,663.2269990000168,Correct
9,5,152,A,59.655153946758745,85.65211934885536,2.982757697337937,1.3454203445538009,A,812.0229159999326,Correct
9,5,153,A,47.71440836504274,68.43692779450228,2.385720418252137,1.0750047479673175,A,557.7698750003037,Correct
9,5,154,A,48.91885737117339,72.50617677145438,2.445942868558669,1.1389243614254199,A,707.3851659997672,Correct
9,5,155,A,38.58809129152982,53.91420890975839,1.929404564576491,0.8468824131750117,A,3107.605166000212,Correct
9,5,156,B,33.19847478416125,16.231332832300236,1.6599237392080624,0.25496117991962614,B,661.8462069995985,Correct
9,5,157,B,43.97836488741568,27.465043537548674,2.198918244370784,0.43141989504043365,B,514.1569160000472,Correct
9,5,158,A,53.950080224353314,77.72552475533828,2.697504011217666,1.2209096878389119,A,1754.571790999762,Correct
9,5,159,B,34.035130471318794,10.3270512606268,1.7017565235659395,0.16221694186815183,B,685.0195410002016,Correct
9,5,160,B,77.97452511625313,66.21295089093681,3.8987262558126563,1.0400706004573441,B,565.588082999966,Correct
9,5,161,B,46.51312220576648,26.775976317893885,2.3256561102883238,0.4205960524649486,B,585.8302080000612,Correct
9,5,162,A,32.52054382293507,46.86562050049022,1.6260271911467532,0.7361634453513364,B,1199.5331660000375,Incorrect
9,5,163,B,35.40305808139915,19.800322251555116,1.7701529040699575,0.31102273462098035,B,530.1920829997471,Correct
9,5,164,B,57.51132831767456,44.84403633108505,2.8755664158837284,0.7044084754752529,B,1760.988998999892,Correct
9,5,165,B,81.73170470643626,58.30529205955539,4.086585235321813,0.9158573859985326,B,1070.3582070000266,Correct
9,5,166,B,80.32491104171775,63.22065190628881,4.016245552085888,0.9930676779197724,B,1746.962290999818,Correct
9,5,167,B,73.13163021296937,51.38054454866641,3.6565815106484685,0.8070837064576675,B,1152.324375000262,Correct
9,5,168,A,59.183191816888545,69.29421960197107,2.9591595908444273,1.0884710561889506,A,2617.951040999742,Correct
9,5,169,B,59.375364403422836,26.815362033050516,2.968768220171142,0.4212147218319108,B,496.46500000017113,Correct
9,5,170,B,68.71097731017763,51.40062418701545,3.4355488655088813,0.807399116679288,B,586.7733739996766,Correct
9,5,171,A,28.172948364561577,39.19435967727654,1.408647418228079,0.6156635621214399,A,667.1804990000965,Correct
9,5,172,B,48.585334595845616,35.98916055692351,2.4292667297922805,0.5653164120724722,B,476.1802500001977,Correct
9,5,173,B,64.93574172396401,50.272356290759575,3.246787086198201,0.7896763260084945,B,1739.727706999929,Correct
9,5,174,A,47.09803628493318,72.08456758638427,2.354901814246659,1.132301739832909,A,951.9714989996828,Correct
9,5,175,B,47.527235403830126,26.63885695887231,2.3763617701915063,0.41844218661011295,B,472.2299159998329,Correct
9,5,176,A,54.98280577519262,64.50808163861315,2.749140288759631,1.0132905768651885,A,943.2814990000224,Correct
9,5,177,B,50.04791181890953,31.031372340010805,2.502395590945477,0.4874396568709372,B,692.7455409995673,Correct
9,5,178,B,72.41161550020193,54.91516006355385,3.620580775010097,0.8626053171318417,B,649.9840830001631,Correct
9,5,179,A,29.647734363590388,55.76757435080748,1.4823867181795194,0.8759950094450967,A,888.3557909998672,Correct
9,5,180,B,85.36228103386532,59.41063359965646,4.268114051693265,0.9332200503089783,B,692.9804159999549,Correct
9,5,181,A,33.789887942226876,43.878787518793516,1.6894943971113436,0.689246382587346,A,736.1230410001554,Correct
9,5,182,A,30.10329345678018,44.62932465626752,1.5051646728390091,0.7010357923740194,A,1125.4420820000632,Correct
9,5,183,A,54.93567772473581,78.52899737395512,2.7467838862367904,1.2335306062189477,A,843.7423329996818,Correct
9,5,184,B,65.62193117356044,37.31020616105421,3.281096558678022,0.5860673478974429,B,843.2407489999605,Correct
9,5,185,A,50.142846064659295,70.4642807843003,2.507142303232965,1.1068503342622313,A,840.195415999915,Correct
9,5,186,B,70.65262680941659,47.005906854820765,3.532631340470829,0.7383670582521549,B,514.1107910003484,Correct
9,5,187,A,46.79198541922554,66.83544754770742,2.339599270961277,1.0498487550763178,A,1420.0992069995664,Correct
9,5,188,A,46.20905539603847,66.43533462801122,2.3104527698019237,1.0435637960306983,A,850.9007080001538,Correct
9,5,189,A,31.693750670411745,59.5464571811043,1.5846875335205874,0.9353535621372823,B,1098.702081999818,Incorrect
9,5,190,B,35.66524334477501,24.945661182305514,1.7832621672387503,0.3918455295463554,B,693.5187069998392,Correct
9,5,191,A,60.91044407744675,70.69826036946914,3.0455222038723373,1.1105256769915135,A,755.1324579999346,Correct
9,5,192,A,54.1051020289712,79.70780916739629,2.70525510144856,1.2520473385701467,A,821.0658749999311,Correct
9,5,193,A,37.31582119437616,60.63204326173755,1.865791059718808,0.9524059084160661,A,977.9939159998321,Correct
9,5,194,B,48.967725999912204,21.35558600894918,2.4483862999956103,0.3354527605940986,B,507.06254099986836,Correct
9,5,195,A,20.11213561187495,42.272438218835994,1.0056067805937474,0.6640139067881177,A,791.6710829999829,Correct
9,5,196,A,48.40087047455172,55.317588055232235,2.420043523727586,0.8689266412431205,A,6643.166249999922,Correct
9,5,197,A,56.31661695431089,70.4046101493891,2.8158308477155445,1.1059130301208708,A,800.7188329997916,Correct
9,5,198,A,42.1103398324345,52.013190006644784,2.105516991621725,0.8170212780732263,A,745.1635819998046,Correct
9,5,199,A,49.28953952587001,59.81995624802306,2.4644769762935006,0.9396496754342604,A,864.2384579998179,Correct
9,5,200,A,27.56470452110338,59.79640785765547,1.378235226055169,0.939279778183347,A,2211.413625000205,Correct
9,5,201,B,52.45207740195555,33.882337525754146,2.622603870097777,0.532222513286795,B,775.3093750002336,Correct
9,5,202,A,26.824371659179945,54.53649441136071,1.3412185829589973,0.856657250976358,A,1491.67958299995,Correct
9,5,203,B,78.15476968812149,64.43267282498624,3.907738484406075,1.0121060579906573,B,856.7940829998406,Correct
9,5,204,A,45.692112127023016,75.44162870444434,2.284605606351151,1.185034332563656,A,1511.1479159995724,Correct
9,5,205,A,27.57108781393471,52.910784845967,1.3785543906967355,0.8311206648388004,A,711.011666000104,Correct
9,5,206,A,23.88186105654948,40.09116161514314,1.194093052827474,0.629750494020074,A,501.0277080000378,Correct
9,5,207,B,81.20889879169053,67.63045176740435,4.060444939584527,1.0623366521571818,B,635.4852080003184,Correct
9,5,208,A,25.18799434139112,52.64106905381474,1.2593997170695561,0.826883979082887,A,844.3817489996945,Correct
9,5,209,A,19.898101194672336,47.93132040141182,0.9949050597336168,0.7529034202496695,A,932.705833,Correct
9,5,210,B,62.37409526041763,42.29612025316997,3.1187047630208813,0.6643859033135462,B,781.6109159998632,Correct
9,5,211,A,57.17977774561507,82.37993106771535,2.8589888872807534,1.2940209312278406,A,918.9511250001487,Correct
9,5,212,A,61.45793645051353,81.38675707689826,3.0728968225256765,1.2784201906614034,A,772.5500829997145,Correct
9,5,213,A,53.17904525046179,78.18423881386849,2.6589522625230892,1.228115151420796,A,1194.5766660001027,Correct
9,5,214,A,35.307820321740586,61.72976116093861,1.7653910160870294,0.9696488208552863,A,872.5968740000098,Correct
9,5,215,B,71.2690763763234,42.229801753614595,3.5634538188161695,0.6633441747585448,B,542.6094580002427,Correct
9,5,216,A,40.44015128175376,62.914612366347356,2.0220075640876876,0.988260420067832,A,868.3881249999104,Correct
9,5,217,B,50.9408636877172,34.529339448261425,2.54704318438586,0.5423855957198316,B,606.3144989998364,Correct
9,5,218,B,40.148790899187645,29.844379939843968,2.0074395449593823,0.46879442384978204,B,556.0368750002453,Correct
9,5,219,A,39.94389623451322,62.82444858553764,1.9971948117256608,0.9868441307107736,A,815.1729999999588,Correct
9,5,220,B,54.21011653985967,43.03778702626085,2.7105058269929834,0.676035977742316,B,1834.6612499999537,Correct
9,5,221,B,82.00756543189186,58.317212026901984,4.100378271594593,0.9160446244077679,B,789.8220410002068,Correct
9,5,222,B,37.35920069998582,20.533496946572576,1.867960034999291,0.3225394157993043,B,1926.1239990000831,Correct
9,5,223,A,54.182334083585275,81.30436240056639,2.7091167041792636,1.2771259381121078,A,1037.9296240002986,Correct
9,5,224,A,33.888565464698424,52.1202076306737,1.6944282732349212,0.8187023069804957,A,1446.361707000051,Correct
9,5,225,A,62.5153487382579,88.03622520123187,3.125767436912895,1.3828697917098334,A,1240.5407500000365,Correct
9,5,226,B,57.08258804579546,25.94590401563696,2.854129402289773,0.40755730723135497,B,646.9256659997882,Correct
9,5,227,A,21.695474832087093,37.50915677616216,1.0847737416043546,0.5891924568516942,A,679.849624000326,Correct
9,5,228,B,53.276650205600795,26.169921354958614,2.6638325102800398,0.41107616336880315,B,943.9737910001895,Correct
9,5,229,B,55.32548035225031,48.221033872703444,2.7662740176125156,0.7574542288149486,B,1274.50616599981,Correct
9,5,230,A,17.466088961792455,33.72126573089905,0.8733044480896227,0.5296924034497086,A,779.6580829999584,Correct
9,5,231,A,21.919602570142864,47.95161798452463,1.0959801285071433,0.7532222539396339,A,2161.0475000002225,Correct
9,5,232,B,40.058460638058335,15.031337082602487,2.0029230319029168,0.23611169076167904,B,611.3775409999107,Correct
9,5,233,B,62.615502629717874,36.91821121469193,3.130775131485894,0.5799099056787623,B,525.5183330000364,Correct
9,5,234,A,19.629418887383455,38.034714320136686,0.9814709443691727,0.5974478954476395,A,662.7227499998298,Correct
9,5,235,B,64.17498437474795,54.80924556385918,3.2087492187373976,0.8609416160610947,B,6242.271873999925,Correct
9,5,236,A,53.13854473519616,63.85872537886471,2.656927236759808,1.0030905125892473,A,640.7949990002635,Correct
9,5,237,B,60.38909449412723,43.27020662184759,3.0194547247063617,0.6796868162125441,B,722.0725409997613,Correct
9,5,238,A,64.89532645850684,83.74397301036029,3.244766322925342,1.315447251958849,A,448.59595800016905,Correct
9,5,239,A,52.002511543381544,69.1843109549865,2.600125577169077,1.0867446151992872,B,1465.6352490001154,Incorrect
9,5,240,B,78.94288268851061,61.812319778567726,3.9471441344255305,0.9709456485884573,B,646.4557909998803,Correct
9,5,241,B,55.93305227704725,41.3566971269827,2.7966526138523626,0.6496294793543348,B,694.778832999873,Correct
9,5,242,B,39.213060794167404,22.496256573362924,1.9606530397083701,0.3533703719207403,B,515.7001239999772,Correct
9,5,243,A,14.33412878995075,36.09306007319669,0.7167064394975375,0.566948461857649,A,758.2372499996382,Correct
9,5,244,A,17.923993798363156,33.2078876597179,0.8961996899181578,0.5216282795650244,A,484.45479099973454,Correct
9,5,245,B,76.43147517116482,50.873202155124005,3.821573758558241,0.7991143907756301,B,452.38958199979606,Correct
9,5,246,A,39.50932636295709,58.94597429617719,1.9754663181478547,0.9259211990378152,A,3988.737250000213,Correct
9,5,247,B,46.45385429437394,22.618509134972086,2.322692714718697,0.3552907106679096,B,468.62712400024975,Correct
9,5,248,B,55.04041816558048,31.882655119975617,2.752020908279024,0.500811575509262,B,518.1715830003668,Correct
9,5,249,A,59.51894046635178,81.98169214976348,2.975947023317589,1.2877654089327848,A,598.1574989996261,Correct
9,5,250,A,39.047254374827,59.68329433129834,1.95236271874135,0.9375029950662211,A,1501.1161239999637,Correct
9,5,251,A,16.08821496205644,41.38668566137086,0.804410748102822,0.6501005381509637,A,486.4115820000734,Correct
9,5,252,B,64.73529952682065,47.821888190779895,3.236764976341033,0.7511844631047331,B,501.3058330000604,Correct
9,5,253,B,86.50266093152733,62.194631311241324,4.325133046576366,0.9769509841006072,B,581.4622910002072,Correct
9,5,254,B,47.19050055977369,33.843738903976345,2.3595250279886844,0.5316162075537159,B,535.390582999753,Correct
9,5,255,B,80.23320821100363,65.91150974264083,4.011660410550181,1.0353355739724626,B,500.8778739997979,Correct
9,5,256,B,43.85660288953781,31.04311850054212,2.1928301444768907,0.48762416512910256,B,822.9529579998598,Correct
9,5,257,B,67.04141546228799,44.03546165390673,3.3520707731143995,0.6917074141467422,B,2472.4802910000108,Correct
9,5,258,B,67.60929186273286,35.162390957490835,3.380464593136643,0.5523295455735269,B,537.8843329999654,Correct
9,5,259,B,62.69804208065884,32.21593644562448,3.134902104032942,0.5060467463304477,B,563.8439580002341,Correct
9,5,260,B,71.30938168574932,47.75707171496272,3.5654690842874657,0.7501663282834391,B,686.9577500001469,Correct
9,5,261,A,15.913128482626028,30.918656209897836,0.7956564241313014,0.4856691160394174,A,869.3924990002415,Correct
9,5,262,A,43.41297769120816,52.06870928785323,2.1706488845604084,0.8178933729031117,A,905.9932079999271,Correct
9,5,263,B,59.15186479862842,31.91105824511755,2.9575932399314206,0.5012577307556865,B,574.5317490000161,Correct
9,5,264,B,63.73066343395477,32.64849363672556,3.1865331716977385,0.5128413387995506,B,1140.924541000004,Correct
9,5,265,B,73.1686520764813,41.210276450176345,3.658432603824065,0.6473295087413924,B,1560.5001250000896,Correct
9,5,266,A,43.98983061487672,70.06041897464921,2.199491530743836,1.1005064877909045,A,694.5388320000347,Correct
9,5,267,A,45.06352367156714,75.99791487858428,2.253176183578357,1.193772455353514,A,957.1511239996653,Correct
9,5,268,B,68.74504028452999,45.489375062466664,3.4372520142264995,0.71454543256318,B,1184.6742909997374,Correct
9,5,269,A,42.79785503133371,75.22854225814467,2.1398927515666855,1.1816871784922829,A,873.2892079997328,Correct
9,5,270,A,19.10317215936832,50.461641820198025,0.9551586079684159,0.7926496161520679,A,937.6643739997235,Correct
9,5,271,B,58.703252568470006,51.550810809912434,2.9351626284235004,0.809758242635091,B,1014.4486250001137,Correct
9,5,272,B,45.42457493088968,24.029852473043753,2.2712287465444843,0.3774600399808039,B,1582.2817080002096,Correct
9,5,273,A,14.769877085886048,36.15199732751859,0.7384938542943025,0.5678742460836513,A,1111.6274159999193,Correct
9,5,274,B,59.38687006159307,37.25863368469106,2.969343503079654,0.5852572493330932,B,936.975583000276,Correct
9,5,275,A,56.36431924381896,83.64903104266313,2.818215962190948,1.3139559070176752,A,1073.6282910002046,Correct
9,5,276,B,74.41257555741184,46.1371440944816,3.7206287778705924,0.7247205647241856,B,873.08212500011,Correct
9,5,277,A,17.53313243878022,33.23955968478742,0.8766566219390112,0.522125782571438,A,725.4038329997456,Correct
9,5,278,A,34.164716619271346,54.160404855043296,1.7082358309635675,0.8507496500402649,A,1428.1824989998313,Correct
9,5,279,A,21.88941097441753,46.306545118522905,1.0944705487208766,0.7273815097873794,A,721.0902070000884,Correct
9,5,280,B,31.76655007331849,17.68340522826587,1.5883275036659246,0.27777027977785695,B,805.5468329998803,Correct
9,5,281,B,71.68387864383561,54.459836487525216,3.5841939321917806,0.8554531111245528,B,1105.7606239996858,Correct
9,5,282,B,59.70266002681623,48.32187547514804,2.9851330013408117,0.7590382450020295,B,1029.4226249998246,Correct
9,5,283,A,25.52394986274532,55.48413326133878,1.276197493137266,0.8715427272230951,A,753.0167079999046,Correct
9,5,284,B,65.04878289400992,53.13709240037304,3.2524391447004963,0.8346754955906699,B,804.7404989997631,Correct
9,5,285,A,28.111486584944487,50.58717914399327,1.4055743292472243,0.7946215518230003,A,784.9886250000964,Correct
9,5,286,A,39.44196211330606,54.031847694918085,1.972098105665303,0.8487302788911864,B,475.4842910001571,Incorrect
9,5,287,A,21.419979485844774,44.75788684439681,1.0709989742922388,0.7030552425028014,A,834.9593329999152,Correct
9,5,288,B,56.034869824850986,44.68279861820039,2.8017434912425494,0.7018757594038525,B,718.7299159995746,Correct
9,5,289,A,26.308258172535645,40.104725075054006,1.3154129086267823,0.6299635483501402,A,1273.1067079998866,Correct
9,5,290,A,27.19331106341415,41.46962305331563,1.3596655531707074,0.6514033156571716,A,2373.012832999848,Correct
9,5,291,A,33.41787583819401,62.35602946427622,1.6708937919097002,0.9794862203599943,A,947.0435000002908,Correct
9,5,292,A,50.538165138995254,59.05131854970076,2.5269082569497625,0.927575942702653,A,1075.9322909998446,Correct
9,5,293,A,22.39877089199741,35.12987886790957,1.1199385445998704,0.5518188468646201,A,1235.9757079998417,Correct
9,5,294,A,51.712269497257466,76.11689327096326,2.5856134748628734,1.1956413635706826,A,2311.205541000163,Correct
9,5,295,B,44.04492797857591,33.97013984675609,2.2022463989287955,0.5336017089199342,B,3318.4875409997403,Correct
9,5,296,B,37.341780009586756,18.498039267151814,1.867089000479338,0.29056652133749833,B,555.1692909998565,Correct
9,5,297,A,30.54757593840194,47.748237516530224,1.527378796920097,0.7500275610189596,A,1798.951333000332,Correct
9,5,298,A,36.42340277420335,68.93036969932903,1.8211701387101675,1.0827557152832028,A,859.0720000001966,Correct
9,5,299,B,37.18938079526336,14.617878860163461,1.8594690397631681,0.22961710419077536,B,744.9472490002336,Correct
