subject,day,trial,cat,x,y,xt,yt,resp,rt,fb,ns_left_digit,ns_right_digit,ns_left_size,ns_right_size,ns_congruent,ns_cue,ns_correct_side,ns_resp,ns_rt,ns_fb
1,22,0,A,30.54836202539635,61.815456787248785,1.5274181012698176,0.9709949246055903,A,2066.8573000002652,Correct,6,4,small,big,False,Size,right,right,757.4703000718728,Correct
1,22,1,A,38.55193815274842,55.92774410604587,1.927596907637421,0.8785109500770178,A,1025.2987999701872,Correct,4,8,big,small,False,Value,right,right,476.4736999059096,Correct
1,22,2,B,77.07501278807568,60.655834914825476,3.8537506394037844,0.952779626828855,A,1315.7458000350744,Incorrect,6,4,small,big,False,Size,right,right,1283.9912000345066,Correct
1,22,3,B,65.27729249917788,36.208029489484055,3.2638646249588934,0.5687543972256285,B,1536.371499998495,Correct,7,4,small,big,False,Size,right,right,653.6407999228686,Correct
1,22,4,B,76.37781929399976,59.943351467465085,3.8188909646999885,0.9415879630086963,A,1282.1765000699088,Incorrect,7,4,big,small,True,Size,left,left,1374.5314000407234,Correct
1,22,5,B,80.20547640610614,60.79554920660783,4.010273820305307,0.9549742537921797,B,1556.3323000678793,Correct,3,4,big,small,False,Size,left,left,811.3181000808254,Correct
1,22,6,A,57.89468733037562,78.18646330500519,2.8947343665187812,1.2281500936458614,A,826.8771000439301,Correct,6,4,small,big,False,Size,right,right,728.9527000393718,Correct
1,22,7,B,78.207968947955,57.461889864065924,3.9103984473977498,0.9026092552916765,B,1275.031599914655,Correct,3,4,big,small,False,Value,right,right,1030.6524999905378,Correct
1,22,8,B,59.62094018080518,34.9290940538503,2.981047009040259,0.5486649263806151,B,1595.1523000840098,Correct,6,7,big,small,False,Size,left,left,944.4210000801831,Correct
1,22,9,A,20.874852430438605,47.563682514539664,1.0437426215219303,0.7471285778267756,A,1765.105800004676,Correct,3,7,big,small,False,Size,left,left,555.0684999907389,Correct
1,22,10,A,53.62791517925762,73.6635009476056,2.6813957589628807,1.1571035670735128,A,1161.0611999640241,Correct,3,8,big,small,False,Size,left,left,525.988900102675,Correct
1,22,11,A,60.504181170255194,72.83327837346276,3.02520905851276,1.1440624613746548,A,852.398700080812,Correct,6,5,small,big,False,Value,left,left,1140.418899944052,Correct
1,22,12,A,57.423184313303004,67.36110339744963,2.87115921566515,1.0581057378556509,A,870.6714999862015,Correct,7,2,small,big,False,Size,right,right,380.1044999854639,Correct
1,22,13,B,39.17128182439414,21.685284226616165,1.9585640912197073,0.3406316480867198,B,2351.0470000328496,Correct,7,2,small,big,False,Size,right,right,561.8441998958588,Correct
1,22,14,B,43.49496017583614,20.237861493808364,2.174748008791807,0.3178955849665806,B,1865.0269000791013,Correct,8,4,small,big,False,Value,left,left,422.96240001451224,Correct
1,22,15,A,56.899806872943515,78.79284607825262,2.8449903436471753,1.2376751319743489,A,714.120699907653,Correct,6,2,small,big,False,Size,right,right,759.3216999666765,Correct
1,22,16,B,66.97938107301837,43.179986778999286,3.3489690536509187,0.6782696462350427,B,1448.281200020574,Correct,3,2,big,small,True,Size,left,right,484.1610000003129,Incorrect
1,22,17,B,83.59569455636877,61.38827927287016,4.179784727818438,0.9642848359008371,B,1186.1487999558449,Correct,4,2,small,big,False,Size,right,right,537.0358999352902,Correct
1,22,18,B,58.1637057342399,45.202823517780246,2.908185286711995,0.7100442914248717,A,2963.793499977328,Incorrect,3,6,big,small,False,Value,right,right,782.9859999474138,Correct
1,22,19,A,30.018459269154064,58.40232300990699,1.500922963457703,0.9173815446025098,A,2314.7647000150755,Correct,3,8,big,small,False,Value,right,right,578.8412999827415,Correct
1,22,20,B,39.2675602311984,20.046838184320045,1.96337801155992,0.314894997837816,B,939.8775999434292,Correct,8,3,big,small,True,Size,left,left,1156.6285999724641,Correct
1,22,21,B,32.65169046457862,19.41213065698403,1.632584523228931,0.3049250353125312,A,3760.322400019504,Incorrect,8,7,small,big,False,Value,left,right,1924.5860999217257,Incorrect
1,22,22,A,36.812031958387756,59.71035585036657,1.840601597919388,0.9379280764137197,A,2453.694500029087,Correct,4,7,small,big,True,Size,right,left,667.5078000407666,Incorrect
1,22,23,B,62.68477221180679,37.029817124805795,3.134238610590339,0.581663007215317,B,1174.7603999683633,Correct,6,3,small,big,False,Value,left,left,676.9000999629498,Correct
1,22,24,B,88.50083793066831,68.31529956842726,4.425041896533416,1.0730942162597854,A,1053.4114999463782,Incorrect,2,3,big,small,False,Size,left,left,975.777699961327,Correct
1,22,25,A,21.731928216460933,35.133764439817256,1.0865964108230466,0.5518798812854211,A,1708.4838000591844,Correct,6,2,small,big,False,Value,left,left,828.2127999700606,Correct
1,22,26,B,52.77829671127006,39.15462282285998,2.638914835563503,0.6150393770718807,B,2777.657200000249,Correct,6,2,big,small,True,Size,left,left,1168.044500052929,Correct
1,22,27,B,77.96017525509295,59.1185863047117,3.898008762754648,0.9286325821274821,A,870.5869000405073,Incorrect,7,6,small,big,False,Size,right,right,1717.7830999717116,Correct
1,22,28,B,48.483505131348075,20.52753352524001,2.4241752565674037,0.322445742596061,B,1625.390600063838,Correct,6,4,small,big,False,Size,right,left,1660.6323000742123,Incorrect
1,22,29,A,31.14690591602742,57.16447012555982,1.5573452958013712,0.8979373969640595,A,1265.0185000384226,Correct,4,5,small,big,True,Size,right,right,1231.5048999153078,Correct
1,22,30,A,37.954805304243514,49.55602766689931,1.8977402652121755,0.7784242622971171,A,1909.2972999205813,Correct,2,4,big,small,False,Size,left,left,435.82859996240586,Correct
1,22,31,A,16.726784829606707,41.07910944904014,0.8363392414803354,0.6452691423055779,A,1101.2994999764487,Correct,2,8,small,big,True,Size,right,right,764.3448999151587,Correct
1,22,32,B,79.85430404658658,63.0476707461187,3.9927152023293284,0.9903504962097731,B,2606.4404000062495,Correct,7,2,small,big,False,Value,left,left,497.3893000278622,Correct
1,22,33,B,87.38060070414362,61.67464694185398,4.369030035207181,0.9687830887263633,A,2358.7702999357134,Incorrect,3,6,big,small,False,Value,right,right,854.5862999744713,Correct
1,22,34,A,33.25498480360941,63.94611358239863,1.6627492401804704,1.0044632032804102,A,3318.1343000615016,Correct,8,4,small,big,False,Value,left,left,426.003500004299,Correct
1,22,35,B,56.1736546343509,28.62873013250104,2.8086827317175453,0.44969904132935007,B,1739.777100039646,Correct,6,4,small,big,False,Value,left,left,915.1868000626564,Correct
1,22,36,A,43.40701376693029,69.6800630459047,2.1703506883465145,1.0945318708334393,A,1202.728800009936,Correct,6,2,small,big,False,Size,right,right,559.8775999387726,Correct
1,22,37,A,32.74859626577046,65.48369230646063,1.637429813288523,1.0286154333995559,A,1413.81719999481,Correct,7,4,small,big,False,Size,right,right,387.05130002927035,Correct
1,22,38,B,81.11449118597042,54.05136211419814,4.055724559298522,0.8490368106724328,B,2226.4952999539673,Correct,2,4,big,small,False,Size,left,left,434.5628999872133,Correct
1,22,39,B,54.05683410005522,23.62698847601647,2.702841705002761,0.3711318671135203,B,1062.9902000073344,Correct,2,5,big,small,False,Value,right,right,1153.4512999933213,Correct
1,22,40,B,67.94482238487424,56.50074230335338,3.397241119243712,0.8875115847129251,A,854.8469000961632,Incorrect,4,8,big,small,False,Size,left,left,1419.9577000690624,Correct
1,22,41,B,85.19152932396189,57.32575415236239,4.259576466198094,0.9004708405327814,B,1853.3145999535918,Correct,6,5,small,big,False,Size,right,right,440.5663999496028,Correct
1,22,42,A,21.136610506028905,36.106498348689485,1.0568305253014452,0.5671595497954744,A,1446.5377000160515,Correct,6,5,big,small,True,Value,left,left,898.5401999671012,Correct
1,22,43,A,22.24849829309316,34.56289675678674,1.112424914654658,0.5429127126895186,A,2468.157200026326,Correct,2,6,small,big,True,Size,right,right,454.39329999499023,Correct
1,22,44,B,86.2703982142585,65.59718626914324,4.313519910712926,1.0303981923965082,B,1362.5765000469983,Correct,8,3,small,big,False,Value,left,left,592.3861999763176,Correct
1,22,45,A,26.266750049904843,39.76690667846263,1.313337502495242,0.6246571093852454,A,1097.5452000275254,Correct,8,6,small,big,False,Value,left,left,3191.397999995388,Correct
1,22,46,B,78.97829838612384,60.26228698698446,3.948914919306192,0.9465977904341509,B,981.5473000053316,Correct,5,2,small,big,False,Size,right,right,584.7735999850556,Correct
1,22,47,A,17.190840138909934,32.579579450559706,0.8595420069454967,0.5117588372946168,A,1026.7136000329629,Correct,5,4,small,big,False,Size,right,right,406.78610000759363,Correct
1,22,48,A,38.69410450706031,71.66602014422493,1.9347052253530155,1.1257272119855757,A,1155.2432000171393,Correct,4,5,big,small,False,Size,left,left,409.2190000228584,Correct
1,22,49,A,51.87251395207855,81.42019403733357,2.5936256976039274,1.2789454172077133,A,882.9720000503585,Correct,5,8,big,small,False,Value,right,right,734.7543999785557,Correct
1,22,50,A,18.68642434564636,36.41516135969311,0.9343212172823179,0.5720080170344938,A,1359.5949999289587,Correct,7,8,big,small,False,Value,right,right,869.3725999910384,Correct
1,22,51,A,21.992360351902505,52.058959171036115,1.0996180175951253,0.8177402184262903,A,1600.8839999558404,Correct,2,3,big,small,False,Value,right,right,1014.1950999386609,Correct
1,22,52,A,52.17407584902267,63.80612226057506,2.6087037924511334,1.002264224739374,A,798.1977000599727,Correct,2,8,big,small,False,Value,right,right,1161.3746000221,Correct
1,22,53,B,55.1824199382724,28.5472839118398,2.7591209969136203,0.44841968708689,B,744.7619000449777,Correct,2,5,big,small,False,Value,right,right,563.5080999927595,Correct
1,22,54,B,32.3896426028562,19.059848847715074,1.6194821301428102,0.2993914055925678,B,994.5525999646634,Correct,3,2,big,small,True,Size,left,left,911.5649999585003,Correct
1,22,55,A,43.56117613656266,73.6170643655143,2.178058806828133,1.1563741429477332,A,738.4473999263719,Correct,5,7,small,big,True,Value,right,right,311.63339992053807,Correct
1,22,56,A,23.63149987671028,39.9451905127275,1.181574993835514,0.6274575853051471,A,1422.1295000752434,Correct,8,7,small,big,False,Value,left,left,738.4091999847442,Correct
1,22,57,A,33.31154606063848,53.715239437870785,1.6655773030319239,0.843757008019158,A,1133.3678999217227,Correct,3,8,big,small,False,Value,right,right,506.2944999663159,Correct
1,22,58,B,51.86625967781026,35.778323508840586,2.593312983890513,0.5620045914656628,A,1417.2473999205977,Incorrect,6,2,big,small,True,Size,left,left,444.4194999523461,Correct
1,22,59,B,76.7518306836746,44.31776315346059,3.83759153418373,0.6961417957322211,B,1130.658600013703,Correct,8,6,small,big,False,Value,left,left,630.8251000009477,Correct
1,22,60,B,51.43735332083003,22.08461097790548,2.571867666041501,0.3469042580278818,B,1750.123200006783,Correct,2,6,big,small,False,Size,left,left,619.3685999605805,Correct
1,22,61,B,37.526173104033404,26.498046392040017,1.8763086552016701,0.41623033939857224,B,2586.0893999924883,Correct,5,2,small,big,False,Value,left,left,666.162500041537,Correct
1,22,62,B,62.112343729722795,42.27068367999034,3.10561718648614,0.6639863465563782,A,1084.7898999927565,Incorrect,2,4,small,big,True,Value,right,right,853.28889999073,Correct
1,22,63,B,39.787633217590596,19.211714664087022,1.9893816608795298,0.30177690825779546,B,791.7595999315381,Correct,7,3,big,small,True,Size,left,left,1624.0699999034405,Correct
1,22,64,A,62.79634155480049,80.13339315750557,3.139817077740025,1.2587323962542103,A,1341.822100104764,Correct,8,3,small,big,False,Value,left,left,1194.8226999957114,Correct
1,22,65,B,65.94294101968923,54.33642407340948,3.2971470509844614,0.8535145534568142,B,1605.2423999644816,Correct,2,6,big,small,False,Value,right,right,559.4522000756115,Correct
1,22,66,A,48.88610360061113,63.23112004218297,2.4443051800305566,0.9932321110138816,A,676.0570000624284,Correct,2,4,big,small,False,Size,left,left,435.99020002875477,Correct
1,22,67,A,15.863060156595807,35.618943611416285,0.7931530078297904,0.5595010578912726,A,2764.4879000727087,Correct,8,5,small,big,False,Value,left,left,1834.6543000079691,Correct
1,22,68,A,29.31997364666484,44.81913942123363,1.465998682333242,0.7040173957298212,A,2702.7282000053674,Correct,3,5,small,big,True,Size,right,right,362.71430004853755,Correct
1,22,69,A,40.326596273074536,53.99284269023629,2.016329813653727,0.8481175897103783,A,759.258099948056,Correct,2,4,big,small,False,Value,right,right,1257.2056000353768,Correct
1,22,70,A,43.63255458383139,74.67674042894006,2.1816277291915696,1.17301949562795,A,886.5231999661773,Correct,5,2,small,big,False,Value,left,left,547.9613000061363,Correct
1,22,71,A,38.98728509296043,61.85094885289433,1.9493642546480214,0.9715524326690541,A,1114.5414999919012,Correct,3,6,big,small,False,Value,right,right,389.4806000171229,Correct
1,22,72,B,81.55478372800277,64.77435431655249,4.077739186400139,1.017473178309518,B,872.3626000573859,Correct,6,5,big,small,True,Value,left,left,638.9334999257699,Correct
1,22,73,B,82.10107054546462,59.13582222849672,4.105053527273231,0.9289033233851864,A,897.46289991308,Incorrect,3,6,small,big,True,Size,right,right,693.6092999530956,Correct
1,22,74,B,43.45159939963149,19.321717596236304,2.172579969981575,0.303504830275363,B,1203.6808000411838,Correct,7,3,small,big,False,Value,left,left,2314.947500010021,Correct
1,22,75,A,14.873818459678105,34.322087628243096,0.7436909229839053,0.5391300917437681,A,6946.000500000082,Correct,3,7,big,small,False,Size,left,left,751.4215999981388,Correct
1,22,76,B,85.23192126105899,58.217869496780935,4.2615960630529495,0.9144841555936816,B,799.9999000458047,Correct,6,3,small,big,False,Size,right,right,1397.5271000526845,Correct
1,22,77,B,46.26194214555084,18.804455953919643,2.313097107277542,0.29537970339793396,B,1304.0334000252187,Correct,6,2,small,big,False,Size,right,right,465.98310000263155,Correct
1,22,78,B,81.95045774508937,53.82365823905284,4.097522887254468,0.8454600465656807,B,909.3836999963969,Correct,6,7,big,small,False,Value,right,right,1002.4817000376061,Correct
1,22,79,A,18.766320603336435,32.0383334176136,0.9383160301668219,0.5032569644901762,A,729.3333999114111,Correct,3,2,small,big,False,Value,left,left,1032.0042000385001,Correct
1,22,80,A,62.66741098319415,72.2193366225499,3.1333705491597077,1.1344186869026553,A,1798.3888000017032,Correct,7,5,small,big,False,Value,left,left,742.2714000567794,Correct
1,22,81,A,34.1656238348057,66.26219665885938,1.708281191740285,1.0408441511709738,A,772.7680000243708,Correct,2,4,big,small,False,Size,left,left,1055.1951000234112,Correct
1,22,82,B,62.188999183422126,38.69062582883356,3.1094499591711067,0.6077509293332751,B,784.9385000299662,Correct,8,4,small,big,False,Value,left,left,975.8911000099033,Correct
1,22,83,B,43.864582332918985,35.25128748618877,2.1932291166459494,0.5537259289809623,B,817.5554000772536,Correct,3,5,big,small,False,Size,left,left,1628.381900023669,Correct
1,22,84,B,54.32269144419179,24.25014495777752,2.7161345722095893,0.38092038623920704,B,632.9840999096632,Correct,7,8,big,small,False,Value,right,right,616.2783000618219,Correct
1,22,85,A,18.414364792462163,44.059009510093844,0.9207182396231082,0.6920773030067683,A,1821.6366999549791,Correct,4,2,big,small,True,Size,left,left,341.5450999746099,Correct
1,22,86,A,34.27393856425125,61.71116225153171,1.7136969282125625,0.969356669869499,A,730.5283999303356,Correct,8,6,small,big,False,Value,left,left,419.31709996424615,Correct
1,22,87,A,52.57515843841559,74.71323902251191,2.6287579219207795,1.1735928141951082,A,682.3703000554815,Correct,5,6,big,small,False,Value,right,right,642.8237000945956,Correct
1,22,88,B,34.11711605820465,18.98172041836129,1.7058558029102326,0.29816416709409604,B,810.4532000143081,Correct,3,4,big,small,False,Size,left,left,500.7935999892652,Correct
1,22,89,B,46.135602829839506,28.210865097754763,2.3067801414919753,0.4431352327125953,B,996.1502000223845,Correct,4,3,small,big,False,Size,right,right,372.9536000173539,Correct
1,22,90,A,21.576648275291678,48.78794886812278,1.078832413764584,0.766359308739045,A,801.3692999957129,Correct,2,3,big,small,False,Value,right,right,1024.5638999622315,Correct
1,22,91,A,32.45524053056789,52.661475605102524,1.6227620265283946,0.827204524440941,A,813.5027999524027,Correct,8,2,small,big,False,Value,left,left,1200.6058000260964,Correct
1,22,92,A,25.660501003795325,45.88595370003216,1.2830250501897664,0.7207748752349121,B,2002.3760000476614,Incorrect,8,4,small,big,False,Size,right,right,377.2027000086382,Correct
1,22,93,A,28.01026918363605,45.97178729728328,1.4005134591818027,0.7221231462276886,A,893.8320999732241,Correct,7,2,big,small,True,Value,left,left,312.25390010513365,Correct
1,22,94,A,52.808239457099106,64.11781215725186,2.640411972854955,1.0071602381873639,A,619.6989000309259,Correct,7,6,small,big,False,Size,right,right,360.45220005325973,Correct
1,22,95,B,71.4018981253315,51.07836132356469,3.570094906266575,0.8023370234575793,B,690.5231999699026,Correct,6,7,small,big,True,Value,right,right,419.1552000120282,Correct
1,22,96,A,53.45099897894161,77.07547321022334,2.6725499489470805,1.2106987020459727,A,571.3082000147551,Correct,6,8,big,small,False,Size,left,left,416.01120005361736,Correct
1,22,97,B,44.11619732282214,14.663676930924268,2.2058098661411067,0.23033649860402905,B,685.0770999444649,Correct,3,8,small,big,True,Value,right,right,1456.728099961765,Correct
1,22,98,B,54.39271567480811,34.00959127881657,2.7196357837404053,0.5342214105656081,B,1332.2967999847606,Correct,5,7,big,small,False,Value,right,right,936.9339001132175,Correct
1,22,99,A,38.94600144495882,56.378880780630936,1.947300072247941,0.8855973883902247,A,1943.9965999918059,Correct,7,5,small,big,False,Size,right,right,404.76659999694675,Correct
1,22,100,A,60.31847827370065,78.09060893921497,3.0159239136850324,1.226644416788956,A,745.5631999764591,Correct,8,4,small,big,False,Size,right,right,527.7812998974696,Correct
1,22,101,A,44.241294802467046,75.7001426447975,2.212064740123352,1.1890950600429762,A,736.5464000031352,Correct,6,3,small,big,False,Value,left,left,867.3576000146568,Correct
1,22,102,A,48.82831412556321,68.70921182435667,2.4414157062781605,1.0792817755067194,A,1545.2217999845743,Correct,6,3,big,small,True,Value,left,left,241.25760002061725,Correct
1,22,103,B,38.61015093945019,16.464898184196073,1.9305075469725097,0.25863001588787154,B,939.52559994068,Correct,2,7,small,big,True,Value,right,right,219.1543000517413,Correct
1,22,104,A,52.9341225186583,71.20531795262497,2.6467061259329148,1.11849051888246,A,653.613300062716,Correct,8,7,small,big,False,Size,right,right,506.71650003641844,Correct
1,22,105,B,59.79660392278395,47.78636769203148,2.9898301961391973,0.7506265084151336,A,1827.9829999664798,Incorrect,7,2,small,big,False,Value,left,left,559.9972000345588,Correct
1,22,106,A,26.272383673830074,45.54153329144433,1.3136191836915037,0.7153647321080827,A,1320.756100001745,Correct,3,5,big,small,False,Value,right,right,817.8017999744043,Correct
1,22,107,A,60.202093751966416,81.90193517056925,3.0101046875983206,1.2865125892332392,A,756.734500057064,Correct,8,4,small,big,False,Value,left,right,648.127100081183,Incorrect
1,22,108,A,39.38175130537265,48.335711837018074,1.9690875652686328,0.7592555860660458,B,2913.955399999395,Incorrect,4,7,big,small,False,Size,left,left,493.28469997271895,Correct
1,22,109,B,35.231516090734424,11.195494309489945,1.7615758045367214,0.17585841337999972,B,754.7684999881312,Correct,6,8,big,small,False,Value,right,right,1174.0141999907792,Correct
1,22,110,B,56.80277255320045,44.50540381351681,2.8401386276600227,0.6990892483279578,B,947.5448000011966,Correct,3,2,small,big,False,Size,right,right,371.60660000517964,Correct
1,22,111,A,36.600861166672935,59.03886956234198,1.8300430583336467,0.927380394466498,A,600.0467999838293,Correct,7,6,small,big,False,Size,right,right,580.8162000030279,Correct
1,22,112,B,74.0912005359352,41.22758323358591,3.7045600267967598,0.6476013630594761,B,890.5381000367925,Correct,2,8,big,small,False,Size,left,left,1178.5882000112906,Correct
1,22,113,A,28.885664260188257,55.43222036578224,1.444283213009413,0.87072728136656,A,1410.508400062099,Correct,4,7,big,small,False,Size,left,left,596.5638000052422,Correct
1,22,114,B,70.5599692432018,38.83275960968113,3.5279984621600904,0.6099835615419634,B,644.331399933435,Correct,5,2,small,big,False,Value,left,left,449.97250009328127,Correct
1,22,115,B,67.16461004980223,41.57811999617682,3.358230502490112,0.6531075816503199,B,871.4536000043154,Correct,4,6,small,big,True,Size,right,right,947.7672000648454,Correct
1,22,116,A,39.417235721226795,72.11919244610492,1.9708617860613398,1.1328456258575588,A,1310.2912999456748,Correct,6,7,big,small,False,Value,right,right,543.8439999707043,Correct
1,22,117,B,78.0101937373262,46.615324923133244,3.90050968686631,0.732231811616083,B,1212.6927999779582,Correct,2,7,big,small,False,Size,left,left,603.9256000658497,Correct
1,22,118,A,30.9857668228665,57.254512149861974,1.549288341143325,0.8993517737743697,A,741.2104000104591,Correct,4,2,small,big,False,Size,right,right,396.6582999564707,Correct
1,22,119,A,32.9334482882213,57.55290987533369,1.6466724144110652,0.9040389942853188,A,2529.637199942954,Correct,8,2,big,small,True,Value,left,left,444.4849999854341,Correct
1,22,120,B,71.4189179746075,58.111430776524784,3.5709458987303746,0.9128122200856104,B,1137.510500033386,Correct,6,3,small,big,False,Size,right,right,812.0033000595868,Correct
1,22,121,A,14.910156709648316,32.29909691558095,0.7455078354824158,0.5073530279378693,A,1145.5965000204742,Correct,2,3,small,big,True,Value,right,left,942.0172000536695,Incorrect
1,22,122,B,51.18270008068938,35.927498808084955,2.559135004034469,0.5643478315866787,B,2142.236900050193,Correct,7,5,big,small,True,Value,left,left,222.97579993028194,Correct
1,22,123,B,64.75946062179477,47.69642783782179,3.237973031089739,0.7492137364888832,A,1948.1977000832558,Incorrect,3,5,small,big,True,Size,right,right,74.12289991043508,Correct
1,22,124,B,39.56352226309342,15.461668417696895,1.9781761131546711,0.24287131956638944,B,777.098499936983,Correct,7,8,big,small,False,Value,right,right,408.9759000344202,Correct
1,22,125,A,27.779521173526774,50.15346274498597,1.3889760586763387,0.7878087505586865,A,784.6912000095472,Correct,8,7,small,big,False,Value,left,left,771.0679000010714,Correct
1,22,126,B,58.72111982378285,30.375329588730086,2.9360559911891424,0.47713456143161553,B,632.7359999995679,Correct,5,8,small,big,True,Value,right,right,1779.6827000565827,Correct
1,22,127,A,45.159288728164405,68.99019023196001,2.25796443640822,1.0836953740124393,A,696.9616999849677,Correct,2,6,big,small,False,Size,left,left,583.7732999352738,Correct
1,22,128,A,63.023364424236775,75.69860663115651,3.151168221211839,1.1890709323971245,A,979.6852000290528,Correct,7,5,small,big,False,Value,left,left,747.7053999900818,Correct
1,22,129,B,33.13419793339931,19.33989051248719,1.6567098966699654,0.30379028977630346,B,977.1237999666482,Correct,7,5,small,big,False,Size,right,right,1182.4190999614075,Correct
1,22,130,A,63.00551547634238,89.09675694385454,3.1502757738171194,1.3995285853674442,A,1022.5293999537826,Correct,2,6,big,small,False,Size,left,right,1849.3296999949962,Incorrect
1,22,131,A,48.331257111307124,64.93541477695891,2.416562855565356,1.020003110105501,A,1220.0415999395773,Correct,4,7,big,small,False,Size,left,left,684.0607000049204,Correct
1,22,132,B,73.47165474253677,54.02379794715412,3.6735827371268384,0.8486038337489936,B,733.2973000593483,Correct,8,2,small,big,False,Value,left,left,730.1049999659881,Correct
1,22,133,A,53.919533548068415,62.05826467963587,2.695976677403421,0.9748089420603749,A,1147.7673000190407,Correct,5,2,small,big,False,Size,right,right,403.4979999996722,Correct
1,22,134,A,38.23432003463485,66.63185944975079,1.9117160017317423,1.0466508007118236,A,1226.7177000176162,Correct,2,7,small,big,True,Size,right,right,357.1997999679297,Correct
1,22,135,B,67.02244499991207,34.635924502358016,3.3511222499956035,0.5440598298344933,B,1118.0942000355572,Correct,2,7,big,small,False,Value,right,right,450.99679997656494,Correct
1,22,136,A,55.759750324636244,69.27764193395254,2.787987516231812,1.0882106547886474,A,626.897000009194,Correct,7,2,small,big,False,Size,right,right,366.442900034599,Correct
1,22,137,A,44.562990060650904,74.5731471678754,2.2281495030325456,1.1713922564883392,A,811.068799928762,Correct,6,8,big,small,False,Value,right,right,503.444500034675,Correct
1,22,138,A,51.655888269290315,81.00383966367323,2.5827944134645158,1.2724053379998066,A,1556.159200030379,Correct,6,7,big,small,False,Size,left,left,656.558100017719,Correct
1,22,139,B,74.94823880346999,61.03792199544037,3.747411940173499,0.9587814366563114,B,780.1194000057876,Correct,2,6,big,small,False,Size,left,left,1916.3215999724343,Correct
1,22,140,B,78.88986925378957,52.987497587415525,3.9444934626894788,0.8323256657636575,B,818.4663999127224,Correct,7,6,small,big,False,Value,left,left,1620.683400076814,Correct
1,22,141,A,18.75123150921021,42.88620633112757,0.9375615754605106,0.6736549537510322,A,820.0603000586852,Correct,8,2,small,big,False,Size,right,right,804.23319991678,Correct
1,22,142,B,84.78298752579468,62.99328225924285,4.239149376289734,0.9894961638557278,A,785.7610000064597,Incorrect,2,5,big,small,False,Value,right,right,820.598200079985,Correct
1,22,143,B,30.281656267964465,11.856654157308881,1.5140828133982234,0.18624388798378227,B,995.1257000211626,Correct,2,7,big,small,False,Value,right,right,395.7611999940127,Correct
1,22,144,B,54.88108880785753,31.00692833163663,2.7440544403928766,0.4870556912852743,B,1034.0758999809623,Correct,7,6,small,big,False,Value,left,left,776.6834000358358,Correct
1,22,145,B,70.6519239689643,54.6273852520553,3.532596198448215,0.8580849609633816,B,1127.8676999500021,Correct,8,3,small,big,False,Size,right,right,831.948300008662,Correct
1,22,146,A,25.940254336267664,51.74953473302213,1.2970127168133831,0.8128797907197607,B,909.4164000125602,Incorrect,5,8,big,small,False,Value,right,right,642.2353000380099,Correct
1,22,147,A,38.15020727287982,53.796172080881284,1.9075103636439907,0.8450282950027449,A,1744.7461999254301,Correct,3,7,big,small,False,Value,right,right,392.8730000043288,Correct
1,22,148,B,80.63938817709814,66.87436253325494,4.0319694088549065,1.0504600302398712,B,909.6857999684289,Correct,8,3,big,small,True,Value,left,left,-6.472500041127205,Correct
1,22,149,A,32.75921331817146,46.09602032636343,1.6379606659085733,0.7240745940851455,B,1063.0555000388995,Incorrect,4,5,small,big,True,Value,right,right,425.31469999812543,Correct
1,22,150,B,73.27476648217066,54.490929175502096,3.6637383241085333,0.8559415139251957,B,1185.8298999723047,Correct,2,8,big,small,False,Size,left,left,684.0500000398606,Correct
1,22,151,B,40.388736183931805,17.558167350279987,2.01943680919659,0.27580304779069886,B,684.2434999998659,Correct,6,7,big,small,False,Size,left,left,1560.3839999530464,Correct
1,22,152,A,11.826560255826863,38.61877354482397,0.5913280127913432,0.6066222762953343,A,695.3008000273257,Correct,2,7,big,small,False,Value,right,right,511.5535999648273,Correct
1,22,153,A,35.38252278656252,62.89740127149441,1.7691261393281257,0.9879900688220806,A,771.7112000100315,Correct,3,4,big,small,False,Value,right,right,433.0465999664739,Correct
1,22,154,A,40.74041439045008,58.2362344724805,2.037020719522504,0.9147726319573869,A,1135.9476000070572,Correct,6,7,big,small,False,Value,right,right,881.0138999251649,Correct
1,22,155,A,20.87633233636983,47.87618275818866,1.0438166168184915,0.752037320175239,A,858.1074000103399,Correct,7,3,small,big,False,Value,left,left,969.0444000298157,Correct
1,22,156,A,28.319513444807782,42.80792160745098,1.4159756722403893,0.6724252601870788,B,779.4329000171274,Incorrect,4,7,small,big,True,Size,right,right,307.0306999143213,Correct
1,22,157,B,76.91185983737259,45.566538040976155,3.84559299186863,0.7157575057952528,B,1367.6730999723077,Correct,5,2,small,big,False,Value,left,left,513.2302000420168,Correct
1,22,158,B,74.25459312140508,60.73220302580084,3.712729656070254,0.9539792143108987,A,795.6549999071285,Incorrect,5,7,big,small,False,Size,left,left,932.874400052242,Correct
1,22,159,B,46.61498961233008,18.868621130934773,2.330749480616504,0.2963876076415691,B,663.2433000486344,Correct,5,2,small,big,False,Value,left,left,526.0436999378726,Correct
1,22,160,A,24.028976703860707,45.15402344382106,1.2014488351930352,0.7092777416556477,B,1047.4768000422046,Incorrect,6,2,small,big,False,Value,left,left,925.1059000380337,Correct
1,22,161,A,65.82999910537802,77.4599257134613,3.2914999552689013,1.2167376678451058,A,761.6282000672072,Correct,2,8,big,small,False,Size,left,left,1138.1441000849009,Correct
1,22,162,B,44.93067154913453,20.03570814671664,2.2465335774567263,0.3147201676159708,B,1353.6398999858648,Correct,8,4,small,big,False,Size,right,right,472.48120000585914,Correct
1,22,163,B,56.51467648564961,25.026336607800147,2.8257338242824805,0.39311277616665125,B,888.5974999284372,Correct,7,6,small,big,False,Value,left,left,564.5344000076875,Correct
1,22,164,A,41.08303725107904,62.1434371966542,2.0541518625539523,0.9761468288291375,A,660.7242999598384,Correct,5,2,small,big,False,Size,right,left,783.6163999745622,Incorrect
1,22,165,B,67.64092488992264,51.615581753581075,3.382046244496132,0.8107756622390683,B,746.1341000162065,Correct,2,4,big,small,False,Size,left,right,772.9430000763386,Incorrect
1,22,166,A,64.89632117575734,88.82290112140451,3.244816058787867,1.3952268681676852,A,995.1661999803036,Correct,2,6,big,small,False,Size,left,left,489.3243000842631,Correct
1,22,167,B,44.923413488144526,21.693387725900514,2.2461706744072263,0.3407589375558202,B,1434.1549000237137,Correct,3,5,small,big,True,Value,right,right,798.3666000654921,Correct
1,22,168,B,70.57421083579854,51.17582440906395,3.5287105417899274,0.8038679700245825,B,1865.027799969539,Correct,4,7,big,small,False,Value,right,right,390.40560007561,Correct
1,22,169,B,39.4661079943841,21.569794582241375,1.9733053997192054,0.3388175409950522,B,612.3391999863088,Correct,6,5,small,big,False,Value,left,left,482.38110006786883,Correct
1,22,170,A,40.62964507155521,52.352151811090074,2.0314822535777606,0.8223456776466906,A,650.1320999814197,Correct,2,4,big,small,False,Size,left,left,453.72029999271035,Correct
1,22,171,B,52.48231612921524,36.34212762668106,2.6241158064607624,0.5708608058390194,B,1327.2196999751031,Correct,5,6,big,small,False,Size,left,left,1188.1401999853551,Correct
1,22,172,A,49.98143670433896,65.46477504866017,2.499071835216948,1.0283182818088958,B,1144.8024000274017,Incorrect,5,8,big,small,False,Value,right,right,679.9641000106931,Correct
1,22,173,A,15.187820313185682,30.84683388692453,0.7593910156592841,0.484540933628334,A,1427.0694999722764,Correct,8,4,small,big,False,Value,left,left,648.262899951078,Correct
1,22,174,A,14.143563295104752,37.678196719106225,0.7071781647552376,0.5918477300662758,A,673.603400005959,Correct,7,8,big,small,False,Size,left,left,392.09400000981987,Correct
1,22,175,A,24.8131650333439,53.168238547667976,1.240658251667195,0.8351647381283169,A,659.137700102292,Correct,3,7,big,small,False,Size,left,left,716.8858000077307,Correct
1,22,176,B,81.23170557569523,67.84887558002806,4.0615852787847615,1.0657676453827205,A,610.3430000366643,Incorrect,3,6,big,small,False,Size,left,left,1405.713599990122,Correct
1,22,177,B,71.97514507002616,60.607908317083016,3.598757253501308,0.9520267975919586,B,1147.4400999723002,Correct,8,5,small,big,False,Value,left,left,696.4338000398129,Correct
1,22,178,B,44.78392804712669,24.643637064814165,2.2391964023563347,0.38710134580276656,B,819.4659000728279,Correct,6,5,small,big,False,Size,right,right,628.8813999854028,Correct
1,22,179,A,60.599456816721535,69.27960533287538,3.0299728408360767,1.0882414957868076,A,1107.364400057122,Correct,7,2,big,small,True,Value,left,left,112.35509999096394,Correct
1,22,180,A,36.94788890616487,52.56482623331905,1.8473944453082436,0.8256863596590959,B,663.4990000165999,Incorrect,5,4,small,big,False,Size,right,left,1870.7970000104979,Incorrect
1,22,181,A,64.87026283488507,82.8079647240414,3.2435131417442533,1.300744468178856,A,736.5436999825761,Correct,2,8,small,big,True,Value,right,right,352.582799969241,Correct
1,22,182,A,42.19852494408259,60.50973895243976,2.1099262472041294,0.9504847568181045,B,1118.0586999980733,Incorrect,3,8,big,small,False,Size,left,left,635.6542999856174,Correct
1,22,183,B,84.80147791441975,63.34032012072761,4.240073895720988,0.9949474218365181,B,850.4346000263467,Correct,2,7,big,small,False,Value,right,right,911.3141000270844,Correct
1,22,184,A,54.83636562187988,84.26046767889794,2.7418182810939937,1.3235603312403301,A,909.2459999956191,Correct,8,7,small,big,False,Value,left,left,635.4441000148654,Correct
1,22,185,B,73.84489557164422,51.00130673102413,3.692244778582211,0.8011266527483255,B,658.2208999898285,Correct,6,3,small,big,False,Value,left,left,920.9378999657929,Correct
1,22,186,A,15.005929845753776,42.864229657778715,0.7502964922876888,0.6733097449733167,A,1904.7408000333235,Correct,7,3,big,small,True,Size,left,left,395.36309998948127,Correct
1,22,187,B,85.59493117391254,64.10758764865173,4.279746558695627,1.0069996319818402,B,1236.4123000297695,Correct,5,6,big,small,False,Size,left,left,461.1889999359846,Correct
1,22,188,A,33.571023109428026,48.290525184023785,1.6785511554714014,0.7585457957806101,A,841.4911000290886,Correct,7,2,small,big,False,Size,right,right,616.90489994362,Correct
1,22,189,A,64.18003529332321,77.47105748293748,3.209001764666161,1.2169125252711448,A,761.4518000045791,Correct,4,7,big,small,False,Value,right,right,938.2836000295356,Correct
1,22,190,B,67.1070155684022,42.674360308478384,3.3553507784201098,0.6703272842087977,A,1542.2813999466598,Incorrect,2,3,big,small,False,Value,right,right,676.1241999920458,Correct
1,22,191,A,49.525158447213805,64.50187215551203,2.4762579223606904,1.0131930385327232,A,1271.9062000978738,Correct,7,8,big,small,False,Size,left,left,449.71449999138713,Correct
1,22,192,A,38.27350259225241,45.85427163839037,1.9136751296126207,0.7202772145743901,B,921.4209000347182,Incorrect,2,7,small,big,True,Size,right,right,816.8731000041589,Correct
1,22,193,B,63.80382955428529,38.920061982097465,3.1901914777142646,0.6113549040010839,B,805.3778000175953,Correct,4,2,big,small,True,Value,left,left,908.2853000145406,Correct
1,22,194,B,61.56590006959238,49.4623303603888,3.078295003479619,0.7769524684481443,B,1160.6859000166878,Correct,4,7,small,big,True,Size,right,right,117.01699998229742,Correct
1,22,195,A,67.95637097478762,84.92953715006556,3.3978185487393806,1.334070049917137,A,652.3976000025868,Correct,2,5,big,small,False,Size,left,left,419.36080006416887,Correct
1,22,196,B,46.711839145110815,21.350710568319364,2.3355919572555406,0.3353761773517704,B,3480.501300073229,Correct,4,5,big,small,False,Value,right,right,1492.9416999220848,Correct
1,22,197,A,22.392246940725272,40.1924857659904,1.1196123470362636,0.6313420900597388,B,3677.244500024244,Incorrect,3,6,small,big,True,Value,right,right,1111.3222000421956,Correct
1,22,198,B,63.96299246438385,34.530807249373865,3.1981496232191926,0.5424086518857905,B,690.5748000135645,Correct,3,5,big,small,False,Size,left,left,387.5573000404984,Correct
1,22,199,B,33.5557310934127,16.26072710767761,1.6777865546706352,0.2554229041175419,B,543.3449000120163,Correct,2,8,big,small,False,Size,left,left,568.7832999974489,Correct
1,22,200,B,74.32843052969643,42.91743198695975,3.716421526484822,0.6741454452058616,B,712.9382999846712,Correct,3,5,big,small,False,Value,right,right,686.729000066407,Correct
1,22,201,A,40.293632826328256,63.428856297710254,2.014681641316413,0.9963381448524462,A,1812.838300014846,Correct,2,3,big,small,False,Value,right,right,724.7580999974161,Correct
1,22,202,A,60.182597177945595,83.76038390037482,3.0091298588972797,1.3157050336163916,A,953.4550999524072,Correct,4,2,big,small,True,Size,left,right,577.517900033854,Incorrect
1,22,203,B,48.264169458895,39.16324495917523,2.41320847294475,0.6151748132724121,B,670.0086999917403,Correct,8,4,small,big,False,Size,right,right,882.6642000349239,Correct
1,22,204,B,75.59601108883564,57.43757748422235,3.779800554441782,0.9022273573221372,B,693.017499987036,Correct,2,3,big,small,False,Value,right,right,591.5383999235928,Correct
1,22,205,A,15.561040891982653,33.468577170382716,0.7780520445991327,0.525723180822887,A,1357.202099985443,Correct,5,4,small,big,False,Value,left,left,991.9393999734893,Correct
1,22,206,B,64.69530283242109,41.664733217333236,3.2347651416210543,0.6544680989467636,B,1050.7978999521583,Correct,8,4,small,big,False,Value,left,right,748.6078999936581,Incorrect
1,22,207,A,20.224408392145104,32.57703001268784,1.0112204196072552,0.5117187908181716,B,729.3456000043079,Incorrect,6,7,big,small,False,Size,left,left,921.6595001053065,Correct
1,22,208,A,57.586942768958124,71.56194863396028,2.879347138447906,1.1240924605250986,A,1690.0813999818638,Correct,4,3,small,big,False,Size,right,right,426.0367000242695,Correct
1,22,209,A,34.72050618491949,51.859319662013576,1.7360253092459745,0.8146042883517328,B,937.5544999493286,Incorrect,4,7,small,big,True,Value,right,right,832.7228000853211,Correct
1,22,210,B,40.17808581920533,17.967127283304485,2.0089042909602663,0.28222697539671054,B,733.3787999814376,Correct,3,5,big,small,False,Value,right,right,391.89720002468675,Correct
1,22,211,B,56.57713040982146,26.84148490827476,2.828856520491073,0.42162505899638647,B,1056.5684998873621,Correct,5,3,small,big,False,Size,right,right,998.5122000798583,Correct
1,22,212,A,52.920061102027255,77.91741959456286,2.6460030551013625,1.2239239649247604,A,661.5527999820188,Correct,4,5,big,small,False,Value,right,right,1818.7553000170738,Correct
1,22,213,A,46.99801326493719,74.64546803661904,2.3499006632468595,1.1725282700380704,A,747.8254999732599,Correct,4,7,big,small,False,Value,right,right,877.0130999619141,Correct
1,22,214,A,38.32872345657961,70.72256406320173,1.9164361728289805,1.1109074385199402,A,2846.0215999512,Correct,2,5,big,small,False,Value,right,right,507.197100087069,Correct
1,22,215,A,11.874363411484186,36.12522875195758,0.5937181705742093,0.5674537662820035,A,791.1920000333339,Correct,8,3,small,big,False,Value,left,left,633.3792000077665,Correct
1,22,216,B,80.71385189038575,60.686566031994175,4.035692594519287,0.9532623500885238,A,730.1386999897659,Incorrect,3,7,big,small,False,Value,right,right,832.7171999262646,Correct
1,22,217,B,53.64807115475347,28.160441876736677,2.6824035577376732,0.4423431866089915,B,710.5906000360847,Correct,5,2,small,big,False,Value,left,left,780.3566999500617,Correct
1,22,218,A,47.99846789022582,66.55880963019162,2.399923394511291,1.0455033368294577,A,616.4735000347719,Correct,7,4,small,big,False,Value,left,left,631.8123999517411,Correct
1,22,219,A,51.82323074167598,64.62184028477645,2.591161537083799,1.0150774935005331,A,877.3454999318346,Correct,2,4,big,small,False,Size,left,left,882.0458999834955,Correct
1,22,220,B,51.18711834849077,30.894930064113506,2.5593559174245386,0.4852964266129472,B,651.7239999957383,Correct,7,2,small,big,False,Size,right,right,1045.4865000210702,Correct
1,22,221,B,51.45419373680321,34.39942840723193,2.5727096868401604,0.5403449578592394,B,1414.4168000202626,Correct,2,7,big,small,False,Value,right,right,702.847299980931,Correct
1,22,222,A,24.415946030814176,43.273068110964836,1.220797301540709,0.6797317643784894,B,1414.8109001107514,Incorrect,3,4,big,small,False,Size,left,left,678.158099995926,Correct
1,22,223,B,39.82530497312212,30.08954428505164,1.991265248656106,0.47264545637891486,B,1271.5891000116244,Correct,4,6,small,big,True,Value,right,right,390.1143999537453,Correct
1,22,224,B,82.82098702937498,62.17891406249815,4.141049351468749,0.9767040981346763,A,900.881199981086,Incorrect,2,6,big,small,False,Value,right,right,1264.7278000367805,Correct
1,22,225,B,39.03196318330427,15.319425048081829,1.9515981591652136,0.2406369659413667,B,1271.0824999958277,Correct,5,3,small,big,False,Size,right,right,313.65089991595596,Correct
1,22,226,B,70.7729089211669,43.48833162543361,3.538645446058345,0.6831131157566944,B,838.281000033021,Correct,7,8,small,big,True,Size,right,right,63.934899982996285,Correct
1,22,227,A,17.405236582466106,38.50186523820521,0.8702618291233053,0.6047858849092487,A,2712.219799985178,Correct,3,5,big,small,False,Size,left,left,395.83159994799644,Correct
1,22,228,B,72.17023390973839,39.01487774810566,3.608511695486919,0.6128442665707631,B,1411.253699916415,Correct,8,2,small,big,False,Value,left,left,777.2595999995247,Correct
1,22,229,B,43.588898281021635,31.15412034376856,2.1794449140510816,0.48936777800517817,B,622.7366999955848,Correct,3,6,big,small,False,Size,left,left,496.5588999912143,Correct
1,22,230,B,45.99234904075811,16.98663314475767,2.2996174520379054,0.26682540948397787,B,614.5648999372497,Correct,2,4,big,small,False,Size,left,left,547.2896000137553,Correct
1,22,231,B,43.8753685726227,27.746698795399926,2.193768428631135,0.43584412548498586,B,541.8183000292629,Correct,4,3,small,big,False,Value,left,left,525.2483000513166,Correct
1,22,232,A,67.06869571179786,86.11602911209512,3.353434785589893,1.3527074220744137,A,633.0986000830308,Correct,4,5,big,small,False,Size,left,left,446.7379000270739,Correct
1,22,233,B,85.64633216183299,59.90789015280687,4.28231660809165,0.9410309379806119,B,670.1471999986097,Correct,6,2,big,small,True,Size,left,left,1386.0443000448868,Correct
1,22,234,B,56.54846815868759,23.923614993135036,2.8274234079343796,0.3757912655487183,B,1086.6047999588773,Correct,3,8,small,big,True,Size,right,right,496.0848999908194,Correct
1,22,235,B,38.73485478942035,29.068241785886602,1.9367427394710177,0.45660287423656604,B,1449.7018000110984,Correct,4,7,big,small,False,Size,left,left,1253.3708000555634,Correct
1,22,236,B,52.328063772353374,31.1065864647073,2.616403188617669,0.48862111757890075,B,2808.3518999628723,Correct,5,7,small,big,True,Size,right,right,803.6551000550389,Correct
1,22,237,B,57.146569785832796,34.04030773153285,2.85732848929164,0.5347039034765971,B,812.8416000399739,Correct,3,2,small,big,False,Value,left,left,1426.6966000432149,Correct
1,22,238,A,15.100289943727155,34.366719678660466,0.7550144971863577,0.5398311703522976,A,1700.2006999682635,Correct,4,3,small,big,False,Size,right,right,454.0527999633923,Correct
1,22,239,A,34.841607627074026,64.75105509112454,1.7420803813537014,1.0171071949323243,B,786.4178000018001,Incorrect,4,6,big,small,False,Value,right,right,731.1831000261009,Correct
1,22,240,A,59.21352175656775,82.12863817567148,2.9606760878283875,1.2900736317101187,A,978.1505999853835,Correct,8,7,big,small,True,Value,left,left,87.59330003522336,Correct
1,22,241,A,44.926118100065906,73.8799335923846,2.2463059050032954,1.160503283107686,A,1188.4985000360757,Correct,8,6,small,big,False,Value,left,left,700.2941999817267,Correct
1,22,242,A,62.34553393525658,82.62956699892459,3.117276696762829,1.2979422032656356,A,854.7377999639139,Correct,3,7,small,big,True,Value,right,right,792.0324999140576,Correct
1,22,243,A,65.40166506759053,86.98514952880473,3.2700832533795268,1.3663595336555128,A,677.1123999496922,Correct,7,6,small,big,False,Size,right,right,1197.7542000822723,Correct
1,22,244,A,18.889289261185663,48.856344117827376,0.9444644630592832,0.7674336588091069,B,749.3290000129491,Incorrect,3,4,big,small,False,Size,left,left,1447.610600036569,Correct
1,22,245,A,21.169886515620895,52.96332056666084,1.0584943257810449,0.8319458940097145,A,803.0792000936344,Correct,6,3,big,small,True,Size,left,left,1159.5191999804229,Correct
1,22,246,A,42.66875275773298,73.1795461661858,2.133437637886649,1.1495016231436221,A,1052.217899938114,Correct,7,2,small,big,False,Value,left,left,1168.9341000746936,Correct
1,22,247,B,72.72135757078115,42.00338583334863,3.6360678785390577,0.6597876417997283,B,999.9552000081167,Correct,5,4,small,big,False,Value,left,left,2389.5956000778824,Correct
1,22,248,B,85.6139066584546,60.911281116098436,4.28069533292273,0.9567921663753877,B,1339.6341000916436,Correct,8,3,small,big,False,Value,left,left,732.5807000743225,Correct
1,22,249,A,29.795706367844794,54.65273703876435,1.4897853183922396,0.8584831858977844,A,2576.725900056772,Correct,6,7,big,small,False,Value,right,right,1329.7064000507817,Correct
1,22,250,A,54.30942106080681,72.97304231371601,2.7154710530403405,1.1462578682143367,A,1468.6522000702098,Correct,8,5,small,big,False,Value,left,left,397.0704000676051,Correct
1,22,251,B,56.82089209580665,46.775853013634084,2.8410446047903326,0.734753380965144,B,553.5257000010461,Correct,2,5,big,small,False,Value,right,right,701.7946999985725,Correct
1,22,252,B,72.62540290924987,54.152907132510585,3.631270145462494,0.8506318760901278,B,652.5359000079334,Correct,6,7,big,small,False,Size,left,left,1305.9513000771403,Correct
1,22,253,A,55.17936588464363,67.50021543892173,2.7589682942321816,1.060290904693224,A,1135.1777000818402,Correct,2,6,big,small,False,Size,left,left,527.2826000582427,Correct
1,22,254,A,19.97320230384581,45.04613548113021,0.9986601151922905,0.7075830415006459,A,741.8608999578282,Correct,5,8,big,small,False,Size,left,left,1217.6571999443695,Correct
1,22,255,A,13.606869342172743,38.97587062694644,0.6803434671086371,0.6122315441444057,A,642.3070000018924,Correct,3,5,big,small,False,Size,left,left,381.9445000262931,Correct
1,22,256,B,33.569460170072475,16.434702522906388,1.678473008503624,0.25815570354948175,B,717.3457000171766,Correct,3,7,big,small,False,Size,left,left,533.5351000539958,Correct
1,22,257,B,61.1271259140717,34.067946985203406,3.0563562957035852,0.5351380598580078,B,804.7604999737814,Correct,6,5,small,big,False,Size,right,right,1336.957799969241,Correct
1,22,258,B,34.289337461498675,14.57162196597108,1.714466873074934,0.228890502595912,B,706.6402999917045,Correct,7,3,small,big,False,Value,left,left,521.1880999850109,Correct
1,22,259,A,55.854310349332394,80.00541415414514,2.79271551746662,1.2567221067703562,A,641.9004000490531,Correct,8,7,small,big,False,Size,right,right,1004.1141000110656,Correct
1,22,260,A,36.62559009830523,61.85574684269373,1.8312795049152615,0.9716277993165834,A,1922.5798000115901,Correct,7,3,small,big,False,Size,right,right,505.4119999986142,Correct
1,22,261,B,42.49898764462771,29.561400470695837,2.1249493822313856,0.4643493927428195,B,773.6940999748185,Correct,2,3,big,small,False,Value,right,right,557.0984999649227,Correct
1,22,262,A,11.097421304147474,33.15742599278998,0.5548710652073737,0.5208356295544814,A,633.9240000816062,Correct,4,5,big,small,False,Value,right,right,1188.4017999982461,Correct
1,22,263,A,59.22273166676945,79.22500132211013,2.9611365833384724,1.2444634106709143,A,868.6616000486538,Correct,6,5,big,small,True,Value,left,left,904.4648000271991,Correct
1,22,264,B,48.75939752707649,28.73822662360317,2.4379698763538244,0.4514190081895516,B,670.0015000533313,Correct,5,2,small,big,False,Value,left,left,694.8582999175414,Correct
1,22,265,A,57.87611054403723,71.95492182837907,2.8938055272018617,1.1302652690283175,A,2644.4566000718623,Correct,6,5,small,big,False,Value,left,left,595.2816000208259,Correct
1,22,266,A,33.18180752872895,51.74950017598336,1.6590903764364475,0.812879247899065,B,1243.523299926892,Incorrect,2,6,big,small,False,Size,left,left,602.7697999961674,Correct
1,22,267,B,48.62861775413266,29.744361987884872,2.4314308877066333,0.467223345534273,B,669.0428000874817,Correct,3,4,big,small,False,Size,left,left,492.8030000301078,Correct
1,22,268,B,71.00252915700925,39.1277299845714,3.550126457850462,0.6146169453558729,B,814.4278000108898,Correct,8,6,big,small,True,Value,left,left,689.0454000094905,Correct
1,22,269,A,39.86416161794524,46.95535441712668,1.993208080897262,0.737572982417751,B,740.0840999325737,Incorrect,5,8,big,small,False,Value,right,right,916.8555999640375,Correct
1,22,270,A,35.202180107968026,42.96234994447163,1.7601090053984012,0.6748510148325297,B,1488.5008001001552,Incorrect,3,7,big,small,False,Size,left,left,1186.5619000745937,Correct
1,22,271,A,41.46798142352315,53.86049757646234,2.0733990711761576,0.8460387175245248,B,1486.6050999844447,Incorrect,3,6,big,small,False,Value,right,right,1101.6426999121904,Correct
1,22,272,A,64.05057580671036,86.9698083263049,3.202528790335518,1.3661185546101595,A,1312.9616000223905,Correct,7,3,big,small,True,Value,left,left,625.3102000337094,Correct
1,22,273,A,25.718297818505683,53.032623009467336,1.285914890925284,0.8330344942356981,A,1356.2280000187457,Correct,2,5,big,small,False,Value,right,right,698.5424999147654,Correct
1,22,274,B,77.50970287411596,49.52004188673999,3.875485143705798,0.777858998984206,B,712.2179999714717,Correct,3,7,big,small,False,Size,left,left,1380.0087999552488,Correct
1,22,275,B,65.84671611766908,48.33472580608106,3.2923358058834538,0.7592400975283063,B,1386.1748001072556,Correct,4,8,big,small,False,Value,right,right,731.0941000469029,Correct
1,22,276,A,54.6603525377947,65.02515721202876,2.733017626889735,1.0214127809791547,A,1356.5450999885798,Correct,5,3,small,big,False,Size,right,right,543.5734998900443,Correct
1,22,277,B,65.58080218138487,47.51487718469404,3.279040109069243,0.7463619454982803,B,1207.4825000017881,Correct,5,3,small,big,False,Value,left,left,640.2724999934435,Correct
1,22,278,A,32.60720058985775,44.837561640804324,1.6303600294928873,0.7043067712781519,A,2054.7225000336766,Correct,3,5,big,small,False,Size,left,left,1296.8424999853596,Correct
1,22,279,B,74.31392463502422,56.30618193180395,3.7156962317512114,0.8844554375432281,B,1089.4898000406101,Correct,3,7,big,small,False,Value,right,right,539.6044000517577,Correct
1,22,280,B,58.9045362576832,42.20605909700897,2.94522681288416,0.6629712259807002,A,11035.806200001389,Incorrect,8,3,big,small,True,Size,left,left,795.074800029397,Correct
1,22,281,A,24.20369866518817,41.9890029775387,1.2101849332594086,0.6595617164289777,A,547.1703000366688,Correct,4,6,big,small,False,Value,right,right,513.7837000656873,Correct
1,22,282,B,45.42737476756168,22.448368236237226,2.271368738378084,0.35261814368020666,B,688.9084000140429,Correct,6,4,small,big,False,Value,left,left,1382.7847000211477,Correct
1,22,283,B,47.414888405046234,34.09216060058467,2.370744420252312,0.535518406439001,B,1183.9690000051633,Correct,5,6,small,big,True,Size,right,right,729.1848000604659,Correct
1,22,284,B,60.481230567588334,29.829645353959776,3.0240615283794163,0.4685629735159447,B,905.7994000613689,Correct,8,7,small,big,False,Value,left,left,962.8549999324605,Correct
1,22,285,A,36.48121403178832,69.28935078512316,1.824060701589416,1.0883945769927454,A,679.6005999203771,Correct,4,7,big,small,False,Size,left,left,1119.7722000069916,Correct
1,22,286,A,44.424566705398526,65.31985548545391,2.221228335269926,1.026041890633245,B,673.6243000486866,Incorrect,5,6,big,small,False,Value,right,right,930.5244999704883,Correct
1,22,287,A,48.690954542040856,68.2421307261248,2.434547727102043,1.0719448827725397,A,901.3367000734434,Correct,2,4,small,big,True,Size,right,right,566.0644000163302,Correct
1,22,288,B,65.38784080143866,46.890014097991184,3.2693920400719327,0.7365466190848546,B,700.7127000251785,Correct,7,3,small,big,False,Size,right,right,982.2757999645546,Correct
1,22,289,A,63.96306758325689,82.02027766641908,3.1981533791628443,1.2883715088110859,A,663.3457000134513,Correct,8,6,small,big,False,Value,left,right,740.275000105612,Incorrect
1,22,290,B,87.29764106962178,69.39793173139321,4.364882053481089,1.0901001625083546,A,1220.9414000390097,Incorrect,7,2,big,small,True,Size,left,left,159.90070009138435,Correct
1,22,291,A,50.42846912337747,63.415482293090164,2.5214234561688733,0.9961280664791283,B,930.2571999141946,Incorrect,2,6,big,small,False,Size,left,left,605.8168000308797,Correct
1,22,292,A,34.02643030104222,45.92320940448818,1.7013215150521108,0.7213600864720289,B,2294.0037000225857,Incorrect,8,3,small,big,False,Size,right,right,738.189100055024,Correct
1,22,293,A,50.83535589666201,74.46628064963605,2.5417677948331003,1.1697136011452618,A,838.248600019142,Correct,6,4,big,small,True,Size,left,left,-2.900299965403974,Correct
1,22,294,B,45.94292374152161,33.008656599621894,2.2971461870760805,0.5184987653912019,B,1064.3189999973401,Correct,7,5,small,big,False,Size,right,right,625.6168000400066,Correct
1,22,295,A,63.0516622340711,82.65609425771771,3.152583111703555,1.2983588924723573,A,911.5313000511378,Correct,8,3,small,big,False,Value,left,left,442.8038999903947,Correct
1,22,296,A,69.74252014327209,86.17629828629705,3.4871260071636043,1.3536541280489676,A,1138.9366999501362,Correct,5,7,big,small,False,Value,right,right,741.7080999584869,Correct
1,22,297,A,33.68873394884754,41.89065942432899,1.684436697442377,0.6580169395075199,B,811.0212000319734,Incorrect,2,7,big,small,False,Size,left,left,1956.6982999676839,Correct
1,22,298,A,50.82033990739904,63.97332838296104,2.541016995369952,1.004890692367989,A,1204.317199997604,Correct,3,2,small,big,False,Size,right,right,424.2448000004515,Correct
1,22,299,B,43.750435030541205,16.98312598157019,2.1875217515270604,0.2667703190934543,B,756.4971999963745,Correct,6,3,small,big,False,Size,right,right,446.14600006025285,Correct
1,22,300,B,58.56295817362921,28.21749604571243,2.928147908681461,0.44323939139954605,B,665.9340999322012,Correct,4,5,big,small,False,Value,right,right,421.29639990162104,Correct
1,22,301,A,27.550812803617596,53.484233867265715,1.3775406401808796,0.8401283810014019,B,1102.6962000178173,Incorrect,7,8,big,small,False,Size,left,left,774.9185999855399,Correct
1,22,302,A,48.83955276809034,79.93136525713768,2.4419776384045173,1.2555589494161308,A,667.0996999600902,Correct,7,6,small,big,False,Value,left,left,1299.5413000462577,Correct
1,22,303,B,47.753809219099885,30.83599765913513,2.3876904609549943,0.48437071856025493,B,612.749999971129,Correct,8,2,small,big,False,Size,right,right,427.05880000721663,Correct
1,22,304,B,45.92433416338995,33.07994032074051,2.2962167081694975,0.5196184874641359,A,2803.546200040728,Incorrect,3,7,small,big,True,Value,right,right,905.929800006561,Correct
1,22,305,A,31.66457417826775,44.85603810350077,1.5832287089133874,0.7045969988755093,A,923.5645000590011,Correct,5,7,big,small,False,Value,right,right,529.7421000432223,Correct
1,22,306,B,74.25725013845222,42.56280638227685,3.712862506922611,0.6685749992336285,A,1045.6529998918995,Incorrect,6,4,big,small,True,Value,left,left,499.684999929741,Correct
1,22,307,A,36.908583143977246,62.654752600288866,1.8454291571988621,0.9841785524077674,A,929.4960999395698,Correct,8,3,big,small,True,Size,left,left,268.3162000030279,Correct
