subject,day,trial,cat,x,y,xt,yt,resp,rt,fb
1,13,0,A,50.22095248396283,66.37926882604336,2.5110476241981416,1.042683116472799,A,565.6522000208497,Correct
1,13,1,B,57.94254600202861,50.70603773025178,2.8971273001014306,0.7964885781300293,B,227.9266999103129,Correct
1,13,2,A,24.322547612082808,37.73545386561456,1.2161273806041404,0.5927471232204563,A,594.2645999602973,Correct
1,13,3,B,69.16620373551575,37.59470046752016,3.4583101867757877,0.5905361740133506,B,718.7278000637889,Correct
1,13,4,A,51.33758847010948,61.74435390725084,2.5668794235054744,0.9698780431783375,A,1277.5020999833941,Correct
1,13,5,A,38.03357191611043,68.80187306258009,1.9016785958055216,1.0807372948330953,A,573.3888996765018,Correct
1,13,6,A,46.82701835400792,73.38528887790517,2.341350917700396,1.152733422101958,A,616.4373997598886,Correct
1,13,7,A,33.787040009310495,60.838842396836746,1.6893520004655247,0.9556543016340477,A,483.744699973613,Correct
1,13,8,A,25.19337789522605,55.92467997967901,1.2596688947613024,0.8784628188925989,A,1170.6261998042464,Correct
1,13,9,A,45.136620161179664,58.69844562620765,2.2568310080589833,0.9220330277821694,A,1010.337000247091,Correct
1,13,10,B,60.92410655740367,31.26049319324455,3.0462053278701835,0.49103867881745406,B,440.68509992212057,Correct
1,13,11,A,37.9530151282693,70.32866973401819,1.897650756413465,1.1047201608656718,A,1235.2244998328388,Correct
1,13,12,B,47.47552035534094,21.207784365969957,2.373776017767047,0.3331310978152384,B,660.6967002153397,Correct
1,13,13,B,82.61461773891045,62.35809169718556,4.130730886945523,0.9795186138387841,B,66764.12100018933,Correct
1,13,14,B,70.25462589130711,59.32575837174487,3.5127312945653557,0.9318868333465842,B,4907.769700046629,Correct
1,13,15,A,60.63206336809469,82.35375130491234,3.0316031684047346,1.2936097004753673,A,819.8241000063717,Correct
1,13,16,B,52.230899634561965,36.6866450897213,2.6115449817280982,0.5762724734936225,B,1058.3524000830948,Correct
1,13,17,A,22.210605653707375,45.60321069229836,1.1105302826853687,0.7163335584551602,A,515.4321999289095,Correct
1,13,18,B,89.04594895386734,68.26508647695277,4.4522974476933665,1.072305470863334,B,770.0521000660956,Correct
1,13,19,A,35.64661225176149,62.33715384930791,1.7823306125880745,0.9791897228934121,A,1020.1734001748264,Correct
1,13,20,A,56.01049630545273,65.00870829656867,2.8005248152726367,1.02115440201931,B,912.1591998264194,Incorrect
1,13,21,B,52.21007367554287,29.179987544577525,2.6105036837771434,0.4583581725094321,A,1156.787300016731,Incorrect
1,13,22,A,28.06283960059052,49.86226029553227,1.403141980029526,0.783234553179131,A,1214.0219998545945,Correct
1,13,23,A,60.4770523813539,72.08330343465369,3.023852619067695,1.1322818825839596,A,2607.741800136864,Correct
1,13,24,B,37.562789496193645,14.531091533951916,1.8781394748096825,0.22825385205852086,B,1781.3414996489882,Correct
1,13,25,A,41.146824272588105,61.09718349469635,2.0573412136294054,0.9597123141098282,A,600.7317998446524,Correct
1,13,26,A,33.01732152970548,66.2866087495709,1.6508660764852738,1.0412276153951643,A,1296.1176997050643,Correct
1,13,27,A,49.171011695674146,64.5488131593513,2.458550584783707,1.013930386096791,A,1891.4948999881744,Correct
1,13,28,A,63.15916496576715,82.52551034530784,3.1579582482883577,1.296307685172838,B,1069.482000079006,Incorrect
1,13,29,A,38.47913513947955,69.38259198321462,1.9239567569739777,1.0898592063074257,A,908.6800999939442,Correct
1,13,30,B,59.82152167960838,49.40972287392148,2.991076083980419,0.7761261119830963,B,760.5322999879718,Correct
1,13,31,B,73.09010856257687,60.71611340973428,3.6545054281288434,0.9537264792127297,B,1331.4877999946475,Correct
1,13,32,B,78.03297623420707,59.708195492633436,3.9016488117103534,0.9378941415938019,A,1183.6176998913288,Incorrect
1,13,33,B,76.96346082672544,50.056067029385524,3.8481730413362722,0.7862788622355792,A,1350.6400999613106,Incorrect
1,13,34,A,56.08348788394159,83.79003140320066,2.804174394197079,1.3161707355017662,A,1331.5375000238419,Correct
1,13,35,B,39.2692300126352,15.605686730902747,1.96346150063176,0.2451335539401389,B,1292.5660000182688,Correct
1,13,36,A,37.600613930032765,60.79469531496003,1.880030696501638,0.9549608408935413,B,7464.835399761796,Incorrect
1,13,37,B,59.497346332072496,43.43212352055793,2.974867316603625,0.6822302009099462,B,973.5867003910244,Correct
1,13,38,A,42.682180408850854,49.57061106387597,2.134109020442543,0.7786533377611483,B,1230.260199867189,Incorrect
1,13,39,B,82.17637815822889,55.48908372053072,4.108818907911444,0.8716204888542415,B,1244.799599982798,Correct
1,13,40,B,37.75833837592599,13.781689617526066,1.8879169187962992,0.21648227428237304,B,1201.8853002227843,Correct
1,13,41,A,56.954187488526145,67.7580955336845,2.8477093744263073,1.0643416757492932,A,1049.9509000219405,Correct
1,13,42,A,57.36083890476759,76.88995352679254,2.86804194523838,1.2077845656731603,A,924.738600384444,Correct
1,13,43,A,21.008300392970842,49.55679015522247,1.050415019648542,0.7784362394356895,A,699.3067995645106,Correct
1,13,44,A,58.81483562553254,69.26289533428425,2.9407417812766266,1.0879790157427307,A,972.7936997078359,Correct
1,13,45,A,26.471808043838287,50.71849326346777,1.3235904021919143,0.796684229188269,A,1134.8366001620889,Correct
1,13,46,B,73.72537014100095,55.73080644706955,3.6862685070500474,0.8754174605637418,A,1196.9148996286094,Incorrect
1,13,47,A,35.69347935297486,55.17027863151205,1.784673967648743,0.8666127102263009,B,1779.5726996846497,Incorrect
1,13,48,A,52.03717193937824,72.89141471821182,2.601858596968912,1.1449756649425058,A,2604.4597001746297,Correct
1,13,49,B,88.10144678665266,67.95731889198527,4.405072339332633,1.0674710689435989,B,2521.5312000364065,Correct
1,13,50,A,47.2277451593647,69.54427854944527,2.361387257968235,1.0923989729506973,A,712.5874003395438,Correct
1,13,51,B,38.75306125828524,28.863810378599084,1.937653062914262,0.45339167320007856,A,934.3673000112176,Incorrect
1,13,52,B,50.723661515266926,25.68275074009263,2.5361830757633466,0.40342370524526416,B,1761.4672998897731,Correct
1,13,53,A,33.319886354297005,49.60102468461757,1.6659943177148504,0.7791310737986027,A,856.5218998119235,Correct
1,13,54,B,81.41834678207401,51.65706237771916,4.0709173391037,0.8114272383593609,B,495.7480998709798,Correct
1,13,55,B,85.92480010643337,66.4403779077571,4.2962400053216685,1.0436430156836964,B,152251.18739996105,Correct
1,13,56,A,51.77600963731899,70.5092783627351,2.58880048186595,1.1075571545714318,A,5346.7160002328455,Correct
1,13,57,B,83.36771293266985,59.657259909624514,4.168385646633492,0.9370940473268662,B,10048.598099965602,Correct
1,13,58,A,50.1715496919918,60.273853362780386,2.50857748459959,0.9467794746402964,A,1251.7128000035882,Correct
1,13,59,A,32.57774342805871,44.18821899525099,1.6288871714029356,0.6941069208534874,B,8546.02129990235,Incorrect
1,13,60,A,27.465731975223918,47.328577887698074,1.373286598761196,0.743435562984223,A,2280.3386002779007,Correct
1,13,61,B,55.535276114855826,31.0759368191979,2.776763805742791,0.48813967407306347,B,4148.2401001267135,Correct
1,13,62,B,57.1725933446595,27.75651754427139,2.8586296672329747,0.43599835803159603,B,3798.099000006914,Correct
1,13,63,B,44.58309463647246,36.04134050309293,2.229154731823623,0.5661360527502252,B,1022.3873001523316,Correct
1,13,64,A,64.07559460944528,85.52848264011679,3.2037797304722635,1.3434782636743652,A,814.1822996549308,Correct
1,13,65,B,70.0446728756499,50.60240267093343,3.502233643782495,0.7948606824249849,A,1516.8341002427042,Incorrect
1,13,66,A,19.44085136503478,47.299460818494715,0.972042568251739,0.7429781931307062,A,728.0020997859538,Correct
1,13,67,B,69.41165499356991,38.90291246828569,3.4705827496784956,0.6110855200680655,B,818.9199999906123,Correct
1,13,68,B,47.97312831202022,36.00237662418426,2.398656415601011,0.5655240095715507,B,1804.243900347501,Correct
1,13,69,B,66.79829495996765,40.15783964212735,3.339914747998382,0.6307978700187212,B,1036.6135002113879,Correct
1,13,70,B,67.3898263865928,39.81547252173449,3.36949131932964,0.6254199798674368,B,775.0428002327681,Correct
1,13,71,B,70.18837156430486,40.603496330517544,3.509418578215243,0.6377982289100702,B,730.7060002349317,Correct
1,13,72,A,32.90878736711159,46.974549686784464,1.6454393683555795,0.737874501008454,A,1738.634499721229,Correct
1,13,73,A,30.593883773475433,50.35910871348477,1.5296941886737716,0.7910390298780675,A,1332.6417999342084,Correct
1,13,74,A,36.899943579194975,53.136468486043654,1.8449971789597486,0.8346656951673015,A,1710.5405000038445,Correct
1,13,75,B,47.93507408945777,29.71610638284791,2.3967537044728884,0.46677950752823877,B,1031.1789000406861,Correct
1,13,76,A,44.44812393020699,63.7779095829482,2.222406196510349,1.0018210610355207,A,2194.770200178027,Correct
1,13,77,B,38.689185071265584,19.412675306596626,1.934459253563279,0.30493359064863973,A,881.9583998993039,Incorrect
1,13,78,B,52.89919424354858,35.51109812403878,2.6449597121774286,0.5578070249369326,B,1063.1836000829935,Correct
1,13,79,A,47.140209152033535,69.98432148173742,2.357010457601677,1.0993111511674631,A,7615.158599801362,Correct
1,13,80,A,48.6972452880686,74.8483376256725,2.4348622644034297,1.175714938091106,A,1817.9844999685884,Correct
1,13,81,B,56.60630649232784,35.95179345344042,2.8303153246163917,0.5647294509835302,B,1387.616700027138,Correct
1,13,82,A,64.48141651478741,79.39807428152646,3.2240708257393704,1.2471820343601012,A,1128.2862997613847,Correct
1,13,83,A,55.424329851644735,67.93631432591707,2.7712164925822367,1.0671411299913405,A,3230.4567000828683,Correct
1,13,84,B,47.81929313132456,33.346481840834976,2.390964656566228,0.523805311871163,B,2520.509200170636,Correct
1,13,85,A,47.45654968657288,78.44773965255763,2.372827484328644,1.2322542129159988,A,2165.6105001457036,Correct
1,13,86,A,27.56979447374738,59.15152272987249,1.378489723687369,0.9291499462840854,B,3254.571999888867,Incorrect
1,13,87,B,63.353250311955975,39.626923937929746,3.167662515597799,0.6224582656388081,B,986.4881001412868,Correct
1,13,88,B,48.985958708830395,20.397273188320348,2.44929793544152,0.3203996180084563,B,3864.079600200057,Correct
1,13,89,B,87.52802906003106,66.27734702164545,4.376401453001552,1.0410821325131134,A,2182.6265999116004,Incorrect
1,13,90,B,65.5493417510519,42.97694497593962,3.2774670875525946,0.6750802730507234,B,1156.6890999674797,Correct
1,13,91,B,62.735167966368834,32.26973604772399,3.136758398318442,0.506891828504057,B,2715.823099948466,Correct
1,13,92,B,42.87135254111638,22.99692894981371,2.143567627055819,0.36123491521930595,B,4454.300600104034,Correct
1,13,93,A,57.81522132920095,66.21407390876134,2.8907610664600476,1.040088240780081,A,1930.9895001351833,Correct
1,13,94,B,70.66892767112606,55.18727261900928,3.5334463835563032,0.8668796511576834,B,3646.8580001965165,Correct
1,13,95,A,60.84064989961726,78.20418989394645,3.042032494980863,1.2284285422538164,A,3549.806000199169,Correct
1,13,96,B,89.26205494203687,68.76927847431278,4.463102747101844,1.0802253002378588,B,2556.3637004233897,Correct
1,13,97,B,47.68533497606121,37.06233466492827,2.3842667488030607,0.5821737915411249,B,5075.35589998588,Correct
1,13,98,B,82.00509839752175,58.62185267098613,4.100254919876088,0.920829908454966,B,2803.3769000321627,Correct
1,13,99,B,78.27613803578666,56.38681858281476,3.9138069017893327,0.8857220750953565,B,580.7783002965152,Correct
1,13,100,A,34.054639247201685,51.71687025596387,1.7027319623600843,0.8123666983139628,B,6795.644499827176,Incorrect
1,13,101,B,35.61262212405199,21.31870270741834,1.7806311062025995,0.3348733990484514,B,1484.9805999547243,Correct
1,13,102,A,58.905732361137005,87.00768113267839,2.9452866180568504,1.3667134592615282,A,953.8564998656511,Correct
1,13,103,B,58.58769239640784,39.164462456700235,2.929384619820392,0.6151939376788136,B,586.014200001955,Correct
1,13,104,B,42.764549761563075,22.874789825224283,2.1382274880781535,0.35931635833667575,B,1374.3556998670101,Correct
1,13,105,B,85.8204862813931,61.511042379558184,4.291024314069655,0.9662131942713521,A,682.4487000703812,Incorrect
1,13,106,A,53.29301291551652,71.17333226327048,2.664650645775826,1.1179880888489797,A,851.2340001761913,Correct
1,13,107,A,38.98098490649134,65.61839948530815,1.9490492453245667,1.0307314088168218,A,579.6766998246312,Correct
1,13,108,B,49.134295760761184,35.15323984097795,2.456714788038059,0.5521858001714819,B,716.9067999348044,Correct
1,13,109,B,60.302149568878015,51.02758775183104,3.015107478443901,0.8015394740578047,A,2122.880999930203,Incorrect
1,13,110,A,46.17055974340054,62.8929860798275,2.308527987170027,0.987920715153556,A,497.46380001306534,Correct
1,13,111,B,42.89905646264241,31.417516174507547,2.1449528231321207,0.49350519003935706,B,652.205899823457,Correct
1,13,112,A,21.72638096531553,35.009187395953305,1.0863190482657765,0.5499230296563764,B,1327.726500108838,Incorrect
1,13,113,A,34.52337496499454,66.1798078621131,1.7261687482497268,1.0395499909779926,A,712.7590999007225,Correct
1,13,114,A,45.148469344027774,70.0733656614524,2.257423467201389,1.1007098538716507,A,584.5798999071121,Correct
1,13,115,A,21.12224427373243,42.758284786167835,1.0561122136866217,0.6716455668216255,B,1552.3509997874498,Incorrect
1,13,116,B,71.87211156658105,56.10154930782797,3.593605578329053,0.8812410758023893,B,2959.330900106579,Correct
1,13,117,B,61.46140877557997,47.115242982017776,3.0730704387789984,0.7400845061220254,B,1189.3859999254346,Correct
1,13,118,A,49.771117312145556,64.9573624594914,2.4885558656072777,1.0203478634965382,A,1193.178499583155,Correct
1,13,119,B,54.086266468856,23.259439571052223,2.7043133234428,0.36535842241516703,B,752.783500123769,Correct
1,13,120,B,57.489790827333884,30.435477273607923,2.874489541366694,0.47807935905632876,B,588.5540000163019,Correct
1,13,121,A,18.767029497971777,42.41424210264552,0.9383514748985888,0.6662413569862502,A,574.1437999531627,Correct
1,13,122,A,16.032915941208277,37.930843344496765,0.8016457970604138,0.5958162939776818,A,822.5154997780919,Correct
1,13,123,B,61.06649522733456,52.488519297529685,3.0533247613667283,0.8244877331146268,B,981.8313997238874,Correct
1,13,124,B,46.077091518373464,37.47404175662437,2.303854575918673,0.5886408714146414,A,903.6493003368378,Incorrect
1,13,125,B,79.44522418729332,64.94710085019668,3.972261209364666,1.0201866745146664,B,760.9354997985065,Correct
1,13,126,A,39.45867504958156,58.33795224893294,1.972933752479078,0.9163704110535995,B,2332.6829001307487,Incorrect
1,13,127,A,50.31593267142959,58.48043416852196,2.5157966335714796,0.9186085118128504,A,1123.6077002249658,Correct
1,13,128,A,31.331890371476554,57.04385438188474,1.5665945185738277,0.8960427692928751,A,786.1587000079453,Correct
1,13,129,A,15.330084973824778,31.127064183680947,0.766504248691239,0.4889427808363502,B,3361.8767000734806,Incorrect
1,13,130,B,72.41680498321081,39.69828638569158,3.6208402491605405,0.6235792243469619,B,750.3744997084141,Correct
1,13,131,A,52.61190148995071,67.16634445958633,2.6305950744975353,1.0550464716135894,A,1946.2839998304844,Correct
1,13,132,B,73.99097491649228,55.62345571850479,3.699548745824614,0.8737311992626591,A,815.966300200671,Incorrect
1,13,133,B,67.833185729029,52.242507250324664,3.3916592864514494,0.8206233849136575,B,731.4935000613332,Correct
1,13,134,A,58.49226334483022,73.08307881589683,2.924613167241511,1.1479863175487266,A,1197.0783001743257,Correct
1,13,135,A,43.77766258619477,59.85913113087018,2.1888831293097386,0.9402650330550493,A,5744.505699723959,Correct
1,13,136,A,64.17935604535366,77.09966964770982,3.208967802267683,1.2110787787972255,A,7377.288300078362,Correct
1,13,137,A,20.549945713795363,48.14865127994135,1.0274972856897682,0.7563172457066026,A,8761.249199975282,Correct
1,13,138,A,34.28180802308174,58.8916802392775,1.714090401154087,0.9250683499863669,A,1834.2663999646902,Correct
1,13,139,A,39.34474025466992,47.1066716446488,1.967237012733496,0.7399498678694765,B,726.2007999233902,Incorrect
1,13,140,A,41.343181393616845,52.522172305580455,2.067159069680842,0.8250163533289443,A,2578.480599913746,Correct
1,13,141,A,53.08038494285803,63.93879275429072,2.6540192471429016,1.0043482079814001,A,4093.0607998743653,Correct
1,13,142,B,85.51732886378346,65.19229750750493,4.275866443189173,1.0240382146010882,B,1180.7710998691618,Correct
1,13,143,A,39.88998201194378,46.86811535693119,1.9944991005971888,0.7362026344646698,B,4011.4494003355503,Incorrect
1,13,144,B,84.37201061362816,67.00173754441477,4.2186005306814085,1.0524608322364242,A,2179.1361002251506,Incorrect
1,13,145,B,33.741044193149335,12.814190746954175,1.6870522096574667,0.20128483756164772,B,649.1569997742772,Correct
1,13,146,B,79.3528795927896,63.2098189564897,3.96764397963948,0.9928975143422443,B,1401.2862001545727,Correct
1,13,147,B,59.560259355779564,34.08988996491232,2.9780129677889784,0.5354827393772648,A,865.2868997305632,Incorrect
1,13,148,B,71.48203414566414,47.57954763598294,3.5741017072832073,0.7473777865716481,A,10099.878299981356,Incorrect
1,13,149,B,41.379433318505434,28.377603243324366,2.0689716659252717,0.44575434937856856,B,704.9047998152673,Correct
1,13,150,B,66.04199581401592,42.39886337409103,3.302099790700796,0.6659997884830086,A,2053.348599933088,Incorrect
1,13,151,B,78.2016785596929,46.62520310068388,3.9100839279846444,0.7323869776662029,B,763.9929000288248,Correct
1,13,152,A,35.018498752484255,43.11023622400655,1.7509249376242126,0.6771740070792979,A,1535.907099954784,Correct
1,13,153,A,57.40439938084529,70.90627347291255,2.8702199690422647,1.1137931391796543,B,2278.862100094557,Incorrect
1,13,154,A,12.59607032710247,31.179723630141826,0.6298035163551234,0.4897699534870682,A,607.3464998044074,Correct
1,13,155,A,24.57322550257636,42.00977771546029,1.228661275128818,0.6598880452491512,A,700.0241000205278,Correct
1,13,156,B,56.53448259576997,34.45737624149814,2.8267241297884986,0.5412552003113501,B,1531.5991998650134,Correct
1,13,157,B,63.98500001493445,43.87327577170404,3.1992500007467224,0.6891598042665223,B,3848.5373998992145,Correct
1,13,158,B,84.50815221017595,59.6806879828427,4.225407610508797,0.9374620546404162,B,8543.758800253272,Correct
1,13,159,A,33.81265502522914,58.72739596067853,1.690632751261457,0.9224877785726329,A,1329.791400115937,Correct
1,13,160,B,61.54476949009179,42.51909713019657,3.0772384745045893,0.667888415907482,B,4601.760500110686,Correct
1,13,161,B,37.081122709549945,12.946325496222332,1.8540561354774974,0.20336040534957153,B,9893.347300123423,Correct
1,13,162,A,62.5486554325489,76.50409959033273,3.1274327716274453,1.201723586212456,A,990.3065003454685,Correct
1,13,163,A,50.51222038901718,71.01223619020614,2.525611019450859,1.1154575976506742,A,1788.0307999439538,Correct
1,13,164,A,40.782664867787034,54.534678097423686,2.039133243389352,0.8566287203837522,B,8651.081299874932,Incorrect
1,13,165,B,53.591172452057776,29.307771046640003,2.679558622602889,0.4603653910660794,B,662.7981001511216,Correct
1,13,166,A,60.37254379635438,68.76670427286273,3.018627189817719,1.0801848647760368,A,1405.7724000886083,Correct
1,13,167,B,61.20700741249986,45.481847910833594,3.0603503706249935,0.7144271963418155,B,2073.4482002444565,Correct
1,13,168,A,63.47117958341704,82.3072590811321,3.173558979170852,1.2928794023319818,A,2125.3507998771966,Correct
1,13,169,A,45.22272465837253,77.0511521688523,2.261136232918626,1.210316668021478,A,2434.9126000888646,Correct
1,13,170,B,74.8936918680469,61.6229290727548,3.7446845934023454,0.9679707063382567,B,2068.0207000114024,Correct
1,13,171,A,61.13950294927948,87.68650256755447,3.0569751474639744,1.3773763614260581,A,11713.446100242436,Correct
1,13,172,A,53.24061766167057,81.23167356881083,2.6620308830835286,1.2759841446129014,A,2476.3938998803496,Correct
1,13,173,B,83.65267026340409,64.3415301152195,4.182633513170205,1.0106743916535,B,3120.88739965111,Correct
1,13,174,A,50.20924998060268,60.08372922017416,2.510462499030134,0.9437930115918878,A,2410.793799906969,Correct
1,13,175,A,30.93982063297225,49.16085510030376,1.5469910316486124,0.7722169061365332,A,2644.317999947816,Correct
1,13,176,B,54.06973417926083,38.476215502912716,2.7034867089630414,0.6043829798094414,B,1129.9565001390874,Correct
1,13,177,A,25.500581283892785,45.12630642431449,1.2750290641946393,0.7088423637313416,A,2916.5125996805727,Correct
1,13,178,B,84.03141973325336,60.71546676235799,4.201570986662668,0.9537163216994955,B,1979.1259998455644,Correct
1,13,179,B,54.20392823538668,37.932985684736266,2.7101964117693336,0.5958499457794713,B,1536.2713998183608,Correct
1,13,180,A,16.825589309833205,38.22768414609303,0.8412794654916602,0.6004790583855844,A,3153.943700250238,Correct
1,13,181,B,56.76963475688129,24.343122076785654,2.8384817378440643,0.38238086740934657,B,4135.569999925792,Correct
1,13,182,B,31.598742145302104,13.883947622776695,1.5799371072651054,0.21808853927270372,B,950.5914999172091,Correct
1,13,183,B,54.688861259945966,29.82066752164495,2.7344430629972982,0.4684219500557176,B,1402.8211999684572,Correct
1,13,184,B,54.17240072742728,32.366284654631656,2.708620036371364,0.5084084104749343,B,2041.8378999456763,Correct
1,13,185,A,36.04303448386395,67.43639133424222,1.8021517241931975,1.0592883580013086,A,3419.8757000267506,Correct
1,13,186,B,35.730577107764056,20.252756308015947,1.7865288553882026,0.3181295521610362,B,1096.5640000067651,Correct
1,13,187,B,55.520126503732,41.27933127960086,2.7760063251866,0.6484142194654672,B,5734.94439991191,Correct
1,13,188,A,31.40106061195952,48.9957428983431,1.570053030597976,0.7696233297330449,A,1136.1602996475995,Correct
1,13,189,B,34.05602990359,18.595444545559257,1.7028014951795,0.29209655987282673,B,1388.5110998526216,Correct
1,13,190,B,44.34710034501819,19.964163370054624,2.2173550172509096,0.31359634489215027,B,751.9914000295103,Correct
1,13,191,A,43.97241494898869,50.69373395920038,2.198620747449435,0.7962953109462967,B,613.856999669224,Incorrect
1,13,192,A,37.97593607485361,67.10051635395615,1.8987968037426806,1.0540124461483522,A,833.122500218451,Correct
1,13,193,B,47.00681092767608,27.805940656413135,2.3503405463838036,0.43677469446170636,B,1298.084800131619,Correct
1,13,194,A,23.037752648519817,41.203037555370514,1.1518876324259908,0.6472158004476818,A,1011.848300229758,Correct
1,13,195,B,40.29405630291387,20.706554528389503,2.014702815145694,0.32525779793772464,B,1461.3246000371873,Correct
1,13,196,B,39.42456239299054,22.047382061602384,1.971228119649527,0.3463194675780871,A,3551.21499998495,Incorrect
1,13,197,B,35.8779400615653,20.075073617454716,1.793897003078265,0.31533851898435006,B,1943.3921999298036,Correct
1,13,198,B,48.417630158180536,41.24634428471941,2.420881507909027,0.6478960609615493,B,1592.1808001585305,Correct
1,13,199,A,22.618310450068645,46.76259441138657,1.1309155225034322,0.7345451153280559,A,1307.841899804771,Correct
1,13,200,A,59.53353987909445,78.74209704255159,2.9766769939547224,1.2368779679856732,A,1364.0281003899872,Correct
1,13,201,A,44.00453288330481,54.428052890995,2.2002266441652405,0.854953855557733,B,4650.478799827397,Incorrect
1,13,202,A,50.090463284794204,79.15832865121166,2.50452316423971,1.243416118805465,A,446.24050008133054,Correct
1,13,203,A,21.932260313356405,51.12938655361603,1.0966130156678202,0.8031385258969643,A,2838.377600070089,Correct
1,13,204,B,57.20647769479325,34.6496075928031,2.8603238847396626,0.5442747633165966,B,3342.6771997474134,Correct
1,13,205,A,27.598228673386743,57.362302304195026,1.3799114336693372,0.9010449375592797,A,3555.2374003455043,Correct
1,13,206,B,53.760495087718546,37.3640793484633,2.6880247543859275,0.586913585946392,B,5934.90260001272,Correct
1,13,207,A,44.135175419476575,64.56435267916554,2.206758770973829,1.0141744803032346,B,785.466399975121,Incorrect
1,13,208,A,61.91941914148875,80.6780447718634,3.095970957074438,1.2672877638063722,A,1964.8925000801682,Correct
1,13,209,B,71.84633504937713,54.934041455555445,3.5923167524688564,0.8629019053438507,B,580.9383001178503,Correct
1,13,210,B,59.253098591365,42.74040197832223,2.9626549295682505,0.671364664332859,B,3661.9929000735283,Correct
1,13,211,B,44.479992165692536,35.4805308617132,2.2239996082846267,0.5573268755031207,B,651.9319997169077,Correct
1,13,212,B,79.02606735278346,66.65248506084578,3.9513033676391727,1.0469747870532826,A,1831.2160996720195,Incorrect
1,13,213,A,55.62571498979423,83.77827235579238,2.7812857494897116,1.3159860248170112,A,3745.201400015503,Correct
1,13,214,A,40.15428782365717,56.715700852570045,2.0077143911828585,0.890888145708152,A,3371.950199827552,Correct
1,13,215,B,58.02351028772077,51.17653427586937,2.9011755143860385,0.8038791205862874,B,1862.7113001421094,Correct
1,13,216,A,64.83562282333284,87.50999277094093,3.2417811411666424,1.3746037520244194,A,3389.0459001995623,Correct
1,13,217,B,56.9879084605965,42.95764505382435,2.849395423029825,0.6747771105830624,B,1281.726900022477,Correct
1,13,218,A,46.765848975230234,76.76216340691684,2.3382924487615115,1.205777243164146,A,5079.454599879682,Correct
1,13,219,B,36.96181467398275,11.230767595629274,1.8480907336991377,0.17641248486301617,B,989.8508000187576,Correct
1,13,220,A,52.14345909636342,74.5907717540336,2.6071729548181715,1.1716691028403252,A,1004.0417001582682,Correct
1,13,221,A,33.703568790612046,57.88330994915707,1.6851784395306024,0.9092289065086643,A,997.8454997763038,Correct
1,13,222,A,39.28278978155322,56.59483808759802,1.964139489077661,0.8889896378355088,B,1631.2735001556575,Incorrect
1,13,223,A,17.47739694690771,45.73032309606971,0.8738698473453854,0.7183302354245011,A,1263.752399943769,Correct
1,13,224,A,67.53552986034929,86.62154566064352,3.3767764930174646,1.3606480574503526,A,1410.812699701637,Correct
1,13,225,B,39.7684502652574,25.1272980427794,1.98842251326287,0.3946986746787848,B,1121.1048001423478,Correct
1,13,226,B,44.94125524674737,15.349690151629105,2.2470627623373685,0.24111236907618797,B,1423.4194997698069,Correct
1,13,227,B,40.40072254346861,31.494623667714205,2.0200361271734306,0.4947163917103308,A,939.1294000670314,Incorrect
1,13,228,A,49.628197227010425,63.25164487691081,2.4814098613505213,0.9935545143638674,A,779.9947001039982,Correct
1,13,229,B,59.22486738178677,29.502395920060003,2.9612433690893387,0.46342255142878996,A,808.447000104934,Incorrect
1,13,230,A,52.72607892003749,73.57631577482033,2.6363039460018745,1.1557340655818917,A,607.532000169158,Correct
1,13,231,B,58.744820607174724,39.343867977884116,2.937241030358736,0.6180120330156372,B,594.9645997025073,Correct
1,13,232,A,32.65381709533214,65.73444679951389,1.6326908547666068,1.0325542757657096,A,2549.078000243753,Correct
1,13,233,A,40.245822490873124,54.089310825698476,2.0122911245436566,0.849632907638746,B,896.1310996674001,Incorrect
1,13,234,B,64.15927362339407,46.74698626167441,3.2079636811697037,0.7342999430856965,B,947.6977000012994,Correct
1,13,235,A,19.43326768511697,48.81815841857813,0.9716633842558485,0.7668338392479388,A,987.457700073719,Correct
1,13,236,B,32.48595339754871,15.603062726868696,1.6242976698774356,0.2450923361811571,B,910.9044997021556,Correct
1,13,237,B,34.144044842149725,16.70473422844068,1.7072022421074862,0.26239735166119604,B,2900.196900125593,Correct
1,13,238,A,32.312137898182044,59.34150693720496,1.6156068949091023,0.9321342112343542,A,1256.889899726957,Correct
1,13,239,B,65.80438952218532,37.51267835261353,3.290219476109266,0.5892477736452376,B,863.2673001848161,Correct
1,13,240,A,64.6825891063817,83.91252096775543,3.2341294553190845,1.3180947970824997,A,4124.793199822307,Correct
1,13,241,B,84.73139485397651,67.28184182207269,4.236569742698825,1.0568606999410703,A,3781.500699929893,Incorrect
1,13,242,B,67.6225384058717,35.039470873898324,3.3811269202935845,0.5503987214155625,A,780.7988999411464,Incorrect
1,13,243,A,61.646111775807796,70.90416325697001,3.08230558879039,1.1137599919851415,B,2581.160200294107,Incorrect
1,13,244,A,49.32583203761668,67.8221764840491,2.466291601880834,1.0653482569637953,A,1491.0776996985078,Correct
1,13,245,B,78.82408499519038,54.95912606740485,3.9412042497595188,0.8632959335053718,B,4734.177299775183,Correct
1,13,246,B,55.792786176229,31.922005123660462,2.7896393088114504,0.5014296839217371,B,2829.2086999863386,Correct
1,13,247,B,79.93607359498068,49.6509270189531,3.9968036797490343,0.7799149378333302,B,670.202599838376,Correct
1,13,248,B,32.913476798303336,19.693132766574813,1.645673839915167,0.30933900612819937,A,1671.2925997562706,Incorrect
1,13,249,B,41.80633346576077,16.66433650695531,2.0903166732880383,0.261762785735995,B,1453.33579974249,Correct
1,13,250,B,47.77785300627576,32.114128329258975,2.388892650313788,0.5044475481781993,B,3561.763799749315,Correct
1,13,251,A,14.148760822202942,42.19722552676599,0.7074380411101471,0.6628324685837986,A,1083.3534998819232,Correct
1,13,252,B,54.85021976331362,44.80617862279497,2.7425109881656806,0.7038138079840235,B,525.3126998431981,Correct
1,13,253,A,17.910595501439936,34.0798593668552,0.8955297750719967,0.535325179111428,A,1428.816200233996,Correct
1,13,254,B,44.64638080441719,17.865171699630785,2.2323190402208595,0.28062546083340173,B,762.8255998715758,Correct
1,13,255,A,45.53265409665747,59.891493115609094,2.276632704832873,0.9407733739226061,A,1195.8099999465048,Correct
1,13,256,A,42.539107076206705,54.828225944638056,2.1269553538103354,0.8612397591851809,A,1479.5442996546626,Correct
1,13,257,A,28.34981705386351,55.416415943611156,1.4174908526931755,0.8704790260836254,B,938.3946000598371,Incorrect
1,13,258,A,30.427170233301588,58.34474367878202,1.5213585116650794,0.9164770905842056,A,1069.9310000054538,Correct
1,13,259,B,41.39118264073141,22.67622401131768,2.0695591320365705,0.3561972938255604,B,947.0224999822676,Correct
1,13,260,A,54.845998379222536,81.86398515164696,2.742299918961127,1.28591647172999,A,1150.3530000336468,Correct
1,13,261,A,44.71616801028006,59.64492655139439,2.235808400514003,0.9369003153888171,B,982.7233999967575,Incorrect
1,13,262,B,44.183643638727865,21.256473433847248,2.2091821819363933,0.3338959039050056,B,680.2852000109851,Correct
1,13,263,A,54.20486292075488,71.83617960729617,2.710243146037744,1.1284000705811927,A,644.2858995869756,Correct
1,13,264,B,59.842791286054045,30.90150578790451,2.9921395643027022,0.4853997178407165,B,695.0455000624061,Correct
1,13,265,A,59.46421452437014,70.18955686854999,2.973210726218507,1.1025349810847982,A,451.237800065428,Correct
1,13,266,A,11.727521664425051,38.094536355194535,0.5863760832212526,0.5983875777769422,A,730.3133001551032,Correct
1,13,267,B,63.83800945885947,31.039716222635477,3.1919004729429736,0.4875707222727176,B,904.316000174731,Correct
1,13,268,B,56.39070069491216,26.728836042085646,2.8195350347456083,0.4198555747441117,A,879.9103000201285,Incorrect
1,13,269,B,86.66271522659883,68.27322641135692,4.333135761329942,1.0724333326539577,B,1325.0076998956501,Correct
1,13,270,B,56.6310830026555,34.21462023585629,2.831554150132775,0.5374419978916539,B,4022.1426002681255,Correct
1,13,271,A,19.90670754358052,44.46939851947929,0.9953353771790261,0.6985236784917649,A,844.3346000276506,Correct
1,13,272,A,27.174252067449693,38.634271271320685,1.3587126033724846,0.6068657140138813,B,1757.707899902016,Incorrect
1,13,273,A,22.360309436311056,52.768597707298056,1.1180154718155528,0.8288871944874139,A,1267.6335000433028,Correct
1,13,274,B,79.7501110986741,62.056074276761166,3.987505554933705,0.9747745352924772,B,480.7139001786709,Correct
1,13,275,A,56.47443935553425,73.19765659295561,2.8237219677767125,1.149786101062089,A,1567.3262001946568,Correct
1,13,276,B,47.180361748055915,16.83104183432947,2.359018087402796,0.26438138689495966,B,1229.9646995961666,Correct
1,13,277,A,43.332084766353795,68.47371524579788,2.16660423831769,1.0755826039009901,A,1752.3811999708414,Correct
1,13,278,A,42.83241330401614,74.49793717447982,2.141620665200807,1.1702108606746988,A,870.0289996340871,Correct
1,13,279,B,59.9111128805579,44.03260462930666,2.995555644027895,0.6916625361092686,B,1448.9726000465453,Correct
1,13,280,A,52.70525748705429,60.58098307657029,2.6352628743527147,0.9516038569030041,B,1620.850299950689,Incorrect
1,13,281,A,47.38997458466445,61.82021614388323,2.369498729233223,0.9710696844047835,B,4623.126400168985,Incorrect
1,13,282,B,40.84489557450537,20.180726714826324,2.0422447787252684,0.3169981139570083,B,552.3657999001443,Correct
1,13,283,B,69.20937498597408,56.180280998982965,3.460468749298704,0.8824777903150756,B,1146.234099753201,Correct
1,13,284,A,29.316024380713046,38.93949207448877,1.4658012190356522,0.6116601111786595,A,593.1985001079738,Correct
1,13,285,B,37.92531906553954,23.23552357055455,1.8962659532769772,0.36498275075783326,B,993.2156000286341,Correct
1,13,286,B,71.52948747725472,51.83530273699614,3.576474373862736,0.8142270313757499,B,6883.709200192243,Correct
1,13,287,B,85.96815033367898,63.378048989753125,4.298407516683949,0.9955400655253122,B,621.9060998409986,Correct
1,13,288,A,66.3715017243577,86.1323021059158,3.318575086217885,1.3529630376636088,A,2048.548999708146,Correct
1,13,289,A,61.706799765035306,77.09912121308811,3.085339988251765,1.211070164006333,B,832.9386999830604,Incorrect
1,13,290,A,66.13000840858832,79.24630815773888,3.306500420429416,1.244798097662327,A,1167.0377003028989,Correct
1,13,291,B,50.188669123984255,33.4320071350714,2.5094334561992127,0.5251487400515094,B,665.4489999637008,Correct
1,13,292,B,69.73429317592777,58.471602659612294,3.4867146587963886,0.9184697867952969,B,1280.1677002571523,Correct
1,13,293,B,49.708221929239784,19.69779674598548,2.485411096461989,0.3094122677454646,B,1281.7830997519195,Correct
1,13,294,A,46.11515136103492,53.86037272213953,2.305757568051746,0.8460367563174083,A,1719.3394997157156,Correct
1,13,295,B,45.19698818201143,22.294910619410395,2.2598494091005716,0.3502076370719038,B,942.2629000619054,Correct
1,13,296,A,53.73098157897219,78.38219448504832,2.6865490789486097,1.231224631832371,A,4308.865400031209,Correct
1,13,297,A,19.00486222827951,46.44476794413417,0.9502431114139754,0.729552708854873,B,1989.3817002885044,Incorrect
1,13,298,B,88.85222639342626,65.56616508211405,4.442611319671313,1.0299109127301256,B,1193.211100064218,Correct
1,13,299,B,33.62715200215334,17.352583726482575,1.6813576001076669,0.27257374777959725,B,643.7618001364172,Correct
