subject,day,trial,cat,x,y,xt,yt,resp,rt,fb
1,3,0,A,56.4162405132964,73.59144648391535,2.82081202566482,1.1559717382045744,A,878.3233999274671,Correct
1,3,1,B,59.48627798489506,38.60166240784685,2.974313899244753,0.6063534951842248,B,788.4264998137951,Correct
1,3,2,A,37.250262399513524,68.91394147315162,1.8625131199756764,1.0824976613098505,A,657.4533998500556,Correct
1,3,3,A,46.153608616900385,77.58643640636271,2.307680430845019,1.2187248931622037,A,1605.0174001138657,Correct
1,3,4,B,82.76043787104271,57.20218251237391,4.138021893552136,0.898529781750882,B,962.4119999352843,Correct
1,3,5,B,73.48694212777349,51.2014369270688,3.6743471063886743,0.8042702905166026,B,731.6049998626113,Correct
1,3,6,A,49.47236432088298,59.17154863449376,2.473618216044149,0.929464512458284,A,828.7418000400066,Correct
1,3,7,A,37.78349962546441,65.33794137709937,1.8891749812732204,1.0263259831548797,A,698.3696001116186,Correct
1,3,8,B,60.71364187410012,31.605634916062982,3.035682093705006,0.4964601523217226,B,739.5519001875073,Correct
1,3,9,A,49.100146655492665,59.03093358075956,2.4550073327746333,0.9272557363593062,A,551.7488999757916,Correct
1,3,10,A,42.82615896423558,64.88648694911764,2.141307948211779,1.0192345535829899,A,654.3534998781979,Correct
1,3,11,A,39.65379927604622,67.06143220047193,1.982689963802311,1.053398513701063,A,634.6864998340607,Correct
1,3,12,B,82.80493929048671,55.75624875625875,4.140246964524335,0.8758171074219376,B,588.7806001119316,Correct
1,3,13,A,22.34225289552176,54.61322745725157,1.1171126447760882,0.8578625708426496,A,727.2499999962747,Correct
1,3,14,B,53.268170374121446,34.760448460667845,2.6634085187060723,0.5460158475976037,B,579.1256001684815,Correct
1,3,15,A,44.2384671608322,70.45852774983442,2.21192335804161,1.1067599658081622,A,573.710999917239,Correct
1,3,16,B,53.682903362038346,36.24284522606448,2.6841451681019173,0.5693012815369803,B,519.1897000186145,Correct
1,3,17,B,66.4313947267244,42.57151714592668,3.3215697363362207,0.6687118275890759,B,1448.4631000086665,Correct
1,3,18,B,63.54551823170882,45.86507657138793,3.177275911585441,0.7204469380650282,B,542.3379999119788,Correct
1,3,19,A,46.44708436957857,60.49830198680741,2.3223542184789285,0.9503051053820548,A,657.3099000379443,Correct
1,3,20,B,42.72310859778237,30.91837305765145,2.1361554298891186,0.48566466829433197,B,926.9199999980628,Correct
1,3,21,B,52.78121149263156,26.408695051097048,2.639060574631578,0.4148268118170981,B,960.7144000474364,Correct
1,3,22,B,85.57939777836577,61.94106803379009,4.278969888918288,0.9729680214523025,B,657.2573999874294,Correct
1,3,23,A,32.98717763143848,58.276537643179495,1.6493588815719238,0.9154057126823086,A,626.6114001628011,Correct
1,3,24,B,76.08503834594792,53.74202139832528,3.804251917297396,0.8441776980702207,B,613.6162998154759,Correct
1,3,25,A,37.12243302369129,51.89512228546657,1.8561216511845646,0.8151666746458286,A,2392.107600113377,Correct
1,3,26,A,37.76894410399919,52.67429584952788,1.8884472051999595,0.8274059043694606,A,902.8051998466253,Correct
1,3,27,B,52.14225032793241,21.63241968265734,2.6071125163966204,0.3398012537720377,B,919.4070000667125,Correct
1,3,28,A,45.17386505378386,53.27905564057211,2.2586932526891927,0.8369054489531157,A,1548.5113998875022,Correct
1,3,29,B,33.58457913628855,17.389112606162172,1.6792289568144276,0.27314754207982367,B,995.7765000872314,Correct
1,3,30,A,43.39782489502066,75.918973855699,2.1698912447510335,1.1925324526656977,A,857.6905999798328,Correct
1,3,31,A,55.72848460873335,73.89486135031252,2.7864242304366678,1.160737767780891,A,1202.304899925366,Correct
1,3,32,A,18.498048490051534,33.48976545405216,0.9249024245025766,0.5260560056044775,A,620.1875999104232,Correct
1,3,33,A,26.721906221045412,57.06799721945988,1.3360953110522706,0.8964220040986896,A,569.3661000113934,Correct
1,3,34,A,26.763784245793122,43.16711451348802,1.3381892122896561,0.6780674491612165,A,1089.3689999356866,Correct
1,3,35,A,65.24007852505945,88.73552058077016,3.2620039262529725,1.3938542978450672,A,4459.391200216487,Correct
1,3,36,B,39.6913375068707,15.545826311515391,1.984566875343535,0.2441932686711983,B,533.043900039047,Correct
1,3,37,A,26.455224222762,42.694079008651826,1.3227612111381,0.6706370248268139,A,1337.4499999918044,Correct
1,3,38,B,46.2345623159542,32.12427732558401,2.31172811579771,0.5046069682396794,B,1193.4790001250803,Correct
1,3,39,B,60.3225147186657,45.75587981979905,3.016125735933285,0.7187316795020907,B,963.5487000923604,Correct
1,3,40,B,32.06601358667538,17.455925033800103,1.6033006793337692,0.2741970292390028,B,1951.2962000444531,Correct
1,3,41,A,52.36161073560827,66.26187067663895,2.6180805367804134,1.0408390306542292,A,623.3306000940502,Correct
1,3,42,B,63.767213530240866,44.92215140858919,3.188360676512043,0.7056355042433609,B,585.3653999511153,Correct
1,3,43,A,32.32176564417113,57.05459843776795,1.6160882822085565,0.8962115365280374,A,697.635899996385,Correct
1,3,44,B,82.67815475198326,64.95864739074106,4.133907737599163,1.0203680471494097,B,722.1853998489678,Correct
1,3,45,A,40.86683527728968,48.840774154309145,2.043341763864484,0.7671890863940791,A,852.3762999102473,Correct
1,3,46,A,40.573111587329905,63.48343243634223,2.028655579366495,0.9971954248333835,A,2645.1359998900443,Correct
1,3,47,B,40.59565466505428,19.796900996499694,2.029782733252714,0.3109689936722394,B,816.4619000162929,Correct
1,3,48,A,25.608372878848783,41.84124496250416,1.2804186439424392,0.65724073895627,A,550.8242999203503,Correct
1,3,49,B,68.8634335684651,48.427269769358944,3.443171678423255,0.7606937747041457,B,710.8802001457661,Correct
1,3,50,A,30.471465791462823,42.21434531019952,1.523573289573141,0.6631013855131277,A,2402.778600109741,Correct
1,3,51,A,14.185086332136557,31.446258788758428,0.7092543166068279,0.4939566779682346,A,480.4783998988569,Correct
1,3,52,A,25.837506835895066,39.11472510697139,1.2918753417947533,0.6144126652162278,A,1244.8068999219686,Correct
1,3,53,B,55.451339538533794,46.81265560160207,2.7725669769266896,0.7353314746651106,B,2052.8118000365794,Correct
1,3,54,B,70.60034718222501,60.570130424619954,3.53001735911125,0.9514333838448082,B,696.3231000117958,Correct
1,3,55,A,50.98194734060785,71.40641171430349,2.549097367030393,1.12164929230432,A,977.576500037685,Correct
1,3,56,A,55.75198232703347,81.8302578869263,2.7875991163516733,1.2853866850946296,A,790.6886001583189,Correct
1,3,57,B,39.575425526467505,29.694551872051917,1.9787712763233753,0.4664409300643967,B,3353.8691999856383,Correct
1,3,58,B,51.64314101377988,29.85601060524273,2.582157050688994,0.4689771179146476,B,668.7065998557955,Correct
1,3,59,A,39.694476112060315,63.079676035537936,1.9847238056030159,0.9908532341203506,A,726.1836999095976,Correct
1,3,60,B,73.0621689570579,42.70161373224468,3.6531084478528952,0.6707553799882445,B,615.5057998839766,Correct
1,3,61,A,20.735640050353066,35.455979444545235,1.0367820025176533,0.5569412227440701,A,1755.9907999821007,Correct
1,3,62,A,60.71503250811273,71.14101685293788,3.035751625405636,1.1174804795704865,B,1191.6489000432193,Incorrect
1,3,63,B,60.00994177979808,30.70666599034757,3.000497088989904,0.48233918145755733,B,475.15249997377396,Correct
1,3,64,A,40.51215584214818,61.23098163205658,2.0256077921074094,0.9618140103368025,A,690.8784999977797,Correct
1,3,65,A,23.697729976733147,52.52628965980176,1.1848864988366572,0.8250810285778136,A,576.6922000329942,Correct
1,3,66,B,75.6352027775279,43.11493777812168,3.7817601388763946,0.6772478589186405,B,708.9841000270098,Correct
1,3,67,A,36.698515211371664,46.37888972691303,1.8349257605685834,0.7285178962386055,A,568.7706999015063,Correct
1,3,68,A,50.206698514004536,80.84258538664268,2.5103349257002265,1.269872361739411,A,663.298900006339,Correct
1,3,69,A,18.834424007103102,33.208628741339,0.9417212003551552,0.5216399204479072,A,573.3523000963032,Correct
1,3,70,B,86.67735428749931,59.35240677041958,4.333867714374966,0.9323054254141161,B,1009.0357000008225,Correct
1,3,71,A,41.31844460852488,48.578274163393914,2.065922230426244,0.7630657461789458,B,1398.9550999831408,Incorrect
1,3,72,B,70.24019902754854,60.75159633735461,3.5120099513774274,0.954283843736429,B,498.6523000989109,Correct
1,3,73,A,28.94768128383754,46.677629987460094,1.447384064191877,0.7332104972779364,A,1126.2938999570906,Correct
1,3,74,A,21.61569804534305,47.92660116101645,1.0807849022671525,0.7528292905948868,A,608.4001001436263,Correct
1,3,75,A,26.61447784153281,57.75679129301238,1.3307238920766407,0.907241556105233,A,2928.2906998414546,Correct
1,3,76,B,62.114238926289936,40.16962475029186,3.1057119463144964,0.6309829900648781,B,588.1978999823332,Correct
1,3,77,A,21.098030387861126,38.61902589807879,1.0549015193930564,0.6066262402509915,A,661.6093998309225,Correct
1,3,78,B,69.34481607791474,36.19112755003895,3.467240803895737,0.5684889021816678,B,715.4856000561267,Correct
1,3,79,B,67.83297754538177,44.68422827669,3.3916488772690885,0.701898216426893,B,661.2567000556737,Correct
1,3,80,A,45.36639522648257,67.06605012151736,2.268319761324128,1.053471051835219,A,598.7001000903547,Correct
1,3,81,A,53.95467815767224,74.13303500280001,2.6977339078836122,1.1644789907655577,A,665.9571998752654,Correct
1,3,82,A,44.986755671066426,54.00764448676874,2.249337783553321,0.8483500957866099,A,604.9765001516789,Correct
1,3,83,A,46.576741948988236,58.65727075754171,2.3288370974494117,0.9213862544576021,A,630.676900036633,Correct
1,3,84,B,38.065645614901825,22.933083367608024,1.9032822807450913,0.3602320311591982,A,632.2004001121968,Incorrect
1,3,85,B,75.63535484542548,44.851249183328264,3.781767742271274,0.7045217746933464,B,836.125300033018,Correct
1,3,86,A,18.933819014086286,39.30041539906021,0.9466909507043142,0.6173294815035737,A,542.0593998860568,Correct
1,3,87,A,63.7590805895103,76.86992863576697,3.187954029475515,1.2074700154204858,B,3129.1004999075085,Incorrect
1,3,88,A,21.224932246004684,35.58852259872096,1.0612466123002342,0.5590232057412804,A,582.1482001338154,Correct
1,3,89,B,49.20998034214347,34.34941527764788,2.4604990171071734,0.5395593534568179,B,1441.7017998639494,Correct
1,3,90,B,35.60924266505866,25.432738842009716,1.7804621332529331,0.3994965275336275,B,2426.517799962312,Correct
1,3,91,A,45.373090254990295,68.65570833343502,2.268654512749515,1.0784413446366148,A,734.0371001046151,Correct
1,3,92,A,53.28131583838446,76.04265494868834,2.6640657919192225,1.194475230731314,A,702.639700146392,Correct
1,3,93,B,37.71893290092591,12.129283611640577,1.8859466450462952,0.1905263414381856,B,991.2479999475181,Correct
1,3,94,A,32.119015458394614,50.453537886630684,1.6059507729197307,0.7925223198612662,B,888.4197000879794,Incorrect
1,3,95,B,61.49073026128085,28.808958123052584,3.0745365130640425,0.45253005598479,B,1171.1319999303669,Correct
1,3,96,B,76.93562469240216,65.28109089636338,3.846781234620108,1.0254329778917135,B,551.9574000500143,Correct
1,3,97,A,65.06394529574119,88.01655739126927,3.2531972647870595,1.3825608504733797,A,1199.9219998251647,Correct
1,3,98,B,70.11918482839319,44.5079633603764,3.5059592414196596,0.6991294535960109,B,862.4611000996083,Correct
1,3,99,A,32.73973340290364,57.57998743680224,1.636986670145182,0.9044643276262525,A,1804.3889000546187,Correct
1,3,100,A,65.31599828071366,81.55150468565373,3.2657999140356826,1.2810080400482167,B,691.9562998227775,Incorrect
1,3,101,A,56.13480127470488,76.23001537322659,2.8067400637352438,1.1974182813978282,A,4155.076700029895,Correct
1,3,102,B,52.523514065353915,35.78306205443874,2.6261757032676956,0.5620790243658621,B,1108.8350000791252,Correct
1,3,103,A,44.53413925649748,60.77173398230846,2.226706962824874,0.9546001651236671,B,942.6112999208272,Incorrect
1,3,104,A,41.64530290208988,69.23506684250387,2.0822651451044942,1.087541886816042,A,751.9890000112355,Correct
1,3,105,A,11.09529056686647,31.553347035739126,0.5547645283433235,0.4956388162182366,A,607.0550999138504,Correct
1,3,106,B,32.85034142061376,12.754154942956678,1.6425170710306878,0.20034179735769322,B,1000.6192000582814,Correct
1,3,107,A,30.653263419460647,43.147437380540985,1.5326631709730325,0.677758361479666,A,1828.5312000662088,Correct
1,3,108,B,70.20138486558244,52.43260331091253,3.510069243279122,0.8236094068507532,B,2320.6990999169648,Correct
1,3,109,B,63.949511995137556,52.58095238555366,3.1974755997568773,0.8259396686660504,B,1372.3388998769224,Correct
1,3,110,A,31.223801703927055,47.766610252463096,1.561190085196353,0.7503161592801247,A,755.0240000709891,Correct
1,3,111,A,36.12402330822535,46.52672016384139,1.8062011654112673,0.730840011311761,A,466.3131998386234,Correct
1,3,112,B,84.19191885014408,56.374795216161246,4.209595942507204,0.885533212493606,B,764.5258000120521,Correct
1,3,113,B,57.904800767773224,43.593665516744764,2.8952400383886614,0.6847676966522802,B,580.436100019142,Correct
1,3,114,B,33.303935453777406,11.020513720776286,1.6651967726888701,0.17310982471988148,A,613.579000113532,Incorrect
1,3,115,A,63.78253884144695,79.52689932279252,3.189126942072347,1.2492056133763003,B,863.6417998932302,Incorrect
1,3,116,A,29.066026965799878,53.01433503518432,1.4533013482899941,0.8327472274074152,A,613.660299917683,Correct
1,3,117,A,55.87096898491861,68.58753715193485,2.7935484492459306,1.0773705142216776,A,776.0816998779774,Correct
1,3,118,B,58.051876746479,30.2380347811619,2.90259383732395,0.4749779396374543,B,1058.8740999810398,Correct
1,3,119,A,64.97041380365908,79.2427577088697,3.2485206901829544,1.2447423273419052,A,737.1281001251191,Correct
1,3,120,A,37.2955705761411,66.23662027173107,1.864778528807055,1.0404423982214355,A,2376.858599949628,Correct
1,3,121,A,24.064667692275748,47.93037337587215,1.2032333846137875,0.7528885444072788,A,552.7639000210911,Correct
1,3,122,A,23.002255544080434,46.3761021449116,1.1501127772040218,0.7284741090029206,A,1601.3979001436383,Correct
1,3,123,A,35.30303308846415,52.478878833983025,1.7651516544232073,0.8243363010673497,A,721.4273000136018,Correct
1,3,124,B,59.98632973910077,52.55830607203675,2.9993164869550384,0.8255839412051724,B,1118.3700000401586,Correct
1,3,125,A,49.87989529605308,74.81514071612798,2.493994764802654,1.1751934822553716,A,699.9484999105334,Correct
1,3,126,B,63.48187409053722,39.271067003380146,3.1740937045268605,0.616868477982258,B,622.7867000270635,Correct
1,3,127,A,15.929332852964436,39.67216141146419,0.7964666426482218,0.6231688542114219,A,578.0374999158084,Correct
1,3,128,B,30.093183363742824,13.918867403466429,1.504659168187141,0.21863705790510288,B,830.0316999666393,Correct
1,3,129,A,29.651423100779816,57.64596133949229,1.4825711550389908,0.905500643266351,A,495.6984000746161,Correct
1,3,130,B,47.42053935260496,36.81057979631944,2.3710269676302484,0.57821923531249,B,1091.0520998295397,Correct
1,3,131,B,49.94072561524241,22.210576484154874,2.4970362807621203,0.3488829195730758,B,1922.1441999543458,Correct
1,3,132,A,34.50619406812861,63.82776344531807,1.7253097034064302,1.002604163674392,A,656.2017998658121,Correct
1,3,133,A,16.86266774235101,32.044700825505544,0.8431333871175505,0.503356983499455,A,668.1695999577641,Correct
1,3,134,B,38.22216636380987,23.44799921228445,1.9111083181904933,0.36832031033346047,B,2768.505700165406,Correct
1,3,135,A,30.504250915328885,63.31007411412768,1.5252125457664443,0.9944723186758443,A,1999.6944000013173,Correct
1,3,136,B,80.09999021549892,60.195896585762185,4.004999510774946,0.945554932450407,B,654.8328001517802,Correct
1,3,137,A,45.34151160522991,66.305283769775,2.267075580261496,1.0415209619265584,A,1168.329100124538,Correct
1,3,138,A,25.457336329346703,42.19212318487408,1.2728668164673351,0.6627523211847799,A,625.0150001142174,Correct
1,3,139,A,40.92639116748164,52.728775177914486,2.046319558374082,0.82826166365862,A,698.9867999218404,Correct
1,3,140,A,18.093783161646556,42.683654987784216,0.9046891580823277,0.6704732846899211,A,601.643200032413,Correct
1,3,141,A,42.25375426989258,66.8930717080706,2.112687713494629,1.050753913270649,A,589.2148001585156,Correct
1,3,142,B,70.10158052078322,59.91269301332484,3.505079026039161,0.9411063811372091,B,591.2393999751657,Correct
1,3,143,A,42.4345732523334,71.16815135450778,2.12172866261667,1.1179067073244406,A,3045.6779000815004,Correct
1,3,144,B,44.255085463392035,35.78751019900456,2.212754273169602,0.5621488956573126,B,763.6768999509513,Correct
1,3,145,B,33.972499149659726,11.104799998181225,1.6986249574829861,0.17443379046935042,B,559.3739000614733,Correct
1,3,146,B,76.74695414550666,58.40377220612827,3.8373477072753333,0.9174043085235216,A,106.42530000768602,Incorrect
1,3,147,B,66.94254229096542,35.7343641884019,3.3471271145482713,0.561314080074928,A,2960.0192001089454,Incorrect
1,3,148,B,49.94359092261999,19.599673277330595,2.4971795461309996,0.30787094790410985,B,1694.457900011912,Correct
1,3,149,A,12.470726259650622,30.35681828730667,0.6235363129825311,0.47684378658881454,A,2455.561300041154,Correct
1,3,150,A,41.3983446083966,66.9169431258356,2.06991723041983,1.0511288846240556,A,1304.2159001342952,Correct
1,3,151,B,42.24000957644837,34.115513001515204,2.1120004788224183,0.5358852250950362,B,1262.0200000237674,Correct
1,3,152,A,48.21524153211522,74.67470301873594,2.410762076605761,1.1729874920633019,A,1227.6588999666274,Correct
1,3,153,B,31.225802197063924,11.698232010511948,1.5612901098531962,0.18375539872106642,B,956.941100070253,Correct
1,3,154,B,68.16576551166057,44.74105501629461,3.408288275583028,0.7027908487652396,B,1274.0990999154747,Correct
1,3,155,A,57.619856187788294,81.07487409542745,2.880992809389415,1.2735211442445615,A,686.2597998697311,Correct
1,3,156,A,39.613530143112875,52.629612178407875,1.9806765071556438,0.8267040149048304,A,1883.919700048864,Correct
1,3,157,B,41.113838838731574,21.64724514082703,2.0556919419365784,0.34003413152439776,B,1167.8311999421567,Correct
1,3,158,B,38.8396856764104,20.330262849141643,1.94198428382052,0.31934702206206445,A,928.7870000116527,Incorrect
1,3,159,A,48.24109858147647,65.30055131437342,2.4120549290738236,1.0257386614229942,A,1343.129200162366,Correct
1,3,160,B,49.36692832296354,26.171102544688537,2.4683464161481767,0.41109471745369325,A,1139.0448999591172,Incorrect
1,3,161,A,40.73495137053063,51.149482152509336,2.0367475685265317,0.8034541868262279,B,4559.076400008053,Incorrect
1,3,162,A,16.97204456986483,43.16418207150353,0.8486022284932416,0.6780213864702387,A,607.4250000528991,Correct
1,3,163,B,50.70840636217742,23.0072908834378,2.535420318108871,0.3613976800920581,B,784.9301998503506,Correct
1,3,164,A,61.59950253039814,86.22610373867131,3.0799751265199067,1.354436470265406,A,745.358900167048,Correct
1,3,165,B,71.97060432454072,50.298731603931465,3.5985302162270356,0.7900906284589793,B,1219.1163001116365,Correct
1,3,166,A,15.646957929840159,31.564203699507292,0.7823478964920079,0.4958093522939194,A,567.110899835825,Correct
1,3,167,B,59.17286263630064,48.336142337776366,2.958643131815032,0.7592623483561439,B,2141.9313000515103,Correct
1,3,168,A,35.43475798854712,50.597726863503595,1.771737899427356,0.794787235013629,B,2010.6822999659926,Incorrect
1,3,169,B,78.62537141063322,65.98200961456686,3.931268570531661,1.0364429833710718,B,663.0157001782209,Correct
1,3,170,B,71.0666668999779,49.21973599343664,3.5533333449988955,0.7731418050430483,B,1160.3769001085311,Correct
1,3,171,B,70.53083473141578,58.23036955358344,3.526541736570789,0.9146805060267825,B,549.1454999428242,Correct
1,3,172,B,33.51729725067524,12.32678306728723,1.6758648625337622,0.19362865563292309,B,2092.6558999344707,Correct
1,3,173,B,53.54181795214523,29.947693319491357,2.6770908976072616,0.4704172666223708,B,1114.95460011065,Correct
1,3,174,A,32.737361429328814,47.9299646530322,1.6368680714664408,0.7528821242039221,B,993.5965000186116,Incorrect
1,3,175,B,67.43101413686041,34.95296151898145,3.3715507068430206,0.5490398356461944,B,616.4041999727488,Correct
1,3,176,B,62.40768050536904,35.60874192388659,3.1203840252684523,0.559340810158285,B,640.3158002067357,Correct
1,3,177,B,35.91558024771962,19.544992201420882,1.795779012385981,0.3070120195722682,A,1137.6514001749456,Incorrect
1,3,178,A,50.299576911672546,62.96747156074623,2.5149788455836273,0.989090730351823,A,3198.611799860373,Correct
1,3,179,A,44.739745126637686,60.89663793424556,2.236987256331884,0.9565621518127169,A,1614.9603000376374,Correct
1,3,180,A,25.543945130828234,45.42018995384574,1.2771972565414118,0.7134586754182736,A,730.1030999515206,Correct
1,3,181,B,55.9089673288324,44.87014521382018,2.79544836644162,0.7048185928462235,B,797.0362000633031,Correct
1,3,182,A,13.955249986956368,33.07845209549062,0.6977624993478184,0.5195951104765761,A,603.2986000645906,Correct
1,3,183,B,72.7733607351519,51.893366019617915,3.6386680367575948,0.8151390872863892,B,1764.6542999427766,Correct
1,3,184,B,33.262341485445475,20.965767837805764,1.6631170742722736,0.3293295110805987,B,1128.6098998971283,Correct
1,3,185,A,19.659633549003235,34.66369325410331,0.9829816774501617,0.5444960203669051,A,598.8203000742942,Correct
1,3,186,B,82.254881116516,60.9291756210263,4.1127440558258,0.9570732526014928,B,1053.8712001871318,Correct
1,3,187,A,59.634795536892945,73.75562349322104,2.981739776844647,1.1585506246361896,A,2833.822499960661,Correct
1,3,188,A,20.934788215585,48.36403766567685,1.04673941077925,0.7597005271421521,A,2720.9247001446784,Correct
1,3,189,A,27.76676649764702,43.964886475011625,1.3883383248823509,0.6905988218290288,A,2776.2336002197117,Correct
1,3,190,A,60.48510344762556,78.24890106639735,3.024255172381278,1.229130863708342,A,899.1240998730063,Correct
1,3,191,B,45.68789424010818,31.02904631196988,2.2843947120054087,0.48740311970791017,B,771.9549001194537,Correct
1,3,192,B,63.75913619115605,39.94720433867923,3.1879568095578024,0.627489218409225,A,960.5447000358254,Incorrect
1,3,193,B,64.6197675362892,33.6004619930663,3.23098837681446,0.5277948227732007,B,1059.087400091812,Correct
1,3,194,B,36.45211887778191,14.7806601763582,1.8226059438890956,0.23217406712627064,A,1163.710500113666,Incorrect
1,3,195,B,55.77399731203663,43.90599483602567,2.7886998656018314,0.6896737541270481,B,760.1203999947757,Correct
1,3,196,A,27.05785865762017,50.71024677779569,1.3528929328810084,0.796554693694242,A,1551.297300029546,Correct
1,3,197,B,38.543358037246264,12.248230350662656,1.9271679018623131,0.19239475244558665,B,3780.0100001040846,Correct
1,3,198,B,76.57196440661232,60.70154837515651,3.8285982203306164,0.9534976921845857,B,681.5957000944763,Correct
1,3,199,A,37.17864928110359,56.8569194188324,1.8589324640551794,0.8931064017597536,A,837.2706000227481,Correct
1,3,200,B,76.78104360096852,65.27766233105665,3.839052180048426,1.0253791221138135,B,1314.6885999012738,Correct
1,3,201,B,47.017750437991204,32.56638048494215,2.35088752189956,0.5115515084275213,B,1077.6758999563754,Correct
1,3,202,A,53.967733420826534,81.85704893882517,2.698386671041327,1.2858075179537667,A,835.3065999690443,Correct
1,3,203,A,65.76042022419641,88.70159342740588,3.2880210112098207,1.3933213713662351,A,821.7059001326561,Correct
1,3,204,B,84.97965164792839,58.36787835833126,4.24898258239642,0.9168404892807808,B,799.1792000830173,Correct
1,3,205,B,45.34661760271784,25.499486281410746,2.2673308801358925,0.4005449938599686,B,1048.6698998138309,Correct
1,3,206,A,23.326132857719653,43.55976604120285,1.1663066428859827,0.6842352049356651,A,646.8242998234928,Correct
1,3,207,A,61.14643764751007,87.20074859782262,3.0573218823755037,1.3697461559122501,A,691.7232999112457,Correct
1,3,208,A,65.31761747486789,88.64390937078505,3.2658808737433946,1.3924152723236887,A,790.6857999041677,Correct
1,3,209,B,78.8097243538287,46.796212309398584,3.940486217691435,0.7350731840351742,B,716.2693999707699,Correct
1,3,210,B,46.28705507436037,30.922134416260697,2.314352753718018,0.4857237515772036,A,1358.1255001481622,Incorrect
1,3,211,B,77.28147858056303,64.26283852010852,3.8640739290281516,1.0094383069680004,B,796.0338999982923,Correct
1,3,212,B,62.66165522164035,30.295606108263947,3.1330827610820178,0.4758822679288604,B,601.8324999604374,Correct
1,3,213,B,61.958068221322954,38.46274997030264,3.097903411066148,0.6041714637178189,B,927.3029000032693,Correct
1,3,214,B,64.07064402187899,50.14159551525255,3.2035322010939495,0.7876223405499416,B,1653.7552000954747,Correct
1,3,215,A,57.26782476359889,75.917765141698,2.8633912381799447,1.1925134662305683,A,2501.109200064093,Correct
1,3,216,B,64.63847285156238,41.01240198686204,3.231923642578119,0.644221303939986,A,837.7953001763672,Incorrect
1,3,217,A,51.26043964175857,59.0183104537704,2.5630219820879283,0.9270574527442338,B,854.3620000127703,Incorrect
1,3,218,B,59.0500817007535,32.63009313725785,2.9525040850376754,0.5125523044297999,B,610.5984000023454,Correct
1,3,219,B,77.77781547944481,61.87647531119417,3.888890773972241,0.9719534013383891,B,1928.3952999394387,Correct
1,3,220,B,78.51444500193736,50.85919470063149,3.925722250096868,0.7988943621949842,B,602.9557001311332,Correct
1,3,221,B,84.54911344706059,64.1189202364096,4.227455672353029,1.0071776438540716,B,879.1592998895794,Correct
1,3,222,A,50.06020613658353,58.35199185368126,2.5030103068291765,0.9165909446492825,B,1427.2267001215369,Incorrect
1,3,223,A,36.79408257085509,59.58499015587028,1.8397041285427544,0.9359588366895111,A,1317.259900039062,Correct
1,3,224,B,71.62606390567262,51.98200349505908,3.5813031952836307,0.8165314014947828,B,708.1016998272389,Correct
1,3,225,B,67.26896953663916,51.439251006409236,3.363448476831958,0.8080058653394833,B,914.7420998197049,Correct
1,3,226,A,44.011844717730256,56.17225823614496,2.2005922358865124,0.8823517690511088,B,2439.1697000246495,Incorrect
1,3,227,A,53.4325466156352,65.85709134571161,2.6716273307817597,1.0344807717923976,A,1169.6797998156399,Correct
1,3,228,B,60.190577741618426,52.748396856354816,3.009528887080921,0.8285698802628161,B,1111.5462000016123,Correct
1,3,229,B,67.44562905816632,39.771261174327094,3.3722814529083163,0.6247255096463349,B,573.9512001164258,Correct
1,3,230,A,20.231683761481538,34.446105808602184,1.0115841880740768,0.5410781647654066,A,589.867299888283,Correct
1,3,231,A,17.65500753731477,33.25615933889729,0.8827503768657385,0.5223865293284565,A,513.0452001467347,Correct
1,3,232,B,47.705480090385706,36.96266657434889,2.3852740045192853,0.5806082088353174,B,3724.0759001579136,Correct
1,3,233,A,26.794366882312396,51.70315045302818,1.33971834411562,0.8121511881534056,A,3071.9479999970645,Correct
1,3,234,B,82.40724641341916,68.47794680322738,4.120362320670958,1.075649073049659,B,817.556100198999,Correct
1,3,235,B,59.783807098918224,36.98175037162348,2.989190354945911,0.5809079764219196,B,644.3686001002789,Correct
1,3,236,B,42.93543590801345,19.98495781537504,2.1467717954006726,0.3139229832754208,B,4186.592000070959,Correct
1,3,237,A,29.16821981409413,57.86343967204724,1.4584109907047065,0.908916784925699,A,1844.8949998710304,Correct
1,3,238,A,33.14928466057389,52.904820806354024,1.6574642330286946,0.8310269819236312,A,766.8018001131713,Correct
1,3,239,B,61.06090704253252,42.554685750098756,3.0530453521266256,0.6684474406416625,B,892.1696001198143,Correct
1,3,240,A,32.349906474771274,52.11291503019909,1.6174953237385636,0.8185877550801128,A,1002.8153001330793,Correct
1,3,241,A,55.89818034018356,70.99735169246344,2.7949090170091777,1.11522379250687,A,952.6647999882698,Correct
1,3,242,B,52.18468828267804,28.73984845600215,2.609234414133902,0.45144448387330155,B,1416.6587002109736,Correct
1,3,243,B,58.95002937574845,44.53667219806956,2.9475014687874226,0.6995804109639605,B,856.952799949795,Correct
1,3,244,A,10.220031021590586,31.695667791636538,0.5110015510795293,0.49787438542413975,A,656.3085000962019,Correct
1,3,245,B,46.17067592897709,23.89214411052622,2.3085337964488546,0.37529692208068904,B,2964.4460999406874,Correct
1,3,246,B,55.372539088263565,41.10223058977007,2.7686269544131785,0.6456323283348767,A,1880.3730998188257,Incorrect
1,3,247,B,73.63062221846332,47.49702682112294,3.681531110923166,0.7460815526429859,B,793.2211000006646,Correct
1,3,248,A,41.63206865312559,67.11391141306275,2.0816034326562796,1.0542228552447706,A,862.3176999390125,Correct
1,3,249,A,65.2691621430412,84.66835005874555,3.2634581071520596,1.3299673326806196,B,1213.0219999235123,Incorrect
1,3,250,B,74.0846400738185,57.2602650893878,3.704232003690925,0.899442140737124,B,1060.4705000296235,Correct
1,3,251,B,86.90806263582716,59.50309049880667,4.345403131791358,0.9346723598846983,A,1369.3962001707405,Incorrect
1,3,252,A,43.35539917266294,55.1464045528668,2.167769958633147,0.8662376970758852,B,2905.5744998622686,Incorrect
1,3,253,B,32.04370176230391,12.387915796244062,1.6021850881151953,0.19458892629384653,B,724.5323001407087,Correct
1,3,254,A,69.7379761184189,87.04560188684243,3.4868988059209447,1.3673091170750302,A,2048.0238997843117,Correct
1,3,255,A,63.16707656765941,75.45008356187294,3.1583538283829706,1.1851671411535802,A,4166.030199965462,Correct
1,3,256,B,74.406606884577,55.26995166029869,3.72033034422885,0.8681783705012867,B,2250.3005999606103,Correct
1,3,257,B,40.00014963561702,19.000575463950494,2.000007481780851,0.2984603414576267,A,4379.824199946597,Incorrect
1,3,258,B,80.05790699454764,66.5877123201546,4.002895349727382,1.0459573392217412,B,773.2851000037044,Correct
1,3,259,B,72.53514853655672,57.775478058050425,3.626757426827836,0.9075350871240474,B,675.8566999342293,Correct
1,3,260,B,75.39536162747834,45.218295727544636,3.769768081373917,0.7102873283275248,B,1220.8623997867107,Correct
1,3,261,B,45.038454091487935,35.67105094893155,2.251922704574397,0.5603195580349529,B,1140.461399918422,Correct
1,3,262,B,82.49599734734477,66.59246710465615,4.124799867367239,1.0460320272020387,B,790.3646000195295,Correct
1,3,263,A,57.31834842569494,78.28764055936422,2.865917421284747,1.2297393822408849,A,1334.1769999824464,Correct
1,3,264,B,51.887085230792444,32.272344280946,2.5943542615396225,0.5069327985357026,B,1001.7327000387013,Correct
1,3,265,B,81.7675753615647,55.55028461001275,4.088378768078234,0.872581830178191,B,1030.0131000112742,Correct
1,3,266,A,12.788376567015167,33.26245206612701,0.6394188283507583,0.5224853752566363,A,560.2937000803649,Correct
1,3,267,A,46.77603652822899,69.51756314740177,2.3388018264114496,1.0919793283967096,B,780.6063001044095,Incorrect
1,3,268,A,43.50019211685258,68.84879925141408,2.175009605842629,1.0814744096836046,B,1550.738199846819,Incorrect
1,3,269,B,73.75281396622624,48.694529183461896,3.6876406983113124,0.7648918757638883,B,599.2141999304295,Correct
1,3,270,B,68.12368596498784,40.55069954093251,3.406184298249392,0.636968898878603,A,819.096399936825,Incorrect
1,3,271,A,42.68550456250328,66.81520375165196,2.1342752281251642,1.049530766271475,A,2390.5652000103146,Correct
1,3,272,A,25.05521849802339,35.39596996523997,1.2527609249011695,0.5559985960474143,A,959.970299853012,Correct
1,3,273,A,39.1575524854908,50.34931669894461,1.9578776242745397,0.7908852172733516,B,929.7293000854552,Incorrect
1,3,274,B,48.19107409471052,24.233533951423773,2.409553704735526,0.38065946116155885,B,3845.8618000149727,Correct
1,3,275,A,54.951737711061604,79.89923201878355,2.7475868855530803,1.2550542016883839,A,1071.0467000026256,Correct
1,3,276,B,61.04361334361926,44.92189327518393,3.0521806671809633,0.7056314494933128,B,699.4062999729067,Correct
1,3,277,A,28.545432655442703,46.224940440897356,1.4272716327721353,0.7260996665087442,A,605.7963999919593,Correct
1,3,278,A,20.690569255456527,47.28599866144233,1.0345284627728264,0.74276673006222,A,1143.3957999106497,Correct
1,3,279,B,73.75962858524264,58.71335675694996,3.687981429262132,0.9222672512761533,B,668.1896999944001,Correct
1,3,280,B,41.24235803586812,22.70115475817086,2.062117901793406,0.35658890508137275,B,4084.9421999882907,Correct
1,3,281,B,77.06150921487719,52.58029835916157,3.85307546074386,0.8259293952435073,A,4538.241300033405,Incorrect
1,3,282,B,67.0240886353341,44.74741176509471,3.351204431766705,0.7028907003418949,B,733.4886000026017,Correct
1,3,283,A,28.77684204626476,39.098082424946725,1.438842102313238,0.6141512425783041,A,639.994100201875,Correct
1,3,284,B,87.86015798718672,67.5953039525439,4.393007899359336,1.0617845515724051,B,2739.165299804881,Correct
1,3,285,B,63.67002238048381,37.14187379806304,3.18350111902419,0.5834231893227704,B,1425.4656999837607,Correct
1,3,286,A,17.01722941214175,40.926105090268635,0.8508614706070874,0.6428657554581589,A,597.091699950397,Correct
1,3,287,A,67.40676622221851,87.66011694239955,3.3703383111109253,1.3769618969953228,A,1572.8446999564767,Correct
1,3,288,B,48.780851181634404,41.299156930798176,2.43904255908172,0.6487256400662377,B,1515.3380001429468,Correct
1,3,289,B,59.85262527975858,39.84316231469169,2.992631263987929,0.6258549301181054,B,1429.5518000144511,Correct
1,3,290,B,35.83326393947269,23.913732089635634,1.7916631969736343,0.375636025263569,B,846.8460000585765,Correct
1,3,291,B,65.5325328171377,33.463919669800525,3.2766266408568856,0.5256500209748215,B,449.9919000081718,Correct
1,3,292,A,59.33502015569569,73.70638203707158,2.9667510077847847,1.1577771416517337,A,744.253900134936,Correct
1,3,293,A,55.123710320009394,82.60579259861163,2.75618551600047,1.297568755858802,A,569.338500034064,Correct
1,3,294,B,73.65888836809884,44.96333268921198,3.682944418404942,0.7062823782867108,B,746.2863998953253,Correct
1,3,295,B,57.90550786918502,35.38982594569231,2.8952753934592512,0.555902086014042,A,677.1265999414027,Incorrect
1,3,296,B,44.2807511252866,16.711587716900038,2.21403755626433,0.26250500600617294,B,2940.5068000778556,Correct
1,3,297,A,62.4691808454427,71.85334844330004,3.123459042272135,1.128669758026495,A,1939.6647999528795,Correct
1,3,298,A,48.64293986248233,78.7122247864201,2.4321469931241166,1.2364087356836289,A,834.0329001657665,Correct
1,3,299,A,43.656542333600726,63.115655556289774,2.1828271166800364,0.9914183991107189,A,5466.792999999598,Correct
