subject,day,trial,cat,x,y,xt,yt,resp,rt,fb,resp_key
1,24,0,B,70.68542977015298,50.6721159083262,3.5342714885076485,0.7959557353972403,A,699.2448000237346,Incorrect,k
1,24,1,A,47.08941931099775,75.12558773357098,2.3544709655498877,1.1800699726020103,A,541.0991000244394,Correct,k
1,24,2,A,33.89988429426688,43.19329663069193,1.694994214713344,0.6784787168965327,B,1614.5849999738857,Incorrect,d
1,24,3,A,12.695406208001764,34.40585396358271,0.6347703104000881,0.5404458902623736,A,1482.8145999927074,Correct,k
1,24,4,B,39.91851504624337,12.289967952968297,1.9959257523121687,0.19305036516949595,B,1332.8196000074968,Correct,d
1,24,5,A,69.18041317672618,86.36403605803443,3.459020658836309,1.3566031060714245,A,935.8193000080064,Correct,k
1,24,6,A,19.559316994405336,44.53334742118501,0.9779658497202668,0.699528185490784,A,1957.6332999859005,Correct,k
1,24,7,A,39.20833675096513,63.31045744430442,1.9604168375482567,0.9944783400121799,A,1320.3524999553338,Correct,k
1,24,8,B,50.10024177880069,30.553148816386717,2.5050120889400342,0.47992773932798094,A,684.0680000605062,Incorrect,k
1,24,9,A,53.3674874665271,78.47352706233269,2.6683743733263547,1.232659280601521,A,765.990799991414,Correct,k
1,24,10,A,28.15842409858014,52.51462606252757,1.4079212049290073,0.8248978172202586,A,762.9203000105917,Correct,k
1,24,11,A,49.5014996767613,73.64531308196368,2.4750749838380646,1.156817872748087,A,586.253899964504,Correct,k
1,24,12,A,57.416473993664084,85.42956147378379,2.8708236996832044,1.341924413627184,A,528.0210999771953,Correct,k
1,24,13,A,30.215985028631682,52.955742046063705,1.5107992514315842,0.8318268508865493,A,513.1201999029145,Correct,k
1,24,14,A,35.22959390876909,68.40375507081629,1.7614796954384544,1.07448367204216,A,702.137199928984,Correct,k
1,24,15,A,15.977857010282058,40.99518432109027,0.798892850514103,0.6439508494784832,A,566.4176000282168,Correct,k
1,24,16,B,46.74110784866792,39.66586573298148,2.3370553924333963,0.6230699619250687,A,917.9877999704331,Incorrect,k
1,24,17,A,50.053012098742514,70.42258401817193,2.5026506049371253,1.1061953629914945,A,5420.1668000314385,Correct,k
1,24,18,A,46.718513169551464,65.56401044983139,2.3359256584775734,1.0298770678453735,A,602.0093000261113,Correct,k
1,24,19,B,67.27198254482124,52.44058269483039,3.363599127241062,0.8237347467202359,B,1228.076900006272,Correct,d
1,24,20,B,76.12619983420724,48.25090682008498,3.806309991710362,0.757923471975123,B,946.9587000785396,Correct,d
1,24,21,A,53.8361205381469,63.82486700512475,2.6918060269073454,1.0025586664982276,B,602.6570999529213,Incorrect,d
1,24,22,A,40.170645450238275,50.22208872772556,2.0085322725119137,0.7888867249747868,B,3932.9398999689147,Incorrect,d
1,24,23,B,80.08226586021006,54.773990030088875,4.004113293010502,0.8603878234316388,B,2648.739399970509,Correct,d
1,24,24,A,40.30977669650051,60.289581543866724,2.0154888348250255,0.9470265323310724,B,697.6291999453679,Incorrect,d
1,24,25,B,84.2781361656944,63.401205503822226,4.21390680828472,0.9959038071977233,A,720.3196999616921,Incorrect,k
1,24,26,B,43.196947296623705,30.544420302582807,2.1598473648311853,0.47979063215376533,A,892.8747999016196,Incorrect,k
1,24,27,B,80.06383315755366,60.4103768574493,4.003191657877682,0.9489239806797678,A,2377.7597000589594,Incorrect,k
1,24,28,A,30.517711455829982,63.768291865448674,1.525885572791499,1.0016699862823166,A,1625.4335999256,Correct,k
1,24,29,B,52.392953531315285,25.13595265337144,2.6196476765657644,0.394834620984063,A,817.3501000273973,Incorrect,k
1,24,30,B,49.81958084930509,39.78532811567403,2.4909790424652543,0.6249464726443048,B,748.4484000597149,Correct,d
1,24,31,B,43.510634086935994,20.73288967075139,2.1755317043468,0.32567146938660135,A,915.0565000018105,Incorrect,k
1,24,32,B,85.50082963412169,59.879614743573065,4.275041481706085,0.940586788890981,A,902.8368999715894,Incorrect,k
1,24,33,A,51.63290459395562,66.16251863612507,2.5816452296977808,1.0392784124512413,A,1083.163799950853,Correct,k
1,24,34,A,50.350718145697044,61.995286401414305,2.517535907284852,0.9738196815793919,A,550.8229999104515,Correct,k
1,24,35,A,21.531191531832942,48.9507019030471,1.0765595765916471,0.7689158274333833,A,569.058799999766,Correct,k
1,24,36,A,51.390344718114385,61.76502989952578,2.5695172359057192,0.9702028209055207,A,490.66240002866834,Correct,k
1,24,37,A,58.30992939192443,81.73836744389034,2.915496469596221,1.283943273390745,A,1427.571599953808,Correct,k
1,24,38,A,61.40460627113853,76.23277074291711,3.070230313556926,1.1974615626437166,A,591.852999990806,Correct,k
1,24,39,B,78.61092674243636,66.12476840691218,3.9305463371218186,1.038685433237409,A,541.4582000812516,Incorrect,k
1,24,40,B,51.45576363396446,30.296676932264468,2.5727881816982228,0.47589908839292705,A,646.7672999715433,Incorrect,k
1,24,41,B,57.1563401293801,46.91319685386887,2.857817006469005,0.7369107729626312,B,634.7532999934629,Correct,d
1,24,42,A,19.97978441940533,40.97700641758729,0.9989892209702665,0.6436653116379702,A,922.0848999684677,Correct,k
1,24,43,A,40.59522950779042,57.22706299418422,2.029761475389521,0.8989206034452473,A,797.9797000298277,Correct,k
1,24,44,A,34.79076219330293,44.20355552920152,1.7395381096651465,0.6943478265654399,A,573.6881999764591,Correct,k
1,24,45,A,24.47143645219863,41.74109241730879,1.2235718226099315,0.6556675464551496,A,716.2555999821052,Correct,k
1,24,46,A,53.52117237189728,68.74118221632712,2.6760586185948636,1.079783965249453,A,556.2959000235423,Correct,k
1,24,47,A,32.86410739709184,43.5001084576949,1.6432053698545923,0.6832981058052676,A,485.28190003708005,Correct,k
1,24,48,B,42.09654395037713,16.791346101466374,2.1048271975188566,0.26375784778125183,A,437.6247999025509,Incorrect,k
1,24,49,B,51.43021094822006,30.520645063242107,2.5715105474110027,0.47941717156751495,A,1128.999200067483,Incorrect,k
1,24,50,B,35.40260371566136,16.019694149752166,1.770130185783068,0.2516367672680839,B,2565.954799996689,Correct,d
1,24,51,A,29.330109120523474,56.64445787261307,1.4665054560261737,0.8897690635958887,A,780.2967999596149,Correct,k
1,24,52,A,42.05224973998819,59.96638546777218,2.1026124869994094,0.941949780239434,A,1526.420300011523,Correct,k
1,24,53,A,52.04938320910934,80.43527885506204,2.602469160455467,1.2634744057025467,A,1223.4245999716222,Correct,k
1,24,54,A,61.09824347799963,81.95491266178774,3.0549121738999814,1.2873447577193275,A,630.3648999892175,Correct,k
1,24,55,B,89.17482444047778,65.5458204621045,4.458741222023889,1.0295913401863153,A,1156.9951999699697,Incorrect,k
1,24,56,A,23.562819732937577,45.93130602581466,1.1781409866468788,0.7214872679024197,A,689.8950999602675,Correct,k
1,24,57,B,59.11570352503173,51.99393563373227,2.9557851762515868,0.8167188310907695,A,649.4138000998646,Incorrect,k
1,24,58,A,56.38834653509315,74.69556920638284,2.8194173267546576,1.1733152573724015,A,1126.5688999556005,Correct,k
1,24,59,B,36.618624297537195,16.533882145595168,1.8309312148768597,0.25971361341960614,B,1276.8494000192732,Correct,d
1,24,60,A,59.54072581055126,80.97844636791592,2.977036290527563,1.2720064610427986,B,699.8169000726193,Incorrect,d
1,24,61,A,61.854249565537756,83.05440335843375,3.092712478276888,1.3046155171956946,A,790.1199000189081,Correct,k
1,24,62,A,27.919459147414642,48.83009058949025,1.395972957370732,0.7670212693503332,A,651.60320000723,Correct,k
1,24,63,B,35.60406812086689,22.0724603636122,1.7802034060433445,0.34671339662487993,A,909.4916000030935,Incorrect,k
1,24,64,A,50.12477815353647,64.21271837568877,2.5062389076768232,1.0086510215804707,A,10039.29850005079,Correct,k
1,24,65,B,66.41380508120471,37.300038774501736,3.320690254060236,0.5859076389629454,A,1059.9808000260964,Incorrect,k
1,24,66,B,57.57463155734981,32.38942951351771,2.8787315778674905,0.5087719690681584,A,1487.4155999859795,Incorrect,k
1,24,67,B,82.9255467088592,64.61335639111313,4.14627733544296,1.0149442288105006,B,1524.940300034359,Correct,d
1,24,68,A,47.43562865447122,57.617629210603766,2.3717814327235613,0.9050556032264674,B,2996.0748000303283,Incorrect,d
1,24,69,A,35.16907919964642,50.414653640607234,1.758453959982321,0.791911527553028,A,67016.20770001318,Correct,k
1,24,70,A,51.9497595027611,61.55233841477724,2.597487975138055,0.966861870875685,A,1362.796299974434,Correct,k
1,24,71,A,53.00082971213817,78.73701789274905,2.6500414856069083,1.2367981848871425,A,1491.8367000063881,Correct,k
1,24,72,B,35.99533691341897,22.196167526242508,1.7997668456709481,0.34865658419145895,B,22164.638399961405,Correct,d
1,24,73,A,47.97464397209178,60.4123929203286,2.398732198604589,0.9489556489214218,A,6756.9307999219745,Correct,k
1,24,74,B,66.38523884645289,46.082849362446126,3.319261942322645,0.7238677050677291,A,551.1857999954373,Incorrect,k
1,24,75,B,33.040278378490406,11.308101405439338,1.6520139189245202,0.17762724150688317,B,1622.0014001009986,Correct,d
1,24,76,A,49.13922144147783,59.15355954808581,2.4569610720738915,0.9291819405497639,B,823.5471999505535,Incorrect,d
1,24,77,A,62.65778071643258,80.67016978495506,3.132889035821629,1.2671640638012807,A,1472.3797999322414,Correct,k
1,24,78,A,27.848965843316016,42.76996687705006,1.3924482921658008,0.6718290686760964,B,1112.4404000584036,Incorrect,d
1,24,79,A,52.70232066462894,73.11833131630891,2.635116033231447,1.1485400625303028,A,2948.2117000734434,Correct,k
1,24,80,A,67.77188460742269,86.2847829394877,3.3885942303711345,1.3553582009964222,A,725.3354999702424,Correct,k
1,24,81,A,43.42449679962039,66.35361115516801,2.1712248399810194,1.042280086721148,A,785.7703999616206,Correct,k
1,24,82,B,42.450381616090496,30.40849278277407,2.122519080804525,0.4776554876655063,A,640.4810000676662,Incorrect,k
1,24,83,B,80.5619431734842,61.40670358512984,4.0280971586742105,0.9645742443210495,A,1016.8688999256119,Incorrect,k
1,24,84,A,11.58941725677666,32.21291475698912,0.579470862838833,0.5059992817563562,A,964.2406000057235,Correct,k
1,24,85,B,38.022523654056,12.188569521545606,1.9011261827027999,0.19145760233328066,B,1389.0719000482932,Correct,d
1,24,86,A,68.72175815641322,86.5012781831336,3.436087907820661,1.358758900331298,A,689.7293999791145,Correct,k
1,24,87,B,86.86539298628524,66.08974844287668,4.343269649314262,1.0381353409286942,A,1496.3018000125885,Incorrect,k
1,24,88,A,28.150645546623256,55.26985789841709,1.407532277331163,0.8681768976930946,A,1323.4519000397995,Correct,k
1,24,89,B,68.06723509902977,35.32041683361722,3.4033617549514883,0.5548118102311056,A,1605.9927999740466,Incorrect,k
1,24,90,B,53.662133857655675,36.43909856515686,2.683106692882784,0.5723840217786559,A,1736.5646000253037,Incorrect,k
1,24,91,B,49.619802353360996,21.794838772062313,2.4809901176680498,0.3423525268624248,A,3880.1206999924034,Incorrect,k
1,24,92,A,25.878985428780126,45.450476083233205,1.2939492714390064,0.7139344088262202,A,1056.0355000197887,Correct,k
1,24,93,B,62.016923858169136,50.47566071720192,3.100846192908457,0.7928698244712622,A,1237.4752999749035,Incorrect,k
1,24,94,A,16.655185613148653,47.08365419784042,0.8327592806574328,0.7395883106604882,B,1520.3078999184072,Incorrect,d
1,24,95,A,31.415993897614914,51.84662594315751,1.5707996948807457,0.8144048958822081,A,3304.2451000073925,Correct,k
1,24,96,A,55.253645623827886,66.05066206893093,2.7626822811913945,1.037521373602477,A,2885.4072999674827,Correct,k
1,24,97,A,30.171278786912126,59.09080440667814,1.5085639393456063,0.928196185093657,A,1324.934000032954,Correct,k
1,24,98,A,67.06398563316208,85.16931156314045,3.353199281658104,1.3378364175903115,A,1336.449599941261,Correct,k
1,24,99,B,61.884153538260655,36.69908322681276,3.094207676913033,0.5764678512941768,B,2267.606000066735,Correct,d
1,24,100,B,83.34557141942756,65.23037870697875,4.167278570971377,1.0246363926836228,A,54567.41719995625,Incorrect,k
1,24,101,A,10.321286678888523,33.84568531326779,0.5160643339444262,0.5316467816793703,B,1654.9624000908807,Incorrect,d
1,24,102,B,62.850814438800406,36.984562332651954,3.1425407219400205,0.5809521466024657,A,945.9890999132767,Incorrect,k
1,24,103,A,23.019109061658714,50.599018318791806,1.1509554530829356,0.7948075211458585,A,2121.249399962835,Correct,k
1,24,104,B,51.78659073987123,21.562158230395696,2.589329536993562,0.33869758946075906,A,5913.4231000207365,Incorrect,k
1,24,105,B,59.228944880557364,38.04860094519793,2.9614472440278683,0.5976660260440175,B,1144.125199993141,Correct,d
1,24,106,B,55.23931322253535,30.024613681016405,2.7619656611267676,0.4716255288357637,B,481.1237999238074,Correct,d
1,24,107,B,52.53788489030292,26.65218527217644,2.626894244515146,0.41865154726591797,B,5571.595099987462,Correct,d
1,24,108,B,75.85434396513017,51.68024725875288,3.7927171982565087,0.8117914256190104,B,3436.114100040868,Correct,d
1,24,109,B,80.49492024824467,67.21173938260425,4.024746012412233,1.0557595333969065,B,700.2678000135347,Correct,d
1,24,110,B,75.5943330112189,46.72290195283822,3.7797166505609447,0.7339216276471638,B,532.2329000337049,Correct,d
1,24,111,B,56.43099102026059,31.949970964912644,2.8215495510130295,0.5018689703288838,B,11884.14920005016,Correct,d
1,24,112,B,73.79440746258179,41.98880655202083,3.6897203731290893,0.6595586309841581,B,859.9891000194475,Correct,d
1,24,113,B,62.437071222651035,47.203790627396415,3.1218535611325517,0.7414754092830964,B,1094.832899980247,Correct,d
1,24,114,A,51.76614480487566,66.0264491137511,2.588307240243783,1.0371410373919037,B,1095.2721999492496,Incorrect,d
1,24,115,B,58.85366885146151,48.450871607676675,2.9426834425730757,0.7610645115134967,A,1003.8984999991953,Incorrect,k
1,24,116,A,56.20022095656492,65.57408527176,2.810011047828246,1.0300353227781593,A,976.5729000791907,Correct,k
1,24,117,B,46.6593720542072,19.19300190763166,2.3329686027103604,0.30148296896675253,B,2445.490999962203,Correct,d
1,24,118,A,27.942605508767308,42.6637096153636,1.3971302754383654,0.6701599835125726,B,7523.313199984841,Incorrect,d
1,24,119,A,35.45669550014014,62.32104460895237,1.772834775007007,0.9789366795376327,A,609.5342999324203,Correct,k
1,24,120,B,67.50470084322406,57.77220452499247,3.3752350421612025,0.9074836665870165,B,2373.911500093527,Correct,d
1,24,121,B,40.10289644664256,16.824372549398984,2.0051448223321278,0.2642766260122481,A,1041.0126999486238,Incorrect,k
1,24,122,A,60.137312687807395,77.50242373408558,3.0068656343903695,1.2174052251920324,A,2945.467400015332,Correct,k
1,24,123,A,24.675889878721655,45.445503123004414,1.2337944939360828,0.7138562937496135,A,1970.98530002404,Correct,k
1,24,124,B,36.511293387051055,24.58733360538812,1.825564669352553,0.3862169331302438,A,779.9467999720946,Incorrect,k
1,24,125,A,61.8583808638831,81.03150985373854,3.092919043194155,1.2728399803289696,A,791.0073000239208,Correct,k
1,24,126,B,68.13668012617136,34.80350698028752,3.406834006308568,0.5466922092421618,A,682.696899981238,Incorrect,k
1,24,127,B,42.70433702237452,16.13612529121559,2.135216851118726,0.2534656633614368,A,2250.534599996172,Incorrect,k
1,24,128,B,57.517207802737055,34.44445282289432,2.8758603901368525,0.541052199726625,A,1131.3668999355286,Incorrect,k
1,24,129,A,36.38848106883148,55.80527419885652,1.819424053441574,0.8765871972734586,A,788.0242000101134,Correct,k
1,24,130,A,59.89293483709082,76.76577468608744,2.994646741854541,1.205833969004708,A,1195.601399987936,Correct,k
1,24,131,A,43.81713213571973,68.22449685293634,2.1908566067859865,1.0716678905402237,A,621.243100031279,Correct,k
1,24,132,A,42.20674115302876,54.06056466901723,2.1103370576514378,0.8491813640655025,A,451.67069998569787,Correct,k
1,24,133,B,59.28192974364257,35.53648874068015,2.9640964871821285,0.5582058598104858,A,640.3572999406606,Incorrect,k
1,24,134,B,38.3951433794271,17.30192959415384,1.919757168971355,0.27177807452960767,B,1830.672400072217,Correct,d
1,24,135,B,65.18436648470524,37.447985996785704,3.259218324235262,0.5882315884961772,B,3176.415800000541,Correct,d
1,24,136,A,67.02924865754788,81.98220608939995,3.351462432877394,1.2877734818777167,A,1410.6310000643134,Correct,k
1,24,137,A,53.91649263852734,74.41332752793302,2.695824631926367,1.1688818154546274,A,1086.1321999691427,Correct,k
1,24,138,A,32.94200465703011,50.93563755190753,1.6471002328515056,0.8000951236949254,A,830.3241999819875,Correct,k
1,24,139,A,34.816042267016854,52.33817945400557,1.7408021133508427,0.8221262003748409,A,646.2127999402583,Correct,k
1,24,140,B,74.45283481607083,61.900445283200646,3.7226417408035415,0.9723299207782006,A,591.2646999349818,Incorrect,k
1,24,141,A,45.428460929200114,57.422335856885645,2.271423046460006,0.9019879423997886,B,2838.451199932024,Incorrect,d
1,24,142,A,44.76304212391485,57.25307548656838,2.238152106195743,0.8993292067201254,A,721.050399937667,Correct,k
1,24,143,B,70.25711373800776,49.2112438271181,3.512855686900388,0.7730084104064515,B,1642.3470999579877,Correct,d
1,24,144,B,81.28051985088878,66.25786725799142,4.064025992544439,1.0407761451011677,A,2034.1094000032172,Incorrect,k
1,24,145,B,51.43349892383779,24.69057275245475,2.571674946191889,0.38783860986018076,B,1729.5002000173554,Correct,d
1,24,146,B,52.36139020172828,38.46431832862137,2.6180695100864138,0.6041960994326806,B,949.7140999883413,Correct,d
1,24,147,A,42.20915990404499,59.325171378223814,2.1104579952022493,0.931877612873917,B,2191.3909000577405,Incorrect,d
1,24,148,A,40.32249765307487,48.74762828133731,2.0161248826537435,0.7657259544428768,A,661.5253000054508,Correct,k
1,24,149,A,49.66391685299161,76.26599711537378,2.4831958426495806,1.197983481281793,A,1447.740099974908,Correct,k
1,24,150,B,79.89061455711757,49.82433338745999,3.994530727855879,0.7826387987002648,B,1252.2125999676064,Correct,d
1,24,151,B,41.72650300276604,19.681084628050048,2.0863251501383018,0.30914975441080517,B,1527.7649000054225,Correct,d
1,24,152,B,80.84340019341326,63.463320756108814,4.042170009670663,0.9968795112990204,B,1858.549700002186,Correct,d
1,24,153,B,34.80899796729443,14.775884456416211,1.7404498983647216,0.23209905029284394,A,1442.4793000798672,Incorrect,k
1,24,154,B,37.74658994220395,13.43350735747508,1.8873294971101973,0.21101304013094072,B,1914.204900036566,Correct,d
1,24,155,A,31.171431194175177,48.784028940328035,1.5585715597087588,0.7662977346572319,B,1230.3829999873415,Incorrect,d
1,24,156,A,58.25127437524684,75.0433028256792,2.912563718762342,1.1787774442913397,A,1861.9121999945492,Correct,k
1,24,157,B,44.54714008465137,16.46706498171683,2.2273570042325685,0.25866405186373675,B,1344.2718000151217,Correct,d
1,24,158,B,31.082113073556005,15.617750033429513,1.5541056536778004,0.2453230438531195,B,3749.673399957828,Correct,d
1,24,159,B,81.41942893609229,65.96203342788358,4.070971446804615,1.036129198164417,A,1220.1628000475466,Incorrect,k
1,24,160,B,51.82223071812359,36.25134798938186,2.5911115359061796,0.569434842630846,B,7706.6340000601485,Correct,d
1,24,161,A,35.93721241466185,46.936292365174005,1.7968606207330924,0.7372735564058668,B,3319.8879999108613,Incorrect,d
1,24,162,A,60.30444715613186,83.26625586453731,3.015222357806593,1.3079432885797924,A,3273.1055000331253,Correct,k
1,24,163,A,11.849083575917003,35.51280182214175,0.5924541787958502,0.5578337865641537,A,8678.458699956536,Correct,k
1,24,164,A,24.581524455131014,49.14891520438883,1.2290762227565508,0.772029354690078,A,1569.820799981244,Correct,k
1,24,165,A,43.13363902947995,50.33400769033288,2.1566819514739977,0.7906447439284097,A,984.6007999731228,Correct,k
1,24,166,B,43.600619988521174,18.64002315976918,2.1800309994260587,0.2927967991073723,A,816.8746000155807,Incorrect,k
1,24,167,B,82.15596381096833,56.21076508709002,4.107798190548417,0.8829566332513182,B,1506.2460999470204,Correct,d
1,24,168,B,72.17807745458414,59.88744014565811,3.608903872729207,0.9407097100194899,B,662.854399997741,Correct,d
1,24,169,A,43.213138736142795,55.55530425368326,2.1606569368071398,0.8726606785565856,B,550.0728000188246,Incorrect,d
1,24,170,A,56.27595905039314,85.31269050080334,2.8137979525196566,1.3400886086765178,A,901.5499000670388,Correct,k
1,24,171,A,38.947183524123425,50.83841908079686,1.9473591762061713,0.7985680195217527,A,746.6268000425771,Correct,k
1,24,172,B,82.31173539226482,66.46858436336233,4.115586769613241,1.0440860816522624,A,900.4826999735087,Incorrect,k
1,24,173,B,54.47545721022155,33.63562143518745,2.7237728605110774,0.5283471059985614,B,1964.3636998953298,Correct,d
1,24,174,B,54.06919321606101,47.357297914513246,2.7034596608030506,0.7438866961104904,B,1214.5617998903617,Correct,d
1,24,175,A,38.40740691366236,57.90131184092015,1.920370345683118,0.9095116795632323,B,1505.4740998893976,Incorrect,d
1,24,176,A,14.480711687161172,30.53547225736082,0.7240355843580586,0.47965007658809844,A,674.6705999830738,Correct,k
1,24,177,B,61.35891608482468,36.425131011095125,3.067945804241234,0.5721646199525109,A,853.7221000296995,Incorrect,k
1,24,178,A,28.922435434222027,41.55432783462007,1.4461217717111015,0.6527338552505213,B,1478.9847999345511,Incorrect,d
1,24,179,B,49.55229230177766,20.440517188374265,2.4776146150888834,0.3210788931728624,A,1116.6436000494286,Incorrect,k
1,24,180,B,62.08787792168294,39.68254002705237,3.104393896084147,0.6233318811238532,A,1039.8060000734404,Incorrect,k
1,24,181,B,63.68205853022322,50.22569469089783,3.184102926511161,0.7889433673118427,B,1301.069000037387,Correct,d
1,24,182,B,67.78351347315424,38.97474811681761,3.389175673657712,0.6122139117965341,B,624.9420999083668,Correct,d
1,24,183,B,75.43993574485324,52.88394452464839,3.7719967872426623,0.8306990580574277,B,582.8761999728158,Correct,d
1,24,184,A,58.805778003227914,70.40079933477601,2.940288900161396,1.1058531699849077,A,757.1031999541447,Correct,k
1,24,185,B,49.056152771559226,27.431921387196567,2.452807638577961,0.4308996135193473,B,950.9659999748692,Correct,d
1,24,186,A,31.497274667475807,56.02320358127327,1.5748637333737903,0.8800104240074675,B,1252.2147999843583,Incorrect,d
1,24,187,B,57.929591700654775,30.920993891647193,2.8964795850327385,0.4857058362584684,A,845.3281000256538,Incorrect,k
1,24,188,A,47.618534242496075,78.58539400995983,2.3809267121248037,1.2344164825057453,A,1257.9206000082195,Correct,k
1,24,189,B,78.62049725731006,47.21184119275084,3.931024862865503,0.7416018672679701,A,1762.40989996586,Incorrect,k
1,24,190,B,78.6856169170911,56.17257008016914,3.934280845854555,0.8823566674855859,B,1040.5468000099063,Correct,d
1,24,191,B,81.45478031388075,66.45783655329284,4.0727390156940375,1.04391725544648,B,573.3589000301436,Correct,d
1,24,192,A,45.32173353893455,71.47154435546203,2.2660866769467276,1.122672393439183,A,1803.2779999775812,Correct,k
1,24,193,A,25.26389725497365,51.82762834251716,1.2631948627486824,0.8141064822691702,A,1252.461800002493,Correct,k
1,24,194,A,25.91350695299863,44.78226421290769,1.2956753476499316,0.7034381613119395,A,739.4330000970513,Correct,k
1,24,195,B,64.9777392689131,40.60208189434449,3.2488869634456545,0.6377760109986189,A,563.8075999449939,Incorrect,k
1,24,196,A,46.84738880818667,70.83493375689326,2.3423694404093336,1.1126725375408775,A,1109.7109999973327,Correct,k
1,24,197,A,31.27454525160514,40.66906811531348,1.563727262580257,0.6388282280970586,A,1040.0607999181375,Correct,k
1,24,198,A,55.85802001393692,76.72961764125914,2.792901000696846,1.2052660154726675,A,730.0674000289291,Correct,k
1,24,199,B,46.94723532491831,32.537334147759466,2.347361766245916,0.5110952496299872,A,975.918999989517,Incorrect,k
1,24,200,B,76.21031510395662,60.56049383945597,3.810515755197831,0.951282012719024,A,904.0472999913618,Incorrect,k
1,24,201,B,80.6322438638819,63.503281386254585,4.031612193194095,0.9975072114095143,B,1436.8719999911264,Correct,d
1,24,202,A,45.97682658544849,62.95225966850083,2.298841329272425,0.9888517825071961,B,691.4480000268668,Incorrect,d
1,24,203,B,66.48187915844788,54.51138562507919,3.3240939579223943,0.8562628430837452,A,752.4988000513986,Incorrect,k
1,24,204,A,16.275713160308417,34.924717041608176,0.8137856580154208,0.5485961724330924,A,10589.088600012474,Correct,k
1,24,205,B,33.62435484274161,20.352436003166634,1.6812177421370804,0.31969531715102356,A,562.2979000909254,Incorrect,k
1,24,206,B,83.63070108783869,67.24948694497832,4.181535054391935,1.0563524707201328,B,1237.2170999879017,Correct,d
1,24,207,B,68.7443445588837,45.47328062282974,3.437217227944185,0.7142926216965451,A,756.3313000136986,Incorrect,k
1,24,208,B,61.990820630254156,35.51900552516877,3.099541031512708,0.5579312341034275,B,757.3777000652626,Correct,d
1,24,209,A,56.99855867269605,83.7358805838529,2.8499279336348025,1.3153201364205223,B,736.9534000754356,Incorrect,d
1,24,210,B,52.56964035088543,29.822356245932454,2.6284820175442714,0.4684484764747954,B,1372.8496000403538,Correct,d
1,24,211,A,22.267058058408026,33.81557782469531,1.1133529029204012,0.5311738543547835,B,1522.8363999631256,Incorrect,d
1,24,212,A,53.7309139494154,74.15922100545876,2.68654569747077,1.1648903195334555,A,2232.5326999416575,Correct,k
1,24,213,A,59.73804621178909,82.08329830071254,2.9869023105894548,1.2893614346196904,A,673.371099983342,Correct,k
1,24,214,A,49.81720695079777,65.62839082887005,2.490860347539888,1.0308883524744896,A,696.2811999255791,Correct,k
1,24,215,B,43.38133526763719,15.21284052193775,2.1690667633818594,0.23896274011976376,B,3410.2088999934494,Correct,d
1,24,216,A,33.55843727730803,46.83842686656894,1.6779218638654014,0.7357362887485789,A,19138.99260002654,Correct,k
1,24,217,B,84.9469340490159,58.794802667039505,4.247346702450795,0.9235466006401644,A,719.6868000319228,Incorrect,k
1,24,218,A,38.505341801721244,66.24991861175546,1.9252670900860622,1.0406512880580634,A,1221.012800000608,Correct,k
1,24,219,B,73.8039178787046,58.79146681178406,3.69019589393523,0.9234942011483448,A,3689.9883000878617,Incorrect,k
1,24,220,B,47.090103001477615,21.07619420862049,2.354505150073881,0.33106408445716934,A,1321.4503000490367,Incorrect,k
1,24,221,A,29.456761553252313,46.42488935874403,1.4728380776626155,0.7292404567657461,A,745.0132999802008,Correct,k
1,24,222,B,46.166250482736885,16.51030390889886,2.308312524136844,0.2593432473436575,B,1487.5191000755876,Correct,d
1,24,223,B,52.23820906118795,40.38377538297176,2.611910453059398,0.6343468603368221,B,1033.7403999874368,Correct,d
1,24,224,A,49.87618636244259,80.42715454397009,2.4938093181221292,1.263346789322337,A,625.2347999252379,Correct,k
1,24,225,A,24.25900685746162,51.636404823031604,1.2129503428730812,0.8111027502491234,A,854.1192000266165,Correct,k
1,24,226,B,65.81724809415456,52.05075493159334,3.2908624047077284,0.8176113465344818,B,4581.843000021763,Correct,d
1,24,227,A,40.727585482911095,73.28131176256747,2.0363792741455544,1.1511001533935263,A,2388.4058999828994,Correct,k
1,24,228,B,44.61958325409086,19.79259564243109,2.230979162704543,0.3109013653286743,B,1346.8636999605224,Correct,d
1,24,229,B,57.40214697986635,25.169826282802365,2.8701073489933173,0.395366706710916,B,786.5134000312537,Correct,d
1,24,230,B,58.4302396925259,50.295186636104916,2.921511984626295,0.7900349442345737,B,2008.7376999435946,Correct,d
1,24,231,A,56.27360328496026,67.65471581214487,2.8136801642480127,1.0627177908806977,B,4433.824900072068,Incorrect,d
1,24,232,A,33.16680989410174,45.61934057410918,1.6583404947050868,0.7165869260461609,A,11132.62490008492,Correct,k
1,24,233,A,14.006085414504621,37.43895206890569,0.7003042707252312,0.5880896838888725,A,4157.2035000426695,Correct,k
1,24,234,B,30.281684114975366,12.03695508790953,1.5140842057487682,0.18907604837883427,B,1944.0035000443459,Correct,d
1,24,235,A,33.387049421004534,66.15696596996726,1.6693524710502265,1.0391911913751957,B,4909.731299965642,Incorrect,d
1,24,236,A,17.696613409945435,41.086294963495895,0.8848306704972717,0.6453820121027102,A,720.9352999925613,Correct,k
1,24,237,B,75.5951493373866,53.623070656573674,3.77975746686933,0.8423092241880913,A,1435.3264999808744,Incorrect,k
1,24,238,B,75.99484901572218,60.9451786554449,3.799742450786109,0.9573246276783158,A,742.4988000420853,Incorrect,k
1,24,239,A,41.77310762307233,57.50243450075069,2.0886553811536164,0.9032461289554331,A,1961.1908999504521,Correct,k
1,24,240,A,63.471238639514894,88.31055348503858,3.173561931975745,1.3871789303152284,A,2366.530600003898,Correct,k
1,24,241,B,43.81923666504188,17.38965590762787,2.1909618332520937,0.2731560762392903,A,598.8122000126168,Incorrect,k
1,24,242,B,70.06195598695217,53.38537850398242,3.5030977993476085,0.8385755645861082,A,6802.700700005516,Incorrect,k
1,24,243,B,67.77488222703047,53.87459316528857,3.388744111351524,0.8462601305160473,A,2842.9425000213087,Incorrect,k
1,24,244,A,25.388546016764735,57.50298310325157,1.2694273008382368,0.9032547463833657,A,3149.7355999890715,Correct,k
1,24,245,A,32.128525446455285,51.02444681724951,1.6064262723227642,0.8014901363727709,A,580.5537999840453,Correct,k
1,24,246,B,76.26799840541668,51.04697960296436,3.8133999202708337,0.8018440805431043,A,1398.3622000087053,Incorrect,k
1,24,247,A,42.67321651421625,68.11288691114622,2.1336608257108125,1.0699147256742467,A,1344.8221000144258,Correct,k
1,24,248,A,59.504257792383655,78.4398059947728,2.9752128896191827,1.2321295913109342,A,10068.88319994323,Correct,k
1,24,249,A,52.94743240636957,82.98414705441083,2.6473716203184785,1.3035119337527605,A,729.9411999993026,Correct,k
1,24,250,B,48.05014068070632,18.01722622920991,2.402507034035316,0.2830139277987559,B,1514.7202999796718,Correct,d
1,24,251,A,44.17677341196669,56.097570513250474,2.2088386705983343,0.8811785770433155,B,1772.412099991925,Incorrect,d
1,24,252,B,62.93308578672594,45.11607307562959,3.146654289336297,0.7086816186660909,A,569.5998999290168,Incorrect,k
1,24,253,B,52.05241646248969,28.07966130670356,2.6026208231244845,0.4410742883821474,A,1080.5401999969035,Incorrect,k
1,24,254,A,28.09423718013751,38.21263230335086,1.4047118590068755,0.6002426245926754,B,1845.301500055939,Incorrect,d
1,24,255,A,31.69510255358658,58.58294826267402,1.584755127679329,0.9202187994382384,A,4663.431100081652,Correct,k
1,24,256,B,56.132957480697115,47.90727368652852,2.8066478740348555,0.7525256953355679,A,652.4916000198573,Incorrect,k
1,24,257,B,59.29088822192269,51.95377831357493,2.9645444110961345,0.8160880413807986,B,1085.9237000113353,Correct,d
1,24,258,A,53.75993263745523,77.13978451052802,2.6879966318727617,1.211708901588873,A,807.6585000380874,Correct,k
1,24,259,A,59.881615196561754,84.81923722923625,2.994080759828088,1.3323374628122926,A,629.7598999226466,Correct,k
1,24,260,B,66.93064483999126,46.79123953568283,3.346532241999563,0.7349950718883073,A,1514.5317000569776,Incorrect,k
1,24,261,B,74.0995217759325,64.03541804538267,3.704976088796625,1.0058659945046275,B,1125.0692000612617,Correct,d
1,24,262,A,61.14018200511457,74.1499798062017,3.0570091002557285,1.1647451591149738,A,2805.2456999430433,Correct,k
1,24,263,A,54.750784753503616,78.97781676071143,2.737539237675181,1.2405806446600596,A,852.3074999684468,Correct,k
1,24,264,A,33.49440229073412,42.0153212364673,1.674720114536706,0.6599751226735046,B,5443.047599983402,Incorrect,d
1,24,265,B,87.82609058420442,68.81899114092678,4.39130452921022,1.0810061849789832,B,1761.4648999879137,Correct,d
1,24,266,A,33.676369949302014,44.20174548420161,1.6838184974651005,0.694319394445068,B,801.916400087066,Incorrect,d
1,24,267,A,17.133733514790094,34.30644380148387,0.8566866757395047,0.5388843590876641,B,1046.4895999757573,Incorrect,d
1,24,268,B,85.42141727707234,69.45089428090347,4.271070863853617,1.0909320962906388,A,2071.7718000523746,Incorrect,k
1,24,269,B,60.59661188945675,35.91151521084868,3.0298305944728376,0.5640967618284016,B,705.8524999301881,Correct,d
1,24,270,B,57.437924535832614,24.76502655891363,2.8718962267916304,0.3890081275171958,B,797.1566000487655,Correct,d
1,24,271,A,30.1170815115567,49.675540748538786,1.505854075577835,0.7803015693935492,A,11362.8443001071,Correct,k
1,24,272,A,36.47804621244213,66.07121679901766,1.8239023106221066,1.0378442465476623,A,630.3544999100268,Correct,k
1,24,273,A,36.52090935602117,64.79250884593381,1.8260454678010587,1.017758348990187,A,661.1640000483021,Correct,k
1,24,274,B,51.148439569942866,23.574126715899627,2.5574219784971435,0.3703015165273257,B,4017.1766000567004,Correct,d
1,24,275,B,47.65583160705501,20.880853458160942,2.3827915803527504,0.32799567912421723,B,1637.850399944,Correct,d
1,24,276,B,64.79860341728319,36.81622913959134,3.2399301708641595,0.5783079749890933,A,150046.52640002314,Incorrect,k
1,24,277,A,26.223109767398153,39.83760324797075,1.3111554883699077,0.625767608502249,B,462369.01859997306,Incorrect,d
1,24,278,A,61.47903175856358,87.15446535036051,3.0739515879281787,1.3690191403611938,B,15003.405999974348,Incorrect,d
1,24,279,A,13.328357368002699,40.7095651385226,0.666417868400135,0.6394643538500888,B,809.3623999739066,Incorrect,d
1,24,280,B,34.08252298695551,13.686755028514234,1.7041261493477753,0.21499104524531737,B,1134.8650000290945,Correct,d
1,24,281,B,83.12510616322109,65.90391385095757,4.156255308161054,1.0352162579849145,A,17811.897300067358,Incorrect,k
