subject,day,trial,cat,x,y,xt,yt,resp,rt,fb
17,10,0,A,47.08929053774457,67.04802909691615,2.3544645268872286,1.0531879782427322,A,637.4345720105339,Correct
17,10,1,A,43.97311159823889,70.88511469680317,2.1986555799119443,1.1134607779017336,A,493.86867601424456,Correct
17,10,2,A,58.96743025337092,68.96894361716578,2.948371512668546,1.0833616329676834,A,667.1468669956084,Correct
17,10,3,A,49.04767166265665,64.76922365440029,2.4523835831328324,1.0173925860568909,B,697.0647200068925,Incorrect
17,10,4,A,34.85235463097395,63.264473165117735,1.7426177315486973,0.9937560206438124,B,888.235574006103,Incorrect
17,10,5,B,61.3349898036655,38.435698125210536,3.066749490183275,0.603746534328782,B,1409.043446998112,Correct
17,10,6,B,47.66987182814731,32.87816796873423,2.3834935914073654,0.5164490547703335,B,749.095151986694,Correct
17,10,7,A,13.5948466779384,37.01781582255303,0.6797423338969198,0.5814744912003631,A,732.0893839932978,Correct
17,10,8,A,37.78069521165973,67.5024020559983,1.8890347605829867,1.0603252519939441,A,1055.2747779875062,Correct
17,10,9,B,38.253823829118225,17.95562616003981,1.9126911914559113,0.28204631617492887,B,1018.730087991571,Correct
17,10,10,A,51.21167401478116,65.59171982272126,2.5605837007390577,1.0303123256569056,A,1087.861082982272,Correct
17,10,11,A,42.96188877880289,69.89596002336808,2.148094438940144,1.097923172625095,A,1346.4275430014823,Correct
17,10,12,A,61.3821260568362,72.72302164558558,3.0691063028418104,1.1423305527431158,B,819.7550720069557,Incorrect
17,10,13,A,26.172591552914962,57.29656254561536,1.3086295776457482,0.9000122998462664,A,540.4602060152683,Correct
17,10,14,A,35.90108888350925,47.021344046913505,1.7950544441754628,0.7386095450985082,B,546.8206359946635,Incorrect
17,10,15,B,41.69857071429395,13.667685578582695,2.0849285357146976,0.21469150302625278,B,505.3501789807342,Correct
17,10,16,A,19.407608413529257,35.99490860349535,0.9703804206764629,0.5654067021768852,A,820.306907990016,Correct
17,10,17,A,46.08929285740539,65.67895765170078,2.3044646428702693,1.0316826542700914,A,820.5706519947853,Correct
17,10,18,A,55.16159560097584,66.58330697747222,2.758079780048792,1.0458881402607036,A,942.5230390042998,Correct
17,10,19,A,45.53182443951177,63.85617507505106,2.276591221975589,1.0030504525106205,A,869.0946199931204,Correct
17,10,20,B,57.49451777204281,45.573869648859294,2.8747258886021405,0.715872670422576,B,1165.6551500200294,Correct
17,10,21,B,49.61785070206503,23.478538127702077,2.4808925351032514,0.3688000144950835,B,547.7173569961451,Correct
17,10,22,A,52.0142565612629,80.67084179305027,2.6007128280631444,1.267174619679756,B,532.9966910067014,Incorrect
17,10,23,B,62.94435301451407,34.39636949012614,3.1472176507257035,0.5402969085017019,B,1708.1984789983835,Correct
17,10,24,B,79.89605385212603,62.8603934861671,3.9948026926063016,0.9874087518895311,B,589.2372680245899,Correct
17,10,25,B,54.3925597766214,39.34462517729566,2.71962798883107,0.6180239270761804,B,463.9568900165614,Correct
17,10,26,B,59.681511672680244,48.17201456528438,2.984075583634012,0.7566842353345895,B,528.6867800168693,Correct
17,10,27,B,53.56707919777193,33.98391712740748,2.6783539598885966,0.5338181219383383,B,499.0582769969478,Correct
17,10,28,A,15.14453060319962,32.940213712307184,0.7572265301599811,0.5174236670313102,A,514.6027499868069,Correct
17,10,29,A,52.68984659853863,81.9466318417656,2.634492329926932,1.287214682902591,A,733.1337429932319,Correct
17,10,30,B,70.61848522374436,40.75262310517424,3.530924261187218,0.6401407068086452,B,495.8616140065715,Correct
17,10,31,B,76.07271667711126,47.60698691761367,3.803635833855563,0.7478088017996024,B,570.9820239862893,Correct
17,10,32,B,36.468707753559286,16.79147020472338,1.823435387677964,0.26375979719065434,B,761.662573000649,Correct
17,10,33,B,41.94273009840147,24.568240574011504,2.097136504920073,0.3859170204947061,B,1104.93684199173,Correct
17,10,34,B,40.89844726995805,21.92389102150408,2.044922363497902,0.3443796748563022,B,469.9542169983033,Correct
17,10,35,A,30.897008893393586,40.29024049649702,1.5448504446696794,0.6328776177758051,B,543.7012409965973,Incorrect
17,10,36,A,12.456122724808658,39.2757635860263,0.6228061362404329,0.6169422517299487,A,596.5412100194953,Correct
17,10,37,B,44.48139686783881,24.867605563217694,2.2240698433919404,0.39061943474886685,B,1214.4278789928649,Correct
17,10,38,B,46.50552335736232,22.17086210091024,2.3252761678681164,0.34825908749985984,B,1053.0552489799447,Correct
17,10,39,B,67.52640625093615,57.59723376737746,3.3763203125468073,0.904735232353435,B,584.375470993109,Correct
17,10,40,A,23.872573385541585,35.98406787532679,1.1936286692770792,0.5652364164170155,A,601.5047010150738,Correct
17,10,41,B,66.40327869422556,37.1984579945791,3.320163934711278,0.5843120118031911,B,442.0327069819905,Correct
17,10,42,A,38.37441933726688,54.94710780790914,1.918720966863344,0.8631071511266686,B,1062.1721929928754,Incorrect
17,10,43,A,63.51765951509562,80.12773465273375,3.175882975754781,1.2586435126691033,A,1058.4204629994929,Correct
17,10,44,B,79.12708133863873,65.20062065730491,3.9563540669319366,1.0241689543324202,B,603.8298339990433,Correct
17,10,45,A,20.83113410349693,37.71059097476784,1.0415567051748464,0.592356577844301,A,815.4455879994202,Correct
17,10,46,A,20.373294518630818,40.918584455625364,1.018664725931541,0.6427476216054308,A,860.2278569887858,Correct
17,10,47,B,77.32239610823737,46.35932405135546,3.8661198054118686,0.7282105593256347,B,714.2550820135511,Correct
17,10,48,B,69.68246253136769,53.972635411748016,3.484123126568385,0.8478001745221394,B,646.3386209798045,Correct
17,10,49,B,65.11792050707453,34.20035357263434,3.2558960253537266,0.5372178976698074,B,754.0968410030473,Correct
17,10,50,B,74.49487492916604,59.47157199082142,3.724743746458302,0.9341772683190054,B,576.1450779973529,Correct
17,10,51,B,35.782633652293995,16.18765070511104,1.7891316826147,0.25427502267027235,B,603.1804060039576,Correct
17,10,52,B,78.06738153806957,60.888504634051785,3.903369076903479,0.9564343942320259,B,560.4912639828399,Correct
17,10,53,A,39.526883055228325,66.92709445941065,1.9763441527614163,1.0512883413989733,A,1108.1953709945083,Correct
17,10,54,A,17.073749819382098,40.33014828188546,0.8536874909691049,0.6335044878027918,A,860.9107049996965,Correct
17,10,55,B,88.09579353972606,61.17617325444687,4.404789676986303,0.9609530823545336,B,729.1881310229655,Correct
17,10,56,A,50.84549425849891,80.59496229244353,2.5422747129249457,1.265982707271435,A,591.375413001515,Correct
17,10,57,B,76.74981916513941,58.000473363275034,3.8374909582569705,0.9110693051139767,B,1028.2021089806221,Correct
17,10,58,A,57.74026437091393,78.11784642894503,2.8870132185456963,1.2270722622771466,A,971.811067982344,Correct
17,10,59,B,33.00417262208286,15.172687122567766,1.6502086311041433,0.23833201199737677,B,1669.267258985201,Correct
17,10,60,A,19.583644703045174,38.886832557090784,0.9791822351522587,0.610832937413664,A,1231.0568449902348,Correct
17,10,61,A,17.5742408818859,47.910160677480704,0.8787120440942949,0.7525710440833998,A,1139.4813169899862,Correct
17,10,62,A,30.445280522616333,58.30406408106425,1.5222640261308167,0.9158380969575,A,1225.7529530033935,Correct
17,10,63,A,35.879305035158744,53.03192427224972,1.7939652517579372,0.8330235184971498,B,1621.656567993341,Incorrect
17,10,64,A,26.682187006153548,45.12711767435462,1.3341093503076775,0.708855106817173,A,563.5029400000349,Correct
17,10,65,B,47.33567968655441,36.37847391608722,2.3667839843277205,0.5714317320179376,B,1295.2042979886755,Correct
17,10,66,B,64.96923517573266,39.76798640620425,3.248461758786633,0.6246740697089502,B,633.444035978755,Correct
17,10,67,A,30.69395038795019,40.66001557085555,1.5346975193975094,0.6386860310612319,B,1717.327746009687,Incorrect
17,10,68,A,38.13999437178945,61.00017213638693,1.9069997185894723,0.9581884632569299,A,1921.9483739871066,Correct
17,10,69,A,37.05068719230065,55.509464766272934,1.8525343596150323,0.8719406335721227,A,1784.6099169983063,Correct
17,10,70,B,45.33214754529227,35.71966423824414,2.266607377264614,0.5610831737978093,B,1143.8369599927682,Correct
17,10,71,A,13.035776505743968,31.368877154098076,0.6517888252871984,0.4927411700933761,A,1101.9660889869556,Correct
17,10,72,B,51.74395031356225,38.49533630310367,2.587197515678113,0.6046833286364948,B,2098.4053679858334,Correct
17,10,73,A,30.748175555506506,53.34040874120086,1.5374087777753254,0.8378691812041669,A,1470.5177569994703,Correct
17,10,74,A,48.25560688181223,72.021602308332,2.4127803440906117,1.1313126835581075,A,1244.72487802268,Correct
17,10,75,B,72.13052391981188,41.22240038694672,3.606526195990594,0.6475199510948443,B,1244.7400969977025,Correct
17,10,76,A,23.568679760916254,48.9500555375801,1.1784339880458128,0.7689056743483701,A,1150.8229240134824,Correct
17,10,77,B,39.91549014563137,27.41719333588218,1.9957745072815682,0.43066826583029244,B,1408.4025239862967,Correct
17,10,78,B,37.53674287626916,27.814632270881866,1.876837143813458,0.43691122202252025,B,1061.7108909937087,Correct
17,10,79,B,51.458892946000226,41.04743392427517,2.5729446473000115,0.6447715843260766,B,1344.001772988122,Correct
17,10,80,B,65.84107118436785,47.73112280306002,3.292053559218392,0.7497587237284279,B,1082.5061149953399,Correct
17,10,81,B,76.74143411569604,53.788438506872126,3.837071705784802,0.8449068163062788,B,1368.401213985635,Correct
17,10,82,B,76.30693847122984,49.606292265188074,3.815346923561492,0.7792138167607151,B,877.0191020157654,Correct
17,10,83,A,31.499306077149356,62.003930595206775,1.5749653038574678,0.9739554642579651,A,1072.7656979870517,Correct
17,10,84,A,64.4579413005236,89.36332969291666,3.22289706502618,1.403715900317948,A,701.4185909938533,Correct
17,10,85,B,46.24382628956712,35.94541435947989,2.312191314478356,0.5646292484099155,B,476.5030960261356,Correct
17,10,86,A,45.4540978542823,63.10728398636528,2.272704892714115,0.9912868987978498,A,585.0235870166216,Correct
17,10,87,A,63.439490852776935,86.25354013527765,3.1719745426388464,1.354867440175503,A,720.4576420190278,Correct
17,10,88,B,61.61558702071117,33.94601670152812,3.080779351035558,0.5332227834407858,B,461.3674249849282,Correct
17,10,89,B,81.32716032481527,66.05686818381287,4.0663580162407635,1.0376188590270794,A,536.8201379897073,Incorrect
17,10,90,B,45.362869546630776,26.475941011546738,2.268143477331539,0.4158831088937598,B,640.2331079880241,Correct
17,10,91,B,36.65083026871834,12.324328740852849,1.8325415134359166,0.19359010316344427,B,643.6149310029577,Correct
17,10,92,A,11.982505137994693,34.39127262436955,0.5991252568997346,0.5402168471216158,B,604.9487309937831,Incorrect
17,10,93,B,58.17128471301945,45.865550906490235,2.9085642356509727,0.7204543889033919,B,973.6729619908147,Correct
17,10,94,A,63.06311960439996,87.06469906432308,3.153155980219998,1.3676090948374175,A,545.34346901346,Correct
17,10,95,B,87.15573856031509,63.46005642872084,4.357786928015754,0.9968282353643156,A,1090.0383989792317,Incorrect
17,10,96,B,67.48232098414765,41.44419219901879,3.374116049207382,0.6510038487320042,B,452.84198300214484,Correct
17,10,97,A,20.60228109024639,45.726620687457526,1.0301140545123195,0.7182720781260182,A,496.52693801908754,Correct
17,10,98,A,30.771703782900843,50.65986018816693,1.538585189145042,0.7957632229951563,A,526.5172520012129,Correct
17,10,99,B,83.79894223211689,59.739564982497896,4.189947111605844,0.9383868923883272,B,495.0140380242374,Correct
17,10,100,A,53.644883159447,71.16745985208549,2.68224415797235,1.1178958452297916,B,622.7966590085998,Incorrect
17,10,101,B,40.454559952303725,13.844584269561178,2.022727997615186,0.21747022116629103,B,585.5245819839183,Correct
17,10,102,B,67.89827611336376,57.05893449533326,3.394913805668188,0.896279647161001,B,443.10147801297717,Correct
17,10,103,B,57.909159219442344,33.0336456851465,2.8954579609721174,0.5188912930287221,B,504.84590997803025,Correct
17,10,104,B,34.05592073488629,15.224379306587668,1.7027960367443145,0.23914399092520147,B,669.7808260214515,Correct
17,10,105,A,43.462889341007546,58.1210853976225,2.1731444670503772,0.9129638745191794,B,788.091834023362,Incorrect
17,10,106,B,34.842722651508936,17.11798511177693,1.742136132575447,0.2688886813570893,B,599.0571060101502,Correct
17,10,107,B,40.84965164951339,22.861591084293334,2.0424825824756696,0.3591090329989492,B,497.0680100086611,Correct
17,10,108,B,78.43191145513906,56.14240426004527,3.921595572756953,0.8818828238911326,B,418.8300390087534,Correct
17,10,109,A,50.15584766839162,73.92956272915953,2.507792383419581,1.1612828557651667,A,539.1213799885008,Correct
17,10,110,A,53.069740695930456,60.688903974575325,2.6534870347965227,0.9532990744047112,B,516.0087239928544,Incorrect
17,10,111,A,69.52097975877255,85.04208063801423,3.476048987938628,1.3358378788918817,A,714.0656019910239,Correct
17,10,112,B,37.26222201397524,25.94385333641023,1.8631111006987622,0.407525095237387,B,605.0693579891231,Correct
17,10,113,A,17.503130606012828,48.345023137377346,0.8751565303006414,0.7594018476300661,A,643.1300140102394,Correct
17,10,114,B,82.85808985652167,56.11810687485079,4.142904492826084,0.8815011614569903,B,595.5974819953553,Correct
17,10,115,A,17.969176890376236,33.57140545482872,0.8984588445188118,0.527338403737871,A,703.2103479723446,Correct
17,10,116,B,55.795926761991566,42.581606745629564,2.789796338099578,0.6688703146505972,B,532.4393310002051,Correct
17,10,117,B,54.58095560205554,34.25006004525212,2.729047780102777,0.5379986851158668,B,591.9343970017508,Correct
17,10,118,A,35.64742994648687,55.54919636027768,1.7823714973243432,0.8725647359913263,A,713.6920059856493,Correct
17,10,119,B,32.56317756579319,11.051562119119819,1.6281588782896594,0.17359753182059035,B,725.1414069905877,Correct
17,10,120,B,79.47411485639239,51.825190081440525,3.9737057428196194,0.8140681821537409,B,1239.0213740000036,Correct
17,10,121,A,47.22053753463748,58.05299157240356,2.361026876731874,0.9118942592138661,A,493.4779209725093,Correct
17,10,122,A,29.380606007230956,41.034792313461594,1.4690303003615477,0.6445730103677693,A,604.9728420039173,Correct
17,10,123,B,57.31300046195965,30.05262177849113,2.8656500230979827,0.4720654790021018,B,635.621324996464,Correct
17,10,124,A,62.45177698077866,87.52803503539442,3.1225888490389333,1.3748871592517258,A,545.8891860034782,Correct
17,10,125,A,57.988488782081845,76.33643217381268,2.8994244391040924,1.1990898725925274,A,684.5335190009791,Correct
17,10,126,B,68.78856013838546,38.3000994626165,3.4394280069192735,0.601616555517572,B,429.3716670072172,Correct
17,10,127,A,17.200706292399467,33.27708311439166,0.8600353146199734,0.522715199225349,A,489.70755201298743,Correct
17,10,128,A,42.69593499825116,58.92311522614765,2.1347967499125584,0.9255621296054517,A,2445.005323999794,Correct
17,10,129,B,65.17905776611964,41.117398150907775,3.258952888305982,0.645870579828092,B,1122.3353519744705,Correct
17,10,130,B,63.723030980683944,49.980465139487244,3.186151549034197,0.7850913105260694,B,2296.7699330183677,Correct
17,10,131,B,62.074778201392576,51.45271096574779,3.103738910069629,0.8082172938863612,B,562.9694029921666,Correct
17,10,132,A,33.24347889823271,60.25339742026695,1.6621739449116353,0.9464581534466842,A,1032.70072399755,Correct
17,10,133,A,69.22109918241412,85.69138597947314,3.4610549591207063,1.346037143345201,A,731.391560024349,Correct
17,10,134,A,37.15238505547404,53.83118365478517,1.857619252773702,0.8455782555195801,B,419.9667079956271,Incorrect
17,10,135,B,80.68361089337238,49.6489360488095,4.034180544668619,0.7798836637474469,B,844.0960609877948,Correct
17,10,136,B,60.97418929629641,28.61639588381274,3.0487094648148205,0.4495052954040165,B,620.5021039932035,Correct
17,10,137,B,55.6591786593531,47.24136449444018,2.782958932967655,0.7420656182064546,B,557.8530089987908,Correct
17,10,138,A,57.323797704455316,74.85738895454092,2.866189885222766,1.1758571160324975,B,594.2642029840499,Incorrect
17,10,139,A,23.473406105911916,49.153021993983856,1.173670305295596,0.7720938639901861,A,589.8668759909924,Correct
17,10,140,B,75.64460142002213,59.42801406146708,3.7822300710011065,0.9334930619646796,B,460.5315320077352,Correct
17,10,141,B,71.17510753066918,43.56333429748989,3.5587553765334587,0.6842912549743525,B,530.2078450040426,Correct
17,10,142,B,41.623415976877865,32.22556316876975,2.0811707988438934,0.5061979625440043,B,504.7508399875369,Correct
17,10,143,B,86.66637890779224,63.83921623151781,4.333318945389612,1.0027840636193333,B,455.4388550168369,Correct
17,10,144,B,55.03663164645843,24.28296330372028,2.7518315823229216,0.38143589561179075,B,612.9817049950361,Correct
17,10,145,A,66.02633661632419,81.00927222989816,3.3013168308162095,1.2724906725505183,A,1452.653326006839,Correct
17,10,146,A,48.649636881280266,65.94367686783863,2.432481844064013,1.0358408539935051,A,1431.3965710171033,Correct
17,10,147,B,66.35960152794642,46.8029166859305,3.3179800763973213,0.7351784961354719,B,1477.704538992839,Correct
17,10,148,B,74.08116141870096,53.00083775658578,3.704058070935048,0.8325352126509722,B,1388.622218015371,Correct
17,10,149,B,46.958289249914515,30.93209998268688,2.3479144624957256,0.48588029032857033,B,1645.4116030072328,Correct
17,10,150,B,63.92057978210751,30.877190073401266,3.1960289891053755,0.48501776749046555,B,874.7489970119204,Correct
17,10,151,B,69.0511823865596,36.30120467178353,3.4525591193279803,0.5702179895666731,B,467.27483900031075,Correct
17,10,152,A,15.522123840061912,32.97281099586436,0.7761061920030956,0.5179357039640611,A,524.7981770080514,Correct
17,10,153,B,71.95476670099679,57.13025459934089,3.5977383350498395,0.8973999407350192,B,462.35696400981396,Correct
17,10,154,A,35.25945043687723,63.52218270355443,1.7629725218438614,0.9978041126073761,A,565.8332569873892,Correct
17,10,155,B,73.28870309451855,54.03019508452924,3.6644351547259277,0.8487043197479021,B,551.8987049872521,Correct
17,10,156,A,45.308632457739485,67.37639658465689,2.2654316228869744,1.0583459626785525,B,793.0768619989976,Incorrect
17,10,157,B,76.72437214158018,64.21027698969283,3.8362186070790085,1.0086126723789237,B,1071.2135059875436,Correct
17,10,158,A,44.21501400110602,55.99115605429592,2.2107507000553013,0.8795070226308785,A,565.6801690056454,Correct
17,10,159,B,48.39723679584624,21.397134033605912,2.419861839792312,0.3361053954392624,B,483.10223600128666,Correct
17,10,160,A,16.994964015731437,38.1275088236922,0.8497482007865719,0.5989055081009571,A,526.0847530153114,Correct
17,10,161,A,18.549012880957786,34.79952676568601,0.9274506440478893,0.5466296881774027,A,547.2280160174705,Correct
17,10,162,B,62.19334353282126,46.84538982614817,3.1096671766410626,0.7358456626618857,B,1030.0253620080184,Correct
17,10,163,A,59.001500197544814,73.44196753835473,2.950075009877241,1.1536237284183763,B,879.9659239884932,Incorrect
17,10,164,A,13.583136248274403,32.747150269819855,0.6791568124137202,0.5143910335683353,A,494.2267050209921,Correct
17,10,165,B,70.72153614944932,55.85242051230597,3.536076807472466,0.8773277698333416,B,539.7878560179379,Correct
17,10,166,A,26.765437658100296,44.124228869103426,1.3382718829050149,0.69310176630245,A,647.8177030221559,Correct
17,10,167,A,57.872913326597555,66.2409684785835,2.8936456663298777,1.0405106996949547,B,443.25451500480995,Incorrect
17,10,168,B,46.79621226034397,23.13853380445792,2.3398106130171983,0.3634592390746205,B,1120.810540014645,Correct
17,10,169,B,57.23588893808439,30.95804315257599,2.8617944469042196,0.4862878046882427,B,822.5950190098956,Correct
17,10,170,B,70.4470671348014,57.008957595297176,3.5223533567400698,0.8954946118509882,B,602.5088349997532,Correct
17,10,171,B,37.468520905770504,19.987362974936104,1.8734260452885252,0.31396076343345947,B,678.6538269952871,Correct
17,10,172,A,67.25351015836833,80.95860297337997,3.3626755079184165,1.2716947617303165,A,922.9256839898881,Correct
17,10,173,A,11.853590148295051,30.223492257869964,0.5926795074147526,0.47474950621576134,A,529.8963909735903,Correct
17,10,174,A,50.37279081406563,80.2619507504649,2.5186395407032816,1.2607517742022316,A,589.0719969756901,Correct
17,10,175,B,46.98003976207256,39.67585487784142,2.3490019881036277,0.6232268710456068,B,605.8506010158453,Correct
17,10,176,A,39.96876024268483,58.29803186687094,1.9984380121342413,0.915743343158527,A,480.28635000810027,Correct
17,10,177,B,62.19648004378809,35.26684502035465,3.109824002189405,0.5539703061561797,B,694.7480149974581,Correct
17,10,178,A,43.57833043840518,73.0687352811943,2.178916521920259,1.1477610098324866,A,572.1663830045145,Correct
17,10,179,B,81.05863468942883,53.74469590988425,4.052931734471441,0.8442197091995486,B,595.1430250133853,Correct
17,10,180,B,79.3039938945184,61.34838706913396,3.9651996947259196,0.9636582106298714,B,486.5253000170924,Correct
17,10,181,A,27.92859394715291,43.67156607209721,1.3964296973576455,0.6859913557143091,A,512.014640000416,Correct
17,10,182,B,63.04279975469805,38.16877923422087,3.152139987734903,0.5995537821935948,B,561.3619560026564,Correct
17,10,183,B,42.216290926779386,33.56651946270354,2.110814546338969,0.5272616547530413,B,683.3651280030608,Correct
17,10,184,B,58.58818313564475,49.56452646083025,2.9294091567822376,0.7785577610400061,B,571.8569740129169,Correct
17,10,185,B,44.455589731070035,16.031228277430095,2.2227794865535015,0.25181794492197673,B,520.7478590018582,Correct
17,10,186,B,77.11638618342376,46.436504107084744,3.8558193091711876,0.7294229008060485,B,698.7033209879883,Correct
17,10,187,A,50.87115607223164,79.76330545283503,2.5435578036115825,1.2529190721833259,A,1094.5557700179052,Correct
17,10,188,A,69.63269561844677,84.7810070570624,3.4816347809223385,1.3317369446720582,A,1143.681564979488,Correct
17,10,189,B,60.01287033631694,29.795777625071032,3.000643516815847,0.4680309804745915,B,453.6080399993807,Correct
17,10,190,A,63.81485613473606,79.17218669630408,3.190742806736803,1.2436338004687422,B,618.392747011967,Incorrect
17,10,191,A,58.58162125059022,81.58255200707903,2.929081062529511,1.2814957302327337,B,918.3552479953505,Incorrect
17,10,192,A,42.63471393093091,56.14613295269817,2.1317356965465453,0.8819413940583618,A,1005.06763800513,Correct
17,10,193,A,37.92300575569362,50.783325737274026,1.8961502877846812,0.7977026153053877,B,1107.4902119871695,Incorrect
17,10,194,B,78.86317332021335,58.5322576790802,3.943158666010668,0.9194225536131156,B,473.0200139747467,Correct
17,10,195,B,78.86407302874701,48.41769675456098,3.943203651437351,0.7605434021393356,B,562.4899500107858,Correct
17,10,196,B,53.706084945392014,28.75329256912874,2.6853042472696007,0.4516556635084642,B,626.262495003175,Correct
17,10,197,A,66.81818602045489,83.90377430398101,3.3409093010227444,1.317957404809214,A,845.6212419841904,Correct
17,10,198,A,52.57508063057127,76.70631061439849,2.6287540315285636,1.2048999095508555,A,431.3310740108136,Correct
17,10,199,A,30.39814539857403,61.50036626690817,1.5199072699287015,0.9660454942860014,A,472.83672500634566,Correct
17,10,200,A,37.93642972695007,65.90521330473624,1.8968214863475032,1.0352366697571385,A,384.09453199710697,Correct
17,10,201,B,57.74001788041156,26.772317465341935,2.8870008940205776,0.4205385793434597,B,536.8368760100566,Correct
17,10,202,B,45.248231708413016,18.22159883156108,2.262411585420651,0.2862242051294633,B,813.1571949925274,Correct
17,10,203,B,38.57502528598689,15.665439088680035,1.9287512642993445,0.24607214178127793,B,793.385216005845,Correct
17,10,204,B,82.99738033822432,68.68898294584308,4.149869016911216,1.0789640210260762,B,668.0491029983386,Correct
17,10,205,B,48.33846522222238,37.09623991134271,2.416923261111119,0.5827063739063937,B,751.5447409823537,Correct
17,10,206,A,38.814544827757395,67.76827220624403,1.9407272413878698,1.064501530548048,A,514.5768929796759,Correct
17,10,207,B,50.69707922894545,20.224510267065472,2.5348539614472725,0.3176858643873212,B,471.3316900015343,Correct
17,10,208,A,49.62274266649302,60.79918678499199,2.481137133324651,0.9550313927398223,A,561.2468969775364,Correct
17,10,209,A,30.397544932215112,51.27537611163815,1.5198772466107555,0.8054317245118798,A,555.02262499067,Correct
17,10,210,B,48.593447633026486,26.473631634525383,2.429672381651324,0.4158468332843364,B,855.1512020057999,Correct
17,10,211,B,47.86223549599125,19.34582926979878,2.3931117747995625,0.3038835755580112,A,717.9084309900645,Incorrect
17,10,212,A,68.95475033425781,84.44466583227621,3.4477375167128907,1.3264537090676198,A,605.7734510104638,Correct
17,10,213,A,51.05493677600148,76.72461568987606,2.5527468388000742,1.205187445004074,A,958.0064979963936,Correct
17,10,214,A,40.7159866013929,53.850317029143746,2.035799330069645,0.8458788018611966,A,1340.5622290156316,Correct
17,10,215,A,21.590582934622287,35.87875172405598,1.0795291467311143,0.5635821141813319,A,559.2112340091262,Correct
17,10,216,B,75.03363856756924,42.90718850323715,3.751681928378462,0.6739845409398113,B,870.3308050171472,Correct
17,10,217,A,31.424392510881958,49.98688951470047,1.5712196255440978,0.7851922243759382,A,822.5786050024908,Correct
17,10,218,B,39.39312499739893,17.90272236661118,1.9696562498699464,0.2812153053310168,B,620.9614330145996,Correct
17,10,219,B,85.99853084429273,60.37950609802759,4.299926542214637,0.9484390639247179,B,648.0510479887016,Correct
17,10,220,A,58.88742286217202,74.40401395001074,2.9443711431086013,1.168735518114731,A,632.834112009732,Correct
17,10,221,B,63.94281820570042,32.591427476286064,3.197140910285021,0.5119449456475241,B,561.581557005411,Correct
17,10,222,B,57.04243928935692,27.780667839339532,2.8521219644678464,0.4363777099794366,B,626.7891669995151,Correct
17,10,223,A,22.35878684448242,47.054821343563326,1.117939342224121,0.7391354052445936,A,527.2402639966458,Correct
17,10,224,A,45.103297849507584,76.98680950567537,2.255164892475379,1.209305975831733,A,732.4969589826651,Correct
17,10,225,A,51.5126795320411,65.81383183225465,2.575633976602055,1.0338012529440264,A,1047.6503450190648,Correct
17,10,226,B,57.25750810390595,35.489870751200016,2.862875405195297,0.5574735861441062,B,774.813679017825,Correct
17,10,227,A,29.153594582603176,58.38054403537559,1.4576797291301589,0.917039441270557,A,658.3451380138285,Correct
17,10,228,A,45.34744303078708,67.96677637877436,2.267372151539354,1.067619626798689,A,569.597549008904,Correct
17,10,229,B,43.534014846847725,19.996672684713364,2.176700742342386,0.31410700001267594,B,596.6809570090845,Correct
17,10,230,A,23.20574080683312,39.499842848369994,1.160287040341656,0.6204620805519525,A,457.0479260000866,Correct
17,10,231,A,65.12427849231307,87.85575700347887,3.256213924615653,1.380035003888496,A,527.8088419872802,Correct
17,10,232,A,53.88634250546486,66.07907995222178,2.6943171252732427,1.0379677606693625,A,472.97028900356963,Correct
17,10,233,A,28.793739953805797,51.08488440685853,1.43968699769029,0.8024394878103526,A,790.9632400260307,Correct
17,10,234,B,34.85944312699738,17.149773323144252,1.7429721563498688,0.269388009413601,B,618.3921259944327,Correct
17,10,235,B,43.605972290222084,21.294223756027314,2.1802986145111043,0.33448888457916326,B,768.0707899853587,Correct
17,10,236,A,42.31819509701507,54.15344692624407,2.1159097548507533,0.8506403551502657,B,611.1335380119272,Incorrect
17,10,237,A,53.248104666228514,75.78962183277488,2.662405233311426,1.1905005958409707,A,842.0544139808044,Correct
17,10,238,B,84.23743959407153,63.0826014161456,4.211871979703576,0.9908991858914806,B,545.3459749987815,Correct
17,10,239,A,54.77115669393615,62.8775260311064,2.738557834696808,0.9876778692761243,A,723.0551819957327,Correct
17,10,240,A,22.5927591617105,42.649431183595254,1.1296379580855251,0.6699356984308314,A,465.32413200475276,Correct
17,10,241,B,46.35749767261338,39.0014758102122,2.317874883630669,0.6126337494226134,B,840.5388109968044,Correct
17,10,242,A,33.77566081040597,47.208587954089914,1.6887830405202982,0.7415507655145823,A,878.8494080072269,Correct
17,10,243,A,11.81971557175168,30.82136230150781,0.5909857785875839,0.48414082690023175,A,486.05108697665855,Correct
17,10,244,A,46.229606106293794,54.927544426887174,2.31148030531469,0.8627998502561787,B,844.1302230057772,Incorrect
17,10,245,B,71.12397233385518,45.032427629240324,3.5561986166927593,0.7073677190666772,B,465.72412599925883,Correct
17,10,246,B,49.454873570454566,41.17909599317128,2.472743678522728,0.646839727268079,B,506.93925499217585,Correct
17,10,247,A,45.070416600472726,68.58746099316112,2.2535208300236365,1.0773693179224573,A,833.4508450061549,Correct
17,10,248,B,77.06419421889807,54.12551882949201,3.8532097109449035,0.8502016616323407,B,761.7828410002403,Correct
17,10,249,B,43.420644836755045,16.223587412256798,2.1710322418377523,0.254839515146089,B,482.1204010222573,Correct
17,10,250,A,69.25407495818979,88.4383364346216,3.4627037479094893,1.3891861401935488,B,567.5796190043911,Incorrect
17,10,251,A,20.294039733152317,46.22481042911125,1.014701986657616,0.7260976242883838,A,589.1017300018575,Correct
17,10,252,A,65.87505541409121,76.94126023994988,3.29375277070456,1.2085904896388349,A,686.2442900019232,Correct
17,10,253,B,73.71418127594457,44.41463663514905,3.685709063797228,0.6976634808242217,B,602.8371569991577,Correct
17,10,254,A,49.27356029240367,65.37015374780178,2.4636780146201835,1.0268319738906468,A,610.9059489972424,Correct
17,10,255,A,44.884867340870734,64.08606868475931,2.2442433670435364,1.0066616128874537,A,613.8645640166942,Correct
17,10,256,A,59.274091160891686,79.22458814123138,2.963704558044584,1.2444569204408478,A,486.25435298890807,Correct
17,10,257,B,80.20490639975773,51.140970004051084,4.010245319987887,0.8033204783109144,B,789.21420298866,Correct
17,10,258,A,39.14158857529043,49.98601825331463,1.9570794287645215,0.7851785386340928,A,465.9628210065421,Correct
17,10,259,A,40.27232010435658,67.69764603726098,2.013616005217829,1.0633921372799064,A,488.644490018487,Correct
17,10,260,A,53.93509931251848,77.17774939556642,2.696754965625924,1.2123052526085278,A,421.3191269955132,Correct
17,10,261,A,56.67351523626539,72.3759057258544,2.8336757618132697,1.1368780686262583,A,500.31574300373904,Correct
17,10,262,A,67.65020472002685,81.71831592347883,3.382510236001343,1.2836283048446544,A,514.4065770145971,Correct
17,10,263,B,80.45165110864463,56.76121471609666,4.022582555432232,0.8916030758046106,B,656.4453030005097,Correct
17,10,264,A,45.55761246597227,71.32465154005581,2.2778806232986137,1.1203650064904564,A,472.2012400161475,Correct
17,10,265,B,58.858727226940104,33.29126675177409,2.942936361347005,0.522937995280358,B,523.5932510113344,Correct
17,10,266,B,75.82766311928523,64.94838644843168,3.791383155964262,1.0202068686445191,A,509.56265299464576,Incorrect
17,10,267,A,36.46788360390713,57.185997129296766,1.8233941801953566,0.8982755423480286,A,503.7664720148314,Correct
17,10,268,A,43.658827054243105,59.66388187652761,2.182941352712155,0.9371980649397418,A,679.2317499930505,Correct
17,10,269,A,44.59585732500914,76.08929498320008,2.2297928662504574,1.1952078506802404,A,519.3955369759351,Correct
17,10,270,B,89.01511790471034,66.80793077093819,4.450755895235517,1.0494165225575744,B,361.7202269961126,Correct
17,10,271,A,35.38597496258144,66.27198626935927,1.769298748129072,1.0409979260131137,A,447.4103479878977,Correct
17,10,272,B,87.56154449874033,60.931298665024826,4.378077224937017,0.9571066012986378,B,502.2671710175928,Correct
17,10,273,B,43.38867426630908,29.017970007000564,2.169433713315454,0.4558132069804096,B,1109.365323005477,Correct
17,10,274,A,33.23387254746946,49.395504200914765,1.6616936273734728,0.775902765589788,A,1084.5881460118107,Correct
17,10,275,A,42.80675954633395,58.345446810640546,2.1403379773166975,0.9164881353536117,A,616.6433120088186,Correct
17,10,276,A,43.4799509926064,69.79772510208657,2.17399754963032,1.0963801020899755,A,402.8030250046868,Correct
17,10,277,A,32.80931439539691,41.980875244452804,1.6404657197698456,0.6594340462962126,A,515.4708640184253,Correct
17,10,278,B,46.17912947682304,22.355715465741795,2.3089564738411523,0.3511627573645907,B,501.69813600950874,Correct
17,10,279,B,47.55284921508552,28.4042735803415,2.3776424607542763,0.4461732860527775,B,605.9517849935219,Correct
17,10,280,B,54.00319960563036,30.06885032468179,2.700159980281518,0.4723203964095569,B,479.08061800990254,Correct
17,10,281,B,64.31280266091304,35.71865415691133,3.2156401330456514,0.5610673074773357,B,419.6535060182214,Correct
17,10,282,A,57.51757719066845,84.26861891182848,2.875878859533423,1.3236883705077913,A,522.563779988559,Correct
17,10,283,B,69.13518168880472,60.3694027076981,3.456759084440236,0.9482803602405405,B,608.7032729992643,Correct
17,10,284,A,44.51539280251342,59.47813942002415,2.225769640125671,0.9342804292556867,A,608.481622999534,Correct
17,10,285,A,57.69241287177706,85.76158670818145,2.884620643588853,1.3471398538131345,A,598.0629179975949,Correct
17,10,286,B,74.73319591545605,62.39305704089313,3.7366597957728027,0.9800678481733938,A,739.1273120010737,Incorrect
17,10,287,A,21.013004385504992,37.20032937222487,1.0506502192752496,0.5843414073345112,A,538.1367609952576,Correct
17,10,288,B,76.28121654622728,55.23546070498744,3.814060827311364,0.8676365878421811,B,381.71574199805036,Correct
17,10,289,B,54.70359689288489,37.86280192401844,2.7351798446442444,0.5947475018441092,B,629.5616230054293,Correct
17,10,290,A,55.472411652527875,83.07880328863428,2.773620582626394,1.3049987904030251,A,512.6684129936621,Correct
17,10,291,B,33.82706521035297,13.331846584177946,1.6913532605176484,0.20941615643819805,B,682.5607109931298,Correct
17,10,292,B,35.68334747991054,13.992717508660373,1.7841673739955268,0.21979709264482353,B,495.78193700290285,Correct
17,10,293,B,62.177615939062605,34.618119309179036,3.1088807969531302,0.543780146514059,B,455.0566689867992,Correct
17,10,294,B,72.0129703962167,61.4245472586224,3.600648519810835,0.964854532088836,A,514.1202910162974,Incorrect
17,10,295,B,81.37744970766414,68.20676714392667,4.068872485383207,1.0713893929223486,B,545.6424570002127,Correct
17,10,296,B,78.09737347218339,63.27498625261028,3.90486867360917,0.9939211598359781,B,541.418787004659,Correct
17,10,297,A,28.51042980431757,45.307756929064794,1.4255214902158786,0.7116925815949101,A,506.95372599875554,Correct
17,10,298,B,61.02191574602619,35.95174401775149,3.051095787301309,0.5647286744495442,B,488.368571997853,Correct
17,10,299,A,16.15333727358406,36.733293553083044,0.807666863679203,0.577005225842615,A,470.88969399919733,Correct
