subject,day,trial,cat,x,y,xt,yt,resp,rt,fb
17,2,0,B,88.82458639237893,66.09794120050591,4.441229319618946,1.0382640324645975,B,872.2213270084467,Correct
17,2,1,A,25.381823748503322,56.527354233403415,1.269091187425166,0.8879296039326404,A,525.6811359722633,Correct
17,2,2,B,57.984087089891425,36.35802285409028,2.899204354494571,0.5711104874872991,B,499.83095200150274,Correct
17,2,3,A,58.516986856528455,81.09350410144337,2.9258493428264227,1.2738137836947412,B,487.4024360033218,Incorrect
17,2,4,B,65.97332816716816,48.777712349021435,3.2986664083584083,0.7661985138730094,B,470.1127609878313,Correct
17,2,5,A,27.583767517671703,50.428432775845586,1.3791883758835852,0.7921279697032162,A,552.9271780105773,Correct
17,2,6,B,46.74468112619975,25.20813044935454,2.3372340563099874,0.39596838715212695,A,830.8393280021846,Incorrect
17,2,7,B,63.91778618654394,34.96561014770105,3.1958893093271974,0.5492385198415116,B,742.9105420014821,Correct
17,2,8,A,24.518780820548372,49.271319641938106,1.2259390410274187,0.7739520790989362,A,500.77711199992336,Correct
17,2,9,B,59.83720347562952,29.445341054943178,2.991860173781476,0.4625263357032771,B,544.2035069863778,Correct
17,2,10,A,60.51569680349128,83.05193430768566,3.025784840174564,1.304576733437237,A,886.6904030146543,Correct
17,2,11,A,39.17930241644316,67.65056935954871,1.958965120822158,1.0626526585556249,A,547.5615719915368,Correct
17,2,12,B,63.926751587252646,45.82286053752823,3.1963375793626323,0.7197838101558418,B,542.7811550034676,Correct
17,2,13,A,43.91966091164205,59.393950547736445,2.195983045582102,0.9329579935422214,A,2046.5035939996596,Correct
17,2,14,B,46.38961583994518,29.675443169882058,2.319480791997259,0.46614077127261444,B,637.2453900112305,Correct
17,2,15,A,34.20826763365735,58.41968865805352,1.7104133816828675,0.9176543235657196,A,602.2156659746543,Correct
17,2,16,A,31.944669733189464,47.60088415544081,1.5972334866594733,0.7477129398355582,A,632.7368360070977,Correct
17,2,17,B,80.93556701974853,63.65570244537856,4.046778350987426,0.9999014358074956,B,345.06276799947955,Correct
17,2,18,A,44.07644903430572,65.21654434476707,2.203822451715286,1.024419083030166,A,853.4049189765938,Correct
17,2,19,A,36.965798083345426,48.30849950157328,1.8482899041672711,0.7588281357004439,A,508.28179699601606,Correct
17,2,20,A,26.5393329150863,47.52811208658116,1.326966645754315,0.7465698388509782,A,444.5210520061664,Correct
17,2,21,A,43.20775737834404,62.56163192284996,2.1603878689172022,0.9827158162270706,A,680.1654870214406,Correct
17,2,22,A,38.6081327236783,61.10036773862541,1.930406636183915,0.959762332096502,A,478.76671102130786,Correct
17,2,23,A,45.17337548187249,58.085194672634614,2.2586687740936244,0.9124001043294095,A,849.597714986885,Correct
17,2,24,B,40.21049930024614,31.719305390580594,2.010524965012307,0.49824568396009566,B,654.9421919917222,Correct
17,2,25,B,38.51662306417414,25.157795476196462,1.9258311532087071,0.39517772724266664,B,606.872119999025,Correct
17,2,26,A,63.41056233057576,81.00163263232604,3.170528116528788,1.2723706700324737,B,494.9922919913661,Incorrect
17,2,27,B,44.04649637642116,19.871075086107737,2.202324818821058,0.3121341175472362,B,535.4035680065863,Correct
17,2,28,B,41.96007633620102,29.39979359513606,2.098003816810051,0.4618108778776785,B,494.80002000927925,Correct
17,2,29,B,65.32498402051728,36.20570507011704,3.2662492010258637,0.5687178853315922,B,531.5313629980665,Correct
17,2,30,A,22.464550122525107,46.96891209771159,1.1232275061262553,0.7377859459663774,A,505.2063289913349,Correct
17,2,31,A,48.10670560641748,56.16041698509635,2.405335280320874,0.8821657671145905,A,1894.2927110183518,Correct
17,2,32,A,33.39435131167549,48.14848428935533,1.6697175655837748,0.7563146226246114,A,513.6422110081185,Correct
17,2,33,A,43.17528177592475,74.45888963929767,2.1587640887962376,1.1695975034263537,A,580.8896840026136,Correct
17,2,34,A,38.84775214682658,47.32794165139849,1.9423876073413289,0.7434255690077993,A,1176.3801140186843,Correct
17,2,35,B,67.10538550050195,52.582087301154964,3.3552692750250976,0.8259574958786279,B,490.91879901243374,Correct
17,2,36,B,48.820409639168325,26.41750497689503,2.4410204819584163,0.4149651978079262,B,511.2712879781611,Correct
17,2,37,B,36.80379809702469,25.025308571161595,1.8401899048512345,0.39309662780489474,A,553.3383430156391,Incorrect
17,2,38,A,50.5683571033114,61.908548743209124,2.52841785516557,0.9724572096303571,B,1105.0018990063109,Incorrect
17,2,39,B,47.18127420787999,28.403089446822023,2.3590637103939995,0.4461546857269493,B,550.9443909977563,Correct
17,2,40,B,76.38990822956666,56.96520648670616,3.819495411478333,0.8948073710443084,A,516.8171169934794,Incorrect
17,2,41,B,43.086358145174586,19.463659974130177,2.1543179072587293,0.3057344559334853,B,731.4690980128944,Correct
17,2,42,B,43.27184637204328,33.73685542664682,2.163592318602164,0.5299372858178729,B,690.6580929935444,Correct
17,2,43,B,79.32383347750013,62.514789384416915,3.9661916738750063,0.9819800153539868,B,509.5039230072871,Correct
17,2,44,B,64.71447232064635,34.81680484271272,3.2357236160323173,0.5469010915766791,B,411.3889379950706,Correct
17,2,45,B,53.747246418747885,34.96946961523717,2.6873623209373942,0.549299144215803,B,482.74633698747493,Correct
17,2,46,A,54.66746568220266,63.50651323057569,2.733373284110133,0.997557977101398,A,591.4105359988753,Correct
17,2,47,A,52.229584286854255,62.032163266768826,2.6114792143427126,0.9743989420258179,A,602.8353300062008,Correct
17,2,48,B,50.97238958690718,37.1106036259986,2.548619479345359,0.5829319986085997,B,482.2650940041058,Correct
17,2,49,A,31.900692895040116,52.048076851449856,1.5950346447520058,0.8175692793499592,A,490.61394098680466,Correct
17,2,50,B,54.50336683354355,32.71220193309972,2.7251683416771777,0.5138420663788595,B,408.75742299249396,Correct
17,2,51,B,74.60797590149743,48.27361977619385,3.730398795074871,0.7582802462553878,B,439.3093209946528,Correct
17,2,52,B,71.2396560178888,48.2276170524041,3.5619828008944405,0.7575576371598729,B,393.90156598528847,Correct
17,2,53,A,29.67769911018258,48.389827984424834,1.483884955509129,0.7601056405217143,A,344.20848000445403,Correct
17,2,54,B,43.179610913498735,23.77877023893922,2.1589805456749365,0.37351604947025535,B,470.9587559918873,Correct
17,2,55,B,34.33007043972346,17.031038325356413,1.7165035219861726,0.2675229244297296,B,433.3576009958051,Correct
17,2,56,B,80.61298917626772,57.198729152284386,4.030649458813386,0.8984755364974448,B,471.5299099916592,Correct
17,2,57,A,25.241897222834957,54.15329660819772,1.2620948611417477,0.850637993959915,A,506.9812309811823,Correct
17,2,58,A,47.91263535063597,57.66137159706206,2.395631767531799,0.9057427070262065,B,1019.3561280029826,Incorrect
17,2,59,B,69.98410586274068,49.95232304389184,3.4992052931370337,0.7846492555221736,B,500.391348003177,Correct
17,2,60,B,50.773251153860755,24.399566316008517,2.538662557693038,0.38326749144574657,B,470.07047198712826,Correct
17,2,61,B,44.583104999482664,28.634604780694577,2.229155249974133,0.44979132008738626,B,934.6842750092037,Correct
17,2,62,B,67.7524321108123,40.26497801938649,3.3876216055406143,0.6324807957132955,B,567.3084210138768,Correct
17,2,63,B,38.5750623996375,20.736655123949703,1.928753119981875,0.32573061698712763,B,679.8571440158412,Correct
17,2,64,A,51.80707585552642,58.622101173238796,2.590353792776321,0.920833811919223,A,814.9550010275561,Correct
17,2,65,A,55.99103561661127,69.08771447673213,2.7995517808305634,1.0852272812670545,A,680.5109690176323,Correct
17,2,66,B,74.73134468506746,54.78092531661493,3.736567234253373,0.860496762657643,B,542.903055989882,Correct
17,2,67,A,60.73778149631323,75.90480762267718,3.0368890748156616,1.192309929997746,A,751.2094819976483,Correct
17,2,68,A,35.932712361963,54.18022699212798,1.79663561809815,0.8510610154414833,A,611.0499400238041,Correct
17,2,69,B,68.95070224475364,47.662814942107296,3.447535112237682,0.7486857463576706,B,506.9977320090402,Correct
17,2,70,B,73.15809845624435,52.13665841295899,3.6579049228122176,0.8189607152643622,B,473.8573750073556,Correct
17,2,71,A,55.45791872698422,65.80191846152452,2.7728959363492107,1.0336141181542,A,1477.7112310111988,Correct
17,2,72,A,32.04250479960642,53.49546852423333,1.6021252399803212,0.8403048545803773,A,543.194167985348,Correct
17,2,73,A,44.13330897363425,57.11288864476249,2.2066654486817128,0.8971271569583887,A,784.3383460131008,Correct
17,2,74,A,36.97972378412954,56.7741668063859,1.848986189206477,0.8918065267631172,A,673.3834599726833,Correct
17,2,75,B,71.64447347262163,60.6841301304715,3.582223673631081,0.9532240870368814,B,425.80569101846777,Correct
17,2,76,A,55.5886123768746,75.29109777748107,2.7794306188437297,1.1826697982922267,A,627.9024249815848,Correct
17,2,77,A,38.32937487982689,46.85480418561312,1.9164687439913444,0.7359935430745523,B,732.2353749768808,Incorrect
17,2,78,A,55.60791484396325,77.68885151976886,2.7803957421981624,1.2203336260016704,B,431.26616900553927,Incorrect
17,2,79,A,37.9928928111043,53.85942682212202,1.899644640555215,0.8460218981546779,A,810.4278300015721,Correct
17,2,80,A,37.033143684508694,69.75994337643358,1.8516571842254348,1.0957866281312185,A,790.9169429913163,Correct
17,2,81,A,52.20878958177772,62.645625963253934,2.6104394790888863,0.9840351915284627,B,428.20639500860125,Incorrect
17,2,82,A,39.56263888654833,59.594920467307006,1.9781319443274163,0.9361148216567985,A,660.9876870061271,Correct
17,2,83,B,41.774630109090296,26.37329156208625,2.088731505454515,0.4142706951121592,B,855.8859309996478,Correct
17,2,84,A,41.74496641456741,68.13624685876624,2.0872483207283703,1.070281662873403,A,485.64137099310756,Correct
17,2,85,B,73.8331327201322,56.75073611360746,3.69165663600661,0.8914384783016108,B,634.7428349836264,Correct
17,2,86,A,43.014790172932706,62.25024082417289,2.150739508646635,0.9778244962870848,A,627.5230910105165,Correct
17,2,87,B,66.07278456640161,44.37721897105534,3.30363922832008,0.6970757255310653,B,519.5336519973353,Correct
17,2,88,B,51.36106188195531,40.939183746851846,2.5680530940977655,0.6430711945153621,B,496.6582049964927,Correct
17,2,89,B,58.30802479997698,43.92870608982007,2.915401239998849,0.6900305016674196,B,499.6112739900127,Correct
17,2,90,A,35.422177395352676,62.01511205627096,1.7711088697676336,0.9741311022376432,A,543.4380790102296,Correct
17,2,91,B,35.15068072183248,18.73607507039684,1.757534036091624,0.2943055789913279,B,829.2853029852267,Correct
17,2,92,B,77.6454758722269,64.56230334837227,3.8822737936113447,1.0141422894904102,B,645.954433013685,Correct
17,2,93,B,54.01903181969704,26.34188294149641,2.700951590984852,0.4137773296536371,B,613.2911189924926,Correct
17,2,94,B,43.87520714299592,26.052946833570296,2.193760357149796,0.4092387318835495,B,512.5359609955922,Correct
17,2,95,A,47.352799999194524,72.46172715985472,2.367639999959726,1.1382261485591376,A,611.9263499858789,Correct
17,2,96,A,22.45903764075922,48.35462580557799,1.122951882037961,0.7595526859894364,A,511.61637098994106,Correct
17,2,97,A,37.16699667820244,49.96802694968096,1.858349833910122,0.7848959318974725,B,719.1898630117066,Incorrect
17,2,98,A,47.69465926557779,69.54720532359023,2.3847329632788896,1.09244494661146,A,831.3814199937042,Correct
17,2,99,B,60.3949381989892,45.44026463298011,3.01974690994946,0.713774007740732,B,769.9693879985716,Correct
17,2,100,A,47.659758023585695,55.06290930345067,2.382987901179285,0.8649261567650085,B,993.4192569926381,Incorrect
17,2,101,A,47.42041985998198,54.36806270233473,2.371020992999099,0.8540115318778203,B,804.4300180044957,Incorrect
17,2,102,B,73.98410815260982,50.22404100412959,3.6992054076304908,0.7889173912608302,B,641.6692660131957,Correct
17,2,103,B,56.91232525582642,37.239354699205556,2.845616262791321,0.5849544157372436,B,595.8801420056261,Correct
17,2,104,A,28.446775651581248,42.94633213982188,1.4223387825790623,0.6745994077454581,A,555.0855960173067,Correct
17,2,105,A,53.12530345861568,73.5408654891075,2.656265172930784,1.1551772137960765,A,937.3902599909343,Correct
17,2,106,A,26.05132823391224,37.06204980683283,1.302566411695612,0.5821693170006252,A,1039.248763001524,Correct
17,2,107,B,77.56358641293035,47.85645016632122,3.8781793206465176,0.7517273613470039,B,653.7564739992376,Correct
17,2,108,B,56.29156395519486,29.877276249008304,2.8145781977597433,0.4693111578657865,B,604.5015419949777,Correct
17,2,109,A,64.57181718692505,75.88678878387144,3.2285908593462525,1.192026890739654,B,552.2554030176252,Incorrect
17,2,110,B,50.67592980157562,22.49761413601593,2.533796490078781,0.3533916964650276,B,447.5035840005148,Correct
17,2,111,B,75.8434531200631,61.08216306693066,3.792172656003155,0.9594763737822158,B,680.1166929944884,Correct
17,2,112,A,23.74157787845477,39.50226843148926,1.1870788939227384,0.6205001815224934,A,576.4263729797676,Correct
17,2,113,A,62.954799374859974,72.66219695321975,3.1477399687429988,1.141375120709649,A,871.6463680029847,Correct
17,2,114,B,60.8272313147342,52.741410396349885,3.0413615657367097,0.8284601372056857,B,1711.703064996982,Correct
17,2,115,A,48.57121304053406,64.24355270208216,2.4285606520267033,1.0091353660468498,A,730.2141640102491,Correct
17,2,116,A,64.71907537928787,87.04492298511694,3.2359537689643934,1.3672984529116634,A,1076.0568779951427,Correct
17,2,117,B,54.128377191537226,35.54207501682355,2.706418859576861,0.558293608830951,B,736.8530199746601,Correct
17,2,118,A,12.606453425584817,32.11342303846338,0.6303226712792409,0.5044364694962888,A,1035.7914250053,Correct
17,2,119,A,30.751451966684442,51.93036779233502,1.537572598334222,0.8157203097730784,A,602.039801015053,Correct
17,2,120,A,26.764289428166308,51.501127817757435,1.3382144714083153,0.8089778240192784,A,496.4585370034911,Correct
17,2,121,B,57.32826751084379,43.43741754389725,2.866413375542189,0.6823133592340999,B,540.070613991702,Correct
17,2,122,A,26.73952869410754,36.812608172659466,1.3369764347053772,0.5782510969735327,A,772.3500639840495,Correct
17,2,123,B,62.27507358660138,52.28403185017757,3.1137536793300686,0.821275651802863,B,532.0048550202046,Correct
17,2,124,A,33.0984128631646,65.93972605346585,1.6549206431582297,1.035778794746459,A,557.8730670094956,Correct
17,2,125,B,62.48678057005395,30.417959019337943,3.1243390285026975,0.47780418296173727,B,455.7610019983258,Correct
17,2,126,A,63.40631980780708,82.99960922210462,3.170315990390354,1.3037548129149377,A,625.7906229875516,Correct
17,2,127,B,70.72361613048344,41.40723852524433,3.5361808065241718,0.6504233817817393,B,572.1319930162281,Correct
17,2,128,B,48.358061740679695,30.69947773223258,2.417903087033985,0.48222626856312667,B,574.7133400000166,Correct
17,2,129,B,85.55399904030966,59.96690431909556,4.2776999520154835,0.9419579303369634,B,870.3483900171705,Correct
17,2,130,B,44.025419092437865,25.46758319248554,2.201270954621893,0.4000438613109974,B,635.1605450036004,Correct
17,2,131,B,46.80802537951425,29.07394166207156,2.3404012689757123,0.4566924076823112,B,663.2166740018874,Correct
17,2,132,B,64.07032719534624,42.990914959765796,3.203516359767312,0.6752997130435188,B,798.2163180131465,Correct
17,2,133,B,55.3999843981726,38.21210669127883,2.7699992199086303,0.6002343682975547,B,531.7754799907561,Correct
17,2,134,B,55.460163660932,36.93135175311872,2.7730081830465996,0.5801163167736915,B,601.7957750009373,Correct
17,2,135,A,60.48015500634028,72.31869650259142,3.024007750317014,1.1359794282486553,A,1696.984128007898,Correct
17,2,136,A,32.99648830818252,58.24152080862598,1.649824415409126,0.9148556695313821,A,715.8848230028525,Correct
17,2,137,B,88.68603613475341,63.097382682533166,4.43430180673767,0.9911313694809502,B,1614.4546550058294,Correct
17,2,138,A,67.1571796381198,83.99308488152684,3.35785898190599,1.3193602920807432,A,806.2484730035067,Correct
17,2,139,A,33.33571847542212,64.01840539045158,1.6667859237711058,1.0055987603458796,A,694.3907189997844,Correct
17,2,140,A,65.90471230325798,87.96541134815268,3.2952356151628988,1.3817574503068033,A,535.014182998566,Correct
17,2,141,B,49.94072078820929,20.343374603234597,2.4970360394104647,0.3195529810137349,B,542.6947519881651,Correct
17,2,142,A,15.903210155103896,31.02306267030238,0.7951605077551948,0.48730912888438854,B,1024.9002590135206,Incorrect
17,2,143,B,73.422770285093,42.4089625615414,3.67113851425465,0.6661584261485152,B,597.1587940002792,Correct
17,2,144,B,45.10997639921774,27.46787528783024,2.255498819960887,0.43146437606984056,B,450.94773298478685,Correct
17,2,145,A,55.024150726800904,83.04652703057923,2.7512075363400452,1.3044917961270694,A,479.1533820098266,Correct
17,2,146,A,45.590640992683845,63.5243271162059,2.2795320496341924,0.9978377969625367,A,573.7633729877416,Correct
17,2,147,A,45.9491989267228,61.75696808031613,2.29745994633614,0.9700761861455024,A,1222.6207799976692,Correct
17,2,148,A,43.64440223437235,61.86881110993445,2.1822201117186175,0.9718330123465232,A,1377.712325018365,Correct
17,2,149,B,53.993740392819795,24.05537979910766,2.6996870196409897,0.3778610222809447,B,569.1172929946333,Correct
17,2,150,B,56.255852627504574,31.68422162115755,2.812792631375229,0.4976945893986972,B,506.290959980106,Correct
17,2,151,A,53.56815418540412,60.81813355143964,2.6784077092702057,0.9553290078512284,B,707.6732940040529,Incorrect
17,2,152,A,27.05522220041989,54.10606142463953,1.3527611100209946,0.8498960254316281,A,571.2159370013978,Correct
17,2,153,A,26.12963429294658,51.07553815319516,1.306481714647329,0.8022926772011154,A,639.5660239795689,Correct
17,2,154,A,47.19710779347011,73.92519987364736,2.3598553896735055,1.1612143241910382,A,799.3875750107691,Correct
17,2,155,B,53.87981881775281,45.47367241989845,2.6939909408876406,0.7142987760305088,B,523.0971120181493,Correct
17,2,156,A,40.75449241960663,50.41417180324821,2.0377246209803315,0.7919039588694913,A,2588.953294995008,Correct
17,2,157,A,29.164011391007868,62.060345168618234,1.4582005695503935,0.9748416223048894,A,598.2326570083387,Correct
17,2,158,B,52.523069963996406,36.465841273319285,2.6261534981998205,0.5728040952561567,B,686.1127539887093,Correct
17,2,159,A,28.257359737326816,46.198425065081395,1.412867986866341,0.7256831639593914,A,1218.382049992215,Correct
17,2,160,B,75.61233474659835,49.035575595028774,3.7806167373299173,0.7702490202694467,B,1373.5619660001248,Correct
17,2,161,A,43.584034013126406,74.63533971078951,2.17920170065632,1.1723691746679745,A,1920.8547360030934,Correct
17,2,162,A,51.16243490112183,80.11314095209693,2.5581217450560914,1.2584142753555567,A,709.5770140003879,Correct
17,2,163,A,58.12471057376515,82.63639519645263,2.9062355286882577,1.2980494603415922,A,1452.1187970240135,Correct
17,2,164,A,42.52839814414604,73.38657159945195,2.1264199072073016,1.1527535710448982,A,1832.739336998202,Correct
17,2,165,A,52.65470721159471,81.8203259679366,2.6327353605797357,1.285230674875959,A,2265.51128301071,Correct
17,2,166,A,50.026268096409005,65.53230344258559,2.50131340482045,1.0293790153402198,A,1696.294413995929,Correct
17,2,167,A,32.53425553513891,45.08948685964787,1.6267127767569456,0.7082640033620164,A,1759.9075619946234,Correct
17,2,168,A,38.476059325611445,50.84234964681578,1.9238029662805725,0.7986297607084002,B,1429.8451030044816,Incorrect
17,2,169,A,63.432588941674226,84.20994512563337,3.171629447083711,1.322766724829447,A,1829.2507689911872,Correct
17,2,170,B,52.2705572689541,34.05318569388661,2.613527863447705,0.5349061900362161,B,940.634549013339,Correct
17,2,171,A,53.846271110230305,77.07300409131196,2.6923135555115154,1.2106599172168087,A,3181.335506000323,Correct
17,2,172,A,38.740642110929464,68.13138843491487,1.9370321055464732,1.0702053469300057,A,2468.876075989101,Correct
17,2,173,A,58.40105669915087,85.73983492347897,2.9200528349575436,1.3467981775780156,A,1106.7391199758276,Correct
17,2,174,A,38.74540520989402,65.29404175134852,1.9372702604947007,1.0256364094461086,A,1155.014238000149,Correct
17,2,175,B,73.88270754804324,50.466182175527415,3.694135377402162,0.7927209358868054,B,1471.3775489944965,Correct
17,2,176,A,49.840303105027985,66.3668164985271,2.4920151552513996,1.0424875157695732,A,711.9702770141885,Correct
17,2,177,B,65.4769440012559,32.435908719088374,3.273847200062795,0.5095020627219857,B,651.4971420110669,Correct
17,2,178,A,58.26440008541865,82.56872366421112,2.9132200042709324,1.296986478398857,A,648.5226319928188,Correct
17,2,179,A,60.036074852628715,77.18728163978506,3.0018037426314357,1.2124549847505752,A,857.471859024372,Correct
17,2,180,B,63.33462488043159,40.440097040014045,3.1667312440215794,0.6352315588568322,B,877.1403900173027,Correct
17,2,181,A,28.912374889345724,54.412769795272766,1.445618744467286,0.8547137892515075,A,1294.5040659978986,Correct
17,2,182,B,51.885163614741415,40.93297600425052,2.594258180737071,0.6429736835226035,B,846.7517050157767,Correct
17,2,183,A,34.47018184856332,63.06711611588338,1.7235090924281662,0.9906559433637684,A,539.6886689995881,Correct
17,2,184,B,44.70244972650222,36.8549674415605,2.235122486325111,0.5789164748134874,B,742.3107649956364,Correct
17,2,185,B,74.08212626903132,46.7522401203712,3.7041063134515664,0.7343824705051207,B,817.3945900052786,Correct
17,2,186,A,39.050461124543446,63.33532109179474,1.9525230562271725,0.994868897273665,A,3695.673556998372,Correct
17,2,187,A,16.961601534479215,43.58745270181696,0.8480800767239607,0.6846701059836037,A,1372.5384199933615,Correct
17,2,188,B,71.58906492208918,41.01833389508315,3.5794532461044586,0.6443144821364322,B,715.4367179900873,Correct
17,2,189,B,74.3079857494816,46.325962725867306,3.7153992874740798,0.7276865208502965,B,610.5396980128717,Correct
17,2,190,A,12.922183126139437,35.70891395655346,0.6461091563069717,0.560914308767892,A,597.5904740043916,Correct
17,2,191,A,33.20956014741956,64.27896772605746,1.660478007370978,1.0096916639425877,A,1745.7953190023545,Correct
17,2,192,A,34.80743024145879,43.1245033425259,1.7403715120729395,0.6773981144529392,B,1321.8498429923784,Incorrect
17,2,193,B,53.21999438910931,43.91627870492146,2.6609997194554653,0.6898352927619156,B,578.649281989783,Correct
17,2,194,B,86.9416684682073,60.83320020551778,4.347083423410365,0.9555656743000586,B,642.9536989890039,Correct
17,2,195,A,24.71238967125049,42.9837072016587,1.2356194835625245,0.6751864938439283,A,505.892495973967,Correct
17,2,196,A,66.29541454377284,83.55464402021619,3.314770727188642,1.3124732791361076,A,1325.2851809957065,Correct
17,2,197,B,79.62622465024623,61.10871564713973,3.9813112325123114,0.9598934607368091,B,576.6781120037194,Correct
17,2,198,B,35.470224031284076,11.659129629145802,1.7735112015642038,0.1831411799508777,B,1106.2929690233432,Correct
17,2,199,A,53.20013118445004,75.52386187401045,2.6600065592225017,1.1863260481706073,A,755.8126329968218,Correct
17,2,200,B,33.482137774940455,19.83215669557746,1.6741068887470225,0.31152278889833884,B,907.1444339933805,Correct
17,2,201,B,55.2246768123659,28.75844341462631,2.761233840618295,0.4517365728003389,B,837.6373579958454,Correct
17,2,202,B,40.997932056786865,29.36811848735907,2.0498966028393433,0.4613133264482092,B,1273.6126279924065,Correct
17,2,203,A,23.83123982720166,36.72210169718035,1.191561991360083,0.5768294245811952,A,707.7102480106987,Correct
17,2,204,B,63.48422888820665,34.95535086310162,3.1742114444103326,0.5490773673758684,B,468.722167017404,Correct
17,2,205,B,55.779717115192895,32.00787734280051,2.7889858557596447,0.5027785615857263,B,525.3989019838627,Correct
17,2,206,A,61.70196034847554,84.27993577516177,3.085098017423777,1.323866135381339,A,697.6403419976123,Correct
17,2,207,A,55.09448429264031,66.1374485796527,2.7547242146320157,1.038884612925048,A,835.2741349954158,Correct
17,2,208,B,66.89975530684943,34.02035866396391,3.3449877653424718,0.5343905442559945,B,867.8521800029557,Correct
17,2,209,B,54.49548289843779,22.350221376625434,2.7247741449218896,0.3510764564145601,B,961.9268020032905,Correct
17,2,210,B,65.02933095155227,43.88682920679647,3.251466547577613,0.6893727011271088,B,733.6524089914747,Correct
17,2,211,B,55.51360129739741,42.276536046904695,2.7756800648698703,0.6640782753208994,B,729.4336509949062,Correct
17,2,212,B,62.13066813932044,40.75115050802015,3.106533406966022,0.6401175753066404,B,612.4131660035346,Correct
17,2,213,B,37.2643504639925,23.257702120806528,1.863217523199625,0.36533113061052763,B,576.3741800037678,Correct
17,2,214,A,18.82277646846059,49.98932548346302,0.9411388234230295,0.7852304884837823,A,561.2564150069375,Correct
17,2,215,B,53.682830112893164,29.92569994659852,2.6841415056446585,0.4700717955288319,B,653.9771649986506,Correct
17,2,216,B,46.74611628766506,29.658142041377197,2.337305814383253,0.465869005781566,B,579.2240800219588,Correct
17,2,217,B,71.86201290274721,54.7892273051266,3.5931006451373606,0.8606271699882352,B,689.6960610174574,Correct
17,2,218,A,57.00265929125874,80.98382138879565,2.850132964562937,1.2720908916733416,A,992.3893710074481,Correct
17,2,219,B,48.14886684599477,26.477002551006606,2.4074433422997386,0.4158997835166029,B,548.6652549880091,Correct
17,2,220,B,61.95713703619893,39.11507371047175,3.0978568518099463,0.6144181410672065,B,502.4050940119196,Correct
17,2,221,B,40.75880449102813,19.63051159889939,2.037940224551406,0.3083553551265577,B,3986.2326169968583,Correct
17,2,222,B,38.35393885962058,26.561289195532964,1.9176969429810287,0.41722375503280157,B,964.440565003315,Correct
17,2,223,B,57.751476843743916,41.820864404445715,2.887573842187196,0.6569206018989077,B,1513.200796005549,Correct
17,2,224,B,62.16902115607802,32.34104688336573,3.108451057803901,0.5080119764909242,B,640.8757600001991,Correct
17,2,225,B,63.188635147826474,39.08764059982979,3.1594317573913235,0.6139872227729171,B,585.9613030042965,Correct
17,2,226,A,65.9789183437739,87.46275983079893,3.298945917188695,1.3738618187356317,A,787.943453004118,Correct
17,2,227,A,41.63855376407468,63.24613531587404,2.081927688203734,0.9934679703814794,A,1628.4837989951484,Correct
17,2,228,B,55.16710771748363,36.70249900647081,2.758355385874182,0.576521506235577,B,1016.0876850131899,Correct
17,2,229,A,31.833157161086312,56.264003809953316,1.5916578580543157,0.8837929051544873,A,694.1650150110945,Correct
17,2,230,A,54.63241429366806,77.18764627874023,2.731620714683403,1.2124607124858893,B,623.8163169764448,Incorrect
17,2,231,B,77.81852197827104,59.903254700095204,3.890926098913552,0.9409581244596866,B,918.5190940042958,Correct
17,2,232,A,61.822329289983955,88.2419265817813,3.0911164644991977,1.3861009414396703,A,800.1016979978886,Correct
17,2,233,B,86.23508169455526,69.13879548704158,4.311754084727763,1.0860296599006847,B,812.8637019835878,Correct
17,2,234,B,47.09945263553887,30.69728629290319,2.3549726317769433,0.48219184551463656,B,626.7724230128806,Correct
17,2,235,A,30.056151622045896,58.572236877618025,1.5028075811022947,0.9200505453952297,A,745.4962389892898,Correct
17,2,236,B,75.34150148916996,43.280059094261205,3.7670750744584978,0.6798415784873156,B,952.0097130152863,Correct
17,2,237,A,62.13534986676556,83.92197661649742,3.106767493338278,1.3182433260656137,A,786.7038480180781,Correct
17,2,238,A,14.556841291582227,41.44136475946728,0.7278420645791114,0.6509594354153866,A,709.0226330037694,Correct
17,2,239,A,41.927477858112695,63.29465568351053,2.0963738929056346,0.9942301265340605,B,1621.019678976154,Incorrect
17,2,240,A,23.29048380773049,49.27242533968376,1.1645241903865244,0.7739694473585104,A,648.5410640016198,Correct
17,2,241,A,52.75867373767736,76.51704323380879,2.637933686883868,1.2019269044887315,A,775.4729689913802,Correct
17,2,242,A,45.81411744817233,76.2397999622462,2.290705872408617,1.1975719773627402,A,848.5418590134941,Correct
17,2,243,B,43.69162349284683,32.55224031540995,2.184581174642341,0.5113293951639069,B,636.1340949952137,Correct
17,2,244,B,73.75253043380684,51.249513813140325,3.687626521690342,0.8050254804770512,B,594.898748997366,Correct
17,2,245,B,43.79111061643073,20.018182410220952,2.1895555308215364,0.31444487399085286,B,582.7207129914314,Correct
17,2,246,A,22.51924389297222,34.989712696242805,1.125962194648611,0.5496171217886695,A,596.5243070095312,Correct
17,2,247,B,48.702101463321114,37.15878789067583,2.435105073166056,0.5836888752682429,B,598.6084069882054,Correct
17,2,248,B,68.90946207976845,41.44594787681917,3.445473103988422,0.6510314268544029,B,610.2008429879788,Correct
17,2,249,A,42.43601098475135,66.96957151932364,2.121800549237568,1.051955569495817,A,703.1038129935041,Correct
17,2,250,B,53.63199759083163,40.3494990474354,2.6815998795415816,0.6338084489172571,B,623.0407399998512,Correct
17,2,251,B,61.15836316214981,52.25767712935432,3.057918158107491,0.8208616728162343,B,662.869240011787,Correct
17,2,252,A,51.85288892744689,59.30030510481065,2.592644446372345,0.9314870143645322,A,1253.2844890083652,Correct
17,2,253,B,44.944417471711866,32.30611446928055,2.247220873585593,0.5074632594136135,B,1035.2315409982111,Correct
17,2,254,B,47.0239651400902,35.94514775853916,2.35119825700451,0.5646250606521311,B,713.4495030040853,Correct
17,2,255,A,39.512605754663326,62.6172896194726,1.9756302877331664,0.9835900852811976,A,1009.763000998646,Correct
17,2,256,A,53.983316142877186,71.14045042449898,2.699165807143859,1.1174715821333743,A,715.2636499959044,Correct
17,2,257,B,54.265793266631015,28.88089123100688,2.7132896633315506,0.4536599786022854,B,543.8250460138079,Correct
17,2,258,A,52.58745938429123,63.98825873260823,2.6293729692145615,1.0051252177518246,A,894.4566379941534,Correct
17,2,259,A,25.420239221590123,43.78707629412459,1.271011961079506,0.6878057860389879,A,666.0320470109582,Correct
17,2,260,B,57.839521015361605,41.598130075664656,2.8919760507680805,0.6534218992439036,B,709.8264759988524,Correct
17,2,261,A,54.24993792970632,74.2461881521688,2.712496896485316,1.166256396279495,A,699.5712550124153,Correct
17,2,262,B,61.680546196037454,45.48171948720351,3.0840273098018725,0.7144251790681515,B,653.4312700096052,Correct
17,2,263,B,33.48233846394088,17.735936932343513,1.674116923197044,0.2785954458559114,B,1002.3032739991322,Correct
17,2,264,B,51.033358060999504,25.561585618354545,2.551667903049975,0.4015204479636458,B,972.8770119836554,Correct
17,2,265,B,73.67178773044495,43.54675234674936,3.6835893865222475,0.6840307863012093,B,671.045934985159,Correct
17,2,266,A,36.021150737272,46.80381992118037,1.8010575368636,0.7351926841215992,B,780.1509809796698,Incorrect
17,2,267,A,52.78627986604034,73.33388884672671,2.639313993302017,1.1519260323002354,A,630.4442369728349,Correct
17,2,268,B,67.38051179538323,54.47975648554942,3.369025589769161,0.8557660137218148,B,624.883159995079,Correct
17,2,269,B,68.04029999463592,49.95743748184613,3.402014999731796,0.7847295929256959,B,492.34000698197633,Correct
17,2,270,B,79.01701805196765,53.41702682865656,3.9508509025983822,0.8390726953075816,B,477.95963200042024,Correct
17,2,271,A,38.19550130999066,53.28557078397302,1.9097750654995331,0.8370077885863428,A,653.3718749997206,Correct
17,2,272,B,82.25402829765024,66.77292717413229,4.112701414882512,1.0488666873447012,B,1231.3625839888118,Correct
17,2,273,A,43.59518572420417,75.62304859891672,2.179759286210208,1.1878840696021034,A,671.310267993249,Correct
17,2,274,A,53.93878934589831,81.10348349420946,2.696939467294915,1.2739705396297474,A,595.2696840104181,Correct
17,2,275,B,37.92781710578855,23.44287450564352,1.8963908552894275,0.36823981162978564,B,888.8041870086454,Correct
17,2,276,B,61.637100794942555,33.9933923826341,3.081855039747128,0.5339669588993926,B,483.9166520105209,Correct
17,2,277,A,31.282528544850553,54.860106653869,1.5641264272425277,0.8617405401947369,A,938.047600997379,Correct
17,2,278,B,38.516418280117335,13.422455583068352,1.9258209140058669,0.21083943926451418,B,697.4549870064948,Correct
17,2,279,A,39.25657846617175,68.93727956541728,1.9628289233085878,1.0828642552059036,A,694.7191549988929,Correct
17,2,280,A,35.40986289668529,55.09058042991976,1.7704931448342647,0.8653608138031676,A,742.009711015271,Correct
17,2,281,B,53.76407760888276,30.88801163380543,2.6882038804441377,0.48518775216379595,B,505.08395698852837,Correct
17,2,282,A,50.31594961973961,70.57149786669011,2.515797480986981,1.108534496254107,A,601.8672159989364,Correct
17,2,283,A,44.8220799761493,67.09677657281446,2.241103998807465,1.0539537018035483,A,784.2680070025381,Correct
17,2,284,B,67.03870007047983,41.169042527366074,3.3519350035239914,0.6466818077964951,B,579.9996730056591,Correct
17,2,285,B,69.00795037583988,46.367140125537304,3.450397518791994,0.7283333339317827,B,1087.8495149954688,Correct
17,2,286,A,22.859480742255695,51.177677123980764,1.1429740371127848,0.8038970724024419,A,594.6513960079756,Correct
17,2,287,B,58.84520294200605,38.41690057409943,2.9422601471003027,0.6034512630864014,B,688.6030879977625,Correct
17,2,288,A,32.7445809239283,45.40413424311384,1.637229046196415,0.7132064729038561,A,875.251532997936,Correct
17,2,289,B,52.3398820952684,41.102548726678414,2.6169941047634198,0.645637325617747,B,584.1074759955518,Correct
17,2,290,A,35.51328379140743,43.43139202237127,1.7756641895703718,0.6822187105632996,A,670.6343510013539,Correct
17,2,291,A,21.219262787720872,43.88440248302449,1.0609631393860437,0.689334582239237,A,644.5823980029672,Correct
17,2,292,B,47.12819806063973,31.645755577048938,2.3564099030319867,0.49709036619077573,B,362.5199169910047,Correct
17,2,293,B,84.59287942763244,65.53630349728174,4.2296439713816225,1.0294418480524568,B,524.3079579959158,Correct
17,2,294,A,34.10009583432175,50.96206219734532,1.7050047917160873,0.8005102010548308,A,1590.9164639888331,Correct
17,2,295,A,39.562143010294484,71.35953176870451,1.978107150514724,1.1209129038408479,A,2067.122916021617,Correct
17,2,296,B,51.73462852312896,27.326166901576496,2.586731426156448,0.42923842594380646,B,1815.6016759749036,Correct
17,2,297,B,69.0539677159232,54.747996612247476,3.45269838579616,0.8599795197789777,B,540.6363510119263,Correct
17,2,298,B,52.23156821911755,30.941616388441616,2.6115784109558775,0.4860297736806086,B,555.6216779805254,Correct
17,2,299,B,73.0029955482176,54.96449126623026,3.65014977741088,0.8633802098514467,B,1878.3123919856735,Correct
