subject,day,trial,cat,x,y,xt,yt,resp,rt,fb,ns_left_digit,ns_right_digit,ns_left_size,ns_right_size,ns_congruent,ns_cue,ns_correct_side,ns_resp,ns_rt,ns_fb
17,22,0,B,62.93693288796321,36.26467066170441,3.1468466443981606,0.5696441146783193,B,1793.0021490028594,Correct,6,4,small,big,False,Value,left,left,1112.4769530142657,Correct
17,22,1,A,45.69704229835873,73.32125264802012,2.2848521149179364,1.1517275433551057,A,1221.7639370064717,Correct,7,8,big,small,False,Size,left,left,677.6832320028916,Correct
17,22,2,A,13.808121923855015,36.47926776474643,0.6904060961927507,0.5730149980903118,A,848.9124340121634,Correct,6,5,small,big,False,Value,left,left,1275.883068999974,Correct
17,22,3,A,41.88153730229041,51.89071221429457,2.0940768651145207,0.8150974014098499,A,953.8969590212218,Correct,7,6,big,small,True,Value,left,left,989.4555110076908,Correct
17,22,4,B,47.32511805223812,26.080800226333317,2.366255902611906,0.40967625195395885,B,780.2396379993297,Correct,3,8,big,small,False,Size,left,left,1145.5896510160528,Correct
17,22,5,B,44.66205509775943,16.58650919368846,2.2331027548879714,0.26054027715795613,B,726.0245039942674,Correct,8,3,big,small,True,Value,left,left,884.1279259941075,Correct
17,22,6,A,57.60944491162091,71.06299701885236,2.880472245581046,1.1162549468824996,A,756.685023981845,Correct,8,2,small,big,False,Value,left,right,389.10883298376575,Incorrect
17,22,7,A,40.36498220745671,58.48017633049729,2.0182491103728357,0.9186044617026299,A,844.2853710148484,Correct,7,2,small,big,False,Size,right,right,1108.6780260084197,Correct
17,22,8,B,78.61350934160994,52.46788390360075,3.930675467080497,0.8241635931047712,A,782.0161409908906,Incorrect,4,7,big,small,False,Value,right,right,912.993996986188,Correct
17,22,9,A,12.098862279178892,35.344316651704254,0.6049431139589445,0.5551872276957275,A,1088.7497939984314,Correct,8,4,small,big,False,Size,right,right,522.504274995299,Correct
17,22,10,B,53.377036774458844,39.06388648498959,2.668851838722942,0.6136140940095445,B,899.9307980120648,Correct,6,8,big,small,False,Size,left,left,870.3582090092823,Correct
17,22,11,B,61.45913139811673,44.413671712346265,3.0729565699058368,0.6976483238522793,B,965.0207330123521,Correct,6,8,big,small,False,Size,left,left,625.6468640058301,Correct
17,22,12,A,46.56238164574378,66.42520969609699,2.328119082287189,1.043404753972099,A,723.1418829760514,Correct,4,6,big,small,False,Size,left,left,417.60100598912686,Correct
17,22,13,A,38.28055401568305,64.25249038636768,1.9140277007841524,1.0092757588633074,A,728.736321994802,Correct,5,7,big,small,False,Size,left,left,429.4726799998898,Correct
17,22,14,A,34.89396438274492,57.9282565015592,1.7446982191372458,0.9099349253028177,A,1015.1304579921998,Correct,7,6,small,big,False,Value,left,left,674.486705014715,Correct
17,22,15,B,48.16182347066981,30.497493700693532,2.4080911735334904,0.479053510814999,B,1075.9110460057855,Correct,8,3,small,big,False,Size,right,right,762.1048000000883,Correct
17,22,16,A,22.402125475793284,52.47984949542246,1.120106273789664,0.824351548181586,A,907.2435749985743,Correct,7,8,big,small,False,Value,right,right,765.9294419863727,Correct
17,22,17,B,58.50856220836432,45.01656209720932,2.925428110418216,0.7071185038723076,B,690.1558429817669,Correct,2,6,big,small,False,Size,left,left,792.5070429919288,Correct
17,22,18,B,87.04261644639638,64.85971535687221,4.352130822319819,1.0188140263953742,B,631.1108160007279,Correct,2,7,big,small,False,Size,left,right,644.3975550064351,Incorrect
17,22,19,A,48.53420576865772,64.42676763108699,2.426710288432886,1.0120132994217979,A,688.2617079827469,Correct,5,8,big,small,False,Size,left,left,933.2268029975239,Correct
17,22,20,B,44.01058997876628,32.2083856160259,2.200529498938314,0.5059281381764708,B,794.6036159992218,Correct,3,2,small,big,False,Size,right,right,441.03693700162694,Correct
17,22,21,A,64.85841346208817,88.32671974654387,3.242920673104408,1.3874328693571336,A,789.6085300017148,Correct,7,2,small,big,False,Value,left,left,675.9151699952781,Correct
17,22,22,B,68.12710469051143,47.82017592178648,3.4063552345255714,0.7511575668462795,A,1114.277946006041,Incorrect,3,6,small,big,True,Size,right,right,835.7739179919008,Correct
17,22,23,A,65.06791354839662,86.88042538593832,3.253395677419831,1.3647145306661,A,727.3690910078585,Correct,7,2,small,big,False,Size,right,right,871.7772770032752,Correct
17,22,24,A,23.33335724815466,46.86925317747452,1.166667862407733,0.7362205073079701,A,608.1025140010752,Correct,6,5,small,big,False,Size,right,right,875.7513739983551,Correct
17,22,25,A,52.92206231961603,79.28262075226229,2.6461031159808015,1.2453684945632646,A,970.8329479908571,Correct,5,3,big,small,True,Size,left,left,2897.3660619813018,Correct
17,22,26,B,66.74121038591488,52.02971501615608,3.3370605192957443,0.8172808523156324,B,2828.7650310085155,Correct,5,2,small,big,False,Size,right,left,314.2105220176745,Incorrect
17,22,27,B,33.158783636461855,13.013289155075416,1.6579391818230929,0.20441226804312326,B,1301.1185719806235,Correct,7,4,small,big,False,Size,right,right,1086.6046399751212,Correct
17,22,28,B,78.01925943512393,46.083536946907216,3.900962971756196,0.7238785056191875,B,952.1529450139496,Correct,7,8,big,small,False,Size,left,left,816.0244710161351,Correct
17,22,29,B,36.63555720290476,25.975181339919267,1.8317778601452377,0.4080171943657653,B,816.9624290021602,Correct,4,6,big,small,False,Value,right,right,1895.142980007222,Correct
17,22,30,A,31.05538212542688,60.57649136982069,1.5527691062713442,0.9515333013383709,A,649.5879940048326,Correct,7,6,small,big,False,Value,left,left,1103.032773011364,Correct
17,22,31,B,46.26347538433109,31.181169738474605,2.3131737692165544,0.4897926689036409,B,869.2998659971636,Correct,8,3,small,big,False,Size,right,right,1020.7364250090905,Correct
17,22,32,A,38.78031266704752,52.56432939772667,1.939015633352376,0.8256785553838605,A,1026.4883970085066,Correct,5,8,big,small,False,Value,right,right,1051.4629769895691,Correct
17,22,33,A,48.19959179374271,60.9054579179503,2.4099795896871354,0.9567006957927748,A,689.1643370036036,Correct,6,3,small,big,False,Value,left,left,1590.5834159930237,Correct
17,22,34,A,34.575758023374036,60.43172883703035,1.7287879011687017,0.949259376790725,A,1064.289967995137,Correct,3,5,big,small,False,Value,right,right,1184.1437270049937,Correct
17,22,35,B,64.2769787765626,56.348558912697534,3.21384893882813,0.8851210936025111,B,864.0542130160611,Correct,4,7,big,small,False,Value,right,right,958.3632289723027,Correct
17,22,36,B,52.09478145579427,30.260392191254383,2.6047390727897137,0.4753291290139536,B,702.8324760030955,Correct,2,3,big,small,False,Size,left,left,846.7887860024348,Correct
17,22,37,B,85.29655681689549,56.835611223608424,4.264827840844775,0.892771693411869,B,837.279753992334,Correct,8,6,small,big,False,Size,right,right,794.1857339756098,Correct
17,22,38,B,68.53285228503316,42.83501590125741,3.426642614251658,0.6728508563589612,B,544.5927449909505,Correct,2,5,big,small,False,Value,right,right,1001.7110149783548,Correct
17,22,39,A,24.35328069783563,48.27882836212347,1.2176640348917815,0.7583620625318482,A,533.5925109975506,Correct,8,7,small,big,False,Value,left,left,1220.7699330174364,Correct
17,22,40,A,37.20920726548967,52.746342656253034,1.8604603632744834,0.8285376129630723,A,881.2425720097963,Correct,2,5,big,small,False,Size,left,right,743.4319870080799,Incorrect
17,22,41,A,68.29646826351711,87.10476994569953,3.4148234131758555,1.368238526770193,A,621.93748698337,Correct,2,6,big,small,False,Size,left,left,1220.0522670173086,Correct
17,22,42,A,52.7540539544777,62.659266100272255,2.637702697723885,0.9842494502997163,A,732.4157429975457,Correct,5,8,small,big,True,Size,right,right,877.8220099920873,Correct
17,22,43,B,68.05937479088561,48.17694299650677,3.4029687395442805,0.7567616509511994,B,740.7272979908157,Correct,4,3,small,big,False,Value,left,left,673.447948996909,Correct
17,22,44,A,44.69994908760589,74.59122049011836,2.234997454380294,1.1716761515702614,A,601.7874109966215,Correct,4,5,small,big,True,Value,right,right,858.4010310005397,Correct
17,22,45,A,28.255118190721525,45.932307967842746,1.4127559095360764,0.7215030063709934,A,614.6744239958934,Correct,4,6,big,small,False,Value,right,right,711.9796089828014,Correct
17,22,46,A,22.61895514764057,43.006486583934866,1.1309477573820286,0.6755443115439888,A,593.0777489847969,Correct,5,8,big,small,False,Value,right,right,591.7992889881134,Correct
17,22,47,A,24.146829327700253,43.014532974924265,1.2073414663850128,0.6756707039580898,A,1172.4795850168448,Correct,4,2,small,big,False,Size,right,right,1099.802512995666,Correct
17,22,48,A,40.86892791241009,55.10240525274838,2.0434463956205047,0.8655465576858098,A,584.8107170022558,Correct,8,6,small,big,False,Size,right,left,2129.044296016218,Incorrect
17,22,49,A,19.13633159216548,39.21026262866408,0.9568165796082739,0.6159133650976875,A,573.6765440087765,Correct,6,3,small,big,False,Value,left,left,830.0170559959952,Correct
17,22,50,A,50.38366672299877,62.41529676687798,2.5191833361499385,0.9804171889722532,A,627.7914730017073,Correct,6,4,small,big,False,Value,left,left,806.2827489920892,Correct
17,22,51,B,89.04716840703178,69.02200168010376,4.452358420351589,1.0841950670713816,B,663.3494690177031,Correct,6,4,small,big,False,Size,right,left,741.0153279779479,Incorrect
17,22,52,B,78.19082832510855,61.26338650711898,3.909541416255428,0.9623230249239851,A,709.9238669907209,Incorrect,6,2,small,big,False,Size,right,right,983.823200018378,Correct
17,22,53,A,53.47777004496948,80.87267923082999,2.673888502248474,1.2703450747384966,A,621.3061979797203,Correct,5,8,big,small,False,Size,left,left,1197.0598309999332,Correct
17,22,54,B,80.22948908333949,48.687556950364964,4.011474454166975,0.7647823561825063,B,513.1957159901503,Correct,4,3,small,big,False,Size,right,right,519.7740459989291,Correct
17,22,55,B,87.69939173477259,64.5256134909684,4.384969586738629,1.0135659665580037,B,722.8535640169866,Correct,3,2,small,big,False,Size,right,right,742.0213820005301,Correct
17,22,56,A,10.757901528524911,32.79679384691066,0.5378950764262456,0.5151708330537673,A,574.7248159896117,Correct,8,5,small,big,False,Value,left,left,772.3857969976962,Correct
17,22,57,B,49.10801507286312,37.479238933834644,2.455400753643156,0.5887225084833573,B,653.5213530005421,Correct,3,7,big,small,False,Size,left,left,933.387427998241,Correct
17,22,58,B,68.54880707224825,41.476255934347485,3.4274403536124125,0.6515075047087806,B,667.1959859959316,Correct,4,8,big,small,False,Size,left,left,720.0378240086138,Correct
17,22,59,A,25.033789594395778,49.632386268044215,1.251689479719789,0.7796237003990932,A,758.5720939969178,Correct,3,7,big,small,False,Value,right,right,1074.4338229997084,Correct
17,22,60,B,63.26835727540748,43.2435515711747,3.1634178637703743,0.6792681196556689,B,672.0739169977605,Correct,7,8,big,small,False,Size,left,left,1014.2862630018499,Correct
17,22,61,B,55.75734688181163,27.45215650399261,2.7878673440905812,0.43121746599070226,B,672.8541819902603,Correct,4,5,big,small,False,Value,right,right,800.2439769916236,Correct
17,22,62,A,43.46588306463776,56.74984193673324,2.173294153231888,0.8914244326041156,A,524.6285299945157,Correct,2,6,small,big,True,Size,right,right,586.6514560184442,Correct
17,22,63,B,69.54820562384688,37.87100174644863,3.4774102811923444,0.5948763043536461,B,578.0985940073151,Correct,8,6,small,big,False,Value,left,left,793.6241940187756,Correct
17,22,64,A,20.34649649700417,37.81493879428935,1.0173248248502085,0.5939956695604354,A,617.1168470173143,Correct,2,7,big,small,False,Value,right,right,653.070653002942,Correct
17,22,65,B,82.05983187617451,57.069672705144384,4.102991593808725,0.8964483225662777,B,766.341917013051,Correct,2,6,small,big,True,Size,right,right,667.7636300155427,Correct
17,22,66,A,41.71969838594377,56.01183125746613,2.085984919297189,0.8798317879628338,A,545.6850649788976,Correct,8,7,big,small,True,Value,left,left,727.739799011033,Correct
17,22,67,B,46.15919797193798,32.37245556497848,2.307959898596899,0.508505342907992,B,607.6886219962034,Correct,3,2,big,small,True,Size,left,left,632.701733004069,Correct
17,22,68,A,64.38624858311522,86.27322650252268,3.219312429155761,1.3551766729090675,A,1672.1848350134678,Correct,8,2,small,big,False,Size,right,left,758.3607810083777,Incorrect
17,22,69,A,34.54814590920698,46.36730382487442,1.7274072954603492,0.7283359053149568,A,880.8135820145253,Correct,2,7,big,small,False,Size,left,right,610.3242069948465,Incorrect
17,22,70,A,47.45996973735297,63.64332956515969,2.3729984868676484,0.9997070830594988,A,642.2222339897417,Correct,4,6,big,small,False,Value,right,right,687.2598110057879,Correct
17,22,71,B,83.22914560670303,59.22023819730239,4.161457280335151,0.9302293263224144,B,627.0456979982555,Correct,3,7,big,small,False,Value,right,right,777.4487700080499,Correct
17,22,72,A,31.40837105342022,51.50415929732332,1.5704185526710108,0.8090254423889468,A,753.5635689855553,Correct,6,7,big,small,False,Value,right,right,1554.5881839934736,Correct
17,22,73,A,37.801727551517146,60.292465401391595,1.8900863775758574,0.9470718318591429,A,694.6955619787332,Correct,3,7,big,small,False,Size,left,right,647.2017740015872,Incorrect
17,22,74,A,43.59604608161199,54.43146289410254,2.1798023040805994,0.8550074197612898,A,795.0649139820598,Correct,6,2,small,big,False,Value,left,left,874.7409339994192,Correct
17,22,75,A,35.811367638070784,59.6754524775956,1.7905683819035392,0.9373798155163058,A,1015.1262109866366,Correct,3,6,big,small,False,Value,right,right,606.6823540022597,Correct
17,22,76,A,24.573354833454466,46.4829231100311,1.2286677416727232,0.7301520487992645,A,582.9599719727412,Correct,3,2,big,small,True,Size,left,left,700.2131280023605,Correct
17,22,77,B,36.40783701124403,21.021137360592746,1.8203918505622014,0.33019925351070056,B,525.9509089810308,Correct,2,3,big,small,False,Size,left,left,670.3611679840833,Correct
17,22,78,B,84.98687413083354,68.88464659478778,4.249343706541677,1.0820374984365724,B,700.5169210024178,Correct,2,4,small,big,True,Value,right,right,1425.259718002053,Correct
17,22,79,B,54.17448545867511,30.230525502811894,2.7087242729337557,0.47485998416896363,B,591.4906950201839,Correct,2,5,big,small,False,Size,left,left,1046.1935279890895,Correct
17,22,80,A,60.699609629796136,77.83373206784918,3.0349804814898067,1.2226094043291564,A,595.9082359913737,Correct,2,3,big,small,False,Size,left,left,1670.9526129998267,Correct
17,22,81,B,83.83132382303147,60.19538865978453,4.191566191151574,0.9455469539678071,B,782.0454729953781,Correct,6,5,small,big,False,Value,left,right,1308.3610879839398,Incorrect
17,22,82,A,58.09536988842364,65.88980312467443,2.904768494421182,1.0349946072147749,A,662.5120080134366,Correct,2,5,small,big,True,Size,right,right,772.295506001683,Correct
17,22,83,A,30.552291034654708,53.473133223397504,1.5276145517327353,0.8399540124952695,A,556.8866239918862,Correct,5,4,small,big,False,Size,right,right,750.8224000048358,Correct
17,22,84,B,47.90540427354976,36.38336514457777,2.395270213677488,0.5715085632554024,A,687.3201119888108,Incorrect,6,4,small,big,False,Size,right,right,946.8154049827717,Correct
17,22,85,B,62.25360939553097,39.529355819281,3.112680469776549,0.6209256692149506,B,674.9153679993469,Correct,4,5,big,small,False,Size,left,left,685.8379520126618,Correct
17,22,86,B,55.119737911613775,33.5184474114338,2.7559868955806888,0.5265065407374812,B,706.5909249940887,Correct,6,8,big,small,False,Value,right,right,867.9080760048237,Correct
17,22,87,A,16.397850574434553,43.71974136824257,0.8198925287217277,0.6867480914965832,A,717.7440469968133,Correct,2,5,big,small,False,Size,left,left,1101.7592300195247,Correct
17,22,88,A,59.94447524185276,74.54878246397507,2.9972237620926374,1.1710095366144384,A,826.1450889986008,Correct,7,5,small,big,False,Value,left,left,821.2815070000943,Correct
17,22,89,B,62.01582777637253,45.69166121787231,3.1007913888186267,0.7177229360619064,B,826.697124983184,Correct,5,3,big,small,True,Value,left,left,712.6193360018078,Correct
17,22,90,B,42.28698219078994,29.369969930540766,2.1143491095394973,0.4613424088497,A,644.0130569972098,Incorrect,5,3,small,big,False,Size,right,right,801.8221929960418,Correct
17,22,91,B,34.69494586135367,15.333158227075948,1.7347472930676837,0.24085268621255848,B,551.4460480189882,Correct,3,5,big,small,False,Value,right,right,827.747831994202,Correct
17,22,92,B,47.55093009226946,31.259063125328424,2.377546504613473,0.4910162153631569,B,647.4387870111968,Correct,4,5,big,small,False,Size,left,left,840.0022239948157,Correct
17,22,93,A,54.39462264322199,71.35492508265139,2.7197311321610993,1.1208405421855385,A,1042.2267999965698,Correct,3,5,big,small,False,Value,right,right,1039.0787319920491,Correct
17,22,94,A,11.843458214843114,32.38501793053338,0.5921729107421556,0.508702672084687,A,725.2514100109693,Correct,2,8,big,small,False,Value,right,right,661.1557419819292,Correct
17,22,95,A,45.93703863610967,74.99635884337626,2.296851931805483,1.1780400499416739,A,565.4987460002303,Correct,3,5,big,small,False,Value,right,right,984.5372669806238,Correct
17,22,96,B,73.97365111920436,58.33290555182482,3.698682555960218,0.9162911377208006,B,820.5696929944679,Correct,4,5,big,small,False,Value,right,right,948.8598330062814,Correct
17,22,97,A,40.556449047609306,48.7616141030822,2.027822452380465,0.7659456432171174,A,962.8908409795258,Correct,5,4,small,big,False,Value,left,left,1079.4988039997406,Correct
17,22,98,B,55.29462810688426,38.17707032978655,2.764731405344213,0.5996840184181915,B,787.5309769879095,Correct,8,4,small,big,False,Size,right,right,890.6888519995846,Correct
17,22,99,B,41.18230037492094,28.644698854469407,2.059115018746047,0.4499498774274652,B,674.7056870080996,Correct,4,2,small,big,False,Size,right,right,710.9957950015087,Correct
17,22,100,B,68.37014368404314,35.512971085126956,3.418507184202157,0.5578364453409079,B,628.8268619973678,Correct,4,3,big,small,True,Size,left,left,818.8098480168264,Correct
17,22,101,B,76.13253079315693,48.11753027221195,3.806626539657847,0.7558283980603278,B,595.9846469922923,Correct,3,7,big,small,False,Size,left,left,745.755967014702,Correct
17,22,102,B,78.46582925870842,57.34321227366553,3.9232914629354214,0.9007450720609385,B,630.893148976611,Correct,4,8,big,small,False,Value,right,right,1195.1265249808785,Correct
17,22,103,A,32.593418451996556,59.78904523371039,1.6296709225998278,0.9391641263568619,A,694.9753449880518,Correct,2,4,big,small,False,Value,right,left,1135.8058720070403,Incorrect
17,22,104,A,42.7660567402954,69.57333123822623,2.13830283701477,1.092855331518904,A,585.0938330113422,Correct,2,8,big,small,False,Value,right,right,625.8696420118213,Correct
17,22,105,A,67.60933530314537,86.57756528545954,3.3804667651572684,1.3599572153324522,A,776.6929710051045,Correct,2,4,small,big,True,Size,right,right,774.5770000037737,Correct
17,22,106,B,35.36438570559881,21.85342473875823,1.7682192852799403,0.34327279307530145,B,731.8204340117518,Correct,2,8,big,small,False,Value,right,right,558.3926170074847,Correct
17,22,107,A,22.20411339681235,47.58108035047766,1.1102056698406175,0.7474018623946314,A,527.3777099791914,Correct,8,3,small,big,False,Value,left,left,811.0071890114341,Correct
17,22,108,B,31.96635652439091,17.30435961756343,1.5983178262195454,0.2718162452480658,B,571.7850209912285,Correct,8,7,small,big,False,Size,right,right,598.788049974246,Correct
17,22,109,B,55.97561255768641,42.79720151523025,2.7987806278843204,0.6722568693722466,B,797.650254011387,Correct,3,8,small,big,True,Size,right,right,813.1128019886091,Correct
17,22,110,B,67.58544463847873,42.58375030676855,3.3792722319239368,0.6689039856302309,B,586.1227700079326,Correct,3,2,small,big,False,Value,left,left,929.3606489954982,Correct
17,22,111,A,48.02815639992558,74.90080809801228,2.401407819996279,1.1765391423432712,A,686.1132740159519,Correct,2,5,big,small,False,Size,left,left,500.8276510052383,Correct
17,22,112,A,29.639187583891626,58.9465215371755,1.481959379194581,0.9259297950793155,A,857.2549469827209,Correct,4,3,big,small,True,Size,left,left,624.7501820034813,Correct
17,22,113,B,62.38748629591939,49.11732578766356,3.11937431479597,0.7715331492925017,B,483.96063401014544,Correct,4,7,big,small,False,Size,left,left,843.5936339956243,Correct
17,22,114,A,29.504048472501935,46.94342270485535,1.475202423625097,0.7373855595196693,A,595.049788011238,Correct,8,3,small,big,False,Size,right,right,882.5788840185851,Correct
17,22,115,A,43.30621344205429,75.4000439053653,2.1653106721027147,1.1843811200672174,A,550.5245540116448,Correct,7,3,small,big,False,Size,right,right,512.5278719933704,Correct
17,22,116,A,37.02786849418123,62.88155560059324,1.8513934247090615,0.9877411656056092,A,622.7050769957714,Correct,2,3,big,small,False,Size,left,left,567.4162909854203,Correct
17,22,117,A,23.215284892561172,48.76849772767775,1.1607642446280586,0.7660537709394147,A,595.6465720082633,Correct,4,2,small,big,False,Value,left,left,1411.2753109948244,Correct
17,22,118,A,45.89547902112731,64.18362606576974,2.2947739510563654,1.0081940406448828,A,1027.8649000101723,Correct,8,3,small,big,False,Value,left,left,645.9804479964077,Correct
17,22,119,A,68.65494467702001,87.41117590793394,3.432747233851001,1.3730515403700518,A,791.8161359848455,Correct,5,6,big,small,False,Value,right,left,858.5710900078993,Incorrect
17,22,120,A,45.71230827443764,71.66986775216886,2.285615413721882,1.1257876500698285,A,665.2291499776766,Correct,3,5,big,small,False,Size,left,left,870.4738369851839,Correct
17,22,121,A,39.73852758706156,65.71297274623188,1.986926379353078,1.032216962125542,A,566.8883149919566,Correct,5,4,small,big,False,Value,left,left,744.7899650142062,Correct
17,22,122,B,63.906051910063,42.351329744830274,3.19530259550315,0.6652531319805883,B,686.1054799810518,Correct,6,4,small,big,False,Size,right,right,683.1440409878269,Correct
17,22,123,A,38.20480629061301,50.784626812022175,1.9102403145306506,0.7977230525397405,A,539.7459559899289,Correct,8,7,big,small,True,Size,left,left,783.2999609818216,Correct
17,22,124,B,30.639893316905418,15.211042987548232,1.531994665845271,0.23893450451560033,B,437.69438200979494,Correct,2,7,big,small,False,Size,left,left,771.6959899989888,Correct
17,22,125,A,62.51412712589722,76.40500804202414,3.1257063562948613,1.2001670598114607,A,754.7117270005401,Correct,7,2,small,big,False,Size,right,right,683.0474140006118,Correct
17,22,126,A,63.68061256095509,89.18033984537237,3.1840306280477546,1.4008415025143146,A,560.8816279855091,Correct,6,2,small,big,False,Value,left,left,847.5526430120226,Correct
17,22,127,A,32.061202023061774,53.51055013895387,1.6030601011530887,0.8405417560304288,A,578.6584520246834,Correct,6,8,big,small,False,Size,left,left,813.1174050213303,Correct
17,22,128,B,47.82454403499725,19.208152454039737,2.3912272017498624,0.30172095319321995,B,677.906372002326,Correct,6,3,small,big,False,Value,left,left,729.838793980889,Correct
17,22,129,A,63.626967416116315,73.52033961577362,3.1813483708058157,1.154854794131705,A,763.4022680285852,Correct,4,8,big,small,False,Size,left,left,411.15300700766966,Correct
17,22,130,B,73.05925164546045,55.81930171582917,3.6529625822730223,0.8768075409948052,B,728.2069659850094,Correct,6,7,big,small,False,Size,left,left,774.3130339949857,Correct
17,22,131,B,79.66587781594355,57.940113604018975,3.983293890797177,0.9101211762327203,B,735.7673920050729,Correct,6,5,small,big,False,Size,right,right,850.5730189790484,Correct
17,22,132,B,33.12389893792412,13.540961310353847,1.6561949468962058,0.21270092287575634,B,618.7721799942665,Correct,8,6,big,small,True,Size,left,left,514.1431929951068,Correct
17,22,133,B,85.33908952503953,56.77734880350761,4.266954476251977,0.8918565094570238,B,746.0988879902288,Correct,5,6,big,small,False,Value,right,right,833.4455389995128,Correct
17,22,134,B,41.838741142649376,32.92695607586237,2.0919370571324687,0.5172154165650151,A,700.5034790199716,Incorrect,6,8,small,big,True,Size,right,right,683.6547490092926,Correct
17,22,135,A,25.704541087732224,55.76499681027892,1.2852270543866111,0.8759545215331525,A,554.9591970047913,Correct,5,4,small,big,False,Value,left,left,1014.8316659906413,Correct
17,22,136,A,45.82628585112552,73.83754403795214,2.291314292556276,1.1598374295437164,A,542.6650969893672,Correct,7,6,small,big,False,Value,left,left,1437.5488020014018,Correct
17,22,137,B,42.71596761593441,20.50628369811219,2.1357983807967202,0.32211195109208696,B,697.3383849835955,Correct,6,3,small,big,False,Value,left,left,705.8860750112217,Correct
17,22,138,A,23.82308425507674,44.96799098996619,1.191154212753837,0.706355550703849,A,713.1967869936489,Correct,4,5,small,big,True,Size,right,right,1006.7765980202239,Correct
17,22,139,A,50.236733268029525,72.32828012001464,2.511836663401476,1.1361299673591134,A,716.0825869941618,Correct,8,4,small,big,False,Size,right,left,1033.3301209902856,Incorrect
17,22,140,A,44.94006098957866,58.84054982949371,2.247003049478933,0.9242651953876079,B,677.8550949820783,Incorrect,8,7,small,big,False,Size,right,right,802.3985140025616,Correct
17,22,141,A,31.725690070311565,47.2457630616822,1.5862845035155784,0.742134710739124,A,660.7586120080668,Correct,3,2,big,small,True,Value,left,left,2113.293116010027,Correct
17,22,142,A,22.4268979294925,48.7926539091319,1.121344896474625,0.7664332153503903,A,685.3240479831584,Correct,5,4,small,big,False,Size,right,right,1176.5405039768666,Correct
17,22,143,B,52.306108188581376,26.48964797310832,2.615305409429069,0.4160984173424842,B,619.2963710054755,Correct,7,3,small,big,False,Value,left,left,730.5984270060435,Correct
17,22,144,A,57.79897763296589,66.1841605864572,2.8899488816482943,1.0396183634121052,A,687.011533009354,Correct,2,4,big,small,False,Value,right,right,861.2561659829225,Correct
17,22,145,A,66.05417178172127,82.84521659138046,3.3027085890860635,1.3013296191426806,A,637.9696310032159,Correct,6,3,small,big,False,Size,right,right,715.7943619822618,Correct
17,22,146,B,73.0583385472506,48.38851380110012,3.65291692736253,0.7600849973783224,B,482.5237889890559,Correct,3,2,small,big,False,Size,right,right,896.7352540057618,Correct
17,22,147,B,42.783204278126746,24.004219053409493,2.139160213906337,0.377057391166757,B,565.737472003093,Correct,6,7,small,big,True,Size,right,right,618.1531409965828,Correct
17,22,148,B,47.03423391850693,19.53442709734276,2.351711695925346,0.306846063305487,B,668.0576149956323,Correct,5,3,small,big,False,Value,left,left,713.2999989844393,Correct
17,22,149,A,42.990680835906794,54.57134043773619,2.1495340417953397,0.857204611078698,A,605.1152469881345,Correct,7,4,small,big,False,Size,right,left,284.12769199348986,Incorrect
17,22,150,B,71.71190467323719,50.006827923776484,3.5855952336618593,0.7855054161733256,B,4675.349395984085,Correct,3,6,big,small,False,Size,left,right,1079.4283360010013,Incorrect
17,22,151,B,66.13811167257634,50.1477423080311,3.306905583628817,0.7877188941451227,B,997.4581789865624,Correct,7,3,small,big,False,Value,left,left,882.018659991445,Correct
17,22,152,A,62.65795905787843,81.19289102015998,3.1328979528939214,1.2753749497632563,A,737.0523930003401,Correct,2,5,big,small,False,Value,right,right,1962.342618004186,Correct
17,22,153,A,40.915173596552755,71.50873314969057,2.045758679827638,1.123256553652904,A,640.0457290001214,Correct,5,6,big,small,False,Size,left,left,795.981656992808,Correct
17,22,154,A,13.133905127846404,35.87853803890061,0.6566952563923202,0.5635787576227606,A,848.8407440017909,Correct,6,7,big,small,False,Value,right,right,724.6361860015895,Correct
17,22,155,A,32.98224365509795,47.99750053012694,1.6491121827548978,0.7539429752805951,B,414.0927240077872,Incorrect,2,3,big,small,False,Value,right,right,730.2549379819538,Correct
17,22,156,A,34.778372156500886,52.1943674012871,1.7389186078250445,0.8198672059332507,A,855.2024610107765,Correct,7,2,big,small,True,Size,left,left,948.5583679925185,Correct
17,22,157,A,49.412422513427444,63.5379654775551,2.470621125671372,0.9980520278416449,A,687.4350050056819,Correct,8,3,small,big,False,Size,right,right,855.556729977252,Correct
17,22,158,A,37.89257972287791,59.692468505705726,1.8946289861438956,0.9376471026608261,A,620.9039599925745,Correct,5,2,big,small,True,Size,left,left,662.9421469988301,Correct
17,22,159,A,36.07676968484004,48.026984157272366,1.8038384842420019,0.7544061030128011,B,1105.1475510175806,Incorrect,7,5,small,big,False,Value,left,left,2215.7271729956847,Correct
17,22,160,A,24.103766808441907,35.97490119320209,1.2051883404220953,0.565092426510912,A,584.7135910007637,Correct,6,5,small,big,False,Value,left,left,882.3266859981231,Correct
17,22,161,A,17.932671894391305,35.15981644582942,0.8966335947195653,0.5522891052389165,A,611.839413002599,Correct,5,6,big,small,False,Size,left,left,446.6462330019567,Correct
17,22,162,B,72.08720252378176,54.215191781063055,3.6043601261890874,0.8516102410617472,B,689.8680270242039,Correct,4,5,big,small,False,Size,left,left,619.5534579746891,Correct
17,22,163,A,22.588694567058447,54.23397556801726,1.1294347283529222,0.8519052960972566,A,456.5902980102692,Correct,3,2,small,big,False,Size,right,right,544.736006995663,Correct
17,22,164,A,39.631927489931215,68.10992287781605,1.9815963744965608,1.0698681667475713,A,592.9413820267655,Correct,7,8,big,small,False,Size,left,left,749.9306859972421,Correct
17,22,165,B,41.84939113504302,22.349983818406685,2.092469556752151,0.351072724858786,B,524.6814189886209,Correct,7,4,big,small,True,Value,left,left,920.3133920091204,Correct
17,22,166,A,55.097993297953536,65.31523722133247,2.7548996648976765,1.0259693471100635,A,817.0012060145382,Correct,7,4,small,big,False,Size,right,right,268.98505800636485,Correct
17,22,167,B,76.7454170256163,45.97651212361568,3.837270851280815,0.7221973636261653,B,652.4292469839565,Correct,4,3,small,big,False,Size,right,right,645.7662229950074,Correct
17,22,168,A,29.636574130123094,43.740068409726234,1.4818287065061548,0.6870673879175547,A,543.1980660068803,Correct,7,5,small,big,False,Value,left,left,737.4587170197628,Correct
17,22,169,A,13.906561616974638,42.73645504921177,0.695328080848732,0.6713026661153706,A,613.4835420234594,Correct,7,6,small,big,False,Size,right,left,786.2282359856181,Incorrect
17,22,170,B,74.64334576538027,62.36284871134116,3.7321672882690136,0.9795933368424055,B,688.8264580047689,Correct,3,8,big,small,False,Value,right,right,782.1927230106667,Correct
17,22,171,B,49.67463580137979,40.03616178472737,2.4837317900689895,0.6288865587041598,B,521.1220720084384,Correct,4,8,big,small,False,Value,right,right,700.8714789990336,Correct
17,22,172,A,21.1696950947908,36.148865752224154,1.05848475473954,0.5678250554139553,B,890.4205980070401,Incorrect,4,7,big,small,False,Value,right,right,784.8231040115934,Correct
17,22,173,A,25.110270188777186,41.64608127573158,1.2555135094388592,0.6541751149332088,A,787.9749550193083,Correct,6,7,big,small,False,Value,right,right,856.2052939960267,Correct
17,22,174,B,74.3647512978856,58.08879508475303,3.7182375648942805,0.9124566594707149,B,551.1613239941653,Correct,7,4,big,small,True,Value,left,left,766.4644439937547,Correct
17,22,175,B,41.33469080039386,22.317599391844432,2.066734540019693,0.3505640314758925,B,601.9469950115308,Correct,7,4,big,small,True,Value,left,left,651.0693710006308,Correct
17,22,176,A,35.78187435189835,57.23871728526899,1.7890937175949175,0.8991036686215209,A,769.6277680224739,Correct,4,2,small,big,False,Size,right,right,639.9602090241387,Correct
17,22,177,B,52.29505454956884,40.85610318001671,2.614752727478442,0.6417661680232354,A,1138.93326302059,Incorrect,8,5,small,big,False,Value,left,left,738.4632520261221,Correct
17,22,178,A,58.109936761179455,75.53092955951396,2.905496838058973,1.186437067114886,A,536.4776109927334,Correct,6,5,small,big,False,Size,right,right,666.3597319857217,Correct
17,22,179,B,55.42289205758662,32.62791274627329,2.7711446028793314,0.5125180549283047,B,803.3879249996971,Correct,6,5,small,big,False,Value,left,left,759.4228950038087,Correct
17,22,180,A,17.79375010695704,39.51462525740045,0.8896875053478521,0.6206942820900149,A,618.8397029764019,Correct,8,7,small,big,False,Size,right,right,667.0808310154825,Correct
17,22,181,B,53.62189978849631,22.558716805513583,2.6810949894248153,0.3543514949530704,B,541.5464369871188,Correct,8,3,small,big,False,Value,left,left,1043.5327629966196,Correct
17,22,182,A,56.077715667198035,80.49974046753442,2.803885783359902,1.2644869663434555,A,598.4637279761955,Correct,3,8,big,small,False,Value,right,right,919.5928359986283,Correct
17,22,183,B,85.41937681980122,63.22537903015653,4.270968840990061,0.9931419314078497,B,672.9254760139156,Correct,2,7,big,small,False,Value,right,right,605.167297006119,Correct
17,22,184,A,46.90693454899347,56.290223032549946,2.3453467274496735,0.8842047557399495,A,557.6250379963312,Correct,8,6,small,big,False,Size,right,right,719.2948540032376,Correct
17,22,185,A,22.114072720667863,51.200281681861526,1.1057036360333932,0.8042521439673211,A,548.2328289945144,Correct,5,3,small,big,False,Size,right,right,607.928028999595,Correct
17,22,186,B,49.02279689315697,32.452729685510306,2.4511398446578485,0.5097662858446729,B,634.7370629955549,Correct,8,6,big,small,True,Size,left,left,546.6358429985121,Correct
17,22,187,A,48.75323652475742,64.16108994431585,2.437661826237871,1.007840044076883,A,599.53483499703,Correct,2,7,small,big,True,Value,right,right,590.602073003538,Correct
17,22,188,A,54.28279400066218,68.19612264173624,2.714139700033109,1.0712221894729357,A,705.836556997383,Correct,2,6,small,big,True,Value,right,left,844.6602750045713,Incorrect
17,22,189,A,13.008374957919163,32.950231439313995,0.6504187478959581,0.5175810251191614,A,534.1184460266959,Correct,8,5,small,big,False,Value,left,left,413.2096520042978,Correct
17,22,190,B,75.66390973502064,59.8401650407707,3.783195486751032,0.93996711440843,B,707.8113690076862,Correct,5,2,small,big,False,Value,left,left,744.8302500124555,Correct
17,22,191,B,60.53960538411124,31.700909491061424,3.0269802692055623,0.49795672184616757,B,550.5850619811099,Correct,3,6,small,big,True,Size,right,right,578.2019959879108,Correct
17,22,192,B,40.796509794073145,21.70161394270611,2.039825489703657,0.3408881546672367,B,423.7667670240626,Correct,4,7,big,small,False,Value,right,right,680.5364990141243,Correct
17,22,193,B,40.60050999593125,18.90293525180181,2.0300254997965625,0.2969266125917205,B,540.2279510162771,Correct,4,2,small,big,False,Value,left,left,692.1418130223174,Correct
17,22,194,B,51.56508525639702,41.76750592141178,2.5782542628198506,0.6560824488073772,B,697.159790986916,Correct,6,2,small,big,False,Size,right,right,747.7185530005954,Correct
17,22,195,A,29.088068992499203,53.55017722400102,1.45440344962496,0.8411642168267653,A,560.9678359760437,Correct,5,8,big,small,False,Value,right,right,680.8579830103554,Correct
17,22,196,B,40.15124252563355,29.655784735897168,2.0075621262816776,0.4658319773136743,B,593.5030120017473,Correct,4,7,big,small,False,Size,left,left,755.3261069988366,Correct
17,22,197,B,60.99016057202777,47.03517806352804,3.0495080286013883,0.7388268493233373,B,667.9182729858439,Correct,7,4,small,big,False,Size,right,right,574.2035979928914,Correct
17,22,198,A,43.981171253204934,70.39450247380739,2.199058562660247,1.1057542591241092,A,603.0254500219598,Correct,3,8,big,small,False,Size,left,left,577.8657739865594,Correct
17,22,199,A,61.710685054860946,71.18697768541827,3.0855342527430474,1.118202430638853,A,591.9543599884491,Correct,7,2,big,small,True,Size,left,left,821.2298940052278,Correct
17,22,200,A,44.51316461533626,76.36786706789637,2.225658230766813,1.1995836507541258,A,501.4651849924121,Correct,6,2,big,small,True,Size,left,left,509.00620498578064,Correct
17,22,201,B,60.217560313592465,50.565697241594016,3.0108780156796233,0.7942841148891873,B,830.7171350170393,Correct,7,3,small,big,False,Size,right,right,610.683306993451,Correct
17,22,202,A,64.5965449382259,77.2960087777609,3.229827246911295,1.214162866640129,A,586.9152469967958,Correct,2,3,big,small,False,Value,right,right,743.5498029808514,Correct
17,22,203,B,71.68784633979867,51.31509873451482,3.5843923169899337,0.8060556860129332,B,489.1953690093942,Correct,8,2,small,big,False,Size,right,right,950.5482029926497,Correct
17,22,204,A,55.456566978213594,67.9316670125848,2.77282834891068,1.0670681301642224,A,497.9716640082188,Correct,3,5,big,small,False,Value,right,right,1250.5271139962133,Correct
17,22,205,B,63.35801402609538,46.91177728680398,3.1679007013047693,0.7368884744553196,B,629.7944319958333,Correct,6,2,big,small,True,Value,left,left,821.320540009765,Correct
17,22,206,A,44.215143768920626,66.09164420652759,2.2107571884460313,1.0381651195144874,A,1399.9309049977455,Correct,8,7,small,big,False,Value,left,left,644.9297530052718,Correct
17,22,207,A,34.186415049536116,47.45682587657633,1.709320752476806,0.745450077682711,A,419.1904409963172,Correct,8,2,big,small,True,Value,left,left,835.1379689993337,Correct
17,22,208,B,64.98077678698574,52.10898654239065,3.2490388393492875,0.8185260465379194,B,866.9896179926582,Correct,8,7,small,big,False,Value,left,right,657.5384350144304,Incorrect
17,22,209,B,63.404321889917085,39.52318858402738,3.170216094495854,0.6208287945101221,B,623.1235800078139,Correct,8,7,big,small,True,Value,left,left,561.7288810026366,Correct
17,22,210,B,65.53775016303213,51.61696519862674,3.2768875081516065,0.8107973933430287,B,846.1472829803824,Correct,3,7,small,big,True,Size,right,right,587.4794579867739,Correct
17,22,211,B,71.92485953853488,45.09095963081825,3.5962429769267437,0.7082871375974628,B,457.7338620147202,Correct,3,7,big,small,False,Size,left,left,459.6612739842385,Correct
17,22,212,B,63.16485369547774,50.96786460675284,3.158242684773887,0.8006013450886696,B,522.281416982878,Correct,5,2,small,big,False,Size,right,right,695.0550510082394,Correct
17,22,213,B,81.78070745076965,56.51869204951789,4.089035372538483,0.8877935386663461,B,492.61673097498715,Correct,3,5,big,small,False,Value,right,right,749.8798040032852,Correct
17,22,214,B,55.51822163101039,24.80307337683044,2.77591108155052,0.3896057655354955,B,501.0634519858286,Correct,8,5,small,big,False,Size,right,right,398.6691459722351,Correct
17,22,215,A,41.445492023406715,72.33991825920151,2.0722746011703355,1.136312778821968,A,515.962314006174,Correct,6,3,big,small,True,Value,left,left,329.83200400485657,Correct
17,22,216,A,42.24914310919792,56.00806313516824,2.1124571554598957,0.8797725984361893,A,890.0939899904188,Correct,2,7,small,big,True,Size,right,right,577.361387986457,Correct
17,22,217,B,43.84989592646134,30.639630557570058,2.192494796323067,0.48128619134183714,B,610.2328400011174,Correct,4,3,small,big,False,Value,left,left,731.9773419876583,Correct
17,22,218,B,43.73108601289931,31.692828489071147,2.1865543006449655,0.4978297857637361,B,1116.6569300112315,Correct,5,2,small,big,False,Value,left,left,612.1120570169296,Correct
17,22,219,B,84.54550466074495,63.434664382962474,4.227275233037248,0.9964293780422452,B,525.710044981679,Correct,7,6,small,big,False,Size,right,right,640.5442410032265,Correct
17,22,220,B,57.58833063370718,35.1258995882115,2.879416531685359,0.55175634048529,B,514.8465450038202,Correct,6,5,small,big,False,Size,right,right,641.7945260182023,Correct
17,22,221,B,64.19744263097483,52.39239973508347,3.2098721315487415,0.8229778905583903,B,714.548651012592,Correct,7,8,big,small,False,Value,right,right,706.1974489770364,Correct
17,22,222,B,79.03009444039454,59.59582466584828,3.9515047220197266,0.9361290247742717,B,584.7993319912348,Correct,3,8,big,small,False,Value,right,right,1029.7533159900922,Correct
17,22,223,B,57.71415235209494,49.5587567310091,2.8857076176047474,0.7784671303359095,A,614.1018740017898,Incorrect,6,4,small,big,False,Value,left,left,667.1712390088942,Correct
17,22,224,B,75.37830250844986,58.93220931841556,3.768915125422493,0.9257049792727514,B,581.3037769985385,Correct,7,2,small,big,False,Value,left,left,801.5004670014605,Correct
17,22,225,A,21.426728318034133,36.2703897160355,1.0713364159017067,0.5697339493736795,A,517.6485760021023,Correct,7,5,small,big,False,Value,left,left,652.4231680086814,Correct
17,22,226,A,34.63712757754797,59.90507840040045,1.7318563788773986,0.9409867710770933,A,541.9458200049121,Correct,7,5,small,big,False,Size,right,right,1063.3400539809372,Correct
17,22,227,B,33.764027503056724,16.24067408522768,1.6882013751528362,0.25510791197748706,B,457.2783669864293,Correct,4,6,big,small,False,Value,right,right,1465.675983024994,Correct
17,22,228,B,42.68186379723632,16.69135978508272,2.1340931898618156,0.26218726639619994,B,970.7831620180514,Correct,3,5,big,small,False,Size,left,right,832.3262509948108,Incorrect
17,22,229,A,43.74645813596296,65.10303596000688,2.187322906798148,1.0226360974917486,A,688.9149250055198,Correct,3,7,big,small,False,Size,left,right,661.940178979421,Incorrect
17,22,230,B,56.581753596298356,30.549242358330986,2.829087679814918,0.4798663768283337,B,658.7877239799127,Correct,4,8,big,small,False,Size,left,left,1528.343778976705,Correct
17,22,231,B,77.55882295585127,54.880241784755555,3.8779411477925634,0.8620568220910982,B,567.3104430024978,Correct,7,5,small,big,False,Size,right,left,801.8651489983313,Incorrect
17,22,232,B,38.526779614849914,12.2844283948494,1.9263389807424958,0.19296334999404366,B,674.8496440122835,Correct,7,5,small,big,False,Value,left,left,996.3730279996525,Correct
17,22,233,B,49.83274887208901,34.96503062990842,2.491637443604451,0.549229416797312,B,765.4743430030067,Correct,5,7,big,small,False,Value,right,right,677.0666189840995,Correct
17,22,234,B,52.09709285429278,39.662346422410835,2.6048546427146393,0.6230146807238964,B,498.31932500819676,Correct,2,5,big,small,False,Value,right,right,597.2774149850011,Correct
17,22,235,A,11.065493121285467,32.170452772420646,0.5532746560642734,0.5053322904624705,A,590.243926999392,Correct,4,6,small,big,True,Size,right,right,609.2458329803776,Correct
17,22,236,A,13.33768012056726,35.54768610295832,0.666884006028363,0.5583817475658492,A,460.91176199843176,Correct,3,2,small,big,False,Size,right,right,620.8290649810806,Correct
17,22,237,B,54.8504580004576,42.13372069316765,2.7425229000228803,0.6618349369902987,B,627.2800129954703,Correct,4,5,big,small,False,Value,right,right,543.0583160195965,Correct
17,22,238,A,56.128641378098536,81.14006162773023,2.806432068904927,1.2745451076075018,A,628.566517989384,Correct,8,6,small,big,False,Size,right,left,1184.6783049986698,Incorrect
17,22,239,B,83.82623629605736,64.96744292364454,4.191311814802868,1.0205062070571793,B,617.8171760111582,Correct,5,7,big,small,False,Value,right,right,1058.3969879953656,Correct
17,22,240,A,24.550701895726583,41.505696111086166,1.227535094786329,0.6519699499235938,A,596.2531289842445,Correct,7,5,big,small,True,Size,left,left,1056.7269700113684,Correct
17,22,241,B,72.46790613018068,61.42765669575908,3.6233953065090336,0.964903375013163,B,1139.9538760015275,Correct,3,7,big,small,False,Size,left,left,1046.546561003197,Correct
17,22,242,B,77.52151507829029,56.940545762843215,3.8760757539145145,0.8944200012997084,B,600.0549610180315,Correct,6,2,big,small,True,Size,left,left,877.860515989596,Correct
17,22,243,B,31.440392881849675,17.890437455547396,1.5720196440924838,0.2810223343992769,B,781.0897379822563,Correct,6,4,small,big,False,Size,right,right,849.7122730186675,Correct
17,22,244,B,75.3560001360802,44.315506465012376,3.7678000068040096,0.6961063477529693,B,705.142748018261,Correct,7,8,big,small,False,Size,left,left,619.93668199284,Correct
17,22,245,B,36.831751407756244,14.094308220139077,1.8415875703878124,0.22139287580909578,B,521.8220349925105,Correct,6,3,small,big,False,Size,right,right,2059.4890500069596,Correct
17,22,246,A,23.683479047594105,56.09045709438833,1.1841739523797052,0.8810668397211193,A,663.1106680142693,Correct,2,5,big,small,False,Size,left,left,820.3484020195901,Correct
17,22,247,B,34.95392323824409,20.492025317665505,1.7476961619122044,0.32188798097577,B,571.700200001942,Correct,4,5,big,small,False,Value,right,right,607.9398959991522,Correct
17,22,248,B,65.76440725535421,53.17295548471618,3.288220362767711,0.8352388316022072,B,860.2912009810098,Correct,4,3,small,big,False,Value,left,left,603.1773099966813,Correct
17,22,249,A,49.81845737330044,73.00414016970305,2.490922868665022,1.146746352193893,A,822.9513549886178,Correct,5,7,big,small,False,Value,right,right,686.2329690193292,Correct
17,22,250,B,59.09708278032271,42.71192701230711,2.954854139016135,0.6709173806126373,B,584.8141419992317,Correct,2,5,small,big,True,Value,right,right,1318.310881004436,Correct
17,22,251,B,36.285443630613806,25.61848844877247,1.8142721815306901,0.4024142755336929,B,488.5212500230409,Correct,5,6,big,small,False,Value,right,right,498.8843660103157,Correct
17,22,252,B,56.95729963497457,31.350239158025886,2.8478649817487285,0.49244840513568594,B,482.65831198659725,Correct,4,6,small,big,True,Size,right,right,388.6784969945438,Correct
17,22,253,A,15.786140356009984,32.97301462810769,0.7893070178004992,0.5179389026118595,A,541.1077569879126,Correct,5,8,big,small,False,Value,right,right,757.8478879877366,Correct
17,22,254,B,35.72458463461974,11.782193106580344,1.786229231730987,0.18507425653404555,B,606.7924069939181,Correct,6,4,small,big,False,Size,right,right,373.81932299467735,Correct
17,22,255,B,63.920394779821855,50.553700173008224,3.196019738991093,0.7940956653765184,B,726.9542870053556,Correct,7,5,small,big,False,Size,right,right,1212.8182660089806,Correct
17,22,256,A,54.85782745685996,64.41274951552609,2.742891372842998,1.0117931033774814,A,724.1751440160442,Correct,5,2,small,big,False,Size,right,right,827.4288600077853,Correct
17,22,257,A,37.1649682318604,49.181987564359844,1.85824841159302,0.7725488541056873,A,587.8598120179959,Correct,3,5,big,small,False,Value,right,right,907.0447800040711,Correct
17,22,258,A,49.761805282794654,79.05748604239263,2.488090264139733,1.2418320868102912,A,485.10925797745585,Correct,2,8,big,small,False,Value,right,right,609.8114630149212,Correct
17,22,259,B,46.33612858142122,32.768611408244645,2.316806429071061,0.5147281443424003,B,546.1148119939025,Correct,5,4,big,small,True,Size,left,left,766.3814699917566,Correct
17,22,260,B,70.73684638487558,45.34160255063554,3.5368423192437786,0.7122242273753242,B,801.59177898895,Correct,2,7,big,small,False,Size,left,left,448.632092011394,Correct
17,22,261,A,20.773878737934368,37.34421464371033,1.0386939368967183,0.5866015518938038,A,581.2429199868347,Correct,7,5,big,small,True,Value,left,left,744.774338993011,Correct
17,22,262,A,42.60850257579392,52.669494424598746,2.130425128789696,0.82733048376304,A,424.5451629976742,Correct,6,3,small,big,False,Size,right,right,378.44110999139957,Correct
17,22,263,A,62.08829917610264,79.39832727941891,3.1044149588051315,1.2471860084417026,A,453.4496270061936,Correct,2,4,big,small,False,Size,left,left,514.3046469893306,Correct
17,22,264,A,17.814892957775573,43.10503068050085,0.8907446478887786,0.6770922385931206,A,485.59322601067834,Correct,5,6,big,small,False,Size,left,left,820.8149170095567,Correct
17,22,265,A,34.857821056672314,64.84168835969179,1.742891052833616,1.0185308589858328,A,517.7130920055788,Correct,4,8,big,small,False,Size,left,right,336.00396997644566,Incorrect
17,22,266,A,35.704829555475115,62.31324104841856,1.7852414777737555,0.9788141014954085,A,467.03470300417393,Correct,5,3,small,big,False,Size,right,right,369.97035701642744,Correct
17,22,267,A,68.3999303025239,84.53821792585944,3.419996515126195,1.327923221917265,A,634.3840130139142,Correct,7,4,small,big,False,Value,left,left,1012.2757159988396,Correct
17,22,268,A,55.19401865412742,68.93697127177296,2.7597009327063713,1.0828594125406628,A,528.4285040106624,Correct,2,7,big,small,False,Value,right,right,626.3935059832875,Correct
17,22,269,A,42.085508247036536,58.96666495774094,2.104275412351827,0.9262462071896481,B,723.4028109814972,Incorrect,5,8,big,small,False,Size,left,left,723.5938589728903,Correct
17,22,270,A,36.96462350788522,55.583309350111406,1.848231175394261,0.8731005815825943,A,611.310175008839,Correct,3,7,big,small,False,Size,left,left,732.8737789939623,Correct
17,22,271,A,58.80530432228841,66.83810551317352,2.9402652161144203,1.0498905063002268,B,723.447677999502,Incorrect,7,4,small,big,False,Value,left,left,865.4982059961185,Correct
17,22,272,A,14.770709803118908,43.274467332458656,0.7385354901559453,0.6797537432983181,A,468.08489999966696,Correct,2,3,big,small,False,Size,left,left,633.8092169899028,Correct
17,22,273,A,46.91671475266962,74.85667041759432,2.345835737633481,1.1758458292805332,A,539.8414309893269,Correct,4,6,big,small,False,Value,right,right,732.9144980176352,Correct
17,22,274,A,38.221876552875266,67.15004187684777,1.9110938276437635,1.0547903912427594,A,401.2503550038673,Correct,4,6,big,small,False,Value,right,right,692.208587017376,Correct
17,22,275,A,51.3345536508109,58.52474827175421,2.566727682540545,0.9193045961186749,A,429.09273301484063,Correct,6,3,small,big,False,Value,left,left,628.2897630007938,Correct
17,22,276,A,50.72923606132357,58.63012781537016,2.5364618030661785,0.9209598941189874,A,409.0366429882124,Correct,2,8,big,small,False,Value,right,right,1694.3958650226705,Correct
17,22,277,A,53.644897694288005,64.33383491486285,2.6822448847144007,1.0105535157289582,A,687.295088020619,Correct,5,4,small,big,False,Value,left,left,924.373077985365,Correct
17,22,278,A,22.302885130616804,40.666950946518135,1.1151442565308403,0.6387949716873893,A,479.3095490022097,Correct,5,7,small,big,True,Value,right,right,728.5735320183448,Correct
17,22,279,B,40.53500904157767,24.059496857786826,2.0267504520788835,0.37792569288744904,B,895.721593988128,Correct,6,3,small,big,False,Size,right,left,479.50800202670507,Incorrect
17,22,280,B,70.77640331531434,37.651725006127705,3.538820165765717,0.5914319133711695,B,454.46896099019796,Correct,8,3,small,big,False,Value,left,left,643.8313740072772,Correct
17,22,281,B,68.81148357832163,48.321029444192455,3.4405741789160813,0.7590249555788555,B,978.8571409881115,Correct,8,5,small,big,False,Size,right,right,862.7186999947298,Correct
17,22,282,A,31.065976624344735,59.546768147863204,1.5532988312172367,0.9353584467917088,A,477.99945098813623,Correct,5,3,small,big,False,Value,left,left,486.84447901905514,Correct
17,22,283,B,55.17796603341579,28.801748427494626,2.7588983016707895,0.4524168063517925,B,538.7281110160984,Correct,8,7,small,big,False,Value,left,left,685.3120930027217,Correct
17,22,284,A,46.80032129318282,63.091671463227634,2.340016064659141,0.9910416578578836,A,614.8627200163901,Correct,5,4,small,big,False,Size,right,right,878.4380750148557,Correct
17,22,285,A,38.81456549177924,54.27244015933081,1.940728274588962,0.8525094964847268,A,432.4935579788871,Correct,6,5,small,big,False,Value,left,left,709.2585230129771,Correct
17,22,286,B,33.835517231466504,18.106669515428827,1.6917758615733252,0.28441889965324735,A,663.0964229989331,Incorrect,4,5,small,big,True,Value,right,right,972.8792699752375,Correct
17,22,287,B,68.4139780841939,55.88182603826778,3.420698904209695,0.8777896707550243,B,653.6878879996948,Correct,4,8,small,big,True,Size,right,right,599.542626994662,Correct
17,22,288,A,62.72874693419663,77.9311184791428,3.1364373467098314,1.224139146500554,A,574.2081769858487,Correct,7,5,small,big,False,Size,right,right,461.2579600070603,Correct
17,22,289,B,60.74964739656406,29.487669293720003,3.037482369828203,0.4631912261231805,B,531.7249840009026,Correct,7,4,small,big,False,Size,right,right,870.9203520265874,Correct
17,22,290,B,31.799728055687233,18.293750197509663,1.5899864027843618,0.2873575561355159,B,506.0918499948457,Correct,2,3,big,small,False,Value,right,right,734.0483580192085,Correct
17,22,291,A,50.57011957883372,74.72731888640894,2.528505978941686,1.1738139801800207,A,571.5909940190613,Correct,3,6,big,small,False,Size,left,right,907.96268399572,Incorrect
17,22,292,A,54.096553584811424,72.93265264378184,2.704827679240571,1.1456234287626061,A,666.5051759919152,Correct,5,3,small,big,False,Value,left,left,1294.971221999731,Correct
17,22,293,B,64.31777705581479,47.54746708928581,3.215888852790739,0.7468738665225139,B,983.9228900091257,Correct,7,4,small,big,False,Size,right,right,918.9454260049388,Correct
17,22,294,A,55.063958612348785,77.6879838000614,2.753197930617439,1.220319995892379,A,683.0803350021597,Correct,3,5,small,big,True,Value,right,right,955.3293619828764,Correct
17,22,295,A,58.973636215352315,74.63838156268532,2.948681810767616,1.1724169559658206,A,660.2159470203333,Correct,2,6,small,big,True,Value,right,right,698.4960499976296,Correct
17,22,296,B,53.051809546479156,38.20427399556807,2.652590477323958,0.6001113326010412,B,499.03922399971634,Correct,2,7,big,small,False,Value,right,right,1492.792367003858,Correct
17,22,297,A,17.320596538124377,37.08960253894844,0.8660298269062189,0.5826021143046288,A,583.2444760017097,Correct,6,8,big,small,False,Size,left,right,794.6069129975513,Incorrect
17,22,298,B,83.74873922322831,69.2422527399098,4.187436961161415,1.0876547626285418,B,563.184597005602,Correct,4,7,big,small,False,Value,right,right,2338.3257419918664,Correct
17,22,299,B,76.48526335337402,60.057918697382576,3.8242631676687013,0.9433875808479508,B,1450.9064999874681,Correct,3,2,small,big,False,Size,right,left,755.9563179966062,Incorrect
17,22,300,B,75.08154682180805,49.17639391538924,3.7540773410904023,0.7724609892731232,B,532.3424139933195,Correct,7,4,small,big,False,Size,right,left,718.8955890014768,Incorrect
17,22,301,A,65.54268333923952,83.05995898540203,3.2771341669619756,1.3047027847800428,A,616.672494012164,Correct,8,4,big,small,True,Value,left,left,999.8806990042794,Correct
17,22,302,B,66.18281420009518,35.74296726702239,3.309140710004759,0.56144921691789,B,617.8277099970728,Correct,8,5,small,big,False,Size,right,left,1167.5909949990455,Incorrect
17,22,303,A,15.330455631715708,35.344474251902525,0.7665227815857854,0.5551897032738529,A,664.8870359931607,Correct,5,8,big,small,False,Value,right,right,886.3100379821844,Correct
17,22,304,A,47.54534674616154,57.9730804112399,2.3772673373080773,0.910639017629608,A,1528.185303992359,Correct,4,5,small,big,True,Size,right,right,639.2121439857874,Correct
17,22,305,B,88.36397423239774,68.701975063036,4.418198711619887,1.0791681007257155,B,723.3205160009675,Correct,4,8,big,small,False,Value,right,right,503.027642989764,Correct
17,22,306,B,75.2108783151771,58.72361922231691,3.7605439157588547,0.9224284537051757,B,483.2966680114623,Correct,6,3,big,small,True,Size,left,left,741.8757260020357,Correct
17,22,307,B,60.01575260236602,51.56906292886042,3.0007876301183014,0.8100449462490881,B,517.6267749920953,Correct,2,5,big,small,False,Size,left,left,814.1010979888961,Correct
17,22,308,A,60.367196741372894,82.67174667694793,3.0183598370686444,1.29860476009868,A,582.034705003025,Correct,8,7,small,big,False,Value,left,left,515.7733649830334,Correct
17,22,309,B,75.95007585273851,44.90933248037644,3.7975037926369253,0.7054341449898606,B,479.7260730119888,Correct,7,5,small,big,False,Size,right,right,618.2593230041675,Correct
17,22,310,B,65.02995279470403,53.55543798500624,3.251497639735202,0.8412468526673968,B,471.3456729950849,Correct,8,5,small,big,False,Value,left,left,708.107734011719,Correct
17,22,311,B,60.85622032585834,53.05054739288835,3.042811016292917,0.833316049792076,B,759.857472992735,Correct,7,4,small,big,False,Size,right,right,1241.0709630057681,Correct
17,22,312,B,71.97550422091255,46.050750203928345,3.598775211045628,0.7233634926647999,B,735.3161509963684,Correct,6,3,small,big,False,Size,right,right,732.315192988608,Correct
17,22,313,B,58.24382414094643,29.106381162974166,2.912191207047322,0.45720196617091996,B,632.0428590115625,Correct,2,7,big,small,False,Size,left,left,1701.0899899760261,Correct
17,22,314,A,14.047236757216947,37.955924611166736,0.7023618378608474,0.5962102695932472,A,623.1924390012864,Correct,5,3,small,big,False,Value,left,left,1547.284516011132,Correct
17,22,315,B,57.917677443875114,35.550289048375916,2.895883872193756,0.5584226345368573,B,678.4244720183779,Correct,8,4,big,small,True,Value,left,left,956.5892859827727,Correct
17,22,316,B,51.36824113092601,33.56350323792569,2.5684120565463,0.5272142760050229,B,489.50595199130476,Correct,2,3,big,small,False,Value,right,right,564.3828180036508,Correct
17,22,317,A,30.713456732474754,57.47284759484963,1.5356728366237378,0.9027813789243271,A,577.4235310091171,Correct,8,2,small,big,False,Value,left,left,582.2461640054826,Correct
17,22,318,A,68.60497536277927,83.66868954801285,3.4302487681389637,1.3142647020976115,A,601.7490130034275,Correct,5,6,big,small,False,Value,right,right,478.3182230021339,Correct
17,22,319,A,60.14200909295832,71.45026839696258,3.007100454647916,1.1223381914645831,A,491.32972297957167,Correct,2,4,small,big,True,Size,right,right,685.9439740073867,Correct
17,22,320,A,27.404806178633244,48.13417246856862,1.3702403089316622,0.7560898130693963,A,841.6253859759308,Correct,8,2,small,big,False,Value,left,left,1032.4614149867557,Correct
17,22,321,B,85.99712170208515,64.92609540477707,4.299856085104258,1.0198567217495884,B,571.8116259959061,Correct,2,4,big,small,False,Size,left,right,1703.4860069979914,Incorrect
17,22,322,A,25.772341146310467,43.69525529642257,1.2886170573155231,0.6863634651798581,A,637.2746189881582,Correct,6,5,small,big,False,Size,right,right,812.0691110088956,Correct
17,22,323,B,67.81295728016131,40.212223882102364,3.3906478640080655,0.631652135662604,B,571.6713769943453,Correct,8,2,big,small,True,Size,left,left,716.1883120134007,Correct
17,22,324,B,58.74150584323281,38.76453153231097,2.9370752921616408,0.6089118374087902,B,605.657487991266,Correct,3,4,small,big,True,Value,right,right,800.3443509805948,Correct
17,22,325,A,46.72417017739414,68.07168533428106,2.3362085088697073,1.0692675328182673,A,761.4162349782418,Correct,3,5,big,small,False,Size,left,left,1387.708869006019,Correct
17,22,326,B,42.99949715430034,32.0830738722805,2.149974857715017,0.5039597459086753,B,689.0075459959917,Correct,4,7,big,small,False,Size,left,left,704.4245729921386,Correct
17,22,327,B,70.77609880245383,57.94696254616902,3.5388049401226915,0.9102287591644375,B,604.4021879788488,Correct,5,7,small,big,True,Size,right,right,567.1191120054573,Correct
17,22,328,A,34.62297370998909,55.5481094468833,1.7311486854994544,0.8725476627956519,A,508.2635279977694,Correct,4,6,small,big,True,Size,right,right,763.0882899975404,Correct
17,22,329,B,43.32139044870488,30.118428224234798,2.166069522435244,0.47309916423463755,B,592.0128380239476,Correct,8,5,small,big,False,Value,left,left,420.2038869843818,Correct
17,22,330,B,85.13288493353743,60.95143504042851,4.2566442466768715,0.9574229027438285,B,578.9411540026776,Correct,7,6,small,big,False,Size,right,right,488.14647301333025,Correct
