subject,day,trial,cat,x,y,xt,yt,resp,rt,fb,resp_key
17,24,0,A,22.45792255007355,51.705179507106,1.1228961275036775,0.8121830604603287,A,813.7124440108892,Correct,k
17,24,1,A,24.02042674793701,34.71528660712346,1.2010213373968504,0.5453064468610159,A,581.1192940163892,Correct,k
17,24,2,A,49.661704310425364,58.0418356517016,2.4830852155212684,0.9117190224212594,B,725.4957839904819,Incorrect,d
17,24,3,B,67.31280924553035,50.64955796035766,3.365640462276517,0.7956013959791502,B,1095.6949419924058,Correct,d
17,24,4,B,40.64827238339467,21.30733267322395,2.0324136191697333,0.3346947989689707,B,950.5027889972553,Correct,d
17,24,5,A,38.927305710364934,50.77658537289837,1.9463652855182465,0.7975967379093623,A,636.0566789808217,Correct,k
17,24,6,B,53.37999932615669,27.238456310259146,2.6689999663078345,0.4278606711971834,B,1098.1496480235364,Correct,d
17,24,7,A,30.24395821584362,53.784566462309996,1.512197910792181,0.8448459943725253,A,626.945230003912,Correct,k
17,24,8,B,43.229226119604505,25.963136697063234,2.1614613059802252,0.40782799755820703,B,621.2854160112329,Correct,d
17,24,9,A,36.30466090820434,47.0984233993017,1.815233045410217,0.7398203047345391,A,515.2073850040324,Correct,k
17,24,10,B,44.79330742949254,16.15203677573906,2.239665371474627,0.25371560037586993,B,658.8580020179506,Correct,d
17,24,11,A,57.1019951922076,73.58710245437554,2.8550997596103804,1.1559035023481283,A,630.9951419825666,Correct,k
17,24,12,A,41.70402622675516,73.29438885150752,2.085201311337758,1.1513055678262483,A,833.2527040038258,Correct,k
17,24,13,A,57.38628651670989,70.57384290236138,2.8693143258354947,1.1085713319882933,A,536.7448999895714,Correct,k
17,24,14,A,60.281452205075325,71.95101833668005,3.0140726102537663,1.1302039531240926,A,521.3038710062392,Correct,k
17,24,15,A,32.715010355114515,65.86396489412546,1.6357505177557257,1.034588741238403,B,577.1162830060348,Incorrect,d
17,24,16,B,63.27300884144621,39.07215624682907,3.1636504420723104,0.6137439951247537,B,616.0689689859282,Correct,d
17,24,17,B,52.27672613899615,29.886907510871076,2.6138363069498074,0.4694624453733509,B,1254.4267320190556,Correct,d
17,24,18,B,46.91821394910029,37.81921600443085,2.3459106974550146,0.5940628558202274,B,3965.512896014843,Correct,d
17,24,19,B,67.82030587486673,40.0732539458434,3.3910152937433367,0.629469201008499,B,890.8025340060703,Correct,d
17,24,20,B,64.00038306605863,53.8134281939121,3.200019153302932,0.8452993533923805,B,719.55061799963,Correct,d
17,24,21,B,64.94643778255794,39.23560792071312,3.247321889127897,0.6163114880142092,B,576.3056850119028,Correct,d
17,24,22,B,59.946176636906934,39.11678310431598,2.9973088318453467,0.6144449921629221,B,610.2010090253316,Correct,d
17,24,23,B,59.82817964471894,27.189905249202944,2.9914089822359466,0.4270980329134926,B,1106.248437979957,Correct,d
17,24,24,B,60.788872721519006,35.80336083753097,3.0394436360759505,0.5623978769050589,B,821.3515129755251,Correct,d
17,24,25,B,78.39939918562149,53.8621723359076,3.9199699592810746,0.8460650245843735,B,464.2624639964197,Correct,d
17,24,26,A,65.45128737591173,78.58481820527194,3.272564368795587,1.2344074377868586,B,472.976844990626,Incorrect,d
17,24,27,B,46.99486379701526,27.22758560091295,2.3497431898507632,0.42768991449407684,B,710.5638129869476,Correct,d
17,24,28,A,40.094276265977335,52.645722651980705,2.0047138132988667,0.8269570776319417,A,865.9005890076514,Correct,k
17,24,29,A,48.12894840743485,60.847690602910845,2.4064474203717423,0.955793288930047,A,913.4253609809093,Correct,k
17,24,30,B,79.73456018337708,58.361648004352915,3.9867280091688544,0.9167426231093425,B,603.1066499999724,Correct,d
17,24,31,A,27.44586098995987,45.87420636070979,1.3722930494979935,0.7205903484603401,A,780.0969090021681,Correct,k
17,24,32,A,44.148969682110206,51.71333553942313,2.20744848410551,0.8123111751163783,B,1463.6796249833424,Incorrect,d
17,24,33,B,58.05537789434005,42.43239771910807,2.9027688947170027,0.666526544742751,B,1087.671865010634,Correct,d
17,24,34,A,32.963582527446384,62.330542097498004,1.6481791263723193,0.9790858657388454,A,938.1023749883752,Correct,k
17,24,35,A,61.047055808272106,77.4853083731737,3.052352790413605,1.217136377731511,B,935.6879249971826,Incorrect,d
17,24,36,B,68.44420640037515,47.19977857262077,3.4222103200187575,0.7414123880740519,B,691.036834003171,Correct,d
17,24,37,A,17.84385166188533,47.68275704966936,0.8921925830942666,0.7489989962507408,B,600.0701840093825,Incorrect,d
17,24,38,A,37.90566351123519,65.29585865274207,1.8952831755617594,1.02566494926646,A,1052.6897349918727,Correct,k
17,24,39,A,59.48824403636771,68.02784898911295,2.9744122018183856,1.0685789531185654,B,640.292608004529,Incorrect,d
17,24,40,B,69.55269962948255,43.394000408253646,3.4776349814741274,0.6816313644622107,B,686.7845339875203,Correct,d
17,24,41,B,43.88955321027034,34.41647824260643,2.1944776605135172,0.5406127760470265,B,885.3861120005604,Correct,d
17,24,42,A,56.671220125566435,73.31595459550168,2.833561006278322,1.1516443217407544,A,742.9813329945318,Correct,k
17,24,43,A,66.04669968859348,89.14914540791557,3.302334984429674,1.400351501436579,A,800.2176659938414,Correct,k
17,24,44,A,32.23130349156066,50.8000224048882,1.6115651745780328,0.7979648859469685,A,994.292069983203,Correct,k
17,24,45,B,63.64342382446122,44.671968155052525,3.1821711912230612,0.701705634886551,B,817.968176008435,Correct,d
17,24,46,B,79.84746304663126,65.10095411257518,3.992373152331563,1.0226033959087621,B,1048.2733629760332,Correct,d
17,24,47,B,30.262281860626413,14.213783567070244,1.5131140930313205,0.22326959017011605,A,885.3915820072871,Incorrect,k
17,24,48,B,51.29080159867958,28.714554228746557,2.564540079933979,0.45104716308067955,B,740.3615440125577,Correct,d
17,24,49,A,38.23038080150636,68.29688798924185,1.911519040075318,1.072805007850236,A,1214.04896499007,Correct,k
17,24,50,B,65.45265495117567,43.75250098146957,3.2726327475587835,0.687262678297825,B,643.1652909959666,Correct,d
17,24,51,B,68.42401039000876,49.99768066323397,3.4212005195004385,0.7853617313407214,B,809.1293539910112,Correct,d
17,24,52,B,58.476019366734064,30.02418778242939,2.923800968336703,0.47161883883640293,B,720.4558310040738,Correct,d
17,24,53,B,41.77042421040903,20.193745425877225,2.088521210520452,0.31720261139199185,B,679.2416159878485,Correct,d
17,24,54,A,27.101808819149763,37.5239882643353,1.355090440957488,0.589425429323127,A,1174.701461015502,Correct,k
17,24,55,B,66.5207345409866,51.73967000968312,3.32603672704933,0.8127248360079032,B,620.8791969984304,Correct,d
17,24,56,B,67.00902568198134,47.2513759557046,3.3504512840990675,0.7422228778722547,B,656.0536129982211,Correct,d
17,24,57,B,35.6710454423004,12.990183870776399,1.7835522721150199,0.20404933108605874,B,720.4335459973663,Correct,d
17,24,58,B,47.479494611772154,18.891941792813913,2.373974730588608,0.29675392774175086,B,908.0440860125236,Correct,d
17,24,59,A,38.710460936424745,59.864335453607595,1.9355230468212372,0.940346782365443,A,781.8821890105028,Correct,k
17,24,60,A,21.875995570231964,35.0569959066856,1.0937997785115983,0.5506740039868546,A,822.9051549860742,Correct,k
17,24,61,B,48.521268083279864,32.018747934048214,2.426063404163993,0.5029493164337461,A,2087.0054549886845,Incorrect,k
17,24,62,A,20.76337351980027,46.127565553715634,1.0381686759900135,0.7245701053576732,A,833.0381969863083,Correct,k
17,24,63,A,53.003061028018166,75.72698268641703,2.6501530514009084,1.189516662430846,A,1057.5733850128017,Correct,k
17,24,64,B,86.90663191776054,65.79450473845046,4.345331595888027,1.033497663664474,B,1116.9353229925036,Correct,d
17,24,65,A,34.13994345861771,56.50200294134066,1.7069971729308855,0.8875313867681235,A,709.5758140203543,Correct,k
17,24,66,B,61.66236174251283,45.630923460501236,3.083118087125641,0.7167688696001441,B,719.703959999606,Correct,d
17,24,67,A,19.596226513627805,39.18880554434607,0.9798113256813903,0.6155763180053828,A,934.5966179971583,Correct,k
17,24,68,A,39.05790395311584,63.672463181334386,1.952895197655792,1.0001647128322335,B,536.6065059788525,Incorrect,d
17,24,69,A,43.098765251545224,66.03574374533198,2.1549382625772613,1.0372870371233653,A,969.280579010956,Correct,k
17,24,70,A,24.145106020338158,36.80891673941987,1.207255301016908,0.5781931120757992,B,1239.8499020200688,Incorrect,d
17,24,71,A,33.466244181030945,58.51147143611408,1.6733122090515473,0.9190960440721251,A,1718.4725459956098,Correct,k
17,24,72,B,74.20654393380843,52.3044423179359,3.710327196690422,0.8215962586806925,B,668.2129929831717,Correct,d
17,24,73,A,50.69246061565407,62.60132271439949,2.5346230307827033,0.9833392777228064,A,1301.8280109972693,Correct,k
17,24,74,B,69.2865764727659,42.754876094746244,3.464328823638295,0.6715920232219834,B,1335.8383259910624,Correct,d
17,24,75,B,46.778896134186205,39.66883933712909,2.33894480670931,0.6231166711897927,B,1197.294484009035,Correct,d
17,24,76,A,45.39540047054828,77.2529775991575,2.269770023527414,1.2134869344672505,A,1188.6737770109903,Correct,k
17,24,77,A,53.78640230297952,83.72318742260539,2.6893201151489756,1.3151207527098925,A,1076.45121900714,Correct,k
17,24,78,B,45.443619558356204,37.437295880830646,2.2721809779178104,0.5880636685474249,B,896.1343039991334,Correct,d
17,24,79,A,25.633901503746806,36.458926570783966,1.2816950751873404,0.572695479362723,A,1371.9538550067227,Correct,k
17,24,80,B,52.911178281976134,41.19252277024465,2.645558914098807,0.6470506345891543,B,1109.604572004173,Correct,d
17,24,81,A,41.14443204675799,62.45795560689196,2.0572216023378997,0.981087272464246,A,1027.4452770245261,Correct,k
17,24,82,A,44.842078256180045,66.47761560822842,2.2421039128090023,1.044227944114883,A,1906.2207370006945,Correct,k
17,24,83,B,32.34782474045395,12.951057013304041,1.6173912370226975,0.2034347278460927,A,1122.150261013303,Incorrect,k
17,24,84,B,63.13736597067567,31.60060734634138,3.1568682985337837,0.49638117944120863,B,1457.7173800207675,Correct,d
17,24,85,B,54.20790545442548,46.57069348964132,2.7103952727212737,0.731530742698196,B,714.0010099974461,Correct,d
17,24,86,A,39.06159832346663,66.5729279996501,1.9530799161733317,1.045725107658315,A,804.44570700638,Correct,k
17,24,87,A,38.45219153602584,68.77727978820707,1.9226095768012923,1.0803509845826054,B,830.4734839766752,Incorrect,d
17,24,88,A,33.98850351966646,56.0165726091519,1.699425175983323,0.8799062649409541,A,1222.806451987708,Correct,k
17,24,89,B,69.85197145661769,56.59948754328218,3.492598572830884,0.8890626713146115,B,768.1618059868924,Correct,d
17,24,90,B,69.41405375105084,45.302430760036714,3.470702687552542,0.711608918327458,A,993.4304429916665,Incorrect,k
17,24,91,B,34.04710189364278,19.97862474779775,1.702355094682139,0.3138235036825432,B,1903.4748210106045,Correct,d
17,24,92,B,50.310771195019825,32.789019163291016,2.515538559750991,0.5150487086090499,B,1079.077361006057,Correct,d
17,24,93,A,55.02097265376118,67.64950793993458,2.751048632688059,1.0626359858153143,A,1159.6775779908057,Correct,k
17,24,94,B,71.00315798069136,59.42572842235599,3.5501578990345677,0.9334571592294787,A,3202.2148369869683,Incorrect,k
17,24,95,A,20.948403627617704,51.15493187395738,1.0474201813808852,0.8035397908505543,A,1363.9723369851708,Correct,k
17,24,96,B,52.35884948424554,27.17012762351513,2.6179424742122768,0.42678736669566114,B,916.6545429907274,Correct,d
17,24,97,B,62.06545790851616,52.20137826641547,3.1032728954258078,0.8199773323451636,B,725.8958970196545,Correct,d
17,24,98,B,58.96331939558757,37.101720197437984,2.948165969779378,0.582792458039076,B,874.6847750153393,Correct,d
17,24,99,B,61.970184033915785,40.069262760370144,3.098509201695789,0.6294065076136895,B,643.6704920197371,Correct,d
17,24,100,A,11.562141470855032,37.22039121322125,0.5781070735427516,0.5846565379959697,A,652.0185289846268,Correct,k
17,24,101,B,55.90867515690377,26.347542343839137,2.7954337578451884,0.41386622733775513,B,845.7758800068405,Correct,d
17,24,102,A,32.74198107400852,48.85637452193458,1.637099053700426,0.7674341363957061,B,951.4166330045555,Incorrect,d
17,24,103,A,34.716701138966,62.703387647179206,1.7358350569483003,0.9849425099378559,A,716.0978910105769,Correct,k
17,24,104,B,56.71455434238057,42.84749452464722,2.835727717119029,0.6730468701168029,B,879.0579009801149,Correct,d
17,24,105,B,67.95028235119852,39.38596958854755,3.3975141175599264,0.61867336356946,B,1420.592120004585,Correct,d
17,24,106,B,71.77059818738242,50.00605028103225,3.5885299093691208,0.7854932009896637,B,1069.945094990544,Correct,d
17,24,107,A,33.1412807174689,62.6614972193847,1.6570640358734452,0.9842844966367811,A,1311.4371599804144,Correct,k
17,24,108,A,51.65220192655036,59.7823606955034,2.582610096327518,0.9390591258762435,B,428.62555300234817,Incorrect,d
17,24,109,A,20.273326195666645,50.88887258183091,1.0136663097833323,0.799360541262735,A,1004.4525690027513,Correct,k
17,24,110,A,23.331567951247397,37.33862601675769,1.1665783975623698,0.5865137659469135,A,726.2703070009593,Correct,k
17,24,111,B,34.74908667242235,20.820270977971976,1.7374543336211175,0.32704405175072765,B,690.4438009951264,Correct,d
17,24,112,A,15.632124987571885,41.93897780760817,0.7816062493785942,0.6587759228972359,A,1036.7291369766463,Correct,k
17,24,113,B,89.22366410495454,66.53888144929135,4.4611832052477265,1.0451903056958793,B,825.0271849974524,Correct,d
17,24,114,A,65.72538916808931,83.8950240211251,3.2862694584044654,1.3178199556875292,A,1345.0610029976815,Correct,k
17,24,115,B,44.71123627656348,25.758845667077725,2.2355618138281743,0.4046190015632233,B,824.7755449847318,Correct,d
17,24,116,B,76.62556599028102,46.323940052401646,3.831278299514051,0.727654748769795,B,1026.332832989283,Correct,d
17,24,117,B,61.76502504457236,35.22187584396887,3.088251252228618,0.553263931985322,A,943.1297139963135,Incorrect,k
17,24,118,B,58.73287654584563,48.21680960277418,2.936643827292281,0.7573878741380656,B,619.8786929890048,Correct,d
17,24,119,B,66.18294445510905,50.31763971669889,3.3091472227554526,0.7903876363997964,B,1035.645558993565,Correct,d
17,24,120,B,58.339408974612496,26.501928814994024,2.916970448730625,0.4162913243557244,B,1504.9185810203198,Correct,d
17,24,121,B,41.58804833427314,31.6542421001109,2.079402416713657,0.49722367218330576,B,1188.2295420218725,Correct,d
17,24,122,B,47.89887750661516,32.47220183259003,2.3949438753307577,0.5100721536157493,B,1000.5803199892398,Correct,d
17,24,123,A,17.78147285723782,43.436825460956335,0.889073642861891,0.6823040588170125,B,1043.1620699819177,Incorrect,d
17,24,124,A,44.018459133696936,50.804640547790385,2.2009229566848467,0.798037427566042,B,671.7935820051935,Incorrect,d
17,24,125,A,58.13223460144228,84.73935677768645,2.906611730072114,1.331082703613521,A,1872.296814020956,Correct,k
17,24,126,A,53.638415629349794,71.57605413950283,2.6819207814674892,1.1243140292880367,A,1703.8337779813446,Correct,k
17,24,127,B,60.677498319387986,44.207883571795506,3.0338749159693994,0.6944158112995283,B,791.2197039986495,Correct,d
17,24,128,B,30.800685887825306,14.454096917198779,1.5400342943912653,0.22704442344673276,B,801.9446590042207,Correct,d
17,24,129,A,37.461686455052146,52.98998306920869,1.873084322752607,0.8323647076203678,B,989.0891829854809,Incorrect,d
17,24,130,A,24.559442037567692,35.8190671873884,1.2279721018783847,0.562644591671693,A,694.8151669930667,Correct,k
17,24,131,B,70.76227757273415,37.64210116930699,3.5381138786367075,0.591280742495893,B,571.088757016696,Correct,d
17,24,132,B,41.75271850948357,30.530254872213945,2.0876359254741788,0.4795681220938566,B,786.5344530146103,Correct,d
17,24,133,B,40.11467165868508,30.030035711051216,2.0057335829342544,0.47171069788438813,B,843.9856609911658,Correct,d
17,24,134,A,68.4381805614075,82.61847118948032,3.4219090280703757,1.297767910698457,A,1092.7597469999455,Correct,k
17,24,135,B,36.676682659696915,12.054937646097311,1.8338341329848458,0.18935851774231172,B,624.4259560189676,Correct,d
17,24,136,B,40.21523511188717,19.754171418828367,2.0107617555943587,0.3102977990357233,B,1170.2606030157767,Correct,d
17,24,137,A,40.30944699153091,53.21481876594757,2.0154723495765454,0.8358964184860657,A,833.7889340182301,Correct,k
17,24,138,A,12.584054192972935,34.42824041209438,0.6292027096486468,0.5407975357732947,A,2165.244695992442,Correct,k
17,24,139,A,66.94838538692463,83.36718184877404,3.3474192693462315,1.3095286302329645,B,988.3566850039642,Incorrect,d
17,24,140,B,65.12400378449813,50.84737889114247,3.2562001892249066,0.7987087598935495,B,752.1551250247285,Correct,d
17,24,141,A,40.25113521389604,58.94119467529672,2.0125567606948023,0.9258461209285901,A,686.1252759990748,Correct,k
17,24,142,A,37.516235382336305,57.447919086408156,1.8758117691168152,0.9023898028294035,A,885.751559981145,Correct,k
17,24,143,A,56.29866632086768,68.82495921135585,2.8149333160433843,1.0810999312100633,A,603.5194419964682,Correct,k
17,24,144,B,40.8764556106689,20.870924564656104,2.043822780533445,0.3278397164297518,B,626.5854350058362,Correct,d
17,24,145,A,64.0014256680513,82.04057166216295,3.200071283402565,1.2886902861507903,A,707.4672240123618,Correct,k
17,24,146,B,81.06674710877478,65.55461258681161,4.053337355438739,1.0297294465582618,B,552.4798870028462,Correct,d
17,24,147,A,35.179962113877686,55.58490673871309,1.7589981056938842,0.8731256733040741,A,726.3808230054565,Correct,k
17,24,148,A,18.80689565787875,38.49321300821311,0.9403447828939376,0.6046499759983469,A,645.7495089853182,Correct,k
17,24,149,A,37.22375812093839,58.222397779567736,1.8611879060469194,0.9145552856933634,A,1178.3230830042157,Correct,k
17,24,150,B,45.52877691145279,26.399500275285444,2.276438845572639,0.4146823806163924,B,553.8145609898493,Correct,d
17,24,151,A,19.088132186760237,38.50791128706586,0.9544066093380118,0.6048808560226678,B,538.041138992412,Incorrect,d
17,24,152,A,21.556009267874742,41.235507084866555,1.077800463393737,0.6477258306243332,A,987.501138006337,Correct,k
17,24,153,A,32.93269928238218,41.77198658915785,1.646634964119109,0.6561528309717483,A,2100.6669319758657,Correct,k
17,24,154,A,56.54148014638918,79.58286614675642,2.8270740073194593,1.250084738191349,A,574.9391980061773,Correct,k
17,24,155,B,76.82484164359595,46.67221767567214,3.8412420821797975,0.7331254808831763,B,721.1153819807805,Correct,d
17,24,156,A,38.53390930864843,65.85151870135039,1.9266954654324218,1.0343932368994662,A,1091.2563510064501,Correct,k
17,24,157,B,53.693861626726324,38.86673307733656,2.684693081336316,0.6105172155239796,B,661.7422260169405,Correct,d
17,24,158,A,40.8187530090224,61.19785648527367,2.04093765045112,0.9612936817478911,A,2199.1029850032646,Correct,k
17,24,159,B,35.01807438639712,16.478543821844443,1.750903719319856,0.2588443610628199,B,1113.479666004423,Correct,d
17,24,160,B,65.28330562037573,31.950503813324993,3.2641652810187862,0.5018773402921723,B,901.5299819875509,Correct,d
17,24,161,A,24.535457382396544,40.57323607569657,1.2267728691198272,0.6373229019388635,A,389.6929569891654,Correct,k
17,24,162,B,62.40969986600889,43.92667058347655,3.120484993300445,0.689998528008544,B,676.7930230125785,Correct,d
17,24,163,A,37.91124042142517,68.24936990782834,1.8955620210712585,1.072058595572829,A,720.8578800200485,Correct,k
17,24,164,B,65.06632319342181,47.57952688050019,3.2533161596710904,0.7473774605452874,B,651.267128996551,Correct,d
17,24,165,A,56.56634791230161,81.34127095582532,2.82831739561508,1.277705696342388,A,953.4927589993458,Correct,k
17,24,166,B,59.85447105091011,51.89847743021409,2.992723552545505,0.8152193771362815,B,984.8061990051065,Correct,d
17,24,167,A,22.176720827627783,39.115523451586725,1.1088360413813891,0.6144252055841205,A,564.641658012988,Correct,k
17,24,168,A,59.62459715512979,85.7489153697332,2.9812298577564893,1.3469408128942335,A,1167.51116400701,Correct,k
17,24,169,B,84.32232794538794,68.83661555351364,4.216116397269397,1.0812830286045167,B,577.7718379977159,Correct,d
17,24,170,B,68.29703569487533,45.232764088124,3.4148517847437665,0.7105145968040529,B,751.8100590095855,Correct,d
17,24,171,A,39.70975638291286,48.81166947970636,1.985487819145643,0.7667319112344931,A,587.748541001929,Correct,k
17,24,172,B,51.33286136705778,24.473237366608966,2.566643068352889,0.38442471360248964,B,608.0313929996919,Correct,d
17,24,173,A,25.76357151549503,47.22091513032584,1.2881785757747515,0.7417444003460939,A,537.7727500163019,Correct,k
17,24,174,A,26.089170763216288,49.783661525429366,1.3044585381608145,0.7819999265854487,A,786.2069129769225,Correct,k
17,24,175,A,22.725096287677538,40.82839017019411,1.1362548143838769,0.6413308530828977,A,1081.9223810103722,Correct,k
17,24,176,B,63.92059978554634,50.74762238973071,3.1960299892773167,0.7971417884336344,A,996.7312999942806,Incorrect,k
17,24,177,A,61.972420332762155,78.95218593364183,3.098621016638108,1.2401780365699226,B,756.6157559922431,Incorrect,d
17,24,178,B,46.57289269393609,23.818735319937456,2.3286446346968046,0.37414381949457626,B,1015.3594269941095,Correct,d
17,24,179,A,47.475251032834144,64.80341433837638,2.373762551641707,1.0179296520648935,A,902.2813060146291,Correct,k
17,24,180,A,27.34738202790399,55.710662008008,1.3673691013951994,0.8751010324549097,A,717.6221949921455,Correct,k
17,24,181,A,38.6384348537191,58.61500622826715,1.931921742685955,0.9207223647842202,A,833.850202994654,Correct,k
17,24,182,A,57.01585326588175,83.77216703960292,2.850792663294088,1.3158901227345676,A,824.416162999114,Correct,k
17,24,183,A,29.623055969817266,47.3693682115031,1.4811527984908635,0.7440762958922401,A,1013.3154770010151,Correct,k
17,24,184,B,60.06751042308558,37.677233279861404,3.003375521154279,0.5918325963980073,B,812.9670959897339,Correct,d
17,24,185,B,41.49796924532181,25.371527334540026,2.074898462266091,0.3985350194227179,B,627.4181819753721,Correct,d
17,24,186,B,79.21162378525818,62.591394802446146,3.9605811892629093,0.983183330446516,A,619.1880780097563,Incorrect,k
17,24,187,A,42.2656420573512,73.62173526043655,2.11328210286756,1.1564475131936007,B,722.3652529937681,Incorrect,d
17,24,188,A,34.74552265258067,44.7012208488199,1.7372761326290334,0.7021651351257375,B,1471.0746150230989,Incorrect,d
17,24,189,A,23.873603903081293,44.834950149592366,1.1936801951540645,0.7042657500701198,A,214.29012800217606,Correct,k
17,24,190,B,54.73199691259118,37.51831218260625,2.7365998456295593,0.5893362696398212,B,1619.9934039905202,Correct,d
17,24,191,B,48.78989077402055,22.9558257008759,2.439494538701027,0.3605892668947974,B,666.2002079829108,Correct,d
17,24,192,A,32.70647458044749,65.03138110324124,1.6353237290223746,1.021510545633704,B,683.0441880156286,Incorrect,d
17,24,193,A,58.71482992891988,71.9324021815616,2.935741496445994,1.1299115312433015,B,670.1103950035758,Incorrect,d
17,24,194,B,75.86812857560835,57.581992309790536,3.7934064287804174,0.9044958200975096,B,633.99379097973,Correct,d
17,24,195,B,50.25393709849319,33.24263144180503,2.5126968549246596,0.5221740336178389,B,1246.6854180092923,Correct,d
17,24,196,A,15.35494966747332,35.691422073358666,0.767747483373666,0.5606395469091809,A,630.6165809801314,Correct,k
17,24,197,A,36.90661093221157,45.7598713981217,1.8453305466105787,0.7187943790677642,A,1011.2501280091237,Correct,k
17,24,198,A,45.44529694538948,59.10890806570008,2.272264847269474,0.9284805567045893,A,775.5647180019878,Correct,k
17,24,199,A,46.904190000736406,73.1953757998034,2.3452095000368205,1.1497502744470327,B,540.4513670073356,Incorrect,d
17,24,200,A,41.51526562466575,57.165404681027645,2.0757632812332876,0.8979520769270202,A,683.7603060121182,Correct,k
17,24,201,A,41.057724163758216,51.98351827781911,2.052886208187911,0.8165551956467362,A,709.3749810010195,Correct,k
17,24,202,A,19.104248918014793,33.690478398470646,0.9552124459007396,0.529208797162805,A,529.4916589919012,Correct,k
17,24,203,A,34.83992538660422,44.2961220000401,1.7419962693302111,0.6958018572892161,A,661.1024950107094,Correct,k
17,24,204,A,48.29451506836823,74.91317604755075,2.4147257534184114,1.1767334176403212,A,723.5795570013579,Correct,k
17,24,205,A,46.065692198158985,66.68415473274067,2.303284609907949,1.0474722530961156,A,677.2046230034903,Correct,k
17,24,206,B,37.68960584453337,23.166544580802242,1.8844802922266684,0.36389923132054375,B,672.4478190008085,Correct,d
17,24,207,B,75.34318358327188,60.70616246018302,3.7671591791635937,0.9535701700626974,A,836.506522988202,Incorrect,k
17,24,208,B,86.53485936320031,66.16625553334131,4.326742968160016,1.0393371114954504,B,570.3112480114214,Correct,d
17,24,209,A,45.62098314691032,55.14567186655285,2.2810491573455156,0.8662261880661789,A,634.5336590020452,Correct,k
17,24,210,B,63.283620832359006,34.92941959132792,3.1641810416179506,0.548670039911356,B,746.4867130038328,Correct,d
17,24,211,A,52.33637701435753,67.31196861562564,2.6168188507178765,1.057333930507581,B,492.7575780020561,Incorrect,d
17,24,212,B,72.63224882806384,47.019689639802884,3.631612441403192,0.7385835577323842,B,713.1228399812244,Correct,d
17,24,213,A,41.52807337776642,60.605623530532455,2.0764036688883207,0.9519909082487473,A,974.9660560046323,Correct,k
17,24,214,B,45.068899397763545,20.672627764227812,2.2534449698881773,0.3247248775724724,A,792.4148539896123,Incorrect,k
17,24,215,B,62.611158434183636,47.81546916038227,3.1305579217091815,0.7510836332110314,B,531.8942320009228,Correct,d
17,24,216,B,59.10054626826157,29.321136946690917,2.955027313413078,0.46057534213312223,B,714.7383549890947,Correct,d
17,24,217,A,28.985227048234606,40.35786142657489,1.4492613524117304,0.6339398048616128,B,755.6093439925462,Incorrect,d
17,24,218,A,46.616659860027546,53.46845990387129,2.330832993001377,0.8398806041638123,A,547.2071160038467,Correct,k
17,24,219,B,46.729165490013266,30.6119281574871,2.336458274500663,0.48085104305890003,B,487.61382201337256,Correct,d
17,24,220,A,26.440065481284236,37.481118481763716,1.322003274064212,0.5887520323531875,A,669.8047130194027,Correct,k
17,24,221,B,55.68477605261985,40.60648027240124,2.7842388026309925,0.637845100559573,B,441.0258010029793,Correct,d
17,24,222,A,36.923780436380156,69.40031358398909,1.8461890218190078,1.0901375765614403,A,767.6684970210772,Correct,k
17,24,223,B,71.98333058500707,44.89349826398534,3.5991665292503536,0.7051854217004124,B,655.7846030045766,Correct,d
17,24,224,A,19.6039853438896,39.41602690899454,0.9801992671944801,0.6191455028549743,A,776.5291409741621,Correct,k
17,24,225,A,61.75437226260087,75.95555666291006,3.087718613130044,1.1931070940576074,B,435.2334779978264,Incorrect,d
17,24,226,A,40.52764534743487,64.16475982113136,2.0263822673717438,1.0078976903670989,A,723.1961229990702,Correct,k
17,24,227,B,31.74944500512129,14.956359432706208,1.5874722502560648,0.23493394459119116,B,781.7083779955283,Correct,d
17,24,228,A,20.032437799125294,47.84992775636473,1.0016218899562646,0.7516249075709889,B,710.3127459995449,Incorrect,d
17,24,229,A,59.40169309388829,67.55757077219866,2.970084654694414,1.061191840161559,A,350.3956320055295,Correct,k
17,24,230,B,46.7304918761097,24.913162652064756,2.336524593805485,0.3913350438270712,B,701.3376480026636,Correct,d
17,24,231,A,28.251675972907584,39.95610148940422,1.412583798645379,0.6276289745260024,B,881.0282899939921,Incorrect,d
17,24,232,A,60.247257855094304,69.14468562206339,3.012362892754715,1.0861221819252507,A,635.5371700192336,Correct,k
17,24,233,B,45.231902306716634,21.91680196481122,2.2615951153358314,0.34426832021416637,A,643.3175429992843,Incorrect,k
17,24,234,B,33.87640385682859,19.69308257543316,1.6938201928414294,0.30933821772758985,B,707.6706379884854,Correct,d
17,24,235,A,26.248359455239935,41.93578923024681,1.312417972761997,0.6587258368411668,A,889.4502699840814,Correct,k
17,24,236,B,42.257589690215696,14.560380284834157,2.1128794845107848,0.22871391868154325,B,819.3546239926945,Correct,d
17,24,237,B,43.61750740424659,23.08651001744337,2.1808753702123296,0.3626420513391363,A,842.2136229928583,Incorrect,k
17,24,238,A,63.60079774683648,84.96445536154104,3.180039887341824,1.3346185439003762,B,848.5381260106806,Incorrect,d
17,24,239,B,55.986807312081595,26.79067027207444,2.79934036560408,0.4208268645574777,B,670.2623369928915,Correct,d
17,24,240,B,68.08555437882116,48.849649412947564,3.404277718941058,0.7673284986307651,B,991.1420699791051,Correct,d
17,24,241,A,22.360734165733398,37.67719377961831,1.1180367082866698,0.5918319759296395,A,1741.3667859800626,Correct,k
17,24,242,A,21.803254741698876,42.21305697686324,1.0901627370849438,0.6630811484204047,A,1149.6854050201364,Correct,k
17,24,243,A,13.934997425079455,31.37514193602125,0.6967498712539728,0.492839577057707,A,1111.8922790046781,Correct,k
17,24,244,B,56.080774215175126,48.9192150034716,2.804038710758756,0.7684212323714298,B,443.388966989005,Correct,d
17,24,245,A,36.26144404129107,67.44041961838369,1.8130722020645536,1.0593516341406357,B,734.2245260078926,Incorrect,d
17,24,246,A,59.7905939515926,69.99904499793601,2.9895296975796297,1.0995424276190855,A,1495.9056210063864,Correct,k
17,24,247,A,55.24901731946392,64.17695012631674,2.7624508659731957,1.0080891752331762,B,1379.4439939956646,Incorrect,d
17,24,248,A,23.90761850914936,34.955050430128765,1.1953809254574679,0.5490726481857663,A,780.3473560197745,Correct,k
17,24,249,A,54.92340414808188,75.00663434864211,2.7461702074040937,1.1782014572009496,B,809.9758669850416,Incorrect,d
17,24,250,A,41.29237531959607,50.48540217786007,2.0646187659798034,0.7930228429774565,A,1139.6960790152662,Correct,k
17,24,251,A,49.0533308304278,58.55538374505142,2.4526665415213897,0.9197858170079237,B,827.5721789977979,Incorrect,d
17,24,252,B,35.945576227774815,16.514861663273013,1.7972788113887406,0.25941484038195106,B,992.2472959733568,Correct,d
17,24,253,B,47.419829022745645,20.094714511140253,2.3709914511372823,0.3156470374209122,B,2029.7313450137153,Correct,d
17,24,254,A,17.854966823186608,37.04531065093866,0.8927483411593303,0.581906378954703,A,844.9367029825225,Correct,k
17,24,255,A,67.54707886690147,83.14320376795527,3.3773539433450734,1.3060103907666376,B,771.6153390065301,Incorrect,d
17,24,256,A,64.40852721992952,88.38854636368096,3.220426360996476,1.3884040395881045,A,1241.647342016222,Correct,k
17,24,257,B,32.45852808468078,18.819103671559503,1.622926404234039,0.2956097892085802,B,551.4838990056887,Correct,d
17,24,258,A,43.01087952856587,72.13070845105698,2.1505439764282936,1.133026518840339,A,710.1080259890296,Correct,k
17,24,259,B,56.06580004189684,24.00577815061378,2.803290002094842,0.37708188140837307,B,1210.9720570151694,Correct,d
17,24,260,B,42.71673760411932,23.50220025553289,2.1358368802059657,0.3691716983298915,B,866.4237420016434,Correct,d
17,24,261,A,33.82896817822443,44.32086055066731,1.6914484089112216,0.6961904495337705,A,1008.3503269997891,Correct,k
17,24,262,B,53.61907960743369,25.142983358458324,2.680953980371685,0.3949450590413155,B,813.0762029904872,Correct,d
17,24,263,B,79.15204158487738,63.79067095350286,3.9576020792438693,1.002021516175442,B,1238.9645139919594,Correct,d
17,24,264,B,46.95856239762195,39.27529157964761,2.3479281198810975,0.6169348374710899,A,851.7402860161383,Incorrect,k
17,24,265,A,18.753010960400044,47.56931390809167,0.9376505480200023,0.7472170355498378,B,688.4698730136734,Incorrect,d
17,24,266,B,52.182524334533724,36.5886867236073,2.6091262167266858,0.5747337470769155,A,1313.7797079980373,Incorrect,k
17,24,267,A,28.694636511125374,44.00840214461798,1.4347318255562687,0.6912823643687858,A,898.6011279921513,Correct,k
17,24,268,A,64.24974956071256,75.12694692988475,3.212487478035628,1.180091322807781,B,726.7307270085439,Incorrect,d
17,24,269,B,74.37683506000607,47.116889308807224,3.7188417530003037,0.7401103665627613,B,2227.3313549812883,Correct,d
17,24,270,B,73.03852480893157,44.04931932268255,3.6519262404465787,0.6919250898988522,B,2103.5473340016324,Correct,d
17,24,271,A,38.52986843098869,69.86613242494121,1.9264934215494347,1.0974546418046347,A,797.0055229961872,Correct,k
17,24,272,A,64.70880091769408,88.2446635185213,3.2354400458847037,1.386143933141449,A,1020.6161910027731,Correct,k
17,24,273,B,82.43400070752833,64.15671977212594,4.121700035376416,1.0077713975726494,B,561.1691059893928,Correct,d
17,24,274,B,73.29675646309099,41.73833390372758,3.6648378231545498,0.6556242158251417,B,593.1688779965043,Correct,d
17,24,275,B,75.13478700270562,43.33794216893126,3.756739350135281,0.6807508036980687,B,931.2095750065055,Correct,d
17,24,276,B,59.734399993709154,44.64219174975926,2.986719999685458,0.7012379082059528,A,625.0932329858188,Incorrect,k
17,24,277,B,60.104792867614776,32.77845806119943,3.005239643380739,0.5148828152053262,B,658.7273089971859,Correct,d
17,24,278,A,29.083742373218595,55.59398190968206,1.4541871186609296,0.8732682257563049,A,781.2023980077356,Correct,k
17,24,279,A,16.53316830232482,43.5621914301325,0.826658415116241,0.6842733028558825,A,987.5530450080987,Correct,k
17,24,280,B,40.72888205601282,30.69198648801875,2.0364441028006413,0.4821085963741845,B,1210.8376290125307,Correct,d
17,24,281,B,35.208085682044455,23.949465724791605,1.7604042841022227,0.37619732789202925,A,1051.6944370174315,Incorrect,k
17,24,282,A,17.096952156012968,45.27170781046728,0.8548476078006485,0.7111263233641383,A,580.0548090192024,Correct,k
17,24,283,A,56.85839579316065,77.97296596042494,2.8429197896580325,1.22479648519939,A,2724.4047689891886,Correct,k
17,24,284,A,35.5505052458953,58.11279298296647,1.777525262294765,0.9128336175743595,A,838.1270070094615,Correct,k
17,24,285,B,59.72474869904177,42.25263616182147,2.986237434952088,0.6637028568039038,B,1085.4046389868017,Correct,d
17,24,286,A,52.27772638640839,77.77222675781437,2.61388631932042,1.2216432811783458,B,742.8245449846145,Incorrect,d
17,24,287,B,34.97543156294796,20.386750147853455,1.748771578147398,0.32023432247533523,B,704.9996919813566,Correct,d
17,24,288,B,81.75816471006581,66.6908765254575,4.08790823550329,1.0475778387692063,A,621.5332110004965,Incorrect,k
17,24,289,B,65.33752665835765,42.40705367603742,3.2668763329178825,0.666128441445136,B,1560.6645329971798,Correct,d
17,24,290,B,80.74117179695932,52.704721296558404,4.037058589847966,0.8278838261738269,B,1656.8118789873552,Correct,d
17,24,291,A,18.6131972710772,34.56622408369094,0.93065986355386,0.5429649782183102,A,866.9755090086255,Correct,k
17,24,292,A,38.89376641671326,54.047592338175704,1.9446883208356633,0.8489775951691438,B,1887.5196379958652,Incorrect,d
17,24,293,A,17.372058056941892,41.76460215341393,0.8686029028470946,0.6560368365263284,A,2669.8133640165906,Correct,k
17,24,294,B,88.7297628631596,62.135520236157745,4.43648814315798,0.9760224695044654,B,3580.4177149839234,Correct,d
17,24,295,B,62.17404521204355,52.12996493023426,3.1087022606021777,0.8188555742835876,A,2800.47638801625,Incorrect,k
17,24,296,A,54.8501297037894,69.79194964253738,2.74250648518947,1.096289381383521,A,2460.032080009114,Correct,k
17,24,297,B,83.17456900523337,57.2802526361866,4.158728450261668,0.899756104388056,B,952.5538790039718,Correct,d
17,24,298,A,59.120556697664995,73.23454341706821,2.95602783488325,1.1503655179403212,A,3901.8283740151674,Correct,k
17,24,299,B,75.76116747350292,59.62417925715653,3.7880583736751463,0.9365744176530195,A,1017.8740919800475,Incorrect,k
17,24,300,B,51.97190060094146,41.44577638820896,2.598595030047073,0.651028733117613,B,693.6833430081606,Correct,d
17,24,301,A,46.996388344036916,60.1893961191456,2.3498194172018456,0.945452823359569,B,683.6077680054586,Incorrect,d
17,24,302,B,52.40959150382353,22.834908150002015,2.6204795751911765,0.35868989844722016,B,623.1481459981296,Correct,d
17,24,303,B,54.911444138445376,43.9417644947867,2.745572206922269,0.6902356226129736,A,784.837349987356,Incorrect,k
17,24,304,B,53.02845326583325,26.646544576170765,2.6514226632916627,0.41856294342025513,B,967.0150770107284,Correct,d
17,24,305,A,38.660406787622215,58.42987287488892,1.9330203393811107,0.9178142968696827,A,270.78184799756855,Correct,k
17,24,306,A,46.71158254234066,68.2430789489655,2.335579127117033,1.0719597774220915,B,343.6335309816059,Incorrect,d
17,24,307,A,48.778085598834174,61.55884798370661,2.4389042799417084,0.9669641229453176,A,567.2816850128584,Correct,k
17,24,308,B,46.575144635224916,22.462098823313227,2.3287572317612457,0.35283382323764384,B,2332.572433981113,Correct,d
17,24,309,B,70.23565418378642,56.68592132371404,3.5117827091893212,0.8904203699627451,B,1795.9475069947075,Correct,d
17,24,310,A,40.45548235718828,64.82160080184124,2.0227741178594143,1.0182153243649734,A,866.5578179934528,Correct,k
17,24,311,B,84.07180606735693,59.725138324532544,4.203590303367847,0.9381602789749284,B,573.0382130132057,Correct,d
17,24,312,B,57.96378484073547,29.738947797433898,2.898189242036773,0.4671382996295434,B,1021.206011006143,Correct,d
17,24,313,A,13.759412613371754,37.71282570974707,0.6879706306685877,0.5923916809792683,A,640.268560993718,Correct,k
17,24,314,A,56.755601477568504,84.0408078701033,2.8377800738784256,1.3201099230323388,A,853.2381160184741,Correct,k
17,24,315,A,44.617667622600266,53.038322229019144,2.2308833811300133,0.8331240173670738,B,585.002940002596,Incorrect,d
17,24,316,A,55.163551208774294,81.88669739330376,2.7581775604387144,1.2862732347876678,A,1350.3889690036885,Correct,k
17,24,317,A,35.92705586293227,51.164711102247544,1.7963527931466134,0.8036934026093251,A,1666.2571750057396,Correct,k
17,24,318,B,71.3902147075025,60.502416669852096,3.5695107353751245,0.95036973867218,B,1016.6275109804701,Correct,d
17,24,319,B,38.610494749541346,29.428266570288812,1.9305247374770673,0.46225813032550706,B,2651.8010700237937,Correct,d
17,24,320,A,62.06431993735538,75.16890308017108,3.103215996867769,1.180750368475343,B,737.6939019886777,Incorrect,d
17,24,321,B,71.69702034752288,58.338563718587714,3.584851017376144,0.9163800159964762,B,2066.626115993131,Correct,d
17,24,322,B,88.45749092571214,69.02080234857064,4.422874546285607,1.0841762280157132,B,1365.1417660003062,Correct,d
17,24,323,B,49.95458735779894,37.83099573274759,2.497729367889947,0.5942478913599332,B,1954.8672629753128,Correct,d
17,24,324,B,48.02583651745557,19.406453530721926,2.4012918258727787,0.30483585922173856,B,849.6005499910098,Correct,d
17,24,325,A,29.623237933429404,52.879361403807565,1.4811618966714701,0.8306270665636074,A,866.016521002166,Correct,k
17,24,326,A,63.83816675407828,79.01389226380545,3.191908337703914,1.241147317337533,B,809.8107389814686,Incorrect,d
17,24,327,B,55.43249752142316,48.139535895562034,2.771624876071158,0.756174061583599,B,2217.335680994438,Correct,d
17,24,328,B,61.19648348558389,38.39637605959148,3.0598241742791945,0.603128864766418,A,2207.301485002972,Incorrect,k
17,24,329,A,24.937533696588435,50.12085841867469,1.2468766848294217,0.7872966029986128,A,1270.4418450011872,Correct,k
17,24,330,B,38.509566392799826,20.528983377095308,1.9254783196399914,0.32246851681574806,B,737.1606379747391,Correct,d
17,24,331,A,32.40088397548017,49.395404343389515,1.6200441987740084,0.7759011970314494,A,2105.1721880212426,Correct,k
17,24,332,A,14.494422463032919,32.846402479641,0.7247211231516459,0.5159500836344686,A,1208.2341159984935,Correct,k
17,24,333,A,47.03439053182684,78.06881222444567,2.3517195265913418,1.2263020347939977,A,1712.7595919882879,Correct,k
17,24,334,A,37.628522084562995,66.28713743008683,1.88142610422815,1.0412359198892889,A,989.6818049892318,Correct,k
17,24,335,A,61.38679323617173,81.06195855500758,3.0693396618085864,1.2733182674100605,A,641.0834200214595,Correct,k
17,24,336,A,54.68411059967544,79.66681749069754,2.734205529983772,1.251403442818271,A,577.0436609745957,Correct,k
17,24,337,B,41.26676716710065,30.392413044340756,2.0633383583550327,0.47740290772483757,A,4595.24840299855,Incorrect,k
17,24,338,A,42.07028069619338,74.51676429142627,2.103514034809669,1.1705065963361352,A,1929.6529770072084,Correct,k
17,24,339,B,56.82247383137728,37.53662206404745,2.841123691568864,0.58962388058494,B,1439.819624996744,Correct,d
17,24,340,A,18.615052231347736,44.90703874925484,0.9307526115673868,0.7053981151456559,B,713.5937330021989,Incorrect,d
17,24,341,A,60.74836297415321,75.43204729217325,3.0374181487076606,1.1848838280916467,A,2487.774450011784,Correct,k
17,24,342,B,69.41448224377793,50.13133158827837,3.470724112188896,0.7874611151620463,A,3713.216789998114,Incorrect,k
17,24,343,B,65.35695812014008,37.92514632181917,3.267847906007004,0.5957268053547254,B,1623.154077999061,Correct,d
17,24,344,A,24.34143531141621,54.98326589114604,1.2170717655708103,0.8636751209699933,A,722.6475680072326,Correct,k
17,24,345,A,55.15786271217498,67.5027583962333,2.7578931356087493,1.0603308493732664,A,873.8797830010299,Correct,k
17,24,346,B,41.54298204058669,30.708162127513376,2.0771491020293347,0.48236268272520166,B,2155.667110986542,Correct,d
17,24,347,B,65.28586310110828,33.16761845203016,3.2642931550554137,0.5209957323298362,B,1321.1135540041141,Correct,d
17,24,348,A,33.54622370100583,50.95229675357548,1.6773111850502915,0.800356805822799,B,1601.9034659839235,Incorrect,d
17,24,349,B,45.66445074291041,19.55714487737136,2.283222537145521,0.3072029133597056,B,1343.3560300036334,Correct,d
17,24,350,B,69.30637045744827,52.85974450013378,3.4653185228724137,0.8303189249612687,B,920.148260978749,Correct,d
17,24,351,B,66.88902969675854,49.51551908097495,3.344451484837927,0.7777879549173807,B,708.771142992191,Correct,d
17,24,352,A,40.01121537068868,51.838739657914914,2.000560768534434,0.8142810184032967,A,1286.5918260067701,Correct,k
17,24,353,A,48.86832752627146,73.11156081381957,2.443416376313573,1.1484337117258947,A,1465.8558780211024,Correct,k
17,24,354,B,73.51410268941297,40.9022202796121,3.6757051344706486,0.6424905737297042,B,1648.1516470084898,Correct,d
17,24,355,B,48.34798694854434,34.36775117032554,2.417399347427217,0.5398473729854837,A,1159.6235649776645,Incorrect,k
17,24,356,B,83.57987040774002,56.45365216868849,4.178993520387001,0.8867718946073263,B,935.0940249860287,Correct,d
17,24,357,A,12.838429513813825,40.965621585991016,0.6419214756906912,0.6434864791214441,A,990.664042008575,Correct,k
17,24,358,A,35.21903776956958,66.04880893227623,1.7609518884784792,1.0374922645999747,A,2285.40644099121,Correct,k
17,24,359,B,46.395201926142384,31.907392264710367,2.319760096307119,0.5012001456701094,B,1444.381428998895,Correct,d
17,24,360,A,11.951677625732778,33.35432630315223,0.5975838812866389,0.5239285323970991,A,1011.4520359784365,Correct,k
17,24,361,B,53.047323763517724,32.27549678410204,2.652366188175886,0.5069823179394798,B,3444.0718949772418,Correct,d
17,24,362,B,62.82103153852009,46.74326311162251,3.1410515769260043,0.7342414599814403,B,1017.927654000232,Correct,d
17,24,363,A,44.07905988763436,53.32107319952279,2.2039529943817175,0.837565459225722,B,678.5553979862016,Incorrect,d
17,24,364,A,39.396925785596075,63.76945317085563,1.9698462892798037,1.001688228024992,A,2641.81848501903,Correct,k
17,24,365,A,35.194250292959296,50.041881053163486,1.7597125146479646,0.7860560294421634,A,926.8225359846838,Correct,k
17,24,366,A,40.67219493187068,52.192374991814695,2.033609746593534,0.8198359092384433,A,1160.806481988402,Correct,k
17,24,367,A,66.29948219352812,85.16974311892234,3.3149741096764056,1.3378431964526811,A,902.7902669913601,Correct,k
17,24,368,B,59.54494485991397,45.52527198178396,2.9772472429956984,0.7151093000532487,B,797.8199319913983,Correct,d
17,24,369,B,44.56805510874153,24.14127802053096,2.2284027554370764,0.379210308387844,B,1092.8044160245918,Correct,d
17,24,370,B,50.38932335618686,23.226197293737343,2.519466167809343,0.36483625394416186,B,1611.3458390173037,Correct,d
17,24,371,A,26.90354567870924,59.28397531764047,1.345177283935462,0.9312305066674895,A,717.2479869914241,Correct,k
17,24,372,A,38.25937990383397,65.39069086213519,1.9129689951916984,1.0271545701282254,B,721.3585999852512,Incorrect,d
17,24,373,B,76.72828863843611,49.218531827077655,3.8364144319218054,0.7731228900421128,B,1694.7019159852061,Correct,d
17,24,374,B,84.275958750462,62.13903079458365,4.2137979375231,0.9760776132272696,B,943.8403450185433,Correct,d
17,24,375,A,27.38195277751442,49.15402746628838,1.369097638875721,0.7721096579122124,A,1027.148227993166,Correct,k
17,24,376,A,26.578049706651484,50.7427400045247,1.3289024853325742,0.7970650961061584,A,981.712783977855,Correct,k
17,24,377,B,47.84917294036487,38.281025183604605,2.3924586470182434,0.6013169374434905,B,842.1713230200112,Correct,d
17,24,378,B,85.63756284411043,62.67671826938191,4.281878142205522,0.9845235883310369,B,1402.1054769982584,Correct,d
17,24,379,B,54.24679341335121,22.859116731827996,2.7123396706675607,0.3590701659613117,B,1428.4260990098119,Correct,d
17,24,380,B,75.55982596214542,48.54824001475944,3.777991298107271,0.7625939708754115,B,1075.6574700062629,Correct,d
17,24,381,A,22.934809820091385,55.08016574994823,1.1467404910045693,0.8651972203927274,A,956.4959230192471,Correct,k
17,24,382,B,43.61111848625892,31.327364417213534,2.180555924312946,0.4920890895472416,B,1815.7217010157183,Correct,d
17,24,383,B,49.49543772613279,29.072075666910653,2.4747718863066397,0.45666309669886546,B,659.8550009948667,Correct,d
17,24,384,A,29.728479815317222,50.05966282330238,1.4864239907658612,0.7863353448343441,A,3633.762854995439,Correct,k
17,24,385,A,18.256450239761882,36.28536314279951,0.912822511988094,0.569969151411284,B,2730.005365010584,Incorrect,d
17,24,386,A,25.22588694736315,51.97931925259742,1.2612943473681575,0.8164892375127928,A,1091.6205770045053,Correct,k
17,24,387,B,81.49990620353266,66.69091090957261,4.074995310176633,1.0475783788736235,B,2124.085542978719,Correct,d
17,24,388,B,51.97833156581316,39.35789107927509,2.5989165782906576,0.6182323073771895,A,1143.7421400041785,Incorrect,k
17,24,389,B,54.88428509536592,32.88357435788222,2.744214254768296,0.5165339781324824,A,1129.9415639950894,Incorrect,k
17,24,390,A,54.151777461337495,82.2904216933708,2.7075888730668747,1.2926149212634994,A,1596.3271289947443,Correct,k
17,24,391,A,23.340095149105874,50.83036252534872,1.1670047574552938,0.7984414674447072,B,1094.6704070083797,Incorrect,d
17,24,392,B,76.73248443778579,54.84918703116546,3.836624221889289,0.8615690151624097,A,2576.318915002048,Incorrect,k
17,24,393,B,56.6815145574908,34.18608888217982,2.83407572787454,0.536993828436119,B,967.8891189978458,Correct,d
17,24,394,A,49.04467077416158,76.60054030531754,2.452233538708079,1.2032384734209722,A,913.5183299949858,Correct,k
17,24,395,A,40.004865351075026,66.77365345524665,2.000243267553751,1.0488780957417678,A,880.7554630038794,Correct,k
17,24,396,B,66.77359991594841,58.706743618116974,3.3386799957974205,0.9221633723342788,A,1124.037748988485,Incorrect,k
17,24,397,B,36.99108734499117,23.455066616828628,1.8495543672495587,0.36843132486444014,A,799.1907880059443,Incorrect,k
17,24,398,B,86.511969470767,59.81835270352231,4.32559847353835,0.9396244870161441,B,893.3876230148599,Correct,d
17,24,399,B,40.3068261707673,27.99444805060396,2.015341308538365,0.43973576168539247,A,735.0498510058969,Incorrect,k
17,24,400,B,59.06057005293996,30.213957935360668,2.9530285026469976,0.4745997414280006,B,1234.0484879969154,Correct,d
17,24,401,A,58.96094787541074,67.19665698255756,2.948047393770537,1.0555226196109804,B,779.0226610086393,Incorrect,d
17,24,402,B,72.37463475739604,47.639195533631955,3.618731737869802,0.7483147335569291,B,854.8788590123877,Correct,d
17,24,403,A,43.57402746810698,70.82797729302987,2.178701373405349,1.1125632656620366,A,2098.339974996634,Correct,k
17,24,404,A,65.35175852236043,89.2715876814458,3.2675879261180216,1.402274820171636,B,2012.2494509851094,Incorrect,d
17,24,405,A,29.033776807986914,50.412954265666734,1.4516888403993458,0.7918848338338843,A,818.6116440047044,Correct,k
17,24,406,A,20.028210635889163,38.851328260220384,1.0014105317944582,0.6102752372225693,A,1172.1742460213136,Correct,k
17,24,407,B,44.34157486810566,15.713709109677115,2.217078743405283,0.24683036549804319,B,1835.9739139850717,Correct,d
17,24,408,A,60.539138676455316,78.40094604288834,3.026956933822766,1.2315191806141388,A,1127.3143230064306,Correct,k
17,24,409,B,68.3894360054261,46.11700705787194,3.419471800271305,0.7244042528927956,B,1163.4668360056821,Correct,d
17,24,410,B,47.829691980441524,27.615672175687244,2.391484599022076,0.43378596415541554,A,1322.9374870134052,Incorrect,k
17,24,411,A,15.333698256863165,35.781786184985506,0.7666849128431582,0.5620589830553561,A,2813.118438993115,Correct,k
17,24,412,B,45.02260021540556,34.760279273926706,2.251130010770278,0.5460131900184885,B,1121.2258120067418,Correct,d
17,24,413,A,67.55749634351851,88.78259895568496,3.3778748171759254,1.3945938032289433,A,1390.177332010353,Correct,k
17,24,414,A,35.28428056477772,55.67378105029794,1.7642140282388856,0.8745217077259132,A,1304.8836200032383,Correct,k
17,24,415,B,57.5753839415725,31.73648885894898,2.878769197078625,0.49851560125004213,B,1041.6759150102735,Correct,d
17,24,416,A,22.92244391185701,51.75328796838263,1.1461221955928504,0.8129387464029394,A,921.8134949915111,Correct,k
17,24,417,B,51.6242196075424,39.38883189092203,2.58121098037712,0.61871832451002,B,2712.4415210273582,Correct,d
17,24,418,B,78.46763131889014,58.2414199469337,3.9233815659445073,0.9148540851996246,B,1377.653648989508,Correct,d
17,24,419,B,62.24301287354774,41.23217974194862,3.112150643677387,0.6476735648439983,B,1697.4814250133932,Correct,d
17,24,420,B,76.11814787929947,52.84062004116789,3.805907393964974,0.8300185186623131,B,1568.9137860026676,Correct,d
17,24,421,B,62.64553179353821,31.039507474099693,3.132276589676911,0.48756744325838536,B,1801.2573340092786,Correct,d
17,24,422,B,60.57901556431221,34.301159650937294,3.02895077821561,0.5388013558449761,B,1014.3790100119077,Correct,d
17,24,423,A,63.23183377986962,80.09461355085192,3.1615916889934805,1.2581232476173494,A,1159.6412590006366,Correct,k
17,24,424,B,69.61307615547138,49.699678541204946,3.480653807773569,0.7806807249541188,B,1278.2451300008688,Correct,d
17,24,425,A,51.13547991645908,64.4939542714377,2.556773995822954,1.0130686647005238,A,1211.482373997569,Correct,k
17,24,426,A,25.523028794177918,38.56882253911621,1.276151439708896,0.6058376477324796,A,1759.1457449889276,Correct,k
17,24,427,B,82.51445395157512,58.40341526641035,4.125722697578755,0.9173987017275437,B,1266.0283709992655,Correct,d
17,24,428,A,46.19416856709971,54.11762970884977,2.309708428354986,0.8500777396150758,A,1352.31422301149,Correct,k
17,24,429,A,36.54247277051444,49.53884130023388,1.8271236385257223,0.778154299480827,B,1502.9917100036982,Incorrect,d
17,24,430,A,19.836831348548984,38.8015125617205,0.9918415674274492,0.609492734060366,A,1403.7767020054162,Correct,k
17,24,431,B,70.02811391605088,50.48932670729821,3.501405695802544,0.7930844893417148,B,1392.0509989839047,Correct,d
17,24,432,A,68.74091538910253,82.60061776978748,3.437045769455126,1.2974874698377143,A,2317.8792459948454,Correct,k
17,24,433,B,74.38251251010159,47.628550123555044,3.7191256255050797,0.7481475158464687,B,845.5582309979945,Correct,d
17,24,434,A,39.71536919909854,68.10222376860891,1.985768459954927,1.0697472294229498,A,1380.9707970067393,Correct,k
17,24,435,B,87.57640527244561,67.32421418029827,4.378820263622281,1.0575262833876542,B,1222.0800179929938,Correct,d
17,24,436,B,47.43107266542664,32.97111380044184,2.3715536332713323,0.5179090444807056,B,1075.045217992738,Correct,d
17,24,437,A,56.59967316816572,82.89383374871407,2.8299836584082865,1.302093295664269,A,979.4144360057544,Correct,k
17,24,438,A,50.73220625775261,81.31321186760351,2.5366103128876305,1.277264945215268,A,1208.049773995299,Correct,k
17,24,439,A,40.92210968907441,54.98375175257733,2.0461054844537205,0.8636827528635092,A,1363.6062379810028,Correct,k
17,24,440,B,59.27522451733603,29.777721208646675,2.9637612258668016,0.46774735094864683,B,961.573063977994,Correct,d
17,24,441,A,46.778008639419596,59.11442002705651,2.3389004319709796,0.9285671383911105,A,2250.840421009343,Correct,k
17,24,442,A,34.93594427045916,64.4773822985831,1.7467972135229581,1.012808352759646,A,2748.011324001709,Correct,k
17,24,443,B,59.7925173766415,34.43778630903424,2.989625868832075,0.5409474823717856,B,1528.9036300091539,Correct,d
17,24,444,B,74.77543503479691,59.70365070897722,3.7387717517398458,0.9378227522990694,B,1506.952125026146,Correct,d
17,24,445,B,81.61705100792356,59.899831132808856,4.080852550396179,0.9409043471905074,B,1288.6948880041018,Correct,d
17,24,446,B,68.97157879255235,51.54216343881765,3.4485789396276174,0.8096224100475697,B,1039.1883779957425,Correct,d
17,24,447,A,49.64181325975646,58.83168435629433,2.482090662987823,0.9241259368602391,A,1491.839872993296,Correct,k
17,24,448,B,80.33349071595462,48.782774541205455,4.016674535797731,0.7662780306018914,B,1036.177645000862,Correct,d
17,24,449,B,84.91525040443699,57.94718285579217,4.245762520221849,0.9102322197799054,B,1104.304215987213,Correct,d
17,24,450,A,52.44636184184968,69.97362418604062,2.6223180920924842,1.0991431184395914,A,1101.3493840000592,Correct,k
17,24,451,B,78.76597463771945,65.84324730885615,3.938298731885973,1.034263310169992,B,934.6587639884092,Correct,d
17,24,452,A,52.58745793667576,77.29965730974311,2.629372896833788,1.2142201776464874,A,1162.725953006884,Correct,k
17,24,453,B,77.72770664084358,61.20455990436021,3.886385332042179,0.9613989788086722,B,1314.276465011062,Correct,d
17,24,454,B,31.151476411951926,13.479736437844647,1.5575738205975964,0.21173920482729697,B,1938.6196410050616,Correct,d
17,24,455,B,54.96424607426397,24.56066575632132,2.7482123037131987,0.3857980355366673,B,900.3335169982165,Correct,d
17,24,456,A,45.14294204778761,63.49495399844877,2.2571471023893808,0.9973764051077424,A,1127.8066789964214,Correct,k
17,24,457,A,54.3770530698111,75.86967524185317,2.718852653490555,1.1917580718502465,A,1118.3476479782257,Correct,k
17,24,458,B,46.396419014709124,23.93663287707308,2.319820950735456,0.37599574999144353,A,1409.4207680027466,Incorrect,k
17,24,459,B,37.210203393314174,19.917545044727564,1.8605101696657087,0.31286406595029953,B,815.689103998011,Correct,d
17,24,460,B,63.24304456558693,36.856077994316216,3.162152228279347,0.5789339193353813,B,906.4020439982414,Correct,d
17,24,461,B,54.875122580507686,45.15943475587914,2.743756129025384,0.7093627423466875,B,1010.5418570165057,Correct,d
17,24,462,B,41.00380105202005,27.930654209468162,2.0501900526010024,0.4387336903721101,B,814.4524589879438,Correct,d
17,24,463,B,75.32071865578378,61.779216123719934,3.7660359327891886,0.9704256575940733,B,1243.6939350154717,Correct,d
17,24,464,A,56.83479697364113,70.84463664645212,2.8417398486820566,1.1128249501736611,A,1372.703928995179,Correct,k
17,24,465,B,40.15005636501154,23.59182628576447,2.007502818250577,0.37057954072062116,B,1456.4737220061943,Correct,d
17,24,466,A,53.778105400530094,61.77599933269826,2.6889052700265044,0.9703751283588642,A,1095.2281430072617,Correct,k
17,24,467,A,15.360790552151908,40.783662794504274,0.7680395276075954,0.6406282771084899,A,2051.8709720054176,Correct,k
17,24,468,A,49.12483508663287,60.33396373425055,2.4562417543316433,0.9477236861473728,B,1674.0192220022436,Incorrect,d
17,24,469,B,67.07693085011641,41.47625485922223,3.3538465425058206,0.6515074878207526,B,882.9175310092978,Correct,d
17,24,470,B,61.73205037423271,45.595720236882066,3.0866025187116355,0.7162158986566207,B,930.3476820059586,Correct,d
17,24,471,A,34.00960744009971,49.684522692979385,1.7004803720049853,0.780442657446897,A,1196.793951006839,Correct,k
17,24,472,B,59.517422887629984,43.54893137606097,2.975871144381499,0.6840650144135959,B,923.5636929806788,Correct,d
17,24,473,A,18.297253531509483,38.68557829515187,0.9148626765754742,0.6076716428596093,A,932.9813539807219,Correct,k
17,24,474,A,21.125470213748713,40.61470837807039,1.0562735106874357,0.6379743473411886,A,1224.7461410006508,Correct,k
17,24,475,B,67.70346921526348,34.85968052818038,3.385173460763174,0.5475745812690931,B,1025.6958730169572,Correct,d
17,24,476,A,38.08252957478302,66.46405810302093,1.904126478739151,1.0440149833210788,A,1354.3641160067637,Correct,k
17,24,477,B,88.67781073161254,64.52609349658695,4.433890536580627,1.0135735064686284,B,1809.8404810007196,Correct,d
17,24,478,A,42.73949958636754,61.11925037875811,2.136974979318377,0.9600589399141083,A,2502.032447984675,Correct,k
17,24,479,B,79.5623627413641,57.59668824249536,3.978118137068205,0.9047266632686253,B,856.7121239902917,Correct,d
17,24,480,B,45.473837986921446,23.787685037207872,2.273691899346072,0.37365608279400053,B,1110.7210610061884,Correct,d
17,24,481,B,44.215163286205524,29.74088345902438,2.2107581643102763,0.46716870493070595,A,782.5891770189628,Incorrect,k
17,24,482,B,58.10753596565781,27.704806366729123,2.905376798282891,0.4351860807542198,B,985.0157650071196,Correct,d
17,24,483,B,44.32853967749936,17.24176763483818,2.216426983874968,0.2708330526825494,B,991.0523479920812,Correct,d
17,24,484,A,59.86868479642763,69.53998924170058,2.993434239821381,1.092331596662199,A,1221.9535619951785,Correct,k
17,24,485,B,45.69754675073462,33.99789041428777,2.284877337536731,0.5340376138153865,B,1528.1708399998024,Correct,d
17,24,486,B,47.4492441275257,27.158209551894167,2.372462206376285,0.42660015806441426,B,1035.7880289957393,Correct,d
17,24,487,A,47.96836303684326,68.57681102554659,2.398418151842163,1.0772020286223634,A,1129.1920009825844,Correct,k
17,24,488,A,19.628841368802682,43.998259021883015,0.9814420684401342,0.6911230365694425,A,1245.5355200218037,Correct,k
17,24,489,A,40.34456948830318,67.57670442480308,2.017228474415159,1.061492390873851,B,1585.2402769960463,Incorrect,d
17,24,490,B,79.20710141313182,52.311281593427154,3.960355070656591,0.8217036897688886,B,992.4736959801521,Correct,d
17,24,491,A,48.552295024249126,77.94495347456217,2.4276147512124564,1.2243564661004136,A,844.1409630177077,Correct,k
17,24,492,A,57.71779609340278,77.62108879341962,2.885889804670139,1.2192692115852404,A,1241.2016399903223,Correct,k
17,24,493,A,20.834621983743144,45.685740280688165,1.0417310991871573,0.7176299301981061,A,923.1853160017636,Correct,k
17,24,494,B,34.46097109345058,18.970744174596703,1.7230485546725292,0.2979917526602218,B,898.1835830199998,Correct,d
17,24,495,A,31.60489078485047,55.627476832129624,1.5802445392425233,0.8737943627677741,A,1703.0871619936079,Correct,k
17,24,496,B,68.12429310163428,41.925007127532844,3.406214655081714,0.6585564719677844,B,1056.9679690233897,Correct,d
17,24,497,B,54.61807346523676,47.369182778468165,2.730903673261838,0.7440733831169387,A,1743.5580849996768,Incorrect,k
17,24,498,A,57.533655238506626,81.92319193115542,2.8766827619253315,1.2868464896477223,A,1976.5729689970613,Correct,k
17,24,499,A,29.85990101884293,48.75859555261964,1.4929950509421466,0.7658982279373291,B,1186.160937009845,Incorrect,d
17,24,500,B,32.718887189519336,18.139765978793214,1.6359443594759668,0.28493877768407416,B,1483.0218270071782,Correct,d
17,24,501,A,44.24572149663381,66.12765194090454,2.212286074831691,1.0387307276834428,A,960.7185409986414,Correct,k
17,24,502,B,48.54669344765895,33.36502282199293,2.4273346723829476,0.5240965529221439,B,1544.7567219962366,Correct,d
17,24,503,A,21.304158250219803,36.27568960208931,1.0652079125109901,0.569817199789137,A,1231.5799709758721,Correct,k
17,24,504,A,28.090468751505554,55.69126089714407,1.4045234375752778,0.8747962805181017,A,1129.8832350003067,Correct,k
17,24,505,A,39.21194204740731,56.52053048553057,1.9605971023703657,0.887822416751704,B,1124.6370410081,Incorrect,d
17,24,506,B,40.48798010845695,27.67098822887398,2.024399005422848,0.43465486668700065,B,994.5812669757288,Correct,d
17,24,507,A,44.80202191120264,69.66588054957124,2.240101095560132,1.0943090927019854,A,849.5213150163181,Correct,k
17,24,508,A,54.53962624375553,62.516118187243556,2.7269813121877764,0.9820008881399779,B,1288.2427999866195,Incorrect,d
17,24,509,A,13.228287546742,35.8953717389609,0.6614143773371,0.5638431807649711,A,1246.394051995594,Correct,k
17,24,510,B,64.81265721038339,37.810515736004895,3.24063286051917,0.5939261923233713,B,980.446759989718,Correct,d
17,24,511,B,68.85911783191666,41.16594191003006,3.442955891595833,0.6466331034132731,A,1859.0708669798914,Incorrect,k
17,24,512,A,24.197323796910908,36.45479183351755,1.2098661898455454,0.5726305310616197,A,1395.2791529882234,Correct,k
17,24,513,B,88.43723085706738,65.07153638424475,4.421861542853369,1.0221413033127211,A,2118.837248010095,Incorrect,k
17,24,514,A,65.01942722632114,83.60071931655487,3.250971361316057,1.3131970281985557,A,1189.8713410191704,Correct,k
17,24,515,B,73.41669098019356,43.754672953777124,3.670834549009678,0.6872967955590511,B,1090.2381610067096,Correct,d
17,24,516,A,68.79349105779224,87.66121623486498,3.439674552889612,1.3769791646409906,A,1706.2607429979835,Correct,k
17,24,517,A,61.145495533239654,86.89752494125008,3.0572747766619828,1.3649831298528352,A,1570.7743380044121,Correct,k
17,24,518,B,66.54773805248927,36.63217010468909,3.327386902624463,0.5754167824297144,B,1738.930083985906,Correct,d
17,24,519,B,31.642837359255,15.380779947849575,1.5821418679627501,0.24160072645322714,B,923.8163120171521,Correct,d
17,24,520,A,33.52047811787094,42.33991799167558,1.6760239058935469,0.6650738765812114,A,1094.3101900047623,Correct,k
17,24,521,B,66.71380022680034,51.190883062278665,3.3356900113400174,0.8041045107961441,B,865.8043119939975,Correct,d
17,24,522,A,21.94118307294856,49.11320877245939,1.0970591536474281,0.7714684793689008,A,1087.1877300087363,Correct,k
17,24,523,A,34.32097245318633,54.45223818570891,1.7160486226593163,0.8553337572787236,A,1207.5337629939895,Correct,k
17,24,524,B,85.80286135445807,60.36707938129874,4.290143067722903,0.9482438655147999,B,1602.209648990538,Correct,d
17,24,525,A,12.796552648333687,33.52959061499982,0.6398276324166844,0.5266815777697835,A,1276.5697540016845,Correct,k
17,24,526,A,63.729786959244585,73.97603167584242,3.186489347962229,1.1620127882727618,B,1429.2173389985692,Incorrect,d
17,24,527,B,65.33231039669786,41.68234638768339,3.2666155198348927,0.6547447659796559,B,1795.4196159844287,Correct,d
17,24,528,B,49.07253094612198,33.51414817397506,2.453626547306099,0.5264390084733992,B,1080.0701919943094,Correct,d
17,24,529,A,14.3470189547551,40.93862805055747,0.717350947737755,0.6430624656583818,A,883.1663249875419,Correct,k
17,24,530,A,20.52243603690784,49.693820954371496,1.026121801845392,0.7805887141953002,A,876.8423779984005,Correct,k
17,24,531,A,42.00440775305581,63.26369452220691,2.1002203876527905,0.9937437897495703,A,1827.0460230123717,Correct,k
17,24,532,B,61.41703578808511,46.521208967668755,3.070851789404255,0.7307534416447189,B,1048.5253160004504,Correct,d
17,24,533,A,54.839628910017154,64.7120635601954,2.7419814455008575,1.016494717396728,A,1154.226688988274,Correct,k
17,24,534,B,84.52490865446327,59.90004792408459,4.2262454327231636,0.9409077525399036,B,1087.490350997541,Correct,d
17,24,535,B,56.09802971389763,24.032690850423414,2.8049014856948817,0.3775046251084242,B,1351.5557989885565,Correct,d
17,24,536,A,36.34950747208229,62.39033708887067,1.8174753736041143,0.9800251232669346,A,1092.623841977911,Correct,k
17,24,537,B,42.994159513372225,16.334016560847896,2.149707975668611,0.25657413215586883,B,1675.6859169981908,Correct,d
17,24,538,A,16.6876265116503,39.92856710011918,0.8343813255825151,0.6271964653505078,A,1288.7139419908635,Correct,k
17,24,539,A,16.79133091183855,36.04937271613851,0.8395665455919274,0.5662622224577053,A,1414.638810994802,Correct,k
17,24,540,B,41.706958996710895,21.94186793517978,2.085347949835545,0.34466205555599116,B,1608.5498889733572,Correct,d
17,24,541,A,48.87326191371953,66.6420783839018,2.443663095685977,1.0468113193541053,A,1389.581224997528,Correct,k
17,24,542,B,52.24554661949498,45.25141039024282,2.612277330974749,0.7108074922328184,B,2697.0747299783397,Correct,d
17,24,543,B,41.70431239761379,30.02337510187784,2.0852156198806897,0.47160607328015064,B,2498.7217340094503,Correct,d
17,24,544,A,40.11375498788722,57.250972444141865,2.005687749394361,0.8992961722069388,A,2626.662974973442,Correct,k
17,24,545,A,37.146406418210674,60.3876095656866,1.8573203209105338,0.9485663528970486,A,2298.066696996102,Correct,k
17,24,546,B,58.402604927243615,33.70829736250139,2.9201302463621808,0.5294886967952729,B,1508.723253995413,Correct,d
17,24,547,A,28.2134588202558,41.78211558759414,1.41067294101279,0.6563119369071266,A,1048.5776370042004,Correct,k
17,24,548,B,37.62679665580404,21.470440677965385,1.8813398327902022,0.33725689351615756,B,1065.9408110077493,Correct,d
17,24,549,B,40.09854021052878,30.707590099407525,2.0049270105264387,0.48235369732872674,B,1093.983222002862,Correct,d
17,24,550,B,69.36598770957892,37.27453292091927,3.4682993854789457,0.5855069939517543,B,1068.824770016363,Correct,d
17,24,551,B,48.076295033337146,35.75490855022566,2.4038147516668573,0.561636790155819,A,1232.8611180128064,Incorrect,k
17,24,552,B,73.91165116160349,53.76109512918521,3.695582558080174,0.8444773075339512,A,1514.117367012659,Incorrect,k
17,24,553,B,61.7318637707917,32.15638674460354,3.086593188539585,0.5051113418141934,B,993.55015202309,Correct,d
17,24,554,A,21.508658492036176,37.17138668649228,1.0754329246018088,0.5838867766901481,A,1053.9711139863357,Correct,k
17,24,555,A,57.37827552959254,83.21545996975856,2.8689137764796273,1.307145388530445,A,1536.5230019961018,Correct,k
17,24,556,B,65.27794787797777,35.70594944458866,3.2638973938988887,0.5608677423228415,B,875.4418290045578,Correct,d
17,24,557,B,84.5307294348112,59.2473895019379,4.22653647174056,0.9306558180183058,B,1597.2859090252314,Correct,d
17,24,558,B,78.04621022002492,50.12530947046565,3.902310511001246,0.7873665199566487,B,1029.6533009968698,Correct,d
17,24,559,A,60.21867283237451,79.55196256914259,3.010933641618726,1.2495993059293427,A,944.8133889818564,Correct,k
17,24,560,B,48.42422402499291,33.44509812834319,2.4212112012496454,0.5253543728929635,B,1696.6132929956075,Correct,d
17,24,561,B,72.1635235104068,40.550094847540684,3.60817617552034,0.6369594003770157,B,1281.5277269983198,Correct,d
17,24,562,A,27.81997856771315,58.443096758794965,1.3909989283856574,0.9180220171523387,A,1486.6621909895912,Correct,k
17,24,563,A,25.728570560863275,38.023348680819666,1.2864285280431635,0.597269364402731,B,1073.4323750075419,Incorrect,d
17,24,564,B,49.7244344447278,20.491062244326365,2.48622172223639,0.3218728530551344,B,1303.1840900075622,Correct,d
17,24,565,A,18.54964375710739,32.242549676910826,0.9274821878553695,0.506464785989935,A,1174.411621002946,Correct,k
17,24,566,B,80.90399870183211,50.874826962131465,4.045199935091605,0.7991399131844208,B,717.7166909968946,Correct,d
17,24,567,A,42.88888437797434,73.3536550809165,2.144444218898717,1.1522365195808344,B,1414.2832230136264,Incorrect,d
17,24,568,B,78.50362097799533,52.021256363891155,3.925181048899766,0.8171479841165588,B,1407.2546219977085,Correct,d
17,24,569,B,60.73669174082648,31.891554133533816,3.0368345870413243,0.5009513608873551,B,1265.4269390041009,Correct,d
17,24,570,B,33.05971688875162,20.447576724124417,1.6529858444375811,0.3211897841011146,B,874.0975800028536,Correct,d
17,24,571,A,64.7105037339438,76.08788323247869,3.23552518669719,1.195185674951765,A,1639.334888983285,Correct,k
17,24,572,B,68.13958565353221,45.25792172764618,3.4069792826766103,0.7109097720815756,A,1278.854873002274,Incorrect,k
17,24,573,A,29.19406037774647,38.90821497046751,1.4597030188873237,0.6111688115775658,B,846.7424279951956,Incorrect,d
17,24,574,A,24.224304360831816,52.76934158839384,1.2112152180415907,0.8288988793443423,A,1204.4194760092068,Correct,k
17,24,575,B,63.043196560829735,44.305379548847476,3.1521598280414866,0.6959472745258335,B,1000.4427439998835,Correct,d
17,24,576,A,28.026634539925045,56.141447384490064,1.4013317269962522,0.8818677933250596,A,3918.8976119912695,Correct,k
17,24,577,A,54.352682713902304,72.58495384805498,2.717634135695115,1.1401617888510185,B,1251.2519480078481,Incorrect,d
17,24,578,B,41.39029281977757,28.131511308593044,2.0695146409888787,0.4418887463072705,B,903.7085709860548,Correct,d
17,24,579,A,22.2737852083741,41.25246572274199,1.1136892604187052,0.6479922162851549,A,741.2598599912599,Correct,k
17,24,580,B,54.656307147414076,29.920144780446325,2.7328153573707037,0.4699845351829658,B,1176.9037570047658,Correct,d
17,24,581,A,48.84750298783408,65.81908572245807,2.442375149391704,1.0338837808583554,A,611.0767690115608,Correct,k
17,24,582,B,68.67992475583979,51.73832131963674,3.4339962377919897,0.8127036508341946,B,649.624579004012,Correct,d
17,24,583,B,50.432788252125846,32.46610399969321,2.521639412606292,0.5099763690805919,B,1057.1477670164313,Correct,d
17,24,584,A,39.73537220733128,71.51257690675695,1.9867686103665643,1.1233169312477136,A,1298.2784119958524,Correct,k
17,24,585,B,41.27559400288338,27.43075746264484,2.063779700144169,0.43088133063524214,B,1778.342170000542,Correct,d
17,24,586,B,55.006505288237946,27.759242739549443,2.750325264411897,0.4360411652989216,B,1054.536935989745,Correct,d
17,24,587,B,63.971225601191804,44.42771137224088,3.1985612800595904,0.6978688583141983,A,1099.6388839848805,Incorrect,k
17,24,588,A,35.87682713995027,67.86276662170451,1.7938413569975138,1.0659858453551274,A,1111.2182179931551,Correct,k
17,24,589,B,70.53477166882178,58.09119152319467,3.526738583441089,0.9124943026377303,B,872.8538659925107,Correct,d
17,24,590,A,69.14032027050848,83.69989185584083,3.457016013525424,1.3147548268028486,A,1256.809449987486,Correct,k
17,24,591,A,59.516503351726925,70.12135720413603,2.975825167586346,1.1014637032612973,B,1109.5566709991544,Incorrect,d
17,24,592,B,52.84130168690981,25.30119169740831,2.6420650843454907,0.39743018981822503,B,1172.6112040050793,Correct,d
17,24,593,B,51.78040313472472,21.934301084269475,2.589020156736236,0.34454319573983805,A,995.845019002445,Incorrect,k
17,24,594,A,29.46454100724501,59.973971800300234,1.4732270503622504,0.9420689460721232,A,877.2012699919287,Correct,k
17,24,595,A,54.12842088775449,79.30193905083757,2.7064210443877244,1.2456719456876844,A,928.4390890097711,Correct,k
17,24,596,B,68.15262168658656,58.96888927347263,3.407631084329328,0.9262811466594576,A,847.0313219877426,Incorrect,k
17,24,597,B,33.45006987767455,14.684880234171622,1.6725034938837273,0.23066955931259764,B,728.8612489937805,Correct,d
17,24,598,A,31.22214116435887,58.79047615592331,1.5611070582179434,0.9234786399624729,A,841.8949659971986,Correct,k
17,24,599,A,43.85237511284855,67.38542775676426,2.1926187556424277,1.0584878239982816,A,1293.1867839943152,Correct,k
