subject,day,trial,cat,x,y,xt,yt,resp,rt,fb
17,15,0,A,16.95345607674052,34.10936577404018,0.847672803837026,0.5357886646716589,A,595.1684119936544,Correct
17,15,1,B,66.99455370449326,39.221849651602824,3.3497276852246625,0.6160953736283941,B,516.6423759947065,Correct
17,15,2,A,60.86586734603547,81.15550633480875,3.0432933673017737,1.2747877124989753,B,1442.191101014032,Incorrect
17,15,3,B,84.6596107743246,62.54334113130546,4.23298053871623,0.9824285051453479,B,1148.1106529972749,Correct
17,15,4,A,65.37208957130892,86.50879521819306,3.2686044785654462,1.3588769776418956,A,9052.109730007942,Correct
17,15,5,A,29.512804919140855,48.14773017941883,1.4756402459570426,0.7563027770934286,A,698.7421379890293,Correct
17,15,6,B,79.2245097441751,62.62300290760328,3.9612254872087544,0.9836798294012936,B,840.5137310037389,Correct
17,15,7,B,78.92231534679351,54.6400270241713,3.9461157673396756,0.8582835374554217,B,1218.6624689929886,Correct
17,15,8,B,58.75121074848535,30.106241177482786,2.9375605374242673,0.4729077305519122,B,1039.0961569937645,Correct
17,15,9,A,32.3025180073101,40.703649146144485,1.6151259003655047,0.63937142565912,A,886.2953760108212,Correct
17,15,10,A,36.95440731054209,50.91186912599924,1.8477203655271044,0.7997217701338211,A,1247.4745760118822,Correct
17,15,11,B,57.06068509450322,30.297675311652434,2.853034254725161,0.47591477089968065,B,743.5479739942821,Correct
17,15,12,A,40.835427689904265,52.61676709210312,2.0417713844952132,0.8265022447609817,A,2147.802887004218,Correct
17,15,13,B,57.92774147607478,27.102742804432296,2.896387073803739,0.4257288884326906,B,360.1617259992054,Correct
17,15,14,B,77.62239746700762,48.80506895347358,3.8811198733503804,0.7666282304108794,B,561.7506639973726,Correct
17,15,15,B,33.73890664456959,18.63089141140959,1.6869453322284795,0.2926533579395677,A,481.27296500024386,Incorrect
17,15,16,A,54.92356177278987,62.69065706133912,2.7461780886394935,0.9847425383631002,A,553.388887012261,Correct
17,15,17,A,51.65039198090143,79.7031168656303,2.5825195990450713,1.2519736320663644,A,637.6108740078053,Correct
17,15,18,A,57.40470930195471,68.98370670094636,2.8702354650977355,1.0835935309454303,A,929.7853169991868,Correct
17,15,19,A,53.206160296732676,76.50545787370858,2.660308014836634,1.2017449220778313,A,2278.679007999017,Correct
17,15,20,B,87.02169700475824,61.022030318614064,4.351084850237912,0.9585318107804579,B,686.3548470137175,Correct
17,15,21,A,25.54490044802605,36.373669195699776,1.2772450224013026,0.5713562596465789,A,485.50800899101887,Correct
17,15,22,B,52.225917974024526,21.011400511283636,2.6112958987012265,0.33004630743940744,B,520.9457730088616,Correct
17,15,23,A,63.16942312039056,86.46911749475069,3.158471156019528,1.3582537214195072,A,504.59755600604694,Correct
17,15,24,B,64.67790476972314,34.11160383766464,3.233895238486157,0.5358238200928631,B,573.8874110102188,Correct
17,15,25,B,61.78883925847557,37.397683605783826,3.0894419629237784,0.5874414403860295,B,701.8824239930836,Correct
17,15,26,A,50.42174758811342,59.23873112195137,2.521087379405671,0.9305198125035175,A,746.5144080051687,Correct
17,15,27,B,62.13931183794247,31.32958070568285,3.106965591897124,0.4921239029251089,B,526.6137559956405,Correct
17,15,28,B,72.80726140700435,62.61994996148167,3.6403630703502174,0.9836318738357563,B,1100.9614860086003,Correct
17,15,29,B,33.42058717830691,16.00512442397249,1.6710293589153453,0.2514079065507127,A,549.8087460000534,Incorrect
17,15,30,B,85.01495886255111,63.38491395223019,4.250747943127555,0.9956479001037377,B,559.774670007755,Correct
17,15,31,B,85.49598844586494,62.31997769337309,4.274799422293247,0.9789199204669033,B,1491.042474997812,Correct
17,15,32,A,45.178324274775285,59.26219461372801,2.258916213738764,0.9308883761704826,A,794.3283519998658,Correct
17,15,33,B,79.67024812901658,51.64400628799987,3.9835124064508296,0.8112221537816274,B,1862.0568150072359,Correct
17,15,34,A,29.48296615967905,51.93102880911019,1.4741483079839526,0.8157306930003023,A,765.5704409989994,Correct
17,15,35,A,46.84944560614325,77.52673343058075,2.3424722803071627,1.2177870810116336,A,536.3850080029806,Correct
17,15,36,A,30.866341587080427,39.80911322334314,1.5433170793540214,0.6253200882418954,A,600.3008230036357,Correct
17,15,37,B,70.3871399389587,46.367570515044356,3.5193569969479346,0.7283400944743502,B,722.8300330025377,Correct
17,15,38,A,19.888585073562652,51.3840623681645,0.9944292536781326,0.8071389642371266,A,809.1342809930211,Correct
17,15,39,A,30.62246107569672,52.46630754837126,1.531123053784836,0.8241388317747292,A,371.01409600290935,Correct
17,15,40,A,34.02312728475225,58.27166007307851,1.7011563642376126,0.9153290959903256,A,811.4412769937189,Correct
17,15,41,B,42.08771633699173,15.335419190747192,2.1043858168495864,0.24088820134685654,A,1450.7900930038886,Incorrect
17,15,42,B,64.36826695821384,48.38179992752092,3.218413347910692,0.7599795360987546,B,1580.9431609959574,Correct
17,15,43,B,70.13012097607609,51.024402252027855,3.5065060488038045,0.8014894363439061,B,1479.3798760074424,Correct
17,15,44,A,18.40332654783108,44.45315536201038,0.9201663273915541,0.6982685315708876,A,538.5944239969831,Correct
17,15,45,B,73.47654371127106,41.60013969674137,3.673827185563553,0.6534534662979591,B,806.7687270086026,Correct
17,15,46,B,39.503644945676726,22.603457218284085,1.9751822472838365,0.3550542757134623,B,628.056720001041,Correct
17,15,47,B,53.394481310670606,38.75621002862609,2.6697240655335306,0.608781123534574,B,959.2348320002202,Correct
17,15,48,B,64.25474668669368,55.73873234616993,3.212737334334684,0.8755419602956762,A,778.3956409984967,Incorrect
17,15,49,A,34.57567986792807,54.46956634546615,1.7287839933964038,0.8556059473756914,A,468.0917950026924,Correct
17,15,50,B,33.080373191062904,13.823842081683296,1.6540186595531452,0.2171444036410084,B,1089.3326960067498,Correct
17,15,51,A,59.80009801272894,82.47151231354897,2.990004900636447,1.295459486073428,A,569.259609997971,Correct
17,15,52,B,37.95888318978548,27.317873841072714,1.8979441594892739,0.4291081588540342,B,1284.1114170005312,Correct
17,15,53,B,81.22510894784068,58.83106003909768,4.061255447392034,0.9241161301086466,A,2086.0598209983436,Incorrect
17,15,54,A,50.90374222480126,65.85462053871228,2.545187111240063,1.03444196044681,A,919.8619249946205,Correct
17,15,55,A,22.967267408042602,48.66104261764041,1.14836337040213,0.7643658700179949,A,811.1163089924958,Correct
17,15,56,A,45.44479098619368,61.93314462928146,2.272239549309684,0.9728435609053239,A,760.8704420126742,Correct
17,15,57,A,31.14320379640327,44.86228128901432,1.5571601898201635,0.7046950666042311,A,781.121534993872,Correct
17,15,58,B,54.64227673670273,22.557069144274767,2.7321138368351363,0.35432561355085307,B,466.9737689982867,Correct
17,15,59,B,83.36850805296181,54.85201854176355,4.168425402648091,0.8616134924268775,B,670.0751089956611,Correct
17,15,60,A,38.41482874302754,62.41328896916276,1.9207414371513771,0.980385650559493,A,2701.714130002074,Correct
17,15,61,A,23.67254739108901,54.746403323635626,1.1836273695544506,0.8599544924599875,A,1310.4880809987662,Correct
17,15,62,B,83.46654413031945,66.26008008394483,4.173327206515973,1.0408109040899622,B,993.0958869954338,Correct
17,15,63,A,51.650647666438196,75.1137745273047,2.58253238332191,1.179884411191903,A,962.2341439971933,Correct
17,15,64,B,66.38981511786487,51.147881934431446,3.3194907558932436,0.8034290506594396,B,1046.9122249924112,Correct
17,15,65,A,22.49921623525077,50.28672921345095,1.1249608117625385,0.7899020953501835,A,577.5932450051187,Correct
17,15,66,A,67.77370681728826,85.4079661525215,3.388685340864413,1.3415851951140363,A,2702.549576992169,Correct
17,15,67,A,13.007282797648738,40.39440144193375,0.6503641398824369,0.6345137740806801,A,2555.6970489997184,Correct
17,15,68,A,27.283608354422718,37.13704349957058,1.3641804177211359,0.5833473151714775,A,1102.4268930050312,Correct
17,15,69,B,71.91658625923316,53.104764710603504,3.5958293129616576,0.8341676934272324,B,614.8927229951369,Correct
17,15,70,B,59.13542099174777,50.861686202729466,2.9567710495873887,0.7989334986184212,B,654.6821419906337,Correct
17,15,71,B,55.92715557979784,34.10184477007822,2.796357778989892,0.5356705250176863,B,710.3977180086076,Correct
17,15,72,B,31.407008660269703,14.152191680256944,1.570350433013485,0.22230210707444903,B,708.4360169974389,Correct
17,15,73,A,48.17595863543612,75.66223502573129,2.4087979317718062,1.1884996085551087,A,704.0714150061831,Correct
17,15,74,A,22.69397851527805,52.21226500903404,1.1346989257639024,0.8201483408983239,A,558.2302539987722,Correct
17,15,75,A,39.24021468802976,59.381372235904365,1.962010734401488,0.9327604138819903,A,476.8967230047565,Correct
17,15,76,B,79.00388010512553,49.09621132002365,3.9501940052562765,0.7712014840103917,B,474.1924100089818,Correct
17,15,77,A,50.75220177885882,69.7241906282609,2.537610088942941,1.0952250252761937,A,582.8770259977318,Correct
17,15,78,B,62.341870427928946,33.36728374663712,3.1170935213964475,0.5241320674434065,B,554.7684229968581,Correct
17,15,79,A,40.297250760318015,51.84818951247455,2.0148625380159007,0.8144294563716069,A,1302.940100998967,Correct
17,15,80,B,83.94997453187875,64.35024362145273,4.197498726593937,1.0108112630893469,B,779.1857560077915,Correct
17,15,81,A,29.37799305666897,50.72298386607267,1.4688996528334486,0.7967547674090375,A,1280.7199810049497,Correct
17,15,82,B,77.78925293718044,54.924035989005716,3.889462646859022,0.8627447398428087,B,1242.3762469989015,Correct
17,15,83,A,27.860722970833713,56.970082084377765,1.3930361485416856,0.8948839567534435,A,543.3339519950096,Correct
17,15,84,B,51.357692202694494,43.22750023531015,2.5678846101347244,0.6790159858615071,A,1420.9355630009668,Incorrect
17,15,85,B,67.83981813064602,53.6699210948156,3.391990906532301,0.8430451491510828,B,1097.5290320056956,Correct
17,15,86,B,72.91874605928896,59.67616292191697,3.6459373029644486,0.9373909751496097,B,1820.6341850018362,Correct
17,15,87,A,22.371757062670646,50.448338009359254,1.1185878531335323,0.7924406403800888,A,1451.9589069968788,Correct
17,15,88,B,64.30172539859558,49.54484925929965,3.215086269929779,0.7782486722811476,B,810.7877039874438,Correct
17,15,89,A,34.27305886365124,45.91922831540511,1.713652943182562,0.7212975516709453,A,686.8920999986585,Correct
17,15,90,A,20.649324376201896,45.125590367869094,1.0324662188100948,0.7088311159429993,A,1029.8494040034711,Correct
17,15,91,A,44.94621904786906,65.78435967482193,2.2473109523934527,1.033338305377646,A,928.5844869882567,Correct
17,15,92,A,17.553799582332,47.17252809275184,0.8776899791166001,0.7409843385372366,A,1367.305687002954,Correct
17,15,93,B,76.90262097410869,48.329985303090865,3.845131048705434,0.7591656338814646,B,1655.7041139894864,Correct
17,15,94,A,19.39207728215031,50.95293827137761,0.9696038641075155,0.8003668827608706,A,1108.990521999658,Correct
17,15,95,B,77.3404813351496,64.90938007887253,3.8670240667574802,1.019594158024268,B,1018.6807949939976,Correct
17,15,96,A,58.695170234733396,81.45910930780988,2.9347585117366695,1.2795566968469174,A,749.0674729924649,Correct
17,15,97,A,30.033186769640242,53.34329528436783,1.501659338482012,0.837914522918205,A,2075.206769994111,Correct
17,15,98,B,84.98851796603321,60.7470435987023,4.249425898301661,0.9542123294849101,B,1170.7521799980896,Correct
17,15,99,B,62.986119648033544,34.415247334021736,3.1493059824016774,0.540593440980192,B,1391.505876003066,Correct
17,15,100,B,50.862095026692074,36.69658541327367,2.543104751334604,0.5764286157308546,B,1582.0510699995793,Correct
17,15,101,B,75.46651973837487,50.856433949772196,3.7733259869187434,0.7988509964218944,B,1018.5055720066885,Correct
17,15,102,B,34.44861348758644,12.530330828330179,1.722430674379322,0.19682597638665894,B,999.864252997213,Correct
17,15,103,B,54.42860802172463,31.043623137322804,2.7214304010862316,0.4876320919451173,B,1151.530435992754,Correct
17,15,104,B,43.89246806713783,24.380400444734494,2.1946234033568914,0.38296643464377605,B,846.2486349890241,Correct
17,15,105,A,66.4580293913087,78.75295796495445,3.322901469565435,1.2370485709558332,A,977.3733689944493,Correct
17,15,106,B,59.5546583062515,38.95974531580613,2.9777329153125747,0.6119782483493295,B,758.4088440053165,Correct
17,15,107,A,68.94389025401557,83.81502699692226,3.4471945127007784,1.316563365369806,A,636.4787180064013,Correct
17,15,108,A,20.04319858662269,50.22070743555727,1.0021599293311345,0.7888650276881451,A,1088.71877900674,Correct
17,15,109,B,48.10379533617801,30.258499189680048,2.4051897668089004,0.4752993938147578,A,808.2697079953505,Incorrect
17,15,110,B,31.53320094133251,17.977345041284593,1.5766600470666254,0.2823874755637429,B,722.4243200034834,Correct
17,15,111,B,67.96261884361967,49.17992925028728,3.3981309421809835,0.7725165221838414,B,959.6996610052884,Correct
17,15,112,A,51.73384634350363,74.52163030031483,2.5866923171751814,1.1705830314250179,A,1209.5968990033725,Correct
17,15,113,A,63.12304106158573,80.77784727211255,3.1561520530792864,1.2688554578143356,A,1020.128164003836,Correct
17,15,114,A,38.70877448088743,67.98479993779124,1.9354387240443713,1.0679027402016839,A,1814.1907529934542,Correct
17,15,115,B,55.16013580222522,37.5371945003913,2.758006790111261,0.5896328723940025,B,1091.420091004693,Correct
17,15,116,A,58.18794444692939,68.18264160232178,2.90939722234647,1.0710104298009995,A,1434.8347259947332,Correct
17,15,117,A,62.83925497439929,81.91439411187011,3.141962748719964,1.2867082938255505,A,473.903751000762,Correct
17,15,118,A,52.861152300893266,66.12882552083344,2.643057615044663,1.0387491622338578,A,2195.0556350057013,Correct
17,15,119,B,71.7169238985278,45.34757810670628,3.58584619492639,0.712318091190589,B,1337.9772469925229,Correct
17,15,120,B,55.38037786968181,30.037340814621494,2.7690188934840902,0.47182544618293876,B,1442.8980329976184,Correct
17,15,121,A,17.155452566163415,39.538555800314896,0.8577726283081708,0.6210701821790969,A,1135.3342569927918,Correct
17,15,122,B,76.4470419089295,56.01812848359564,3.8223520954464756,0.879930704559566,B,926.2124740052968,Correct
17,15,123,B,65.0170778544717,41.08267317411231,3.250853892723585,0.6453251211681084,B,568.1386069918517,Correct
17,15,124,A,38.896558630852354,69.14337311812581,1.9448279315426178,1.0861015651616104,A,1338.1809529964812,Correct
17,15,125,A,14.834675262068895,30.74850356827895,0.7417337631034449,0.4829963645949234,A,991.8361400050344,Correct
17,15,126,A,52.77648620286955,73.12015059258775,2.638824310143477,1.1485686396552652,A,1066.415341992979,Correct
17,15,127,B,68.17420349330307,52.17734205950251,3.4087101746651536,0.8195997724898741,B,587.6162670028862,Correct
17,15,128,B,72.97149692193472,46.23544588914882,3.6485748460967358,0.7262646857039917,B,4078.5449109971523,Correct
17,15,129,B,36.4873263622279,16.822714135586747,1.8243663181113947,0.26425057570900246,B,1020.021322008688,Correct
17,15,130,B,81.05841394818434,64.17216971714086,4.052920697409217,1.0080140847414356,B,1235.0695410132175,Correct
17,15,131,A,45.88674549840408,75.93838632997385,2.294337274920204,1.192837383098547,A,796.8618019949645,Correct
17,15,132,B,38.75230555830305,27.28520752201755,1.9376152779151525,0.42859503751421657,B,1457.6501150004333,Correct
17,15,133,B,61.29057687407857,34.53645678789542,3.064528843703928,0.542497394629368,B,1114.721225007088,Correct
17,15,134,A,64.3498273457453,84.78604290449336,3.217491367287265,1.3318160475785266,A,839.6347860107198,Correct
17,15,135,B,49.37562872442879,19.83402069684121,2.4687814362214398,0.3115520685617213,B,1455.270546997781,Correct
17,15,136,A,53.04778791164147,61.18566063625495,2.652389395582073,0.9611021097994837,A,1504.7287219931604,Correct
17,15,137,B,78.18245734140164,64.15796974648337,3.909122867070082,1.0077910321239418,B,1773.2659220055211,Correct
17,15,138,B,61.54781122588001,35.290697313663685,3.077390561294001,0.5543449771033344,B,2224.0041850018315,Correct
17,15,139,A,34.23546536182186,54.15382866058146,1.711773268091093,0.8506463514192155,A,1228.0461360060144,Correct
17,15,140,A,27.0931411970782,60.04409172373359,1.35465705985391,0.9431703872537657,A,913.3307269949,Correct
17,15,141,B,60.10354527391095,32.82656786475791,3.005177263695548,0.5156385222324512,B,1436.5448500029743,Correct
17,15,142,A,17.19446512299319,42.296238961433374,0.8597232561496595,0.6643877679785873,A,1151.3647339888848,Correct
17,15,143,A,33.01963701859891,44.31010632134459,1.6509818509299452,0.696021522494594,A,1494.7669840039453,Correct
17,15,144,A,27.37523123464584,43.11284783624223,1.3687615617322921,0.6772150301883659,A,1549.9118190055015,Correct
17,15,145,A,31.331360831827034,41.17116227602098,1.5665680415913517,0.6467151047305036,A,661.7264730011811,Correct
17,15,146,B,67.12110000465454,46.933136619005914,3.3560550002327267,0.7372239860609754,B,1732.755899996846,Correct
17,15,147,B,52.272945302904766,25.37836546783169,2.6136472651452385,0.3986424325692846,B,1252.8485499933595,Correct
17,15,148,A,48.582659408424185,70.46128654341057,2.4291329704212092,1.1068033008363198,A,1204.1740559943719,Correct
17,15,149,A,68.94121500830896,86.96043390827643,3.447060750415448,1.36597130159611,A,1734.271487002843,Correct
17,15,150,B,47.863722653600426,33.897357697972126,2.3931861326800212,0.5324584496002732,A,1445.5493179993937,Incorrect
17,15,151,B,81.28016962595918,67.32538293250528,4.064008481297958,1.0575446421043913,A,778.2877139979973,Incorrect
17,15,152,B,33.64710684235807,18.663680217353967,1.6823553421179036,0.29316840329894184,B,655.96294500574,Correct
17,15,153,B,46.66767294723261,18.672950086766413,2.3333836473616305,0.2933140140671713,B,564.0743129915791,Correct
17,15,154,B,52.33365667633704,28.712366809308385,2.6166828338168524,0.45101280317649306,A,488.3093680109596,Incorrect
17,15,155,B,81.49963270502758,59.73401293759456,4.074981635251379,0.9382996810709234,A,709.5930240029702,Incorrect
17,15,156,A,40.00483489066357,64.18924288250808,2.0002417445331786,1.0082822693958915,A,626.4881719980622,Correct
17,15,157,B,73.05530218284335,47.167389070033884,3.6527651091421673,0.7409036149571497,B,589.0152109932387,Correct
17,15,158,B,52.907440770303666,44.45089457933452,2.645372038515183,0.6982330192796585,B,1096.9110389996786,Correct
17,15,159,A,29.606510556974172,51.006768107231316,1.4803255278487086,0.8012124398451803,A,631.3316649902845,Correct
17,15,160,B,69.021701461103,59.862765533730325,3.4510850730551503,0.9403221221216772,B,686.283557995921,Correct
17,15,161,A,21.592527780958864,43.83852139721816,1.0796263890479432,0.6886138838286976,A,510.92841700301506,Correct
17,15,162,A,59.87623476540885,83.14427746697366,2.993811738270443,1.3060272563913793,A,891.1476499924902,Correct
17,15,163,B,77.54679122617324,58.815110140939666,3.877339561308662,0.9238655896942529,B,759.3799610040151,Correct
17,15,164,A,27.323557114623988,40.25985913127849,1.3661778557311992,0.6324003884069224,A,555.1765510026598,Correct
17,15,165,A,37.59170578071732,55.6352546185018,1.879585289035866,0.8739165359504143,A,733.9457909984048,Correct
17,15,166,B,40.49906821636641,28.399407962717184,2.0249534108183207,0.4460968571098589,B,813.0264849896776,Correct
17,15,167,B,72.24243365209534,40.682612726396286,3.612121682604767,0.6390409863504259,B,935.5378260079306,Correct
17,15,168,B,40.55335825265563,17.096706509299704,2.0276679126327815,0.2685544378509837,B,594.2231140070362,Correct
17,15,169,B,42.25812704082966,14.869663369298259,2.1129063520414832,0.23357212601170332,B,993.727494002087,Correct
17,15,170,B,44.216770348062596,36.56291387553986,2.21083851740313,0.5743289081261618,B,1568.2076280063484,Correct
17,15,171,B,48.09121786974826,31.496289921991327,2.4045608934874134,0.49474256517131093,B,791.4500329934526,Correct
17,15,172,A,55.390748271667356,74.83534347205335,2.769537413583368,1.1755108264033585,A,434.205227997154,Correct
17,15,173,B,55.082472436247684,27.50320649000089,2.7541236218123846,0.43201935729574953,B,531.4550549956039,Correct
17,15,174,B,68.41300072032506,58.070268467507454,3.420650036016253,0.9121656440475421,A,948.8168579991907,Incorrect
17,15,175,A,49.141459876045786,76.8551532900107,2.4570729938022895,1.207237924832075,A,1966.5456359944073,Correct
17,15,176,A,55.1766691534158,81.70011918355652,2.75883345767079,1.2833424711223584,A,1365.3901239886181,Correct
17,15,177,B,52.48424908299137,43.961531861407664,2.6242124541495686,0.6905461276817597,B,1609.9251670093508,Correct
17,15,178,B,54.38074027771421,37.65400875766239,2.7190370138857105,0.5914677864563895,B,1273.9202590018976,Correct
17,15,179,A,52.85701051811937,70.76574189785546,2.6428505259059683,1.1115856743606707,A,820.0219230056973,Correct
17,15,180,A,57.29418052881617,68.50422093702696,2.8647090264408086,1.07606178617828,A,897.8755099960836,Correct
17,15,181,B,81.98157202881879,54.08290689435905,4.099078601440939,0.8495323149204957,B,1122.0510769926477,Correct
17,15,182,A,28.194199473928595,43.260188130063874,1.4097099736964298,0.6795294461116052,A,570.4893479996826,Correct
17,15,183,B,83.87617919652257,55.47797877054581,4.193808959826129,0.8714460527077861,B,1051.1445199954323,Correct
17,15,184,A,37.0880898838722,62.71648797206551,1.8544044941936102,0.985148289359968,A,1308.3161969989305,Correct
17,15,185,B,85.64934743851353,63.02378673162282,4.2824673719256765,0.9899753269873807,B,880.1885840075556,Correct
17,15,186,A,58.53580485219965,83.54507019296632,2.9267902426099823,1.312322893809333,A,1093.1525300111389,Correct
17,15,187,A,56.816001465875885,85.34950536179758,2.8408000732937944,1.3406668951607297,A,777.4257220007712,Correct
17,15,188,A,64.30546211700872,76.8176472724576,3.2152731058504354,1.206648781686024,A,965.8253679954214,Correct
17,15,189,A,54.65512021205545,79.29482786619448,2.7327560106027726,1.245560243460519,A,458.0140939942794,Correct
17,15,190,B,43.896554288920264,24.509180501647606,2.194827714446013,0.38498930704741163,B,1274.9865600053454,Correct
17,15,191,B,70.56752980178084,39.3769085023916,3.528376490089042,0.6185310323609546,B,900.880455999868,Correct
17,15,192,B,55.44280896328686,48.23612420768726,2.772140448164343,0.7576912672425755,A,721.4699839969398,Incorrect
17,15,193,B,51.62096370329266,26.703879484874786,2.581048185164633,0.4194635580601491,B,686.4601709967246,Correct
17,15,194,A,53.73433421159313,75.26939857130982,2.686716710579656,1.182328947958745,A,879.1664269956527,Correct
17,15,195,A,31.420036018413413,40.06037846781597,1.5710018009206705,0.629266953472587,A,614.0435999986948,Correct
17,15,196,A,38.79060613402159,45.905273968761904,1.9395303067010792,0.7210783573064458,A,1156.683351000538,Correct
17,15,197,A,21.28576699076429,46.66466107951655,1.0642883495382145,0.7330067821483337,A,813.0648929945892,Correct
17,15,198,A,30.18850287727178,39.114020224383914,1.509425143863589,0.6144015929464355,A,889.0306190005504,Correct
17,15,199,B,55.15022338542462,37.36577732888457,2.757511169271231,0.5869402577604791,B,1660.3612690087175,Correct
17,15,200,A,22.351802128380438,52.6863139327477,1.117590106419022,0.8275946839792288,A,613.0981830065139,Correct
17,15,201,B,68.60740346315102,56.75251888232573,3.4303701731575504,0.8914664819671526,B,1232.2392339992803,Correct
17,15,202,A,48.81428694499002,55.47703549778727,2.440714347249501,0.8714312358139431,A,1042.869861004874,Correct
17,15,203,A,51.225264207430726,67.29129407701281,2.561263210371536,1.0570091756144688,A,983.89118500927,Correct
17,15,204,B,80.83580585387463,58.20257127135355,4.041790292693731,0.9142438516306033,B,681.8682099983562,Correct
17,15,205,B,72.14322374951988,52.99729108685758,3.6071611874759935,0.8324795016931581,B,840.3943459998118,Correct
17,15,206,B,60.505735340693434,46.69632325922299,3.0252867670346717,0.7335041305041458,A,3498.4938699926715,Incorrect
17,15,207,A,28.581603969925105,50.56396597533916,1.4290801984962553,0.7942569202224488,A,982.6362570020137,Correct
17,15,208,B,79.43621731517821,59.73547627298362,3.971810865758911,0.9383226670894638,B,856.4806259964826,Correct
17,15,209,B,80.21420646403737,62.56571767761976,4.010710323201868,0.9827799951129164,B,824.6495200000936,Correct
17,15,210,A,59.8701025744157,77.75537906296631,2.9935051287207846,1.2213786382065228,A,1490.1285660016583,Correct
17,15,211,A,49.15901610224296,58.81649447180111,2.457950805112148,0.9238873347125751,A,1022.5560480030254,Correct
17,15,212,A,64.10453443257373,78.7310607828235,3.2052267216286863,1.236704610823249,A,634.1465419973247,Correct
17,15,213,A,56.792855197874516,72.67097596805068,2.839642759893726,1.1415130211521423,A,528.5651549929753,Correct
17,15,214,B,58.35357654935546,27.553950830941556,2.917678827467773,0.4328164475393018,B,622.1906509890687,Correct
17,15,215,A,14.24836590138273,38.85448099425964,0.7124182950691365,0.6103247602530516,A,1284.553876001155,Correct
17,15,216,A,38.798104493947456,60.82655897275967,1.9399052246973727,0.9554613540598405,A,1528.0381940101506,Correct
17,15,217,A,30.012892527317323,50.53045433144801,1.5006446263658662,0.7937305205511581,B,888.1373219919624,Incorrect
17,15,218,A,24.582627125354758,42.023451609422295,1.229131356267738,0.6601028342732362,A,1114.3807500047842,Correct
17,15,219,B,66.81652181082544,47.3876707674503,3.3408260905412717,0.7443637917687684,B,732.6574839971727,Correct
17,15,220,A,66.37735001433043,81.35625830354076,3.3188675007165216,1.2779411170497863,A,532.533618999878,Correct
17,15,221,B,79.03835999146936,51.96542622149972,3.951917999573468,0.8162710062906297,B,1811.5179619926494,Correct
17,15,222,A,38.639401673502064,48.37771590697836,1.931970083675103,0.7599153844540865,A,510.1671059965156,Correct
17,15,223,A,18.278372444360045,42.7973699108983,0.9139186222180022,0.6722595145252147,A,854.1654430009658,Correct
17,15,224,A,44.821141470345864,69.44442290271667,2.241057073517293,1.0908304441197874,A,1418.4693290008,Correct
17,15,225,B,66.86336310159284,41.66916571183479,3.343168155079642,0.6545377244075794,B,690.9213829931105,Correct
17,15,226,B,73.14826881386843,56.05086557120032,3.6574134406934213,0.88044493752916,A,954.4165099941893,Incorrect
17,15,227,B,53.04827400573112,35.40058332021928,2.6524137002865564,0.5560710624579713,B,1533.7832890072605,Correct
17,15,228,A,35.46870463907521,59.205075044819885,1.7734352319537607,0.9299911440801927,A,2940.388458009693,Correct
17,15,229,B,37.45589997131346,20.133474269493913,1.8727949985656727,0.316255874281406,B,673.5782159958035,Correct
17,15,230,B,88.16064476857521,65.43899588264034,4.408032238428761,1.027913343615978,B,1240.0950660085073,Correct
17,15,231,A,32.43989399971005,48.677843384178644,1.6219946999855026,0.7646297758416507,A,1502.9326869989745,Correct
17,15,232,A,31.40245311968542,55.96902755128856,1.570122655984271,0.8791594289184642,A,792.336662998423,Correct
17,15,233,B,41.09014003729268,30.491216946180113,2.054507001864634,0.4789549157856602,B,2043.811020994326,Correct
17,15,234,B,86.69401454756985,60.3436503515387,4.334700727378492,0.9478758431759255,B,647.5835739984177,Correct
17,15,235,A,55.59075480399898,79.61562373427793,2.7795377401999493,1.2505992931728835,A,957.1209919959074,Correct
17,15,236,A,13.182515735439132,38.37337005353727,0.6591257867719565,0.6027674872683764,A,817.3090510099428,Correct
17,15,237,B,65.78962927025191,42.5463316982309,3.2894814635125953,0.6683162155017837,B,934.9287489894778,Correct
17,15,238,B,73.53714909095942,44.91630541795561,3.676857454547971,0.705543675637224,B,1634.2252449976513,Correct
17,15,239,B,49.344463628653806,34.79764049052183,2.4672231814326904,0.5466000586364106,B,732.0588230068097,Correct
17,15,240,A,20.234058280691112,40.90710952367922,1.0117029140345557,0.6425673737959184,A,1214.022529005888,Correct
17,15,241,B,70.9040061159622,46.86750322452885,3.5452003057981103,0.7361930191113788,B,1356.2446959986119,Correct
17,15,242,A,45.25268775964808,71.50931083421722,2.2626343879824042,1.1232656279002289,A,1597.9920999961905,Correct
17,15,243,A,15.882501759221249,38.99803788161776,0.7941250879610624,0.612579746566534,A,1203.212191001512,Correct
17,15,244,B,34.29792475494334,10.628230573491798,1.7148962377471668,0.16694785545170135,B,1009.449946010136,Correct
17,15,245,A,34.09707844299132,54.415772204240696,1.704853922149566,0.8547609509812912,A,751.8164289940614,Correct
17,15,246,A,62.45624888754868,79.97172719084548,3.122812444377434,1.2561929531882363,A,1335.6048860005103,Correct
17,15,247,B,39.763417266300834,15.823941029625956,1.988170863315042,0.24856188444755503,B,2087.434264001786,Correct
17,15,248,B,77.35928229233463,61.217279275635875,3.8679641146167314,0.9615987742254617,B,1838.8355990027776,Correct
17,15,249,A,34.815513189308206,65.97464835679648,1.7407756594654102,1.0363273530044088,A,1394.315027006087,Correct
17,15,250,B,30.236279525925436,11.767124613443166,1.511813976296272,0.1848375611973434,B,1557.4165389989503,Correct
17,15,251,B,83.61529935601781,54.714840554120386,4.180764967800891,0.8594587056358074,A,887.5101390003692,Incorrect
17,15,252,A,65.42974674716086,85.42909913668653,3.271487337358043,1.3419171512530428,A,1694.926240001223,Correct
17,15,253,B,52.91203558005311,37.09028073948225,2.6456017790026554,0.5826127674537022,A,1573.5723090037936,Incorrect
17,15,254,B,51.02657092249534,40.86618315977015,2.551328546124767,0.6419245039749442,B,883.7032629962778,Correct
17,15,255,A,42.11773341285776,57.64366081995472,2.1058866706428883,0.9054645067899576,A,493.3453539997572,Correct
17,15,256,B,50.955380659932125,22.15434378305563,2.5477690329966065,0.34799961836975135,B,1285.6194920022972,Correct
17,15,257,B,50.87704294305568,26.572381041419188,2.543852147152784,0.41739798534055605,B,1416.3945500040427,Correct
17,15,258,B,88.99761659104729,66.69154647792604,4.449880829552365,1.0475883623579736,B,1354.0543120034272,Correct
17,15,259,A,44.95354321136043,64.24267827154296,2.2476771605680215,1.00912163052406,A,578.9135840022936,Correct
17,15,260,A,54.57698170648386,72.89944239937503,2.7288490853241933,1.1451017634633442,A,1578.9422530069714,Correct
17,15,261,B,35.224490333178835,20.608005083942153,1.7612245166589418,0.3237097868842689,B,3104.3880009965505,Correct
17,15,262,A,43.28411886354648,61.40121024157859,2.164205943177324,0.9644879550823284,A,1189.3836380040739,Correct
17,15,263,A,30.47093367792982,45.923888231451855,1.523546683896491,0.7213707494610395,B,940.0677580124466,Incorrect
17,15,264,A,17.182508138900527,31.776701174385764,0.8591254069450264,0.4991472548238423,A,501.63063599029556,Correct
17,15,265,A,67.99068771143858,84.6656474718656,3.399534385571929,1.329924880545181,A,1785.9230720059713,Correct
17,15,266,A,21.524759351328335,35.40427013723608,1.0762379675664167,0.5561289748442468,A,2186.6195459879236,Correct
17,15,267,B,39.17795730353801,30.62360370956148,1.9588978651769002,0.48103444220201746,B,836.7503000044962,Correct
17,15,268,A,52.2873921102517,69.99479166047007,2.614369605512585,1.0994756163504045,A,882.6220229966566,Correct
17,15,269,A,49.294136044108896,58.44216900058551,2.464706802205445,0.9180074439604627,A,985.4983629920753,Correct
17,15,270,A,37.48733133003807,55.31628687449238,1.8743665665019034,0.8689062023438539,A,1751.823026992497,Correct
17,15,271,A,27.663038372271014,48.14744662047398,1.3831519186135506,0.7562983229599387,A,1980.229524007882,Correct
17,15,272,B,57.925125358725396,49.487808345435504,2.89625626793627,0.7773526757013992,B,1799.4514959864318,Correct
17,15,273,B,72.02660138062885,42.70701162233728,3.6013300690314423,0.6708401698475437,B,2042.7063449897105,Correct
17,15,274,B,54.027290290994216,30.685286336083998,2.7013645145497107,0.4820033506337037,B,1544.8054560110904,Correct
17,15,275,B,44.70435363384284,35.49453596504905,2.2352176816921423,0.5575468671518841,A,1542.7586730074836,Incorrect
17,15,276,A,62.606873482635365,77.0066095624077,3.130343674131768,1.2096169943955877,A,1144.8463929991703,Correct
17,15,277,A,30.494406492330434,41.86212096928349,1.5247203246165215,0.6575686585039411,B,673.1599850027123,Incorrect
17,15,278,A,18.01834545182885,45.86475572485202,0.9009172725914425,0.7204418982194276,A,2353.5007440077607,Correct
17,15,279,B,76.91624396450104,46.69570361464738,3.845812198225052,0.7334943971499127,B,801.858930994058,Correct
17,15,280,A,16.35980252558198,37.1721887330604,0.8179901262790991,0.5838993752081791,A,625.4808210069314,Correct
17,15,281,A,46.32824325498931,67.38110098827279,2.3164121627494656,1.0584198592777485,A,1869.5570140116615,Correct
17,15,282,B,60.32342323403136,42.80147609385452,3.016171161701568,0.6723240142962625,B,4194.078483007615,Correct
17,15,283,B,47.801017790259046,36.948215742865386,2.390050889512952,0.5803812157051832,B,3307.0362559956266,Correct
17,15,284,A,40.87119530710132,61.33704312470534,2.0435597653550657,0.963480020367473,A,2296.9824080064427,Correct
17,15,285,A,37.31869666613694,60.45334555195169,1.8659348333068468,0.9495989313546832,A,719.2810279957484,Correct
17,15,286,B,71.43528425427775,60.91549029081298,3.5717642127138873,0.9568582839371923,A,1168.44802700507,Incorrect
17,15,287,B,76.49594008052736,58.35497105888321,3.824797004026368,0.9166377418951623,B,505.3029440023238,Correct
17,15,288,B,69.60171664037313,59.68450464846143,3.4800858320186565,0.9375220066837613,A,962.8289739921456,Incorrect
17,15,289,B,48.61919051948596,17.865856992315376,2.430959525974298,0.28063622538571914,B,876.7957259988179,Correct
17,15,290,B,44.14310472134657,32.965998832560956,2.207155236067328,0.517828698753116,B,946.7196100013098,Correct
17,15,291,B,65.02069078422778,34.319283915576214,3.251034539211389,0.539086051128183,B,659.7463710058946,Correct
17,15,292,A,44.26027453493003,67.00186884139761,2.2130137267465018,1.052462894644608,A,823.7604129972169,Correct
17,15,293,A,31.228018924576254,39.65108809418717,1.5614009462288125,0.6228378353177006,B,1465.3400490060449,Incorrect
17,15,294,A,60.88502023205504,71.84474730398748,3.0442510116027517,1.1285346516461108,A,455.91309199517127,Correct
17,15,295,A,33.47668108247348,60.3298763576623,1.673834054123674,0.9476594817860622,A,934.2017480084905,Correct
17,15,296,B,84.10204034735573,67.82251352590438,4.205102017367786,1.065353551204878,B,1498.1030170019949,Correct
17,15,297,A,38.36325869792266,59.412850931264025,1.918162934896133,0.9332548800724227,B,1330.1753609994194,Incorrect
17,15,298,A,18.439402597268266,38.5409928839279,0.9219701298634133,0.6054005005310219,A,840.9559289866593,Correct
17,15,299,A,28.8926879879724,46.03659009922807,1.4446343993986202,0.7231410662602976,A,2247.753149989876,Correct
