subject,day,trial,cat,x,y,xt,yt,resp,rt,fb
2,15,0,A,30.978050025671518,57.983704992650864,1.548902501283576,0.9108059081641489,A,752.9187509790063,Correct
2,15,1,A,49.6458310862409,66.13085880149143,2.4822915543120447,1.038781100931747,A,503.52441682480276,Correct
2,15,2,B,35.630742203110145,19.11619655480775,1.7815371101555073,0.30027651330581273,B,485.92950077727437,Correct
2,15,3,B,81.29882512595603,67.97418708343037,4.064941256297801,1.0677360338752153,B,672.4365428090096,Correct
2,15,4,A,61.089558376057234,79.83244193758436,3.0544779188028617,1.2540050655462438,A,601.1141249909997,Correct
2,15,5,B,66.09703193852161,33.76938780970325,3.3048515969260803,0.5304483032959422,B,1321.2778749875724,Correct
2,15,6,B,64.03082787595334,50.50657608056149,3.2015413937976667,0.7933554418633297,A,1166.3207928650081,Incorrect
2,15,7,A,21.328964183150237,34.23686809332382,1.0664482091575118,0.5377914664195446,A,979.0789589751512,Correct
2,15,8,A,49.89795693637814,75.06568958637139,2.494897846818907,1.1791290947059812,A,1879.2384178377688,Correct
2,15,9,A,53.264293159734926,78.72953034168796,2.6632146579867464,1.2366805707101078,A,993.7774587888271,Correct
2,15,10,B,70.84371021029371,45.225131635329575,3.542185510514685,0.7103947065159137,B,493.4271259699017,Correct
2,15,11,A,32.71942047989948,49.46174813340575,1.6359710239949743,0.7769433228480809,A,607.1662090253085,Correct
2,15,12,B,69.08164092759321,50.31277889305005,3.45408204637966,0.7903112827604681,B,583.5561668500304,Correct
2,15,13,B,49.52517879440455,29.96564572117653,2.4762589397202275,0.47069926228861303,B,627.3985009174794,Correct
2,15,14,A,32.461974946057545,52.454637307606156,1.6230987473028773,0.823955516061463,A,544.6993759833276,Correct
2,15,15,B,71.10646422380081,60.178615158492775,3.5553232111900406,0.9452834764256411,B,548.7745010759681,Correct
2,15,16,B,38.55265670978969,18.864661768092127,1.9276328354894843,0.2963254141154723,B,644.095916999504,Correct
2,15,17,B,75.89810093585837,59.22577984330033,3.794905046792918,0.9303163742941938,B,856.3357919920236,Correct
2,15,18,A,45.81781637174434,77.59869227861853,2.290890818587217,1.2189174079534149,A,720.0241251848638,Correct
2,15,19,B,84.36466723902478,66.76424156638079,4.218233361951239,1.048730254137181,B,895.9057501051575,Correct
2,15,20,A,12.857910948475112,31.533717499282943,0.6428955474237555,0.49533047618061593,A,507.1129589341581,Correct
2,15,21,B,84.47799104543313,57.91861648276196,4.223899552271656,0.9097835002416483,B,704.3691668659449,Correct
2,15,22,A,41.22949368998593,53.93365025351149,2.0614746844992964,0.8471877970885647,B,628.3126261550933,Incorrect
2,15,23,A,47.79147181669707,58.79933126983671,2.3895735908348534,0.923617735766558,A,746.9383338466287,Correct
2,15,24,B,55.33586755769387,41.825644388837176,2.7667933778846936,0.6569956857181501,B,1118.5797930229455,Correct
2,15,25,A,22.63296702395536,38.11732721001168,1.131648351197768,0.5987455756872552,B,597.6327091921121,Incorrect
2,15,26,B,63.42829607656562,40.36207105244657,3.171414803828281,0.634005929510177,B,751.4867919962853,Correct
2,15,27,B,60.78898563113742,31.107772849605105,3.039449281556871,0.4886397532692971,B,737.4122091569006,Correct
2,15,28,B,37.39775119516941,25.571138824590406,1.8698875597584705,0.40167050937628973,B,688.9642928726971,Correct
2,15,29,B,54.31195051496222,24.22605313211588,2.715597525748111,0.3805419527266562,B,479.55725085921586,Correct
2,15,30,A,28.76591462865227,44.73100224098231,1.4382957314326135,0.702632940139893,A,626.5580840408802,Correct
2,15,31,B,60.971359921486346,29.265171675841383,3.0485679960743175,0.459696241714337,B,472.02320909127593,Correct
2,15,32,A,46.156627129735455,61.815684776489846,2.3078313564867727,0.9709985058522146,A,557.9050839878619,Correct
2,15,33,A,49.102106123560276,61.124860717272874,2.4551053061780137,0.960147066905419,A,615.6565009150654,Correct
2,15,34,B,54.24099223555303,25.87525181024775,2.7120496117776516,0.4064475049843016,B,718.7291670124978,Correct
2,15,35,B,61.01012696643885,50.5086042355129,3.0505063483219423,0.7933873000468081,B,934.1361259575933,Correct
2,15,36,A,39.714304254960716,69.13545147578074,1.985715212748036,1.085977132294632,A,521.0657510906458,Correct
2,15,37,B,44.83308898586746,33.88881723446767,2.2416544492933728,0.5323242963132541,B,732.7306671068072,Correct
2,15,38,B,32.00894995794497,16.268404841367257,1.6004474978972485,0.25554350567632,B,1245.6860430538654,Correct
2,15,39,B,43.47268151754525,35.37684792711431,2.1736340758772625,0.5556982277749282,B,2753.075584070757,Correct
2,15,40,A,29.23666165641063,51.75391495493717,1.4618330828205313,0.8129485950847078,A,2183.5148341488093,Correct
2,15,41,B,50.26090717685351,38.52139165863687,2.513045358842675,0.6050926052041437,B,554.9219590611756,Correct
2,15,42,A,43.530688907789575,65.29645816607186,2.176534445389479,1.025674366399823,A,1111.3054999150336,Correct
2,15,43,A,25.099260676584827,47.290057612422515,1.2549630338292415,0.7428304879151233,A,665.7141260802746,Correct
2,15,44,A,52.636297718540206,63.15186370763023,2.6318148859270103,0.991987155421975,A,536.3526679575443,Correct
2,15,45,A,19.236558392708883,36.716269195769165,0.9618279196354442,0.5767378078632681,A,560.7232500333339,Correct
2,15,46,A,57.289954516898355,70.11072199239032,2.8644977258449176,1.1012966457458488,A,538.6551679112017,Correct
2,15,47,A,33.363233122041166,50.79616629193932,1.6681616561020582,0.7979043142664103,A,530.387626029551,Correct
2,15,48,A,29.161082331922376,59.4139784418422,1.4580541165961187,0.933272590967169,A,451.3178342022002,Correct
2,15,49,B,71.90306672294942,46.79683428023985,3.5951533361474706,0.7350829539303025,B,594.4137091282755,Correct
2,15,50,B,58.33747013851475,30.55506981638355,2.9168735069257377,0.479957914325369,B,658.6422091349959,Correct
2,15,51,A,52.91260581513531,68.94943621725491,2.645630290756765,1.0830552114464302,A,551.1354999616742,Correct
2,15,52,B,60.46624518895034,36.86625141148423,3.0233122594475166,0.579093722998566,B,564.0668759588152,Correct
2,15,53,A,47.53003982266247,77.857324725354,2.3765019911331233,1.2229799969266355,A,1047.0262500457466,Correct
2,15,54,A,33.00186692907859,62.048239702808864,1.6500933464539294,0.9746514700926141,A,540.9374181181192,Correct
2,15,55,A,56.240025737117094,84.19723709683646,2.8120012868558546,1.322567107579897,A,561.388375936076,Correct
2,15,56,A,21.158342210026177,42.61022529645155,1.0579171105013088,0.6693198537956908,A,529.4518340379,Correct
2,15,57,B,50.102215256878885,20.32905217817041,2.505110762843944,0.3193280048869187,B,717.1170839574188,Correct
2,15,58,A,16.749911548086608,31.543016710870706,0.8374955774043303,0.4954765478546575,A,529.1354591026902,Correct
2,15,59,A,30.873255332389235,54.291951157227935,1.5436627666194618,0.8528159745230157,A,632.0512511301786,Correct
2,15,60,A,67.8823997777443,81.20280255039597,3.3941199888872147,1.2755306397161326,A,786.431125132367,Correct
2,15,61,B,86.7648080589525,62.986572038552765,4.3382404029476245,0.9893907599556082,B,1175.1801250502467,Correct
2,15,62,A,42.025937120060924,73.06576854453793,2.1012968560030463,1.1477144084420627,A,673.1237510684878,Correct
2,15,63,A,42.437812653670335,71.38831408819765,2.1218906326835167,1.1213650154582122,A,2925.3357499837875,Correct
2,15,64,B,43.69610450439404,22.377131941330703,2.1848052252197023,0.35149916657647023,B,4378.117375075817,Correct
2,15,65,B,50.458004884379655,34.11064212057988,2.5229002442189827,0.5358087134762216,B,2932.72470892407,Correct
2,15,66,A,41.98855883801515,68.27280907694953,2.0994279419007573,1.072426777180416,A,2233.808042947203,Correct
2,15,67,B,48.55183168654487,22.922525231561963,2.4275915843272435,0.3600661843460087,B,2440.9731251653284,Correct
2,15,68,B,74.09294513407343,63.63211575253679,3.7046472567036717,0.9995309369027245,A,1295.308459084481,Incorrect
2,15,69,A,65.79856443952127,79.87141391701532,3.2899282219760635,1.2546172359676242,A,1082.4441679287702,Correct
2,15,70,B,66.3907302161458,42.828286441620925,3.31953651080729,0.6727451502541782,A,758.7398749310523,Incorrect
2,15,71,A,53.148437451513885,64.44883915759047,2.657421872575694,1.012359998149382,A,1115.329666994512,Correct
2,15,72,A,21.90207570285579,38.11938338875596,1.0951037851427896,0.5987778740674425,A,540.1886259205639,Correct
2,15,73,A,61.4447855940289,85.38092473659549,3.072239279701445,1.341160429545957,A,500.6406679749489,Correct
2,15,74,A,29.884211487580078,53.96619331054106,1.494210574379004,0.8476989822330121,A,441.80883397348225,Correct
2,15,75,A,21.987319089678827,46.86709754498359,1.0993659544839414,0.7361866467119833,A,817.3387499991804,Correct
2,15,76,B,70.8561881735078,39.088989636882026,3.54280940867539,0.6140084133973807,B,426.3882089871913,Correct
2,15,77,A,16.82112349595572,37.63532279216075,0.841056174797786,0.5911742679966636,A,470.95500002615154,Correct
2,15,78,A,34.9490833115147,51.501410567638764,1.747454165575735,0.8089822654440285,A,559.1198760084808,Correct
2,15,79,B,80.46807252640444,60.051800288566014,4.023403626320222,0.943291473107002,B,607.7172930818051,Correct
2,15,80,B,87.19233799395285,67.61554937543632,4.3596168996976425,1.0621025659315433,A,593.0013339966536,Incorrect
2,15,81,B,78.94280722190699,51.93949452532681,3.9471403610953497,0.8158636721596699,B,1017.433708999306,Correct
2,15,82,B,40.71426768485159,15.82770151866734,2.0357133842425794,0.24862095407128668,B,464.84149992465973,Correct
2,15,83,B,45.19729661906274,35.326591227998286,2.259864830953137,0.5549087973912452,B,571.7510001268238,Correct
2,15,84,A,37.619575336267715,63.2779390100002,1.8809787668133857,0.9939675416405982,A,605.7950421236455,Correct
2,15,85,A,54.40730864258842,63.04754359008589,2.720365432129421,0.9903484988474803,A,816.5160419885069,Correct
2,15,86,B,82.6368938269558,68.7685193271941,4.13184469134779,1.0802133755828034,B,734.6763340756297,Correct
2,15,87,A,40.41744810662868,71.2051051914287,2.020872405331434,1.1184871768374043,A,479.87974993884563,Correct
2,15,88,B,39.78754454261813,15.57667053964406,1.9893772271309063,0.24467776867367166,B,494.7747918777168,Correct
2,15,89,A,52.55851891522732,67.1726548114311,2.627925945761366,1.055145594388575,A,592.5079169683158,Correct
2,15,90,B,42.22905312343612,26.109591479554865,2.111452656171806,0.4101285039020011,B,577.070333994925,Correct
2,15,91,B,50.0706155534169,22.58558239616657,2.503530777670845,0.35477349866421926,B,546.0707920137793,Correct
2,15,92,B,66.47058382672392,37.82259328567817,3.323529191336196,0.5941159060300059,B,461.1891668755561,Correct
2,15,93,A,48.461828341805614,71.79422431890265,2.423091417090281,1.127741038452211,A,498.1210839468986,Correct
2,15,94,B,69.98545388876347,57.97753236355747,3.4992726944381736,0.9107089487330831,B,484.469624934718,Correct
2,15,95,A,15.35204462817697,32.07138556610648,0.7676022314088484,0.5037761464246292,B,1033.9455418288708,Incorrect
2,15,96,A,52.00584476632426,69.46056577828486,2.6002922383162126,1.0910840158162516,B,488.927791826427,Incorrect
2,15,97,A,15.31545658654213,39.221337309631146,0.7657728293271064,0.6160873257795223,A,524.5858340058476,Correct
2,15,98,A,48.77688336460464,71.71036358630757,2.4388441682302324,1.1264237571449842,A,744.1134171094745,Correct
2,15,99,A,26.419753721249798,54.125958064263195,1.32098768606249,0.8502085611159924,A,545.9269999992102,Correct
2,15,100,A,14.718365614717065,36.915089408127685,0.7359182807358533,0.5798608684559216,A,582.8491260763258,Correct
2,15,101,A,28.095254092239223,60.708935585994446,1.4047627046119613,0.9536137302210805,A,511.2412089947611,Correct
2,15,102,B,55.22636587824842,46.747193593179,2.761318293912421,0.734303199841355,B,964.0946260187775,Correct
2,15,103,A,53.92913838878433,72.97397620515983,2.6964569194392163,1.1462725377468326,A,590.8421671483666,Correct
2,15,104,A,24.029084024391423,38.42462141585883,1.2014542012195712,0.6035725417851556,B,639.7871260996908,Incorrect
2,15,105,B,54.32457023030068,47.3240530551852,2.7162285115150335,0.7433644870813172,A,912.2499590739608,Incorrect
2,15,106,B,58.60340438189017,44.46142351141984,2.9301702190945087,0.6983984073581053,B,485.10066815651953,Correct
2,15,107,B,68.9105015252889,36.69362185755172,3.445525076264445,0.5763820643064318,B,560.5743338819593,Correct
2,15,108,A,46.21396364950818,66.87736120690703,2.310698182475409,1.0505071332954505,A,623.4707511030138,Correct
2,15,109,A,42.29215602518477,57.57478290716073,2.1146078012592384,0.9043825750658168,B,648.4024170786142,Incorrect
2,15,110,B,79.1554312379331,52.43212823630126,3.957771561896655,0.8236019443962099,A,1226.732542971149,Incorrect
2,15,111,A,29.939673709147893,60.54273475812871,1.4969836854573948,0.9510030537218629,A,2223.3082088641822,Correct
2,15,112,A,44.791610990687715,67.86942677140343,2.239580549534386,1.0660904627419572,A,565.1195431128144,Correct
2,15,113,B,77.01254881742574,58.72746318825996,3.850627440871287,0.9224888345810126,B,1426.454083994031,Correct
2,15,114,B,82.39984704990073,66.25421677898107,4.119992352495036,1.040718803510963,B,490.2751259505749,Correct
2,15,115,B,40.71044363799331,27.30682560121705,2.0355221818996654,0.42893461350820583,B,479.10945885814726,Correct
2,15,116,A,39.78881760640598,70.95092239338159,1.989440880320299,1.1144944827823358,A,539.8823339492083,Correct
2,15,117,B,44.0740512899463,30.07512289889324,2.2037025644973145,0.4724189257748658,B,488.95054194144905,Correct
2,15,118,B,62.39521248200887,29.92671484149851,3.119760624100444,0.47008773746064175,B,434.51775098219514,Correct
2,15,119,B,37.63394590544657,20.86199113268329,1.8816972952723288,0.32769939040846613,B,495.99683401174843,Correct
2,15,120,A,68.9125895063331,83.50412859019872,3.4456294753166556,1.3116797846169286,A,707.4509172234684,Correct
2,15,121,A,40.84604750408186,56.32309611419271,2.042302375204093,0.8847211248988981,A,720.279750879854,Correct
2,15,122,B,57.297633315875686,46.34528837071238,2.8648816657937846,0.7279900873696524,B,553.2405420672148,Correct
2,15,123,B,40.259362961192515,28.56337270226044,2.0129681480596258,0.44867240921584317,B,597.8522088844329,Correct
2,15,124,B,83.87132619524924,64.33167684659367,4.1935663097624625,1.0105196168718562,B,725.5489169619977,Correct
2,15,125,B,72.35286493197644,40.27969330221126,3.6176432465988224,0.6327119428353843,B,496.95966695435345,Correct
2,15,126,B,55.63290710000819,25.557169597370653,2.781645355000409,0.40145108126824025,B,555.0381671637297,Correct
2,15,127,A,35.25256744134983,59.639489293930296,1.7626283720674918,0.9368149071482926,A,838.4260418824852,Correct
2,15,128,B,37.31732969707493,13.273841087648012,1.8658664848537467,0.20850500822936674,B,594.8325418867171,Correct
2,15,129,B,47.50678606125805,30.724750882045498,2.3753393030629026,0.48262325827205327,B,515.2970841154456,Correct
2,15,130,A,29.1684904076767,46.38807404003039,1.458424520383835,0.7286621630916943,B,669.9135010130703,Incorrect
2,15,131,A,15.016503690986688,35.00458852826391,0.7508251845493344,0.5498507908116371,A,1213.124125963077,Correct
2,15,132,A,38.28367407010545,49.17144935252941,1.9141837035052724,0.772383320261345,A,958.5831670556217,Correct
2,15,133,A,23.173328000312758,39.05359989109543,1.1586664000156377,0.6134525125705027,A,523.3677090145648,Correct
2,15,134,B,79.19235484759301,47.74114669119952,3.959617742379651,0.7499161785951253,B,625.4831261467189,Correct
2,15,135,B,45.79654410757443,24.163942009351068,2.2898272053787214,0.3795663134917355,B,473.49366708658636,Correct
2,15,136,A,35.05043097712309,51.71615680791967,1.7525215488561545,0.812355491498291,B,713.3670430630445,Incorrect
2,15,137,B,58.47767781730958,43.938115726162565,2.923883890865479,0.6901783078894523,B,591.9201669748873,Correct
2,15,138,B,39.48660728261678,19.209908271783416,1.974330364130839,0.3017485335138429,B,1016.0170430317521,Correct
2,15,139,A,37.46270252600908,48.8509770297502,1.873135126300454,0.7673493527867348,B,1200.7050840184093,Incorrect
2,15,140,A,54.64687005552226,70.03893668117347,2.7323435027761125,1.1001690447140762,A,515.0628760457039,Correct
2,15,141,B,84.03542774204867,67.85739335840489,4.201771387102434,1.065901442332588,A,1097.7228758856654,Incorrect
2,15,142,B,69.46775286559486,46.03558392953357,3.4733876432797435,0.7231252613836949,B,691.7395840864629,Correct
2,15,143,A,58.59691923804411,79.96942740171026,2.9298459619022053,1.2561568281849764,A,586.0476668458432,Correct
2,15,144,A,49.53746630777398,61.22835440668037,2.476873315388699,0.9617727419770964,A,648.7046671099961,Correct
2,15,145,A,35.17405871699441,52.561567305753776,1.7587029358497204,0.8256351685446076,A,517.7042919676751,Correct
2,15,146,A,63.31702466685123,83.95179169511283,3.1658512333425612,1.3187116602253355,A,597.4095009732991,Correct
2,15,147,A,50.56376131831975,62.344505236723094,2.5281880659159874,0.9793051982168983,A,874.5320008601993,Correct
2,15,148,A,48.45866982805965,57.18924564322226,2.4229334914029823,0.8983265698854458,A,828.2279591076076,Correct
2,15,149,A,49.817082121608856,78.35460328790953,2.4908541060804428,1.2307912303211959,A,653.1062088906765,Correct
2,15,150,B,61.09495897127212,42.522435620290686,3.054747948563606,0.6679408567872508,B,785.7363340444863,Correct
2,15,151,A,28.197725549120996,57.15316175208739,1.4098862774560499,0.8977597654489344,A,646.2227092124522,Correct
2,15,152,A,61.00095517834535,82.99409607755425,3.0500477589172674,1.3036682126428494,A,527.2680011112243,Correct
2,15,153,A,25.56205391265389,49.92858623740351,1.2781026956326946,0.7842763986377566,B,637.2557920403779,Incorrect
2,15,154,B,73.00281700330795,50.891047793203626,3.6501408501653976,0.7993947094030779,B,1394.2540839780122,Correct
2,15,155,B,40.495468126889875,18.508372833475356,2.0247734063444938,0.2907288406177354,B,1319.7570419870317,Correct
2,15,156,A,35.37707559272262,60.43943423164938,1.768853779636131,0.9493804128463658,A,658.6812508758157,Correct
2,15,157,B,55.49004582897566,43.5034097333498,2.774502291448783,0.6833499621219922,A,975.9751679375768,Incorrect
2,15,158,A,29.220425518216555,59.75494413361058,1.4610212759108276,0.9386284675290976,A,769.32058413513,Correct
2,15,159,B,54.434176172665815,38.79639367342873,2.721708808633291,0.6094123267511061,B,791.222708998248,Correct
2,15,160,A,34.22056426498976,44.44381927683878,1.7110282132494883,0.6981218806879457,A,1035.6769179925323,Correct
2,15,161,A,60.03780865238936,86.84750066817159,3.0018904326194678,1.3641973504088125,A,829.3487918563187,Correct
2,15,162,B,70.49457551512225,57.90703765526129,3.5247287757561128,0.9096016204445819,B,1816.0205001477152,Correct
2,15,163,B,68.15034942027857,49.92193200875923,3.4075174710139287,0.7841718742586357,B,1683.5173340514302,Correct
2,15,164,A,60.74783738821766,75.71831884241159,3.037391869410883,1.1893805710874494,A,920.995166990906,Correct
2,15,165,B,73.99600998169953,63.11573861862897,3.6998004990849767,0.9914197038508918,A,654.7485839109868,Incorrect
2,15,166,B,79.884888280639,49.691473476954144,3.99424441403195,0.7805518401062558,B,823.7812500447035,Correct
2,15,167,B,84.41108640830151,65.19181380107173,4.220554320415076,1.0240306165582032,A,512.2140420135111,Incorrect
2,15,168,B,64.52482438531544,50.76209414367813,3.226241219265772,0.7973691102130633,B,514.3175418488681,Correct
2,15,169,A,44.24181009436966,69.61133954067131,2.2120905047184833,1.0934523645375884,A,931.9917501416057,Correct
2,15,170,B,68.34075071982788,55.07283292071831,3.417037535991394,0.8650820365805338,B,733.7834180798382,Correct
2,15,171,B,56.05046431059879,45.81601657009958,2.8025232155299395,0.7196763053668653,B,481.6095840651542,Correct
2,15,172,B,32.09960191177784,10.249268830956115,1.6049800955888918,0.16099513831999288,B,651.4477499295026,Correct
2,15,173,B,55.30420487018726,47.02180128740391,2.7652102435093635,0.738616727415336,B,637.1087089646608,Correct
2,15,174,A,46.88752891164737,73.75582773230703,2.3443764455823684,1.1585538328162504,A,688.5875011794269,Correct
2,15,175,A,43.17534243326686,52.431189308163646,2.158767121663343,0.8235871957475133,B,496.9537928700447,Incorrect
2,15,176,B,82.55472637700787,57.96431023563215,4.127736318850393,0.9105012560333078,B,1010.2447511162609,Correct
2,15,177,A,56.62426864415116,76.75192414246355,2.8312134322075577,1.2056164051742229,A,594.3463339935988,Correct
2,15,178,B,49.83910945779406,41.3778497347517,2.491955472889703,0.6499617437401916,B,512.4206261243671,Correct
2,15,179,A,60.5292429244785,70.77324259400359,3.026462146223925,1.1117034950202496,A,520.8312510512769,Correct
2,15,180,B,77.10554394313549,65.14428718110176,3.8552771971567745,1.023284070157465,B,537.1160840149969,Correct
2,15,181,A,15.554877882971713,41.74198452219686,0.7777438941485856,0.6556815596059625,A,1220.2416681684554,Correct
2,15,182,A,51.97392612869675,64.56065607111603,2.598696306434838,1.014116414119777,A,553.7886258680373,Correct
2,15,183,B,70.69670183135112,42.07463542341625,3.534835091567556,0.6609068277433668,B,2487.5950010027736,Correct
2,15,184,B,68.21000713227595,49.87798942709396,3.4105003566137975,0.783481625799939,B,1272.2377930767834,Correct
2,15,185,B,31.843777833341942,18.422548719109855,1.5921888916670972,0.2893807185817779,B,593.8263339921832,Correct
2,15,186,B,67.36570065189129,47.03351222454863,3.3682850325945646,0.7388006823858385,B,456.3412929419428,Correct
2,15,187,B,60.687202496088446,52.529181601972844,3.0343601248044223,0.8251264550992101,B,555.9457920026034,Correct
2,15,188,A,63.78964339303924,80.1879575616232,3.1894821696519617,1.2595894919098276,A,1094.835750060156,Correct
2,15,189,B,39.09408615034971,13.491884723940842,1.9547043075174855,0.21193002965906452,B,591.0312929190695,Correct
2,15,190,A,51.7628291428875,67.67625653309567,2.5881414571443746,1.063056151734158,A,460.97125113010406,Correct
2,15,191,A,29.495758605898413,47.00205704870777,1.4747879302949207,0.7383065856391433,A,581.5125431399792,Correct
2,15,192,A,33.077522860413865,51.681608306212894,1.6538761430206932,0.8118128049025183,A,567.647792166099,Correct
2,15,193,B,70.99953688547814,47.94384204439263,3.5499768442739073,0.7531001097576666,B,492.4578338395804,Correct
2,15,194,A,31.840004153965175,54.926139745063274,1.5920002076982587,0.8627777855656856,A,637.1244590263814,Correct
2,15,195,A,11.340513807970556,32.13541603069539,0.5670256903985278,0.5047819346104215,A,571.2272089440376,Correct
2,15,196,A,36.69570512571127,68.98870484742056,1.8347852562855635,1.083672041646655,A,554.629708873108,Correct
2,15,197,A,58.482739759207576,69.09656752321158,2.9241369879603787,1.085366344595963,A,562.8245430998504,Correct
2,15,198,B,56.12921655204526,33.787032615338184,2.806460827602263,0.5307254672547258,B,625.9033340029418,Correct
2,15,199,A,37.912322490313855,61.45681268496272,1.8956161245156926,0.9653613562206145,A,548.2020420022309,Correct
2,15,200,A,37.395331205529374,55.79346168679466,1.8697665602764686,0.8764016467678885,B,700.8804180659354,Incorrect
2,15,201,A,53.2916509696165,76.28638776838159,2.664582548480825,1.1983037769102491,A,1171.4816261082888,Correct
2,15,202,B,54.768458711182554,34.363297721009474,2.7384229355591274,0.5397774183672113,A,675.7388340774924,Incorrect
2,15,203,A,19.873152778682257,42.021187733525004,0.9936576389341129,0.6600672733937983,A,579.8557091038674,Correct
2,15,204,A,48.230928457531405,63.961424161446764,2.41154642287657,1.0047037012937092,A,1098.087833961472,Correct
2,15,205,B,83.6952572526562,67.5673999037815,4.184762862632811,1.0613462357994186,B,907.2765000164509,Correct
2,15,206,A,19.47813042220599,47.537993001314526,0.9739065211102995,0.7467250478966636,A,4263.981916941702,Correct
2,15,207,B,36.94976560700976,16.306556624158855,1.847488280350488,0.25614279247901717,B,1633.0301670823246,Correct
2,15,208,B,32.04262325418371,16.524229819978714,1.6021311627091854,0.25956199504337263,B,1562.6647928729653,Correct
2,15,209,A,22.906326373472005,43.39877033266245,1.1453163186736004,0.681706290259615,A,1396.477792877704,Correct
2,15,210,B,74.33090621562646,57.2426871828914,3.7165453107813224,0.8991660276275512,A,2054.9720430281013,Incorrect
2,15,211,B,70.1796351440775,44.627349126150854,3.508981757203875,0.701004760819512,B,2503.3120838925242,Correct
2,15,212,A,29.660123106639443,52.72630141052064,1.483006155331972,0.828222805811264,A,2552.3817089851946,Correct
2,15,213,B,41.14193559789071,31.355925545260178,2.0570967798945357,0.4925377266974895,B,1138.1753750611097,Correct
2,15,214,B,39.162113921255255,18.959750380499806,1.9581056960627625,0.29781906254637236,B,2203.651166986674,Correct
2,15,215,B,69.97307885602197,38.19874442580813,3.4986539428010985,0.6000244743223644,B,1252.8742090798914,Correct
2,15,216,A,60.05658953234216,78.94874287111138,3.002829476617108,1.2401239530701653,A,456.8618761841208,Correct
2,15,217,B,53.702255140893385,38.77557067703089,2.6851127570446693,0.6090852398885602,B,520.1537921093404,Correct
2,15,218,A,58.55999233995672,66.43781340356026,2.9279996169978357,1.043602732545972,A,435.42945897206664,Correct
2,15,219,A,29.67895700340906,51.694231565437796,1.483947850170453,0.8120110905947449,A,559.3862088862807,Correct
2,15,220,B,44.10525867034334,24.49682947748919,2.205262933517167,0.38479529761360964,B,763.2637920323759,Correct
2,15,221,B,50.66775746088666,22.681094385380053,2.533387873044333,0.3562737974824334,B,488.03945910185575,Correct
2,15,222,B,64.36352054629593,34.8072224463263,3.218176027314797,0.5467505716462223,B,1117.9985420312732,Correct
2,15,223,B,42.89802531603021,27.48878031478153,2.1449012658015105,0.4317927514653069,B,870.9271249826998,Correct
2,15,224,B,59.84208596102226,40.75750991868453,2.992104298051113,0.6402174686957622,B,2105.9113340452313,Correct
2,15,225,B,76.57085198839411,62.2186622872307,3.8285425994197055,0.9773284617887414,A,2086.3876251969486,Incorrect
2,15,226,A,26.86218997096168,41.70721224018454,1.343109498548084,0.6551353578773703,A,1358.6330430116504,Correct
2,15,227,B,46.738476121634804,32.170238919015084,2.33692380608174,0.5053289312610312,B,1716.8505839072168,Correct
2,15,228,B,50.98443209546474,24.90016053346597,2.549221604773237,0.39113080702571595,B,1032.232749974355,Correct
2,15,229,A,67.76575721093351,82.5933464955848,3.388287860546676,1.2973732529296274,A,502.2823750041425,Correct
2,15,230,A,34.105699592921134,50.654590005348524,1.7052849796460565,0.7956804391570294,A,1842.6670420449227,Correct
2,15,231,A,30.45083622442867,44.01959174842668,1.5225418112214333,0.6914581302543956,A,1995.9974170196801,Correct
2,15,232,A,61.9261756553827,76.22451618546148,3.096308782769135,1.1973319003584102,A,825.5426669493318,Correct
2,15,233,B,64.58543380294236,45.23986824139874,3.229271690147118,0.7106261885827424,B,1164.1907920129597,Correct
2,15,234,B,61.84026997830518,38.21035647624027,3.092013498915259,0.6002068759840181,B,1498.9671679213643,Correct
2,15,235,A,17.65953115327252,41.60435137363672,0.8829765576636261,0.6535196231639276,A,1496.6176669113338,Correct
2,15,236,B,46.56328155564853,30.550722838648014,2.3281640777824264,0.47988963215877256,B,926.5569169074297,Correct
2,15,237,A,46.15435399080742,55.40857878906387,2.3077176995403708,0.8703559203478713,A,607.2572090197355,Correct
2,15,238,B,66.10662485595493,41.24373528895349,3.3053312427977466,0.6478550789518919,A,662.4568339902908,Incorrect
2,15,239,B,35.67758663634463,17.08686006614793,1.7838793318172315,0.2683997702836357,B,959.1229588259012,Correct
2,15,240,B,40.3497518615828,18.13259950744185,2.01748759307914,0.28482620701532607,B,808.7968761101365,Correct
2,15,241,B,59.147454160328316,46.8313093452047,2.9573727080164156,0.7356244869844305,A,1313.3675421122462,Incorrect
2,15,242,A,27.133932997361413,43.954636551507036,1.3566966498680706,0.6904378164071194,A,1105.6114588864148,Correct
2,15,243,B,40.814586412031474,19.76057065250362,2.0407293206015735,0.3103983179632372,B,1280.3180010523647,Correct
2,15,244,A,60.89648156827033,86.73009060497297,3.0448240784135168,1.3623530774488013,A,881.7323339171708,Correct
2,15,245,A,43.39300004142561,55.46442861077572,2.1696500020712803,0.8712332072958427,A,584.1243760660291,Correct
2,15,246,A,36.01792978409709,56.56282599555397,1.8008964892048545,0.8884867930695506,A,756.2089171260595,Correct
2,15,247,B,70.67381203564743,57.42554501015563,3.5336906017823715,0.9020383516614746,A,738.2690839003772,Incorrect
2,15,248,B,47.55993430630161,19.710040936928824,2.3779967153150805,0.3096045990470484,B,479.5042918995023,Correct
2,15,249,A,64.2022552789794,81.19587155893065,3.21011276394897,1.2754217679567845,A,699.549209093675,Correct
2,15,250,A,20.69443606495005,41.21159386757632,1.0347218032475025,0.6473502026855197,A,524.0082920063287,Correct
2,15,251,A,28.602638823924057,46.26432301570824,1.430131941196203,0.726718286547271,A,760.8105840627104,Correct
2,15,252,B,87.21299218537669,62.1874199326094,4.360649609268835,0.9768377080299457,A,594.8084180708975,Incorrect
2,15,253,A,59.637771786008685,69.36555103414443,2.981888589300434,1.08959152770538,A,709.7124168649316,Correct
2,15,254,A,28.226408376280702,39.996869060000286,1.411320418814035,0.628269350027449,A,1074.882416985929,Correct
2,15,255,B,78.08923108964056,60.42281267221758,3.9044615544820283,0.9491193220013552,A,1882.9366262070835,Incorrect
2,15,256,A,25.93067036326861,38.390340017303686,1.2965335181634305,0.6030340508358776,A,794.1382089629769,Correct
2,15,257,A,31.091805019784655,43.52976557161809,1.5545902509892326,0.6837639586614065,A,1446.3177921716124,Correct
2,15,258,B,68.57832549727195,49.22925694771106,3.4289162748635977,0.7732913598430667,A,2158.142917091027,Incorrect
2,15,259,B,65.10117098018732,48.92817277809482,3.255058549009366,0.7685619407661739,A,1395.17716714181,Incorrect
2,15,260,B,59.33209292642978,26.72337066138668,2.966604646321489,0.4197697247448471,B,495.7273758482188,Correct
2,15,261,A,62.04790974656692,81.27113498650834,3.102395487328346,1.2766040031125951,A,770.5922920722514,Correct
2,15,262,B,31.709203951134135,12.730481376378297,1.5854601975567066,0.19996993384345865,B,642.2313759103417,Correct
2,15,263,A,14.233585996216192,37.73942832140378,0.7116792998108096,0.5928095538260034,A,392.0185840688646,Correct
2,15,264,B,63.76063273791221,42.68358703478492,3.1880316368956105,0.6704722172867043,A,720.5284170340747,Incorrect
2,15,265,A,39.48209002411852,70.80781953291104,1.974104501205926,1.112246628306526,A,665.8065419178456,Correct
2,15,266,B,33.10836723273787,15.151063366847328,1.6554183616368934,0.23799234683680498,B,656.107584014535,Correct
2,15,267,A,60.811249121786354,87.44093843040142,3.0405624560893174,1.3735190489797324,A,520.3293750528246,Correct
2,15,268,A,30.43917946987829,47.84984755116879,1.5219589734939145,0.7516236477107171,A,854.8465420026332,Correct
2,15,269,B,51.24657874581384,29.052286389459304,2.562328937290692,0.45635224745556036,B,485.8856669161469,Correct
2,15,270,A,14.527462191827148,36.528210620591906,0.7263731095913574,0.573783790672161,A,687.2270840685815,Correct
2,15,271,B,61.989093250128036,51.214989301083854,3.0994546625064014,0.8044831707098244,B,1147.5041669327766,Correct
2,15,272,B,52.2928631155045,25.167932728103022,2.6146431557752248,0.39533696282325287,B,2860.9539589378983,Correct
2,15,273,A,61.32162260707243,86.59682134972473,3.0660811303536213,1.360259688882615,A,2892.9307931102812,Correct
2,15,274,B,77.77488968331184,50.59924555639647,3.8887444841655916,0.7948110905858056,B,2113.500250969082,Correct
2,15,275,A,35.96076302780441,66.0331333834268,1.7980381513902204,1.037246033654443,A,1124.0762087982148,Correct
2,15,276,A,39.71322278180459,60.83620147025857,1.9856611390902292,0.9556128180563646,A,1291.1710431799293,Correct
2,15,277,B,85.92256268808318,65.95906911760896,4.296128134404159,1.0360826348875085,B,1137.2969998046756,Correct
2,15,278,B,67.68365722071287,54.9154498849681,3.3841828610356437,0.8626098696359711,B,1637.0547087863088,Correct
2,15,279,B,64.39862351530287,49.22061022782566,3.2199311757651436,0.7731555374847185,B,2586.3138341810554,Correct
2,15,280,A,46.768603324547094,71.88456499587053,2.338430166227355,1.1291601064876242,A,1277.2400421090424,Correct
2,15,281,B,70.02636949607621,56.642865486724006,3.5013184748038104,0.8897440504568349,A,3193.086124956608,Incorrect
2,15,282,A,43.31138687847016,55.536472360482215,2.165569343923508,0.8723648678699176,A,1492.2827500849962,Correct
2,15,283,A,50.550309862812256,62.25755982575878,2.5275154931406125,0.9779394628951542,A,791.121874935925,Correct
2,15,284,A,28.60439935242293,54.37544526279232,1.4302199676211467,0.8541274968663113,A,473.7310011405498,Correct
2,15,285,A,33.6866483345532,58.22199328874685,1.6843324167276597,0.9145489319664069,A,545.7947510294616,Correct
2,15,286,B,41.23413773363221,25.9738205565628,2.061706886681611,0.40799581923078626,B,1431.7834170069546,Correct
2,15,287,B,55.16063574684717,46.742317463285325,2.7580317873423588,0.7342266057720953,B,1234.8322090692818,Correct
2,15,288,A,55.79386258824261,82.45061752620299,2.7896931294121305,1.2951312715213057,A,1151.6507919877768,Correct
2,15,289,B,60.71232412757389,46.52914473207829,3.0356162063786947,0.7308780963405669,B,2493.755292147398,Correct
2,15,290,A,49.44626133343195,69.1278819323237,2.4723130666715973,1.0858582301840538,A,5653.799541993067,Correct
2,15,291,B,64.4907280888987,31.72733974380411,3.2245364044449354,0.4983718872854123,B,4771.808375138789,Correct
2,15,292,B,43.22337060701177,24.506273953324282,2.1611685303505883,0.3849436510931123,B,2560.849417001009,Correct
2,15,293,B,37.794999688379846,27.18043060740959,1.8897499844189922,0.4269492055882257,B,1462.6980009488761,Correct
2,15,294,B,60.98604793408434,37.88514729923884,3.049302396704217,0.5950985021772796,B,988.273958908394,Correct
2,15,295,B,51.8995169893088,22.635950514865392,2.59497584946544,0.3555646792226161,B,1107.2730841115117,Correct
2,15,296,A,32.61708562514288,47.62355796270488,1.6308542812571438,0.7480690991672068,A,1178.029625909403,Correct
2,15,297,A,39.55441359505102,60.63000960623205,1.9777206797525508,0.9523739638300861,A,949.5962930377573,Correct
2,15,298,B,61.1233258617761,33.684169414924305,3.0561662930888054,0.529109695881001,B,1966.0747509915382,Correct
2,15,299,B,86.30436233323286,61.70222738897472,4.315218116661643,0.9692163213766496,B,4600.127124926075,Correct
