subject,day,trial,cat,x,y,xt,yt,resp,rt,fb
2,12,0,B,60.19930286961569,40.94646775104468,3.0099651434807844,0.6431856113856667,A,850.0144169665873,Incorrect
2,12,1,A,64.46675950377723,84.47198364815804,3.223337975188861,1.3268828163160522,A,557.5304590165615,Correct
2,12,2,A,17.49576737349035,41.40201258914356,0.8747883686745175,0.6503412929694277,A,582.0767909754068,Correct
2,12,3,A,58.02895147769232,68.59764527073045,2.901447573884616,1.077529292180427,A,834.9669158924371,Correct
2,12,4,B,77.29734618684503,53.266161237424015,3.864867309342252,0.8367029041421036,A,1063.8390420936048,Incorrect
2,12,5,A,14.487975973050645,31.138169961597736,0.7243987986525323,0.489117229987929,A,697.1317920833826,Correct
2,12,6,A,33.58884703352144,53.50429687513592,1.679442351676072,0.8404435299920716,A,1329.2191659566015,Correct
2,12,7,B,80.91532463722388,60.914944729532934,4.045766231861194,0.9568497142806448,B,1054.2293330654502,Correct
2,12,8,B,50.0044050062015,19.85588087352636,2.500220250310075,0.31189544741412245,B,1393.3926669415087,Correct
2,12,9,B,39.03918571134577,26.683103062172464,1.9519592855672885,0.41913720277550165,B,719.7200418449938,Correct
2,12,10,B,75.48986454295111,51.423472151226896,3.7744932271475555,0.8077580116618687,B,942.3948749899864,Correct
2,12,11,A,55.88350900493168,70.17566916813651,2.794175450246584,1.1023168335968272,A,1021.8720838893205,Correct
2,12,12,A,26.157612882042596,42.963626557184824,1.3078806441021298,0.6748710678181359,B,977.266333065927,Incorrect
2,12,13,A,56.087758463998654,84.9937226466401,2.8043879231999322,1.3350782733396647,A,632.120082853362,Correct
2,12,14,A,64.76203728085093,81.96510315191261,3.2381018640425463,1.2875048295638913,A,1371.9769169110805,Correct
2,12,15,A,43.04651635929719,68.3058094309216,2.1523258179648597,1.0729451455284384,A,571.7210420407355,Correct
2,12,16,A,12.225854015126977,34.516017715747424,0.6112927007563489,0.5421763384348364,A,740.046874852851,Correct
2,12,17,A,58.97602753444341,70.75109003088056,2.948801376722171,1.1113555233724222,A,875.2077920362353,Correct
2,12,18,A,41.86747982418603,67.48368013414718,2.0933739912093015,1.0600311687332011,A,997.267167083919,Correct
2,12,19,B,37.65341465396226,20.460718340536157,1.8826707326981131,0.32139621212899167,B,685.2193749509752,Correct
2,12,20,B,42.686271524386925,26.84260730471376,2.1343135762193466,0.4216426895584223,B,774.0746249910444,Correct
2,12,21,B,57.49684642824536,42.06271031204789,2.874842321412268,0.6607195085320263,A,870.3873339109123,Incorrect
2,12,22,A,34.24879423514349,57.08175135163089,1.7124397117571746,0.8966380535016141,B,987.790749873966,Incorrect
2,12,23,B,85.85100657456628,58.617529594432156,4.292550328728314,0.9207620017272518,B,915.7255419995636,Correct
2,12,24,A,37.76224448421689,59.07573896109847,1.8881122242108446,0.9279595376278765,A,694.9851668905467,Correct
2,12,25,A,15.308564348287764,35.856881143956095,0.7654282174143882,0.5632385719124742,A,776.5900830272585,Correct
2,12,26,A,32.72105339282846,41.304330282273284,1.6360526696414228,0.6488069028811808,A,816.4098330307752,Correct
2,12,27,A,41.612408383513596,60.75512791587446,2.0806204191756796,0.9543393176420968,A,1063.2805000059307,Correct
2,12,28,B,65.58964331574674,46.60485753355608,3.279482165787337,0.7320673902450935,B,955.2731660660356,Correct
2,12,29,B,48.40659230306561,27.139060153606415,2.4203296151532805,0.42629936001950697,B,795.6189999822527,Correct
2,12,30,A,33.43713092327583,44.73989871452912,1.6718565461637918,0.7027726856195806,A,535.8033331576735,Correct
2,12,31,A,37.95225059698534,69.75280729791301,1.8976125298492668,1.0956745348719403,A,1341.9218331109732,Correct
2,12,32,B,40.70451212381594,15.47830897531166,2.0352256061907967,0.2431327088341603,B,592.5163340289146,Correct
2,12,33,A,33.397794771600374,45.4497550406385,1.6698897385800189,0.713923082715628,A,714.4230839330703,Correct
2,12,34,A,50.89129692686591,76.18895088006718,2.5445648463432957,1.1967732418476633,A,1647.6620000321418,Correct
2,12,35,B,77.48813004997041,56.82541151562256,3.8744065024985206,0.8926114767734834,B,1945.416250033304,Correct
2,12,36,B,66.98296968563976,36.635012429814914,3.3491484842819883,0.5754614295683865,B,643.5455828905106,Correct
2,12,37,A,66.16937224516825,87.21496324673706,3.3084686122584124,1.3699694390952646,A,801.9275828264654,Correct
2,12,38,A,63.691451417454836,75.0325782281114,3.1845725708727417,1.1786089827066812,A,646.8780830036849,Correct
2,12,39,B,66.74983929286292,56.9641247544304,3.337491964643146,0.8947903792334553,B,633.7175420485437,Correct
2,12,40,B,71.78547893840037,60.82516000911452,3.5892739469200188,0.9554393791902893,B,691.8230839073658,Correct
2,12,41,A,46.6205795746444,74.7964777096309,2.33102897873222,1.1749003244348457,A,628.8645409513265,Correct
2,12,42,A,29.275489218995766,46.88040013681614,1.4637744609497885,0.7363956033358577,A,565.7877919729799,Correct
2,12,43,A,58.539561992232485,85.35963362537643,2.9269780996116244,1.3408259895529944,A,659.6733329351991,Correct
2,12,44,A,64.95276209081648,83.43033591308938,3.247638104540824,1.3105206519554513,A,1265.6987500377,Correct
2,12,45,B,86.01213726298002,69.01144677947549,4.300606863149,1.084029271080016,A,1026.4990420546383,Incorrect
2,12,46,A,22.41638132308116,49.921367156464164,1.1208190661540582,0.784163001579533,A,498.15175007097423,Correct
2,12,47,B,68.59826908154854,55.2448231995095,3.429913454077427,0.8677836535622299,B,1252.4059999268502,Correct
2,12,48,B,71.98079736160535,56.59348030177992,3.599039868080268,0.8889683097857524,B,1277.9273330233991,Correct
2,12,49,B,82.85611157952846,63.50653733439101,4.142805578976423,0.9975583557232437,B,1701.8558750860393,Correct
2,12,50,B,73.31980094355906,49.5581826485005,3.665990047177953,0.7784581126689515,B,1032.1417078375816,Correct
2,12,51,A,31.301666731621502,58.96784766757632,1.5650833365810752,0.9262647851522989,A,1212.2298749163747,Correct
2,12,52,A,40.24146969364505,53.97227691286683,2.0120734846822526,0.8477945432348821,A,1866.8639999814332,Correct
2,12,53,A,46.73494320443338,60.884191443044536,2.3367471602216687,0.9563666427861163,B,1822.2740420605987,Incorrect
2,12,54,A,14.82894135915878,40.515774503112446,0.7414470679579389,0.6364202976673936,A,755.5325841531157,Correct
2,12,55,B,73.4451301585446,40.87730658508665,3.67225650792723,0.6420992303312295,B,482.6079171616584,Correct
2,12,56,A,52.78661785059251,70.6951323406577,2.639330892529626,1.110476542029842,A,891.0194588825107,Correct
2,12,57,B,59.742954491386186,40.32406843895858,2.987147724569309,0.6334089858534215,B,1081.8077500443906,Correct
2,12,58,A,54.02532062047056,71.59207421325773,2.701266031023528,1.1245656720181287,A,1814.5400839857757,Correct
2,12,59,A,54.10949769804409,81.97669448736946,2.705474884902204,1.2876869058354738,A,463.945833966136,Correct
2,12,60,B,63.75757266564946,36.16757293393501,3.1878786332824736,0.5681189071371163,B,520.2064579352736,Correct
2,12,61,A,43.10891094608705,62.43805471089631,2.155445547304353,0.9807746699209471,A,705.1934588234872,Correct
2,12,62,B,43.123260405740155,21.095036478109726,2.156163020287008,0.33136005813419106,B,613.3761669043452,Correct
2,12,63,B,55.42440664924562,44.28191819696799,2.7712203324622813,0.6955787444722942,B,553.544000023976,Correct
2,12,64,A,40.45825566684964,52.956386283158096,2.0229127833424823,0.8318369705391638,A,1986.8335840292275,Correct
2,12,65,A,39.0244284080435,64.56845282141911,1.9512214204021747,1.014238885187147,A,821.2546659633517,Correct
2,12,66,B,41.098694088118506,32.183664088347626,2.0549347044059254,0.5055398133277728,B,644.6580418851227,Correct
2,12,67,A,30.34380972870401,41.84641735122344,1.5171904864352004,0.65732198664828,A,3885.435333941132,Correct
2,12,68,B,70.36799430675794,51.685560299619304,3.518399715337897,0.8118748826697813,B,1473.1512079015374,Correct
2,12,69,B,59.68042169894397,45.77056375586055,2.984021084947198,0.7189623342303738,B,756.552082952112,Correct
2,12,70,A,25.989815427779305,45.96364553043638,1.2994907713889654,0.7219952556531213,A,1086.797917028889,Correct
2,12,71,B,33.48079869858578,12.390355011668962,1.674039934929289,0.19462724140014345,B,596.5520420577377,Correct
2,12,72,B,52.91877563282387,28.200322640499834,2.6459387816411937,0.44296963218128105,B,2922.143208095804,Correct
2,12,73,B,81.82771556920346,63.826015958507725,4.0913857784601735,1.0025767142157638,B,1529.5986661221832,Correct
2,12,74,B,67.91088152619848,41.23374335712846,3.395544076309924,0.6476981260538085,B,1515.910459216684,Correct
2,12,75,B,57.213867102543844,48.40342520210607,2.8606933551271925,0.7603192251175973,B,1107.4932089541107,Correct
2,12,76,A,55.07988277232077,81.66000660001569,2.7539941386160387,1.2827123841335166,A,1418.9807081129402,Correct
2,12,77,B,80.01244188945313,60.81025416599947,4.000622094472657,0.9552052387541601,B,1943.4421670157462,Correct
2,12,78,A,27.329711820080156,45.89274251189835,1.3664855910040077,0.7208815136423392,A,632.5665828771889,Correct
2,12,79,A,62.9807183565873,79.73405778785269,3.1490359178293654,1.2524596509361103,A,1295.390416868031,Correct
2,12,80,A,56.72070826015262,81.91783210531266,2.8360354130076306,1.2867622977002615,A,662.3106671031564,Correct
2,12,81,A,47.98840111418549,60.43649215872952,2.3994200557092746,0.949334198873009,A,643.9656668808311,Correct
2,12,82,A,51.27179035919053,78.27810946744748,2.5635895179595263,1.2295896681991532,A,426.1564170010388,Correct
2,12,83,B,34.20788022030772,13.095635856666217,1.710394011015386,0.20570576700694834,B,903.5522919148207,Correct
2,12,84,B,48.04997044974169,33.11911649097287,2.4024985224870847,0.5202338653071247,B,534.9769170861691,Correct
2,12,85,B,42.05076791508516,33.02774935146736,2.102538395754258,0.5187986736358745,A,587.8903749398887,Incorrect
2,12,86,B,50.00813881161058,19.44317832393208,2.500406940580529,0.30541273092450666,B,721.454834099859,Correct
2,12,87,B,37.01115026291892,19.123469699593695,1.850557513145946,0.3003907595969528,B,661.9151660706848,Correct
2,12,88,A,42.34530764832242,73.35243423913832,2.117265382416121,1.1522173426430267,A,1186.947915935889,Correct
2,12,89,B,54.00733735835065,26.735813135934343,2.7003668679175323,0.41996517067800415,B,774.1760830394924,Correct
2,12,90,B,48.515610940111316,23.523624132156257,2.425780547005566,0.3695082237969483,B,661.4026250317693,Correct
2,12,91,A,40.233259439828196,64.66561737231255,2.01166297199141,1.015765142383528,A,1197.6717908401042,Correct
2,12,92,A,39.22118539570459,48.51827201111652,1.9610592697852294,0.7621232345749747,A,491.1966659128666,Correct
2,12,93,B,39.16763600178231,27.214445595772972,1.9583818000891156,0.4274835117759973,B,655.7203340344131,Correct
2,12,94,B,50.539923992964894,30.244448772837412,2.5269961996482446,0.4750786903830943,B,813.8506249524653,Correct
2,12,95,B,52.185448626961055,32.37381509902717,2.6092724313480526,0.5085266984188904,B,979.2632919270545,Correct
2,12,96,B,70.78861562733391,51.6355686728723,3.5394307813666956,0.8110896160331345,A,832.0291249547154,Incorrect
2,12,97,B,67.51248620235489,45.317713267478354,3.375624310117745,0.7118489753929934,A,833.565334090963,Incorrect
2,12,98,B,45.49807227147693,18.96221203665308,2.2749036135738465,0.2978577301508063,B,576.2971660587937,Correct
2,12,99,A,55.25102609454716,73.36385683026015,2.762551304727358,1.1523967682847933,A,597.8004578500986,Correct
2,12,100,B,67.09549628010197,35.797989400334174,3.354774814005099,0.5623135025668756,B,947.18625000678,Correct
2,12,101,A,12.563658062052166,36.59967390189375,0.6281829031026084,0.5749063332698573,A,1090.5708339996636,Correct
2,12,102,B,51.772039671331,39.65546727698274,2.58860198356655,0.6229066233601971,A,818.2361668441445,Incorrect
2,12,103,A,51.906931961430985,69.446739497165,2.5953465980715493,1.0908668331002884,A,1406.5295830368996,Correct
2,12,104,B,76.50468624959944,57.71598647778786,3.825234312479972,0.9066005955665308,A,827.9654590878636,Incorrect
2,12,105,B,31.110262829234376,12.628499041234093,1.5555131414617187,0.19836799906903385,B,1020.1177089475095,Correct
2,12,106,B,77.10091605809603,54.05635653632095,3.8550458029048014,0.8491152628716825,A,904.2992498725653,Incorrect
2,12,107,B,64.09743915285833,56.542126382613006,3.2048719576429163,0.8881616443098133,A,898.3036251738667,Incorrect
2,12,108,A,56.115997523845806,65.00086346553897,2.80579987619229,1.0210311757016521,A,784.2330411076546,Correct
2,12,109,B,77.37953898509008,66.08218394289675,3.8689769492545043,1.0380165180408691,A,747.951207915321,Incorrect
2,12,110,B,75.07804120129752,58.18188790174443,3.7539020600648763,0.9139189580205258,A,1369.5156660396606,Incorrect
2,12,111,A,15.81795787835642,45.5895726872035,0.7908978939178211,0.7161193331720821,A,457.85366697236896,Correct
2,12,112,A,61.43383124324147,87.18380262920678,3.0716915621620733,1.3694799692596926,A,659.4927499536425,Correct
2,12,113,A,56.67958413663929,81.38597312108008,2.8339792068319642,1.278407876312208,A,651.5265409834683,Correct
2,12,114,B,75.94798293987253,56.72207668078404,3.7973991469936266,0.8909882969835403,B,897.886082995683,Correct
2,12,115,B,68.22377480188999,59.388270369391854,3.4111887400944996,0.9328687695094291,A,677.7510840911418,Incorrect
2,12,116,B,66.4023113666303,54.79775003181304,3.320115568331515,0.8607610446659686,B,753.0246248934418,Correct
2,12,117,A,54.817378399801626,69.97542243763954,2.7408689199900813,1.0991713653096535,A,1565.6862079631537,Correct
2,12,118,B,61.443101903391955,39.74304291180442,3.072155095169598,0.6242822582151433,B,758.2860421389341,Correct
2,12,119,A,54.24187375684343,81.92315977765762,2.712093687842172,1.28684598458176,A,1676.0683748871088,Correct
2,12,120,A,41.88547809167995,56.655725612405064,2.0942739045839973,0.8899460568386542,A,742.0115410350263,Correct
2,12,121,A,49.5844017916332,74.30876576185877,2.4792200895816596,1.1672393630739013,A,980.8583748526871,Correct
2,12,122,A,52.579147904646966,75.794327870966,2.6289573952323484,1.1905745181160143,A,578.2242908608168,Correct
2,12,123,B,52.542961567597885,34.066318896078776,2.6271480783798946,0.5351124858938412,B,668.6206250451505,Correct
2,12,124,A,61.00094983422781,87.91909448855967,3.0500474917113904,1.3810299067776297,A,737.3861661180854,Correct
2,12,125,A,42.003690760483295,49.38559678060649,2.100184538024165,0.7757471401955055,B,1614.8886249866337,Incorrect
2,12,126,A,32.13250907226113,52.409889688220154,1.6066254536130566,0.8232526220998195,A,791.3832089398056,Correct
2,12,127,A,30.868043694121543,41.667700134057384,1.543402184706077,0.6545147031656856,A,662.3961669392884,Correct
2,12,128,A,29.01991743308745,53.368369286971884,1.4509958716543725,0.83830838443009,A,631.8163750693202,Correct
2,12,129,A,32.71072134885676,48.17313588260614,1.635536067442838,0.7567018489458915,A,580.7335418649018,Correct
2,12,130,B,68.29913360375551,56.955520087193044,3.4149566801877755,0.8946552174365578,B,510.34412486478686,Correct
2,12,131,A,44.65384994489238,70.5398672451859,2.232692497244619,1.1080376436133765,A,507.50616705045104,Correct
2,12,132,B,81.82511597698345,53.20090364405736,4.091255798849173,0.8356778402625453,B,691.4745408575982,Correct
2,12,133,B,37.83575864484365,22.70713929602665,1.8917879322421824,0.35668290998218716,B,652.314375154674,Correct
2,12,134,A,38.588975767588025,46.51425504072409,1.9294487883794011,0.7306442096157041,A,625.0355418305844,Correct
2,12,135,A,62.62915469929086,80.89259139832066,3.131457734964543,1.2706578543340254,A,1574.6411250438541,Correct
2,12,136,A,57.73330544231638,70.08130304636185,2.8866652721158186,1.1008345340222518,A,1932.783666998148,Correct
2,12,137,A,33.64164814568585,52.35399938485695,1.6820824072842924,0.8223746992675558,A,573.5064172185957,Correct
2,12,138,B,65.38758927569052,34.582601267163895,3.2693794637845257,0.5432222304147358,B,993.4040000662208,Correct
2,12,139,B,38.74473945230068,23.09384157027992,1.9372369726150338,0.3627572151017899,B,636.069375090301,Correct
2,12,140,A,67.94125718802306,85.4714732251208,3.3970628594011534,1.3425827618776813,A,535.8230830170214,Correct
2,12,141,A,36.365825574519654,47.7652581935146,1.8182912787259826,0.7502949211878257,B,655.1442081108689,Incorrect
2,12,142,A,43.78412509448871,53.284447313720975,2.1892062547244353,0.8369901411568909,B,1581.8128751125187,Incorrect
2,12,143,A,63.072733676224786,80.83756605835993,3.1536366838112393,1.2697935183151157,A,801.1634580325335,Correct
2,12,144,B,82.63404529902317,60.29828231090062,4.1317022649511586,0.9471632036600437,B,1239.8606669157743,Correct
2,12,145,B,30.82792670209001,14.606201952291588,1.5413963351045004,0.22943368375084075,B,936.4098331425339,Correct
2,12,146,A,43.020246035783366,71.55108016097975,2.1510123017891685,1.1239217389507419,A,636.9927919004112,Correct
2,12,147,B,57.57565323735982,48.199767700436716,2.8787826618679913,0.7571201805621329,A,1213.0679169204086,Incorrect
2,12,148,B,60.1537830452903,39.680251316326974,3.007689152264515,0.6232959301398477,B,951.3286668807268,Correct
2,12,149,A,27.203402587296498,42.32115483754505,1.360170129364825,0.6647791456453384,A,1578.914875164628,Correct
2,12,150,B,67.18055273456804,47.10712393055501,3.3590276367284018,0.7399569723598778,B,1393.2482078671455,Correct
2,12,151,B,79.82083578945057,56.59147146137325,3.9910417894725287,0.8889367549944333,B,847.9845421388745,Correct
2,12,152,A,59.927386197766424,82.37455132603033,2.996369309888321,1.293936426443061,A,601.04079102166,Correct
2,12,153,B,56.282993422506536,38.15594701378695,2.814149671125327,0.5993522141463724,B,1511.0460000578314,Correct
2,12,154,B,61.187084735485065,52.74330419181722,3.059354236774253,0.8284898848753236,B,2098.457582993433,Correct
2,12,155,A,52.68293809325639,68.31526593261722,2.6341469046628196,1.0730936879097166,A,804.0152499452233,Correct
2,12,156,A,57.52168081534728,86.30467337480857,2.8760840407673642,1.355670639223826,A,680.712457979098,Correct
2,12,157,B,68.0969193284003,54.629770459955495,3.404845966420015,0.8581224277214645,B,3010.347999865189,Correct
2,12,158,B,45.536183838340946,29.183590023049046,2.2768091919170472,0.4584147601089363,B,1711.5660831332207,Correct
2,12,159,A,37.10387371128892,45.160278750460286,1.855193685564446,0.7093759997825664,B,786.5714582148939,Incorrect
2,12,160,B,73.28138459098125,57.81340970005144,3.6640692295490624,0.9081309159632923,B,879.3801669962704,Correct
2,12,161,B,53.16456314120937,23.11905198104393,2.658228157060469,0.3631532193080409,B,1082.8080840874463,Correct
2,12,162,A,41.39974548712385,60.50797096456187,2.0699872743561927,0.9504569853294604,A,989.4398748874664,Correct
2,12,163,B,82.8621097140376,66.00827005052766,4.14310548570188,1.0368554813345443,B,675.7708331570029,Correct
2,12,164,B,65.78891669844936,57.909195206451955,3.2894458349224682,0.9096355111794336,A,695.6449160352349,Incorrect
2,12,165,B,84.17931606877605,60.20648177787329,4.208965803438803,0.9457212042592725,B,895.8949998486787,Correct
2,12,166,A,40.25778216685401,62.09338472930231,2.0128891083427005,0.9753606065105038,B,980.1227911375463,Incorrect
2,12,167,B,38.172113738387694,15.91117285652588,1.9086056869193846,0.24993211878029511,B,1120.279832975939,Correct
2,12,168,A,24.340948083510018,34.95125780220146,1.2170474041755008,0.5490130737255952,A,553.1239591073245,Correct
2,12,169,A,24.257233778649795,36.95576748603406,1.2128616889324897,0.5804998382094857,B,893.1787498295307,Incorrect
2,12,170,A,49.062236839029914,66.45317559030943,2.4531118419514955,1.0438440412111434,A,1897.8312911931425,Correct
2,12,171,B,57.64554235576818,45.51257299395013,2.882277117788409,0.7149098248188147,B,1817.4715000204742,Correct
2,12,172,A,64.179882666168,77.36978430406324,3.2089941333084,1.2153217298973598,A,603.4644171595573,Correct
2,12,173,A,54.515630715690165,68.52416008895688,2.7257815357845083,1.076374989644389,A,687.9064168315381,Correct
2,12,174,B,55.95336008138232,36.628694707027535,2.797668004069116,0.5753621910109052,B,521.8611659947783,Correct
2,12,175,B,75.74117445528611,63.21925396438756,3.7870587227643058,0.9930457190997368,A,816.5437080897391,Incorrect
2,12,176,A,28.64233630003745,55.36024359402886,1.4321168150018724,0.8695966728797123,A,613.887749845162,Correct
2,12,177,A,28.83303732862776,44.58355049954567,1.4416518664313882,0.7003167736016112,A,1081.8703749682754,Correct
2,12,178,B,57.513584965220424,33.56744242564724,2.875679248261021,0.5272761526210585,B,492.3111249227077,Correct
2,12,179,A,39.216287240414154,55.283236876079755,1.9608143620207077,0.8683870541827826,A,504.6070001553744,Correct
2,12,180,A,29.862102246152695,44.646239616288625,1.4931051123076347,0.7013014919447097,A,602.5379579514265,Correct
2,12,181,A,30.104473837694748,51.37627822381742,1.5052236918847373,0.8070166911836504,A,685.7867918442935,Correct
2,12,182,A,41.232096450875375,69.03260925317049,2.0616048225437686,1.084361690439476,A,574.7273340821266,Correct
2,12,183,A,65.29536569227612,76.94786016476003,3.264768284613806,1.2086941610153241,A,858.0072920303792,Correct
2,12,184,B,45.151375774853264,33.21360761537873,2.257568788742663,0.5217181284184391,B,679.3982908129692,Correct
2,12,185,A,56.357398809849784,73.90367943965386,2.817869940492489,1.160876282004358,A,2364.432333037257,Correct
2,12,186,B,79.725478312511,61.79151784887207,3.98627391562555,0.9706188926408954,B,467.610334046185,Correct
2,12,187,B,65.79617381181212,37.86530544262771,3.2898086905906063,0.594786827022464,B,455.06229088641703,Correct
2,12,188,B,61.13765689460353,48.909341839511555,3.0568828447301764,0.7682661450746069,B,625.9017500560731,Correct
2,12,189,B,60.54931108328214,40.871353753541975,3.0274655541641073,0.6420057234719855,B,482.08366706967354,Correct
2,12,190,B,78.62047367261414,54.67214727270477,3.931023683630707,0.8587880811395429,B,1061.499624978751,Correct
2,12,191,A,67.12807273757019,81.56937747877892,3.3564036368785093,1.2812887852261228,A,970.1337500009686,Correct
2,12,192,B,64.31955448509505,55.7597834245651,3.2159777242547527,0.8758726298618582,A,1022.909542080015,Incorrect
2,12,193,B,84.47233552258334,64.42237934554358,4.223616776129166,1.0119443683936726,B,1257.0766659919173,Correct
2,12,194,A,26.344718947874867,36.07286430385195,1.3172359473937434,0.5666312274546139,A,660.9953329898417,Correct
2,12,195,B,51.36417998242965,20.464062852109244,2.5682089991214823,0.32144874759393094,B,815.2847080491483,Correct
2,12,196,A,65.56416552645499,78.70613220457685,3.2782082763227494,1.2363130336318282,A,1485.3565408848226,Correct
2,12,197,A,36.51065138709844,64.2472863010283,1.8255325693549223,1.0091940132819532,A,1040.5462079215795,Correct
2,12,198,A,54.01774220724461,62.04622498779433,2.7008871103622307,0.9746198230231706,A,1362.2688329778612,Correct
2,12,199,B,61.3918688935332,53.26930878746306,3.06959344467666,0.8367523457425007,B,570.7995418924838,Correct
2,12,200,B,50.8090427563698,43.88055272427526,2.5404521378184897,0.6892741103702137,B,1643.8135411590338,Correct
2,12,201,B,46.250290912395144,34.98643607840733,2.312514545619757,0.5495656527960667,B,1809.0674169361591,Correct
2,12,202,B,73.69294105603397,48.30477704922766,3.684647052801699,0.7587696635557322,B,533.205916872248,Correct
2,12,203,A,39.66417973449152,62.68227621733361,1.983208986724576,0.9846108923733075,A,1316.3069589063525,Correct
2,12,204,A,35.258568790256035,49.623901515334346,1.762928439512802,0.7794904222151889,A,1916.5833748411387,Correct
2,12,205,B,50.632748414237795,36.67560721696633,2.5316374207118897,0.576099090993831,B,985.8015000354499,Correct
2,12,206,B,82.37228544646915,51.492182882220575,4.118614272323458,0.8088373173004314,B,1347.57687500678,Correct
2,12,207,B,41.175457490170515,20.11153286933004,2.058772874508526,0.3159112195735846,B,832.8047499526292,Correct
2,12,208,A,58.258106880979945,78.10751936222331,2.9129053440489976,1.2269100450924164,A,758.1957089714706,Correct
2,12,209,B,61.444392972473196,30.754069585755964,3.07221964862366,0.48308379539300117,B,478.57383405789733,Correct
2,12,210,A,45.88349730607967,56.812735313266494,2.2941748653039835,0.8924123594524971,B,541.8297501746565,Incorrect
2,12,211,A,52.36394664378936,65.7253279638352,2.618197332189468,1.0324110374298223,A,584.6622500102967,Correct
2,12,212,B,50.83875950570797,32.588109952866326,2.5419379752853986,0.5118928341115064,B,688.0874580238014,Correct
2,12,213,B,41.23970504104388,21.027361741868145,2.0619852520521937,0.3302970258631402,B,897.7509581018239,Correct
2,12,214,B,47.40710859598158,24.557095901508443,2.370355429799079,0.38574196038839476,B,762.2903329320252,Correct
2,12,215,B,43.02786869594904,26.24395713004538,2.151393434797452,0.4122391146043802,B,445.56087511591613,Correct
2,12,216,A,23.978179500015152,46.28380643050412,1.1989089750007578,0.7270243313112189,A,529.1889999061823,Correct
2,12,217,B,63.343697476105746,32.867871260522875,3.167184873805287,0.5162873144559689,B,459.0602081734687,Correct
2,12,218,A,68.64795612768083,86.5424192376435,3.4323978063840412,1.359405142504344,A,593.9745828509331,Correct
2,12,219,B,59.457599705782584,27.330402883195408,2.9728799852891292,0.42930496458748,B,634.0788749512285,Correct
2,12,220,B,38.207688987351915,14.391275427074476,1.9103844493675957,0.22605762578742242,B,469.7864998597652,Correct
2,12,221,A,63.92524699304067,76.9226691426296,3.1962623496520335,1.2082984613650172,A,746.171000180766,Correct
2,12,222,B,59.45212986782609,28.587294308502976,2.9726064933913046,0.44904816892801136,B,487.5504581723362,Correct
2,12,223,B,88.6985166528709,62.811696350203576,4.434925832643545,0.9866438190665617,B,1006.0417498461902,Correct
2,12,224,B,67.37364054970355,54.783214246186446,3.368682027485178,0.8605327170792751,B,615.4556670226157,Correct
2,12,225,B,47.68378056936924,35.38358573496034,2.384189028468462,0.5558040650130801,B,903.8714168127626,Correct
2,12,226,A,68.19345310901932,88.71251441216143,3.4096726554509655,1.3934929177936248,A,996.4643330313265,Correct
2,12,227,B,87.66602735323862,65.12850191558717,4.3833013676619315,1.023036115786587,A,985.0864170584828,Incorrect
2,12,228,A,26.75610822268598,51.054929358484586,1.337805411134299,0.8019689550108051,A,468.32241700030863,Correct
2,12,229,B,71.99486523864843,40.99532970828901,3.5997432619324217,0.6439531332152608,B,515.1275410316885,Correct
2,12,230,B,47.96948595957028,26.552617364231843,2.398474297978514,0.4170875382252577,B,1880.6522500235587,Correct
2,12,231,B,60.555308745256674,38.52837374040855,3.0277654372628335,0.605202279488147,A,779.9723751377314,Incorrect
2,12,232,B,68.58075297151186,43.55382251315994,3.429037648575593,0.6841418442154851,B,571.4287499431521,Correct
2,12,233,B,52.09748038770924,41.51246139822733,2.6048740193854623,0.6520762188055044,B,978.2162089832127,Correct
2,12,234,B,37.72653027836556,21.594747247050968,1.8863265139182779,0.3392094965373187,B,571.9005409628153,Correct
2,12,235,B,52.090410126438925,38.55780092056083,2.6045205063219465,0.6056645205530583,B,544.0560828428715,Correct
2,12,236,A,16.811954203461283,43.508995331798666,0.8405977101730642,0.6834377004972564,A,611.3389581441879,Correct
2,12,237,B,70.08203536414442,48.46128009271319,3.504101768207221,0.7612280076141252,A,844.5736251305789,Incorrect
2,12,238,A,57.937665992571596,82.55952540453916,2.89688329962858,1.2968419924738006,A,873.5957921016961,Correct
2,12,239,A,31.169305410493507,62.81842060599354,1.5584652705246753,0.9867494434295149,A,716.1815001163632,Correct
2,12,240,A,37.38337817889371,44.73548949938323,1.8691689089446855,0.7027034258300284,A,993.6679161619395,Correct
2,12,241,A,46.50508881855419,78.61248649402566,2.3252544409277096,1.2348420502502893,A,768.868749961257,Correct
2,12,242,B,84.05143116823392,67.2375268825795,4.202571558411696,1.05616460249929,B,500.9783748537302,Correct
2,12,243,A,40.79271361234512,73.64417596019526,2.039635680617256,1.1568000108811174,A,564.0194590669125,Correct
2,12,244,B,71.07141861060695,59.89320857476899,3.5535709305303476,0.9408003202920774,B,758.5487079340965,Correct
2,12,245,A,28.895794639121455,57.5773678727029,1.4447897319560727,0.9044231796096021,A,507.74341612122953,Correct
2,12,246,A,58.188265645611764,77.53141767179673,2.909413282280588,1.2178606609005924,A,702.6627918239683,Correct
2,12,247,A,37.204405748899326,55.83858107225384,1.8602202874449663,0.8771103804173535,A,1222.966416971758,Correct
2,12,248,B,86.4643779545525,62.00917618982944,4.323218897727625,0.9740378618656163,B,1042.6590840797871,Correct
2,12,249,A,57.30064258203144,75.35137570399182,2.8650321291015723,1.1836166417477259,A,854.5598750934005,Correct
2,12,250,A,43.4794636099168,57.934563933538136,2.1739731804958398,0.910034002212658,B,651.9672910217196,Incorrect
2,12,251,B,32.80652064296625,13.192455834268177,1.6403260321483122,0.20722661165872355,B,922.7276670280844,Correct
2,12,252,B,81.92906389766362,68.41393878226184,4.096453194883181,1.0746436374074781,A,613.1196250207722,Incorrect
2,12,253,A,47.927217993617234,73.04491763412078,2.396360899680862,1.1473868831071268,A,1924.2139169946313,Correct
2,12,254,B,76.07368694552355,59.289098115588104,3.803684347276177,0.93131097538948,B,1877.0115841180086,Correct
2,12,255,A,25.349436211786617,37.89872383203952,1.2674718105893308,0.5953117618558189,A,1240.804750006646,Correct
2,12,256,B,79.52478525996092,49.400284076242,3.976239262998046,0.7759778476958537,B,1352.9002501163632,Correct
2,12,257,A,39.81512334837646,67.7668129678481,1.990756167418823,1.0644786088849256,A,2839.5527920220047,Correct
2,12,258,B,58.039975007974604,26.530039310291887,2.90199875039873,0.4167328829833071,B,1213.0604998674244,Correct
2,12,259,A,28.414511617313522,50.8119001690884,1.420725580865676,0.7981514614307303,A,1530.5302091874182,Correct
2,12,260,A,60.43050110327053,76.95325578860093,3.0215250551635267,1.2087789152764246,A,1699.5987079571933,Correct
2,12,261,A,17.431276004187485,31.717721225416206,0.8715638002093742,0.498220799951883,A,950.8209589403123,Correct
2,12,262,A,47.002248442242006,68.2940584441006,2.3501124221121,1.0727605614590923,A,1303.1525840051472,Correct
2,12,263,B,47.728622122246655,26.113548839432536,2.3864311061123327,0.4101906659655976,B,1237.8552078735083,Correct
2,12,264,B,72.08427832052307,40.151582461109754,3.6042139160261537,0.6306995824491359,B,1794.9277081061155,Correct
2,12,265,A,26.886488585166134,51.432248098119764,1.3443244292583068,0.8078958639133033,A,692.2834161669016,Correct
2,12,266,A,68.5184011034983,87.6678020066845,3.4259200551749154,1.3770826137028227,A,565.2297909837216,Correct
2,12,267,A,64.39787017250718,87.39673519441585,3.219893508625359,1.372824706172547,A,565.5471251811832,Correct
2,12,268,B,47.32950746104052,26.067423419615984,2.366475373052026,0.4094661295654005,B,919.6711669210345,Correct
2,12,269,A,58.40328862559376,85.33039530575445,2.9201644312796877,1.3403667151023557,A,1163.6739592067897,Correct
2,12,270,B,82.18042595270285,56.7588411549574,4.109021297635143,0.8915657919934209,B,1060.8756251167506,Correct
2,12,271,A,19.778625006698462,38.166175576914384,0.9889312503349231,0.599512884040262,A,670.7612499594688,Correct
2,12,272,B,61.685065960102705,44.215669147369255,3.084253298005135,0.6945381068346607,B,1128.6818340886384,Correct
2,12,273,A,36.23571928088395,69.15654645071865,1.8117859640441976,1.0863084913860952,A,752.7340829838067,Correct
2,12,274,B,51.58574232175331,43.782172295040176,2.5792871160876656,0.687728754201504,B,1434.498708928004,Correct
2,12,275,B,40.18479704471067,26.389936211109973,2.0092398522355337,0.4145321486476318,B,999.8682090081275,Correct
2,12,276,A,11.752949671648075,33.883213405700076,0.5876474835824037,0.5322362715768127,A,838.4725840296596,Correct
2,12,277,A,58.85867319256688,75.30851470176555,2.942933659628344,1.1829433826991278,A,1149.633000139147,Correct
2,12,278,B,50.51018167791511,32.71091509355893,2.5255090838957552,0.5138218527506211,B,1420.4342081211507,Correct
2,12,279,B,63.806658699035545,32.426252507633755,3.190332934951777,0.5093503833071491,B,761.6627078969032,Correct
2,12,280,B,63.54763040778033,52.125403891268974,3.177381520389017,0.818783929651057,B,1089.3727079965174,Correct
2,12,281,A,26.560187488383896,39.213458132152304,1.3280093744191948,0.615963559949103,A,817.614333005622,Correct
2,12,282,A,35.30256019849128,62.38243272684312,1.7651280099245639,0.9799009618385491,A,1154.7344580758363,Correct
2,12,283,B,65.25261207255143,48.05560533036349,3.262630603627571,0.7548556833484024,B,715.0632080156356,Correct
2,12,284,A,19.474048208100427,45.04550062132301,0.9737024104050214,0.7075730691461141,A,1276.796958874911,Correct
2,12,285,A,34.559581712725404,46.764829473261905,1.72797908563627,0.7345802235978951,A,913.7822079937905,Correct
2,12,286,A,21.092071569072857,37.623148706751344,1.054603578453643,0.5909830379102318,A,653.946875128895,Correct
2,12,287,B,81.15913447433519,50.13210807804424,4.057956723716759,0.7874733122347665,B,1383.7338748853654,Correct
2,12,288,A,50.210165099183286,57.32014954933796,2.510508254959164,0.9003828036343421,A,1213.7672500684857,Correct
2,12,289,B,66.93156138440361,37.916777858572964,3.3465780692201803,0.5955953538414447,B,993.0790830403566,Correct
2,12,290,A,53.19842722001614,70.68763726679114,2.659921361000807,1.1103588096848556,A,1131.694542011246,Correct
2,12,291,B,37.346967774397925,23.940005440278277,1.867348388719896,0.3760487260903896,B,3108.36608405225,Correct
2,12,292,A,22.17953299523376,35.39852386457101,1.108976649761688,0.5560387126042964,B,2154.243332799524,Incorrect
2,12,293,B,84.96973037859858,61.3070230058145,4.248486518929929,0.9630084654426363,B,1328.9925421122462,Correct
2,12,294,A,19.252428869514915,46.24198152937795,0.9626214434757457,0.7263673473006435,A,1072.6347907911986,Correct
2,12,295,B,55.35839162937647,46.38486971038642,2.7679195814688233,0.7286118295993483,B,3291.5444169193506,Correct
2,12,296,B,62.23426527579893,31.605625768364597,3.1117132637899463,0.49646000863001244,B,1582.6260410249233,Correct
2,12,297,B,71.55088684347662,58.49264253893209,3.577544342173831,0.9188002804468144,A,1180.417374940589,Incorrect
2,12,298,A,52.658001799980795,63.420269745125864,2.63290008999904,0.9962032675998522,A,3124.8701671138406,Correct
2,12,299,A,24.516787116186652,56.4218893505883,1.2258393558093326,0.8862729654273219,A,1044.338459149003,Correct
