subject,day,trial,cat,x,y,xt,yt,resp,rt,fb
2,23,0,A,17.216859160605686,45.73900582940949,0.8608429580302842,0.718466623480868,A,1637.2440420091152,Correct
2,23,1,B,59.88024854891294,32.17936550460375,2.994012427445647,0.5054722913322197,B,2990.4406256973743,Correct
2,23,2,B,47.58301402218048,19.96565125824018,2.379150701109024,0.3136197165851158,B,2856.44550062716,Correct
2,23,3,A,51.417310380992305,76.53620392021635,2.5708655190496152,1.20222787984701,A,1591.8117510154843,Correct
2,23,4,A,27.380593843020282,54.02353520451641,1.369029692151014,0.8485997065972914,A,779.7823757864535,Correct
2,23,5,B,63.36616639980884,48.147624628485886,3.1683083199904423,0.7563011191032513,B,1294.2926245741546,Correct
2,23,6,B,69.27070710314622,47.72952458018313,3.463535355157311,0.7497336189021838,B,1303.6163756623864,Correct
2,23,7,A,66.61867433576312,80.64082701971391,3.330933716788156,1.2667031487226927,A,1334.6770009957254,Correct
2,23,8,A,51.534119938137565,75.33405457434674,2.5767059969068784,1.1833445620795013,A,1894.8646262288094,Correct
2,23,9,A,19.38707652505577,48.33107682166779,0.9693538262527887,0.7591827794151772,A,1056.4793748781085,Correct
2,23,10,A,42.38244807761206,59.40626738693001,2.119122403880603,0.9331514659998512,A,1698.5460841096938,Correct
2,23,11,A,39.67286274383687,64.1101775698822,1.9836431371918437,1.0070403143693951,B,1319.1560008563101,Incorrect
2,23,12,A,23.75309488791982,37.26355709419131,1.1876547443959908,0.5853345860686763,B,2158.106083981693,Incorrect
2,23,13,B,38.090334744220485,22.388567473402624,1.9045167372110243,0.3516787954942054,B,5726.351208984852,Correct
2,23,14,B,66.79163881657527,49.16885839415675,3.3395819408287637,0.7723426215823985,B,4872.723876032978,Correct
2,23,15,B,81.13908638648991,66.1341594959841,4.056954319324495,1.0388329481195964,B,7468.598001170903,Correct
2,23,16,B,78.33078800222522,60.20954653709796,3.9165394001112612,0.9457693453845987,A,3323.355042375624,Incorrect
2,23,17,B,57.004311499265604,45.830475042680796,2.85021557496328,0.7199034185230818,B,3369.260083884001,Correct
2,23,18,B,69.02663403184053,57.37875311847538,3.451331701592027,0.9013033463457234,A,2856.2490418553352,Incorrect
2,23,19,A,31.617490705251974,46.94557254837123,1.5808745352625988,0.7374193291826486,A,1207.861625123769,Correct
2,23,20,B,69.83947364560504,51.642225609791296,3.491973682280252,0.8111941829537351,B,3467.426999937743,Correct
2,23,21,B,44.48726702329417,32.02551109049025,2.2243633511647087,0.503055551846713,B,7465.837291907519,Correct
2,23,22,B,69.95543626407823,47.774757571891094,3.4977718132039115,0.750444137074432,B,4349.285874981433,Correct
2,23,23,A,25.647224604200403,57.61727830143758,1.2823612302100202,0.9050500911581744,A,2184.734500013292,Correct
2,23,24,A,30.81006590915366,61.25498683794375,1.5405032954576832,0.9621910832291178,A,2952.7995008975267,Correct
2,23,25,B,66.29280240760525,40.455429520383724,3.3146401203802625,0.6354724008952857,B,3151.776875834912,Correct
2,23,26,B,49.553359009386156,30.93519133281793,2.477667950469308,0.48592884914287726,B,3912.9695002920926,Correct
2,23,27,B,81.76701705663366,50.94567084609023,4.088350852831684,0.8002527263114038,B,2807.5304590165615,Correct
2,23,28,B,80.32650370649253,67.59668512667146,4.016325185324627,1.0618062470048675,A,9106.223708949983,Incorrect
2,23,29,B,40.5888559300269,13.784107888017136,2.0294427965013453,0.21652026038641875,B,3927.6475007645786,Correct
2,23,30,B,38.572068862394936,15.619035057396172,1.9286034431197467,0.24534322896238625,B,4452.550791669637,Correct
2,23,31,B,57.311122889667296,44.457850033367066,2.865556144483365,0.6983422752961135,B,5448.2260420918465,Correct
2,23,32,A,12.571639818877582,32.95330641675551,0.6285819909438791,0.5176293267518625,A,1150.73366696015,Correct
2,23,33,A,43.32098284608967,68.19375013799205,2.1660491423044834,1.0711849222712688,A,2238.682792056352,Correct
2,23,34,A,54.71813486175456,72.80095426886795,2.735906743087728,1.1435547155270103,A,6742.500209249556,Correct
2,23,35,A,26.595582269008442,56.15224680312112,1.329779113450422,0.8820374301962315,A,2492.2515428625047,Correct
2,23,36,A,33.68462392485781,53.78458244617938,1.6842311962428906,0.8448462454465584,A,2919.848167337477,Correct
2,23,37,B,68.1454467313166,53.42505424939228,3.40727233656583,0.8391987897376347,B,2175.904083997011,Correct
2,23,38,B,55.79051616691203,33.11310131598843,2.7895258083456014,0.5201393791594188,B,7951.348458882421,Correct
2,23,39,A,15.161456993414312,32.14573521964759,0.7580728496707155,0.5049440280514378,A,2147.916624788195,Correct
2,23,40,B,48.323723920923676,26.565906971560523,2.416186196046184,0.417296290889022,B,2713.9067919924855,Correct
2,23,41,A,43.05173379797957,50.24309656423585,2.1525866898989787,0.7892167152990297,A,5583.577418234199,Correct
2,23,42,B,77.85035654115123,50.80621432654098,3.8925178270575613,0.7980621484248483,B,4568.186000920832,Correct
2,23,43,A,55.30922030566201,76.1525079357839,2.7654610152831003,1.1962007974174855,A,2294.8068752884865,Correct
2,23,44,A,17.43343533159357,47.470361170107665,0.8716717665796786,0.745662689576322,A,3594.331709202379,Correct
2,23,45,A,46.184533476268214,53.59165332015099,2.3092266738134106,0.8418157218215869,A,1895.0932919979095,Correct
2,23,46,A,63.99461730688075,81.16844019592995,3.1997308653440375,1.27499087711438,A,5540.010499767959,Correct
2,23,47,A,41.36762692227517,59.80081376160694,2.0683813461137586,0.9393489859607788,A,1028.960625641048,Correct
2,23,48,B,34.504743532747085,14.196445550407493,1.7252371766373542,0.22299724524123843,B,9684.974001254886,Correct
2,23,49,B,51.383161258825794,27.708348898188703,2.56915806294129,0.43524172670826233,B,2575.572042260319,Correct
2,23,50,B,83.73564295641734,64.50818677385344,4.186782147820867,1.013292228325681,B,3044.6896669454873,Correct
2,23,51,B,44.97549883937582,37.046789795575435,2.2487749419687906,0.5819296133043256,B,5443.824126385152,Correct
2,23,52,B,64.34509879255437,40.984578549942725,3.2172549396277184,0.6437842544148694,B,2486.1781680956483,Correct
2,23,53,A,16.217461807826158,45.52508158907031,0.8108730903913078,0.7151063093714962,A,1509.953917004168,Correct
2,23,54,B,85.69504211639239,57.90186200880072,4.28475210581962,0.9095203215800913,B,813.9315010048449,Correct
2,23,55,B,38.137076380507295,25.411561200093615,1.9068538190253648,0.39916386991230773,B,6309.34387492016,Correct
2,23,56,A,38.29633754894228,52.96613689158754,1.9148168774471142,0.8319901327382137,B,5292.075083591044,Incorrect
2,23,57,A,43.55207871099305,50.45489410903797,2.1776039355496524,0.7925436233530232,B,1303.0789173208177,Incorrect
2,23,58,A,51.38191404954162,77.24170074460393,2.569095702477081,1.213309798050145,A,1310.457375831902,Correct
2,23,59,B,37.21110516218218,22.562671403050345,1.860555258109109,0.35441361362591733,B,1321.6740428470075,Correct
2,23,60,A,51.43024701983566,69.51553102406761,2.571512350991783,1.0919474078780207,A,1295.1878760941327,Correct
2,23,61,B,32.80676379665387,19.632172664345568,1.6403381898326932,0.30838144708157195,B,1900.6974170915782,Correct
2,23,62,A,50.6007693040216,73.2118023540205,2.5300384652010797,1.1500083021572938,A,3375.0927508808672,Correct
2,23,63,A,59.26319461449095,83.02107164701468,2.9631597307245476,1.304091943897066,A,1648.7042931839824,Correct
2,23,64,A,37.02246271153728,56.30463819442015,1.851123135576864,0.8844311885731082,B,796.795376110822,Incorrect
2,23,65,A,15.364142103094544,32.0723204281248,0.7682071051547271,0.5037908312028736,A,7476.933458819985,Correct
2,23,66,B,56.46681908817057,34.764627596554774,2.823340954408528,0.5460814933106073,B,5418.460292275995,Correct
2,23,67,A,38.52622372368915,64.18039318675785,1.9263111861844575,1.0081432587001145,A,8527.854125015438,Correct
2,23,68,B,63.251150539446286,47.66276609592747,3.162557526972314,0.7486849790836719,B,12443.732417188585,Correct
2,23,69,B,81.17894983425754,52.958463397345625,4.0589474917128765,0.8318695977725248,B,2714.243041817099,Correct
2,23,70,A,42.94337816825971,74.04118233685041,2.1471689084129855,1.163036172462758,A,6456.288042012602,Correct
2,23,71,A,32.134224632288756,46.67624749196712,1.6067112316144376,0.7331887810895146,B,9181.618792936206,Incorrect
2,23,72,A,24.486116868062126,48.369510343754094,1.2243058434031062,0.7597864917683669,A,7120.2861671335995,Correct
2,23,73,B,66.52816959213865,45.48072425529351,3.326408479606932,0.714409546001866,B,2143.5924181714654,Correct
2,23,74,A,50.82437601821614,63.58981415649793,2.5412188009108068,0.9988664649859706,A,21851.89483407885,Correct
2,23,75,A,35.407820470250044,45.872722898931514,1.7703910235125022,0.7205670462972176,B,6063.785084057599,Incorrect
2,23,76,A,31.002274252198056,62.1655526246165,1.5501137126099027,0.9764942171592244,A,4012.0332092046738,Correct
2,23,77,A,32.5118775891989,59.46047610049783,1.625593879459945,0.9340029744813774,A,3248.576291836798,Correct
2,23,78,A,22.54778928834721,53.0463899493683,1.1273894644173605,0.8332507448219744,A,1115.3967501595616,Correct
2,23,79,B,41.07016513636963,18.23310242332689,2.0535082568184815,0.2864049031263701,B,1189.4804169423878,Correct
2,23,80,B,72.01781905373211,62.018330766355064,3.6008909526866058,0.9741816616174145,B,1750.332001131028,Correct
2,23,81,B,68.6622899557432,55.65334930789416,3.43311449778716,0.8742007666667345,A,2394.2033760249615,Incorrect
2,23,82,A,58.73694181452478,68.65597788931187,2.9368470907262396,1.0784455788104272,A,815.3993762098253,Correct
2,23,83,B,68.29005120093969,45.536556482029496,3.414502560046984,0.7152865565686026,B,682.3894171975553,Correct
2,23,84,B,35.237331235130256,20.978137939746183,1.7618665617565128,0.3295238201874996,B,2128.295792732388,Correct
2,23,85,B,86.88322837456556,61.13865469474161,4.3441614187282775,0.9603637421968167,A,2483.3307089284062,Incorrect
2,23,86,B,55.730844258240325,44.52222486439896,2.7865422129120163,0.6993534727773429,B,4464.503125287592,Correct
2,23,87,B,77.28087714405117,54.993937074461144,3.8640438572025584,0.8638427435255325,B,1730.0785430707037,Correct
2,23,88,B,79.77821662994295,56.70988615452893,3.9889108314971473,0.8907968086449081,B,2184.7588336095214,Correct
2,23,89,B,38.637589473950186,23.667838260098137,1.9318794736975093,0.3717735340213787,B,1728.3016261644661,Correct
2,23,90,A,37.46405209266985,63.88604989071597,1.8732026046334926,1.0035197250177212,A,2983.097208663821,Correct
2,23,91,A,26.74805085994545,58.12587078401826,1.3374025429972727,0.9130390431929067,A,1391.618541907519,Correct
2,23,92,B,35.37352642596022,24.45373771963774,1.768676321298011,0.3841184138641277,B,1385.2403340861201,Correct
2,23,93,A,52.91269913065651,65.56325136453819,2.6456349565328257,1.0298651441614708,A,5189.712625928223,Correct
2,23,94,A,15.399792051843498,42.64836967261037,0.7699896025921749,0.6699190242552724,A,1873.129959218204,Correct
2,23,95,A,40.06372810833796,47.997339393115375,2.003186405416898,0.7539404441463363,A,3915.3693336993456,Correct
2,23,96,A,15.51706277752303,32.53461108216021,0.7758531388761515,0.5110524758155779,A,3032.2380419820547,Correct
2,23,97,B,80.45701629154628,66.88004325578103,4.022850814577314,1.0505492628206463,B,3277.1107088774443,Correct
2,23,98,B,54.2396351723421,35.71774607777258,2.711981758617105,0.56105304340358,B,2209.2957086861134,Correct
2,23,99,A,21.836845161096846,45.41773744163432,1.0918422580548424,0.7134201514465424,A,6453.0733758583665,Correct
2,23,100,B,33.91995473367305,15.070006997996103,1.6959977366836525,0.23671911637225662,B,4061.71966670081,Correct
2,23,101,A,49.95333998071227,59.020469077569544,2.4976669990356135,0.9270913603275801,A,2500.6570420227945,Correct
2,23,102,A,30.983582939929313,42.25189417316402,1.5491791469964655,0.6636912016733274,A,1601.5617507509887,Correct
2,23,103,A,14.244685628166827,31.045764770007803,0.7122342814083413,0.4876657326326666,A,1082.3611672967672,Correct
2,23,104,B,71.09648436582985,38.33792257967194,3.5548242182914924,0.6022106796509582,B,1861.4483340643346,Correct
2,23,105,A,22.395521529997172,36.760033783558605,1.1197760764998586,0.5774252604007016,A,2868.0557920597494,Correct
2,23,106,B,52.94250619309412,21.004145145620708,2.647125309654706,0.32993234042207864,B,2124.586791731417,Correct
2,23,107,B,48.56775300019794,37.691656853134155,2.428387650009897,0.5920591613571682,B,8783.323500771075,Correct
2,23,108,A,37.04388311849701,58.43706311251741,1.8521941559248503,0.9179272408582388,A,792.1648761257529,Correct
2,23,109,B,76.52569544316995,48.09772432151605,3.826284772158498,0.7555172869143097,A,1875.3576669842005,Incorrect
2,23,110,B,61.57960035442903,53.53623529139573,3.0789800177214515,0.8409452174615172,B,3136.7675838992,Correct
2,23,111,A,28.32967288826267,44.24861794979766,1.4164836444131337,0.6950556654129291,A,4051.253793295473,Correct
2,23,112,B,81.72732910143041,60.709990738733545,4.086366455071521,0.9536303045215484,A,2648.5422090627253,Incorrect
2,23,113,B,48.805097832464895,20.273629322625915,2.440254891623245,0.31845742470782096,B,5058.075916953385,Correct
2,23,114,B,31.077594147805588,13.979563630050478,1.5538797073902793,0.21959047200278825,B,3101.63437621668,Correct
2,23,115,B,51.13136390213491,30.53861692802825,2.5565681951067454,0.4796994729594322,B,3820.038625970483,Correct
2,23,116,A,45.76938264886983,53.63254276894295,2.2884691324434914,0.8424580117812577,A,7176.212751306593,Correct
2,23,117,A,53.50953503116413,82.62222139924168,2.675476751558206,1.2978268188556352,A,5070.128376130015,Correct
2,23,118,A,61.36580201279301,87.76082372323177,3.06829010063965,1.3785437954094688,A,3662.51250077039,Correct
2,23,119,A,27.07485093472576,51.30990795957008,1.353742546736288,0.8059741495107692,A,4220.159626100212,Correct
2,23,120,A,41.3515376188473,49.38160016291439,2.067576880942365,0.775684361471602,B,5723.729126155376,Incorrect
2,23,121,B,54.450429147167355,29.009521982735755,2.722521457358368,0.45568050572557134,B,1104.0764590725303,Correct
2,23,122,B,76.15129778779425,59.760879567573056,3.8075648893897123,0.9387217011077594,A,1310.7542512007058,Incorrect
2,23,123,A,48.49855753575197,75.61739596327638,2.4249278767875984,1.1877952782090977,A,2692.3469589091837,Correct
2,23,124,A,15.722738199190186,32.73760696883077,0.7861369099595094,0.5142411277469437,A,1533.9608760550618,Correct
2,23,125,A,29.664774590477613,46.72987679013218,1.4832387295238805,0.7340311881351773,A,1248.1643338687718,Correct
2,23,126,A,50.95093130877239,70.68581011038415,2.5475465654386196,1.11033010877913,A,1338.7424587272108,Correct
2,23,127,B,71.06787991306406,52.86391974565392,3.5533939956532032,0.8303845095645338,B,1534.7594590857625,Correct
2,23,128,A,29.259729618162226,62.01374506555219,1.4629864809081112,0.9741096295976452,A,984.8098340444267,Correct
2,23,129,A,17.732775372617684,33.169793879760554,0.8866387686308842,0.5210299038687172,A,499.703876208514,Correct
2,23,130,A,37.11863779083638,61.84367568492424,1.8559318895418189,0.9714381860137388,A,458.4681671112776,Correct
2,23,131,A,24.36849302647225,49.893318722344986,1.2184246513236126,0.7837224178066655,A,840.5053759925067,Correct
2,23,132,B,71.48726061428391,49.05949407210005,3.5743630307141956,0.7706247308287076,B,1610.2662510238588,Correct
2,23,133,B,36.82805893881413,20.15998827067457,1.8414029469407067,0.3166723552380381,B,804.8310009762645,Correct
2,23,134,B,64.27315676957674,45.16981712821906,3.2136578384788375,0.7095258282700371,B,767.8022920154035,Correct
2,23,135,B,70.83968814866327,49.85206790436015,3.541984407433164,0.7830744514729867,B,1582.3386679403484,Correct
2,23,136,A,17.51937780683574,37.722205871630194,0.875968890341787,0.5925390242175759,A,1250.207917764783,Correct
2,23,137,A,51.98171319613119,79.91321793510085,2.5990856598065597,1.2552738919481645,A,1157.2473752312362,Correct
2,23,138,B,47.904729951621555,33.625543099385744,2.395236497581078,0.5281887958699861,B,989.0760420821607,Correct
2,23,139,A,66.94979085326209,79.84357662418037,3.347489542663104,1.2541799687942938,A,1545.5725835636258,Correct
2,23,140,B,54.99471733821162,25.96914428628107,2.7497358669105814,0.4079223645489698,B,928.9973340928555,Correct
2,23,141,B,58.88254899105553,44.3133952191607,2.9441274495527763,0.6960731843806814,B,1647.287042811513,Correct
2,23,142,A,16.20288091795207,34.67296924067049,0.8101440458976035,0.5446417272231764,A,902.1327090449631,Correct
2,23,143,B,47.239662995657774,18.822324720284364,2.3619831497828887,0.29566038532363464,B,2058.6764588952065,Correct
2,23,144,B,78.73448143891036,58.94623768487286,3.9367240719455183,0.9259253363377721,B,1492.548709269613,Correct
2,23,145,B,59.918422851045264,29.85049916707456,2.995921142552263,0.4688905444463484,B,2062.052917201072,Correct
2,23,146,A,43.74122771664014,57.61319593212759,2.187061385832007,0.904985965451007,B,1729.0499177761376,Incorrect
2,23,147,A,53.74193412740671,83.20228205276509,2.687096706370335,1.3069383902943634,A,1188.2292507216334,Correct
2,23,148,A,35.20826257829919,49.950484821471875,1.7604131289149594,0.7846203807919225,B,38.54958387091756,Incorrect
2,23,149,B,57.79491952309382,43.672633578722305,2.889745976154691,0.6860081240691644,B,1009.8959179595113,Correct
2,23,150,A,53.37553009536713,70.04714997165735,2.6687765047683563,1.1002980587793059,A,484.51900063082576,Correct
2,23,151,B,75.91589804786003,64.77771771194229,3.795794902393001,1.0175260104007566,B,844.9334590695798,Correct
2,23,152,B,67.42440414771282,42.92495678461155,3.371220207385641,0.6742636444509751,B,1463.9448341913521,Correct
2,23,153,B,77.55822242047317,50.97988006911393,3.8779111210236583,0.8007900835300853,B,3701.9657087512314,Correct
2,23,154,B,63.391977847340875,37.31373451772761,3.169598892367044,0.5861227711944648,B,2155.7421679608524,Correct
2,23,155,B,50.66838022875148,30.78229042193804,2.5334190114375743,0.48352708725113996,B,1597.5653338246047,Correct
2,23,156,B,73.48596105413046,57.16215784639044,3.674298052706523,0.897901075767802,B,1128.659666981548,Correct
2,23,157,B,57.266697309210315,47.18597178622382,2.8633348654605157,0.7411955115804799,B,923.1654996983707,Correct
2,23,158,B,82.6658572862836,56.52874165700885,4.13329286431418,0.8879513975316715,B,1327.2315841168165,Correct
2,23,159,B,72.90032483410674,43.356087953376814,3.645016241705337,0.6810358370136077,B,1408.573708962649,Correct
2,23,160,B,60.02429947664067,28.305024882891978,3.0012149738320333,0.44461429115884865,B,2568.32891702652,Correct
2,23,161,A,12.371477059275321,40.17660010719018,0.6185738529637661,0.6310925587148178,A,3649.4748340919614,Correct
2,23,162,B,67.95238743404488,57.25442746031884,3.3976193717022443,0.899350443474137,B,942.2462927177548,Correct
2,23,163,A,16.67059071480001,35.845043349904245,0.8335295357400005,0.5630526242783341,A,1520.8889180794358,Correct
2,23,164,A,52.62235081130704,76.11166105071318,2.6311175405653517,1.1955591760471846,A,1510.2801253087819,Correct
2,23,165,A,27.262465385759917,48.24944212136831,1.363123269287996,0.757900464541483,A,1617.8434588946402,Correct
2,23,166,A,50.55749533544007,65.53408979493865,2.527874766772004,1.0294070752973654,B,1454.3610839173198,Incorrect
2,23,167,B,78.02862368768828,60.453110610147924,3.9014311843844145,0.9495952408974595,B,513.688500970602,Correct
2,23,168,A,49.74918966995189,71.22710692901663,2.4874594834975943,1.1188327793232664,B,2469.8440418578684,Incorrect
2,23,169,A,55.0572511554255,83.05258575072772,2.752862557771275,1.3045869662806127,A,3854.4370429590344,Correct
2,23,170,A,47.92048752849243,72.13901863317056,2.3960243764246214,1.1331570548757293,A,3430.9706250205636,Correct
2,23,171,A,45.28290265146727,73.47221575884055,2.2641451325733635,1.1540988663546883,A,807.2915840893984,Correct
2,23,172,B,42.795399277553415,33.72443307063271,2.139769963877671,0.529742155905902,B,2038.2180009037256,Correct
2,23,173,B,42.03638030662496,14.247389785020811,2.101819015331248,0.2237974754072582,B,427.411834243685,Correct
2,23,174,A,38.72833621575433,60.52274983892226,1.9364168107877164,0.9506891313450551,B,277.3667089641094,Incorrect
2,23,175,B,81.55782278960608,57.065306249732075,4.077891139480304,0.8963797344450499,B,982.3298761621118,Correct
2,23,176,A,34.273717174346885,48.863213704443794,1.713685858717344,0.7675415660233436,B,1618.5272093862295,Incorrect
2,23,177,A,30.37489416933369,61.536429170997636,1.5187447084666845,0.9666119690587741,A,1832.218793220818,Correct
2,23,178,A,34.95264349800557,62.390330445907864,1.7476321749002783,0.9800250189195189,A,2268.3081259019673,Correct
2,23,179,B,42.770895874027886,16.794642308327653,2.138544793701394,0.26380962447755246,B,2269.1214592196047,Correct
2,23,180,B,62.536414978764704,32.43926052797988,3.1268207489382354,0.5095547128129347,B,803.8632930256426,Correct
2,23,181,B,69.85754007764137,60.652810741307064,3.492877003882069,0.9527321232223119,B,748.1485418975353,Correct
2,23,182,A,18.93559126999852,34.90750270060754,0.946779563499926,0.5483257701969725,A,658.0749591812491,Correct
2,23,183,B,62.385898903798164,47.333645394861435,3.1192949451899086,0.7435151632006053,B,661.0457510687411,Correct
2,23,184,B,82.03263427018629,51.16242294444088,4.101631713509315,0.8036574603105465,B,736.2666670233011,Correct
2,23,185,B,64.1379755650211,46.28982539045772,3.2068987782510545,0.7271188769130815,B,2899.412958882749,Correct
2,23,186,A,25.522012174307466,51.47449783599184,1.2761006087153732,0.8085595212438783,A,4783.351459074765,Correct
2,23,187,A,23.079818748150235,48.06370256619215,1.1539909374075117,0.7549828744313707,B,782.1697508916259,Incorrect
2,23,188,A,14.005329597814168,38.128057462379296,0.7002664798907083,0.5989141260973014,A,1177.569834049791,Correct
2,23,189,A,43.66854357124916,73.41568303331726,2.183427178562458,1.1532108523787317,A,607.4471259489655,Correct
2,23,190,A,41.27008946299107,63.486118384759244,2.0635044731495538,0.9972376156124577,A,950.4046677611768,Correct
2,23,191,B,50.64023505407889,27.967835775074448,2.5320117527039447,0.43931773703889837,B,916.7803763411939,Correct
2,23,192,A,51.51083344128627,65.03919828764055,2.575541672064314,1.021633337679107,A,1198.3777089044452,Correct
2,23,193,B,69.2053673362615,59.73779044924302,3.4602683668130747,0.9383590180851419,B,462.9877512343228,Correct
2,23,194,A,61.808987070107136,85.45370891241724,3.090449353505357,1.342303720706253,A,1191.9725839979947,Correct
2,23,195,A,45.062771462328605,56.1095616298132,2.25313857311643,0.8813669330618245,A,497.61170893907547,Correct
2,23,196,A,47.43450441397174,78.68958941167406,2.371725220698587,1.2360531800485621,B,725.3365842625499,Incorrect
2,23,197,A,22.71799155609316,46.891709603122735,1.135899577804658,0.7365732520171816,A,759.8664169199765,Correct
2,23,198,A,18.119271850370048,47.16143514122562,0.9059635925185023,0.7408100908621295,A,420.70279316976666,Correct
2,23,199,A,45.65131608790463,71.72919428351436,2.2825658043952317,1.1267195490450186,A,649.3838340975344,Correct
2,23,200,B,61.82303527530256,52.112125542204765,3.091151763765128,0.8185753538316977,B,1829.8935433849692,Correct
2,23,201,A,64.38074974471954,88.25865373715206,3.219037487235977,1.3863636909818113,A,623.0380842462182,Correct
2,23,202,A,46.19974417946597,53.55071871332551,2.3099872089732982,0.8411727225211844,A,1616.9809172861278,Correct
2,23,203,A,51.3692317694814,62.323719292129084,2.5684615884740705,0.9789786933627259,A,986.0092499293387,Correct
2,23,204,A,22.126124430524168,39.10416191098411,1.1063062215262085,0.6142467389216674,B,2867.1022090129554,Incorrect
2,23,205,B,58.462678341635176,39.496071262478836,2.9231339170817585,0.6204028366193123,B,1911.3256251439452,Correct
2,23,206,B,63.487516374125036,36.478210814375856,3.174375818706252,0.5729983955527147,B,1032.1400840766728,Correct
2,23,207,B,77.61305613553459,56.88499016320063,3.8806528067767294,0.8935473359811936,B,797.6090842857957,Correct
2,23,208,B,72.94072993397762,54.46257820117246,3.6470364966988815,0.8554961778618152,B,2979.75204186514,Correct
2,23,209,B,46.148267333395516,20.222088788372904,2.307413366669776,0.3176478278889642,B,3664.113959297538,Correct
2,23,210,A,29.460725928616817,49.909183700234664,1.473036296430841,0.7839716242966034,A,3337.020166683942,Correct
2,23,211,B,62.152400759645836,39.540688158810575,3.107620037982292,0.6211036771880211,B,1435.7221680693328,Correct
2,23,212,A,10.647116562481308,33.54772023674553,0.5323558281240655,0.5269663572022271,A,948.4383342787623,Correct
2,23,213,B,53.287337333098506,22.124536046246348,2.664366866654925,0.34753139953485046,B,698.3210421167314,Correct
2,23,214,A,16.81437836026496,45.518909374744666,0.8407189180132479,0.7150093564555869,A,1688.681751023978,Correct
2,23,215,B,73.18340806019984,41.315103460650136,3.659170403009992,0.6489761275714035,B,777.3269591853023,Correct
2,23,216,A,40.95753546152765,70.4464904482216,2.0478767730763825,1.1065708843165825,A,1571.6472510248423,Correct
2,23,217,B,58.7538420501317,36.795104680139204,2.9376921025065847,0.5779761527559637,B,1818.3185840025544,Correct
2,23,218,A,44.5373675173054,70.84439913364969,2.22686837586527,1.1128212193312847,A,545.0127092190087,Correct
2,23,219,B,80.8719267743096,65.2756324023824,4.04359633871548,1.0253472360687619,B,1532.3852500878274,Correct
2,23,220,B,54.597524935503245,33.18762964477152,2.7298762467751625,0.5213100674103651,B,519.6228758431971,Correct
2,23,221,A,43.310863694238066,67.7861703097157,2.165543184711903,1.0647826732999468,A,945.208583958447,Correct
2,23,222,B,52.40855417374904,20.79308010601681,2.620427708687452,0.32661693853283247,B,1377.5402917526662,Correct
2,23,223,A,55.14295900039745,80.78029841372579,2.7571479500198723,1.2688939602567606,A,3136.447958648205,Correct
2,23,224,B,47.360036858493274,28.943262951286222,2.368001842924664,0.4546397112933921,A,477.19295881688595,Incorrect
2,23,225,B,62.772474363042804,37.473917448338376,3.1386237181521404,0.5886389187846511,B,1118.02245862782,Correct
2,23,226,B,62.1866764415978,47.12535789003218,3.10933382207989,0.7402433907255744,B,1199.784583877772,Correct
2,23,227,A,57.881937970779916,86.01639565294786,2.894096898538996,1.35114238335787,A,2280.6733758188784,Correct
2,23,228,A,19.566492641144805,49.231685468742555,0.9783246320572403,0.7733295069622249,A,623.0979589745402,Correct
2,23,229,A,33.012038517612,62.14019115797003,1.6506019258805997,0.9760958401727203,B,1728.4559588879347,Incorrect
2,23,230,A,45.01540350272515,66.73466644298824,2.2507701751362577,1.0482656891852857,A,2250.1882510259748,Correct
2,23,231,A,53.006766155498035,61.73137238177591,2.6503383077749016,0.9696741298530154,A,1658.0192507244647,Correct
2,23,232,B,34.22509655623878,18.103075043630795,1.711254827811939,0.2843624378222761,B,1311.0292092896998,Correct
2,23,233,B,45.37802576474502,32.392328165630374,2.268901288237251,0.5088175009890705,B,791.315209120512,Correct
2,23,234,A,41.473327198547835,49.424680746362014,2.073666359927392,0.7763610696939589,A,780.0546679645777,Correct
2,23,235,A,24.0486232844897,51.76703783883169,1.2024311642244851,0.8131547288628924,A,784.8142916336656,Correct
2,23,236,A,28.871322145265424,46.53624254047186,1.4435661072632713,0.7309895884540961,A,1508.371208794415,Correct
2,23,237,B,37.69057112102854,16.65542849840853,1.884528556051427,0.2616228590649516,B,935.2198760025203,Correct
2,23,238,A,43.91398633948792,62.16409483854415,2.195699316974396,0.9764713183091475,A,3428.8912499323487,Correct
2,23,239,B,79.78936149632881,52.18796425106244,3.9894680748164406,0.8197666254847226,B,872.7839170023799,Correct
2,23,240,B,38.442617606919356,16.63119859742573,1.9221308803459678,0.26124225667032774,B,1008.2444166764617,Correct
2,23,241,A,34.239557692118055,44.855596637969185,1.7119778846059028,0.704590064351155,A,536.5390419028699,Correct
2,23,242,A,45.95574631850765,69.23309241149491,2.2977873159253823,1.0875108725262783,A,921.8731666915119,Correct
2,23,243,A,38.15994167705631,52.24616780643534,1.9079970838528155,0.8206808847945841,A,2055.609500966966,Correct
2,23,244,B,86.8072111897331,62.360003660140535,4.340360559486655,0.9795486468826505,B,3902.935625985265,Correct
2,23,245,B,66.7373495427941,39.06135669911084,3.3368674771397053,0.6135743562258853,B,433.3670837804675,Correct
2,23,246,B,67.69910787686474,44.235338231354774,3.384955393843237,0.6948470680834193,A,925.8674588054419,Incorrect
2,23,247,A,37.7301148928624,49.45819198757565,1.88650574464312,0.7768874630400061,B,1347.905458882451,Incorrect
2,23,248,B,59.502890352226956,30.971762840659476,2.9751445176113474,0.48650331304470573,B,654.4999592006207,Correct
2,23,249,B,77.91213358473848,58.94205551637309,3.8956066792369244,0.9258596429885971,B,1071.5534589253366,Correct
2,23,250,A,49.80228674093473,60.44306551627321,2.4901143370467365,0.9494374529318523,B,1253.1069172546268,Incorrect
2,23,251,A,30.354177373164255,40.371630258163236,1.5177088686582128,0.6341560851624451,A,1227.1902090869844,Correct
2,23,252,A,62.27248400693337,86.40955228977363,3.1136242003466688,1.3573180733676795,A,1763.952333945781,Correct
2,23,253,A,46.13137874647802,54.60797444796002,2.306568937323901,0.8577800567656516,A,557.8552093356848,Correct
2,23,254,A,51.392229701992605,66.37621143880199,2.5696114850996303,1.0426350911463156,B,629.1414587758482,Incorrect
2,23,255,B,55.39239489273808,45.47336701390673,2.769619744636904,0.7142939787244091,B,787.1430004015565,Correct
2,23,256,B,48.96774928524713,20.480588888099355,2.4483874642623564,0.32170833796022846,B,1648.820084054023,Correct
2,23,257,A,13.524690926979893,36.17199152307212,0.6762345463489947,0.5681883141729783,A,612.2616259381175,Correct
2,23,258,B,81.88523042414698,59.00730464519456,4.094261521207349,0.9268845739073905,B,583.9259587228298,Correct
2,23,259,B,76.48582673170613,55.51857903939894,3.8242913365853064,0.8720838002396,B,619.0525419078767,Correct
2,23,260,B,61.193846717049034,32.70384594832271,3.0596923358524517,0.5137108108769147,B,654.5287920162082,Correct
2,23,261,B,65.14123235321054,39.98334257311015,3.257061617660527,0.6280568764682343,B,2064.481541980058,Correct
2,23,262,B,75.68571220472721,61.06675535564699,3.7842856102363607,0.9592343500193287,B,3017.2661673277617,Correct
2,23,263,A,32.203264084975956,53.024926453920216,1.6101632042487979,0.8329135970238741,A,785.4621256701648,Correct
2,23,264,B,66.05370116827505,39.162009897445046,3.3026850584137524,0.6151554129681205,B,364.03129203245044,Correct
2,23,265,B,77.14870896509629,58.83457252034978,3.8574354482548143,0.9241713040351341,B,2017.2449587844312,Correct
2,23,266,A,53.735566138660616,75.64303990638382,2.6867783069330304,1.188198092325475,B,1647.2106669098139,Incorrect
2,23,267,B,80.8644564875934,49.53376057825091,4.04322282437967,0.778074491686544,B,794.7220420464873,Correct
2,23,268,B,63.043898376878936,55.37937213132592,3.152194918843947,0.8698971432409441,B,821.3079171255231,Correct
2,23,269,B,62.69217701766124,31.948530634935437,3.1346088508830623,0.501846345678508,B,725.6121668033302,Correct
2,23,270,A,12.62705569973371,40.145802702711734,0.6313527849866855,0.6306087942165222,A,619.2200421355665,Correct
2,23,271,A,58.6079827035629,71.64027270631057,2.930399135178145,1.1253227721765733,A,881.7496667616069,Correct
2,23,272,A,36.54559529383277,54.68153602834748,1.8272797646916386,0.8589355593683103,A,2983.524249866605,Correct
2,23,273,A,33.75038005184012,55.1227862907357,1.687519002592006,0.8658667022818771,A,472.53604186698794,Correct
2,23,274,B,72.40198307912918,39.63605987678194,3.6200991539564593,0.6226017726307166,B,752.8767087496817,Correct
2,23,275,A,17.743012780586323,42.96285378392828,0.8871506390293162,0.6748589291242078,A,3112.912667915225,Correct
2,23,276,B,59.16629913495005,37.49077772467213,2.9583149567475027,0.5889037593859892,B,2327.1183343604207,Correct
2,23,277,B,87.17147481169683,69.68164962904041,4.358573740584841,1.0945567928230564,A,1010.2861667983234,Incorrect
2,23,278,B,53.196607720682096,43.024389980602294,2.6598303860341046,0.6758255374412124,B,3029.6012088656425,Correct
2,23,279,B,55.17684334441275,45.157810131556744,2.7588421672206374,0.709337222807507,B,3351.889166980982,Correct
2,23,280,B,64.4390311631224,42.89767614897404,3.2219515581561198,0.6738351212284547,B,837.8952918574214,Correct
2,23,281,A,58.58502317492588,72.50030144445806,2.929251158746294,1.1388320720047747,A,1620.8430011756718,Correct
2,23,282,A,41.76012389752408,50.22882632325117,2.088006194876204,0.7889925588778174,B,1866.359167266637,Incorrect
2,23,283,B,32.367422834595324,13.143806023487954,1.6183711417297661,0.2064624222179951,B,7612.408875953406,Correct
2,23,284,B,53.98241462661838,25.625658352657524,2.699120731330919,0.4025269001205539,B,1770.7060002721846,Correct
2,23,285,B,50.18134275766072,29.41283424078354,2.509067137883036,0.46201571986049944,B,746.6724179685116,Correct
2,23,286,A,53.99729712598636,67.42408282615969,2.699864856299318,1.0590950164084652,A,941.6550840251148,Correct
2,23,287,B,66.62372294334004,35.75527986415368,3.3311861471670023,0.5616426227413613,B,606.839875690639,Correct
2,23,288,B,60.79725333125213,47.77642097651994,3.0398626665626063,0.7504702657732417,B,841.043499764055,Correct
2,23,289,B,78.01049902783086,65.4025056725165,3.900524951391543,1.0273401567357132,B,1035.53358418867,Correct
2,23,290,A,58.287592075352926,74.89930370799412,2.9143796037676464,1.1765155114401256,B,636.2804588861763,Incorrect
2,23,291,A,53.17595049503085,82.68465500610188,2.6587975247515425,1.2988075236588807,A,855.3129169158638,Correct
2,23,292,A,49.22599945254254,79.68174045540212,2.4612999726271267,1.2516378521996996,A,1787.3915839008987,Correct
2,23,293,A,24.248427290725534,47.14483152788067,1.2124213645362767,0.7405492819135918,A,2146.6943761333823,Correct
2,23,294,A,12.371493086367344,35.11301368314698,0.6185746543183672,0.5515539291618622,A,1222.5596262142062,Correct
2,23,295,A,28.340583609527037,61.29544994662798,1.417029180476352,0.9628266762540368,A,3387.4013759195805,Correct
2,23,296,B,75.85888128418281,52.022011611885986,3.7929440642091405,0.8171598475243196,B,1804.7684589400887,Correct
2,23,297,B,42.29301734473683,31.858123591599067,2.1146508672368416,0.5004262351626165,B,1112.157791852951,Correct
2,23,298,B,61.26158240701626,35.626396484006435,3.063079120350813,0.5596181273401594,B,760.7299173250794,Correct
2,23,299,A,11.948594936889702,39.25981542790643,0.5974297468444851,0.6166917386480103,A,748.1894171796739,Correct
