subject,day,trial,cat,x,y,xt,yt,resp,rt,fb
2,11,0,A,53.600253377114214,71.5067250078248,2.6800126688557104,1.1232250098342393,A,715.9028749447316,Correct
2,11,1,A,28.081319085089618,45.06544949765201,1.4040659542544807,0.7078864253627271,A,785.0431657861918,Correct
2,11,2,B,60.80944635603067,35.443154247363836,3.040472317801534,0.5567397650178405,B,601.2707501649857,Correct
2,11,3,A,20.085156525682844,48.08155559675523,1.0042578262841422,0.7552633091796772,A,582.8274157829583,Correct
2,11,4,A,31.081232720293443,59.26094130102433,1.554061636014672,0.93086868918057,A,604.9370840191841,Correct
2,11,5,A,55.3153335372132,68.61065915984906,2.76576667686066,1.0777337138726752,B,1025.4299999214709,Incorrect
2,11,6,A,42.10065638755008,65.82521890825147,2.105032819377504,1.033980120715514,A,1247.8990410454571,Correct
2,11,7,A,49.57100673147296,61.957940702327896,2.478550336573648,0.9732330567099268,B,1031.9507499225438,Incorrect
2,11,8,B,32.70666593553359,17.4664996893206,1.6353332967766796,0.27436313553949,B,986.9829169474542,Correct
2,11,9,B,53.303962372669915,26.116442656870948,2.6651981186334956,0.4102361219436244,B,561.4393749274313,Correct
2,11,10,B,73.63818270245031,59.89314269993584,3.6819091351225155,0.9407992855326179,A,738.2682079914957,Incorrect
2,11,11,B,64.23569770257646,45.73181647773877,3.211784885128823,0.7183536934089039,A,641.7085831053555,Incorrect
2,11,12,B,70.1789696026113,41.62711176872683,3.508948480130565,0.653877142613967,B,672.1890829503536,Correct
2,11,13,A,20.628745217573833,41.68131096497531,1.0314372608786917,0.6547285015977906,A,514.5341251045465,Correct
2,11,14,A,52.53729140858964,81.03744661816955,2.6268645704294817,1.2729332348065825,A,626.1038328520954,Correct
2,11,15,A,27.10154807694997,38.599421643802216,1.3550774038474986,0.6063182973449195,B,666.2641661241651,Incorrect
2,11,16,A,62.0520944915301,83.14213888339302,3.102604724576505,1.305993663599049,B,1050.4594170488417,Incorrect
2,11,17,B,39.25271618265272,20.138908376191864,1.962635809132636,0.31634123302981154,B,802.3233748972416,Correct
2,11,18,B,59.54947707325731,36.804516994747935,2.9774738536628655,0.578124001048104,B,659.5242919865996,Correct
2,11,19,A,49.11704226963072,60.078852295460806,2.4558521134815363,0.9437164050376298,A,623.2782502193004,Correct
2,11,20,A,64.07645183458224,76.11982420671953,3.2038225917291125,1.1956874026018829,A,697.0828329212964,Correct
2,11,21,A,38.141307924506506,55.80448836641073,1.9070653962253254,0.8765748534462652,A,605.1940422039479,Correct
2,11,22,A,59.99310088287538,79.27836382957094,2.9996550441437693,1.2453016269779942,A,606.2447919975966,Correct
2,11,23,B,79.82792936631574,54.435691591791134,3.991396468315787,0.8550738439892535,B,820.0454579200596,Correct
2,11,24,A,16.83786588220236,47.29241230377406,0.8418932941101182,0.7428674753203807,A,626.5778748784214,Correct
2,11,25,A,45.616350426869786,55.942525174606956,2.280817521343489,0.8787431305590363,A,683.6410840041935,Correct
2,11,26,A,26.959962684406975,49.67435903676464,1.3479981342203486,0.7802830071084077,A,2388.8730828184634,Correct
2,11,27,B,34.28362517062243,22.61856056079243,1.7141812585311214,0.3552915184628067,B,618.9840000588447,Correct
2,11,28,B,33.681820573569254,14.13219759116313,1.684091028678463,0.22198804065738728,B,599.3059170432389,Correct
2,11,29,A,31.71485457489685,46.21830231566694,1.5857427287448425,0.7259953950814568,A,1374.915499938652,Correct
2,11,30,A,38.39674275897804,64.44637402189781,1.919837137948902,1.0123212758884712,A,511.8416668847203,Correct
2,11,31,B,86.3683371043089,69.60416905852566,4.318416855215445,1.0933397308674309,B,607.1010830346495,Correct
2,11,32,A,41.0968614627134,52.19990736181499,2.05484307313567,0.8199542274297287,A,1236.8986660148948,Correct
2,11,33,A,48.03496427877948,56.464390192151164,2.401748213938974,0.8869405670854482,A,2128.7497088778764,Correct
2,11,34,B,55.110533439199244,23.90974584512857,2.755526671959962,0.37557340948127493,B,940.059166867286,Correct
2,11,35,B,81.84555899031521,64.25562375547631,4.09227794951576,1.0093249777101707,B,1258.0614578910172,Correct
2,11,36,A,42.956535891437035,63.411477324908375,2.1478267945718517,0.9960651565860394,A,981.3017921987921,Correct
2,11,37,B,66.60933929386435,48.286135871452245,3.3304669646932177,0.7584768486199648,A,637.8635410219431,Incorrect
2,11,38,B,38.87960868683341,12.562573644181455,1.9439804343416704,0.1973324453537061,B,703.9732499979436,Correct
2,11,39,A,64.4483809884585,80.32615146465872,3.222419049422925,1.2617602366625642,B,601.8559169024229,Incorrect
2,11,40,A,33.72570656999279,49.24049464503827,1.6862853284996393,0.7734678811798987,A,491.4036251138896,Correct
2,11,41,B,75.9078364611552,61.148541973455394,3.7953918230577597,0.960519051207673,B,634.7784579265863,Correct
2,11,42,A,47.83757607779893,74.03535996320511,2.3918788038899463,1.1629447148314056,A,721.5500001329929,Correct
2,11,43,B,60.95928633599694,28.537536291046045,3.047964316799847,0.4482665718175118,B,627.6902079116553,Correct
2,11,44,B,69.75755687673701,49.68750111326082,3.4878778438368503,0.7804894423632744,B,662.0199999306351,Correct
2,11,45,B,82.9907920493116,62.85721897391147,4.1495396024655795,0.9873588867676263,B,948.9490839187056,Correct
2,11,46,B,68.35761461731931,57.72140283181025,3.4178807308659658,0.9066856754565609,B,577.4242079351097,Correct
2,11,47,A,25.20164513039225,56.97852907491516,1.2600822565196126,0.8950166417705295,A,518.7032090034336,Correct
2,11,48,A,38.29957539235796,50.51272990842557,1.914978769617898,0.7934521059653759,A,709.6597910858691,Correct
2,11,49,A,58.54945896818333,85.38453210473293,2.9274729484091666,1.341217093952154,A,588.0272090435028,Correct
2,11,50,B,67.35452911868187,45.79025501733453,3.3677264559340934,0.7192716438423067,B,485.05374998785555,Correct
2,11,51,B,50.8670270163678,23.978877155803197,2.54335135081839,0.37665932157001725,B,533.1963340286165,Correct
2,11,52,A,23.87531766977613,55.66747261487809,1.1937658834888065,0.8744226150540599,A,512.9859170410782,Correct
2,11,53,A,51.46659633958332,66.39220336218744,2.573329816979166,1.042886291691438,A,1120.8628751337528,Correct
2,11,54,A,56.91640825206832,77.01977459189146,2.845820412603416,1.20982379019514,A,536.3796250894666,Correct
2,11,55,A,63.025636372118505,82.13733451754452,3.1512818186059253,1.290210233528826,A,499.28487511351705,Correct
2,11,56,A,28.60138032857484,59.45212100640478,1.430069016428742,0.9338717329702634,A,586.4984579384327,Correct
2,11,57,B,59.86263822911381,50.66330739504465,2.993131911455691,0.7958173715941684,B,592.6637079101056,Correct
2,11,58,A,54.743693471937604,83.03589951338691,2.73718467359688,1.3043248594773829,A,527.8024170547724,Correct
2,11,59,A,49.140714685682255,64.78569410003446,2.457035734284113,1.0176513032119194,A,858.9568340685219,Correct
2,11,60,A,27.3524472124399,49.13354581006781,1.3676223606219948,0.7717879328086329,A,775.639666011557,Correct
2,11,61,B,82.85913208414222,65.68263029305606,4.142956604207111,1.0317403439855966,B,438.89599991962314,Correct
2,11,62,B,75.36273267934112,60.9616775023876,3.768136633967056,0.9575837909600553,B,577.6070409920067,Correct
2,11,63,A,22.789069088617175,39.20696835022612,1.1394534544308588,0.6158616186929896,A,508.474790956825,Correct
2,11,64,B,70.51700229037029,48.97241740570373,3.525850114518514,0.7692569337514588,B,713.4446250274777,Correct
2,11,65,A,41.571669524140106,48.367493695425416,2.0785834762070055,0.7597548143304956,A,687.6360841561109,Correct
2,11,66,B,73.04563625209511,62.9822104772768,3.6522818126047554,0.9893222487112945,B,632.0344579871744,Correct
2,11,67,B,54.47837514337361,33.38640793704352,2.723918757168681,0.5244324695238394,B,650.2040841151029,Correct
2,11,68,A,34.84231819419448,66.65060804925396,1.7421159097097243,1.046945303024145,A,549.0487080533057,Correct
2,11,69,A,17.608223369386575,44.094253173604244,0.8804111684693288,0.6926309091786176,A,408.18466688506305,Correct
2,11,70,B,74.11957249104086,41.78052358034433,3.705978624552043,0.6562869297157243,B,492.3897909466177,Correct
2,11,71,B,36.63435899308557,15.853746346058262,1.8317179496542786,0.24903006526326332,A,474.5307080447674,Incorrect
2,11,72,B,58.18837956122851,45.89693033011971,2.9094189780614257,0.7209472957371332,B,637.5974579714239,Correct
2,11,73,B,84.35011867621505,66.28723680542583,4.217505933810752,1.0412374808734637,B,407.85912494175136,Correct
2,11,74,A,24.357063670689556,41.75187307239547,1.2178531835344777,0.6558368885892556,A,1583.1057080067694,Correct
2,11,75,B,36.174322954250854,18.636743688969702,1.8087161477125426,0.2927452853005158,B,688.0477080121636,Correct
2,11,76,B,45.488453670894444,28.77369452911676,2.274422683544722,0.4519761367465502,B,484.136207960546,Correct
2,11,77,A,48.873692080710114,72.41165948879622,2.4436846040355054,1.1374396874212391,A,793.3047921396792,Correct
2,11,78,A,41.923816101019504,68.47807109593835,2.096190805050975,1.0756510254349974,A,1144.8189578950405,Correct
2,11,79,B,60.018316397721186,34.53934964278017,3.000915819886059,0.542542835487637,B,454.8574590589851,Correct
2,11,80,A,18.019322261059898,32.04799016457223,0.9009661130529949,0.5034086523166902,A,693.6927498318255,Correct
2,11,81,A,30.928966723588083,41.044752644077974,1.5464483361794041,0.644729466875228,A,584.0691670309752,Correct
2,11,82,B,44.589878825944936,21.579928985151607,2.229493941297247,0.33897673182370863,B,387.244459008798,Correct
2,11,83,A,27.18387144130951,41.38780617279347,1.3591935720654755,0.6501181391032312,A,1261.7687499150634,Correct
2,11,84,B,67.76024982422396,52.4726994963716,3.3880124912111977,0.8242392362591292,B,1249.6090831700712,Correct
2,11,85,A,21.92488560709322,36.94226139724899,1.096244280354661,0.5802876850629562,A,935.4992499575019,Correct
2,11,86,B,69.70164901992058,57.28939737388587,3.485082450996029,0.8998997495919312,B,494.8779579717666,Correct
2,11,87,A,21.426152433093687,43.30179159046397,1.0713076216546844,0.6801829517393895,A,486.0462499782443,Correct
2,11,88,A,53.099840752906545,79.76111131615113,2.654992037645327,1.2528846067648907,A,926.1409169994295,Correct
2,11,89,A,53.57706808660075,71.0292223124069,2.6788534043300376,1.1157244150342687,A,683.7271249387413,Correct
2,11,90,B,64.07710403423258,50.2324814709789,3.2038552017116286,0.7890499738040636,A,699.5645409915596,Incorrect
2,11,91,A,61.88246421965822,81.03094192389602,3.094123210982911,1.2728310593078647,B,543.9207500312477,Incorrect
2,11,92,B,62.13687644598695,36.73078102519492,3.1068438222993473,0.5769657591468387,B,590.5415830202401,Correct
2,11,93,A,12.470228001933382,37.694787414367,0.623511400096669,0.5921083360980218,A,655.931832967326,Correct
2,11,94,B,74.70424743548924,59.70073941395153,3.735212371774462,0.9377770217837437,B,625.2663750201464,Correct
2,11,95,B,75.31456357261453,57.75332295552715,3.7657281786307264,0.9071870755874143,B,547.3768748342991,Correct
2,11,96,A,61.376319480240085,86.98145867085113,3.0688159740120047,1.3663015577943505,A,1164.8206668905914,Correct
2,11,97,B,57.916089670779286,39.01460293422746,2.8958044835389645,0.6128399498044589,B,422.8823750745505,Correct
2,11,98,B,55.056645710861076,34.28289982451524,2.752832285543054,0.5385145311622594,B,481.3130418770015,Correct
2,11,99,B,41.17498962988862,20.90805843823271,2.058749481494431,0.32842301395188983,B,606.3753329217434,Correct
2,11,100,B,61.09850121351031,39.6130806719388,3.0549250606755156,0.622240816125114,B,464.448083890602,Correct
2,11,101,A,51.260957453333596,62.34847688357265,2.56304787266668,0.9793675846997244,B,653.494874946773,Incorrect
2,11,102,A,30.686752474964884,45.231751419847186,1.5343376237482442,0.710498689847958,A,478.10274991206825,Correct
2,11,103,B,53.47860921548771,44.81631346176846,2.6739304607743857,0.7039730056623457,A,688.2285419851542,Incorrect
2,11,104,B,53.6629922104098,29.564025866717778,2.68314961052049,0.46439063236709593,B,785.1668330840766,Correct
2,11,105,A,29.546174818565987,54.21933781113441,1.4773087409282994,0.8516753667498158,A,524.9441671185195,Correct
2,11,106,B,80.995295604405,55.899288078602694,4.04976478022025,0.8780639638431886,B,461.18266601115465,Correct
2,11,107,A,48.24651695468414,70.34072171182956,2.412325847734207,1.104909472890439,A,664.163958048448,Correct
2,11,108,B,51.06257845331364,42.09780666582693,2.553128922665682,0.6612708007680266,B,484.5212078653276,Correct
2,11,109,A,42.702524022324724,66.5782397485546,2.135126201116236,1.0458085444149954,A,475.5503749474883,Correct
2,11,110,B,49.66848999949053,32.618932796806604,2.4834244999745265,0.5123769982119339,B,424.9272500164807,Correct
2,11,111,A,35.770291437276214,64.33027125957581,1.788514571863811,1.01049753796261,A,577.032791916281,Correct
2,11,112,B,81.97007665762945,63.61538162870362,4.098503832881472,0.9992680779002318,A,1124.4983340147883,Incorrect
2,11,113,B,76.85753960785587,46.44662040374317,3.8428769803927936,0.7295818072223667,B,745.4873330425471,Correct
2,11,114,A,38.70696725990828,65.38475416096784,1.935348362995414,1.027061316644356,A,482.77470795437694,Correct
2,11,115,B,61.198654939416684,37.601930875072895,3.059932746970834,0.5906497489896012,B,939.269415801391,Correct
2,11,116,B,84.11068107273732,57.16839135817822,4.205534053636866,0.8979989915419946,B,941.4039580151439,Correct
2,11,117,B,45.34590271388916,26.98353393912914,2.267295135694458,0.42385635995529475,B,585.0155001971871,Correct
2,11,118,B,39.39338881864885,12.270756920076646,1.9696694409324425,0.19274859897049454,B,548.5802080947906,Correct
2,11,119,A,55.96752657957868,77.75617446581415,2.798376328978934,1.22139113236524,A,539.8860829882324,Correct
2,11,120,B,40.21414103918944,25.786757224804504,2.010707051959472,0.40505743528674676,B,1605.766958091408,Correct
2,11,121,A,41.51331015917102,54.710593185785,2.075665507958551,0.8593919881300098,A,649.4242909830064,Correct
2,11,122,B,60.578827179391794,52.45626093783048,3.0289413589695897,0.8239810199853873,A,1070.9923750255257,Incorrect
2,11,123,B,42.29383386162637,27.16749850690739,2.114691693081318,0.4267460686285596,B,510.7296670321375,Correct
2,11,124,A,42.27349888355806,57.013998131041504,2.113674944177903,0.895573788401311,A,1424.9171251431108,Correct
2,11,125,A,57.37342463102843,73.35796926923686,2.8686712315514216,1.1523042866925017,A,710.5532079003751,Correct
2,11,126,A,56.12791461929129,75.9379377261934,2.8063957309645646,1.192830336446842,A,544.048624811694,Correct
2,11,127,A,17.426063622074118,31.58582605298545,0.8713031811037059,0.49614899542812096,A,869.5220001973212,Correct
2,11,128,B,64.40657474914298,42.317923837935105,3.220328737457149,0.6647283932221465,B,891.4243339095265,Correct
2,11,129,B,39.20318574884435,13.86538590809791,1.9601592874422176,0.2177969725403392,B,1021.8269168399274,Correct
2,11,130,A,54.0989650316885,66.21082829228953,2.7049482515844248,1.04003725875576,A,539.7745419759303,Correct
2,11,131,A,47.97730484159595,61.80466347611492,2.398865242079798,0.9708253836707601,A,855.6059168186039,Correct
2,11,132,B,55.21169206409722,30.938823733857653,2.7605846032048613,0.4859859067649837,B,1762.9337918478996,Correct
2,11,133,B,62.18368546754205,41.518107390569256,3.1091842733771022,0.6521649058458223,B,1444.4210838992149,Correct
2,11,134,A,57.57419970213476,79.15602674437618,2.878709985106738,1.2433799605374471,A,3086.4688749425113,Correct
2,11,135,A,41.86481801910969,53.05569037107989,2.0932409009554847,0.8333968355045966,B,940.8490830101073,Incorrect
2,11,136,B,68.60126277542557,39.268302800379125,3.430063138771278,0.6168250579830528,B,515.2195000555366,Correct
2,11,137,A,68.63313663208574,86.50599729155977,3.4316568316042866,1.3588330279131133,A,876.4730000402778,Correct
2,11,138,A,65.9692991726446,82.88518223887694,3.2984649586322297,1.3019573980655348,A,647.7314168587327,Correct
2,11,139,A,31.721305513223616,59.50000980878957,1.5860652756611808,0.9346239685190697,A,760.5225001461804,Correct
2,11,140,A,57.789931018496475,66.55224319126016,2.889496550924824,1.0454001914479212,A,691.8548748362809,Correct
2,11,141,B,36.89561457244289,24.896256067511917,1.8447807286221445,0.3910694758179287,B,562.480750028044,Correct
2,11,142,B,68.81526654201384,57.41773939209736,3.440763327100692,0.9019157412997316,A,718.4163748752326,Incorrect
2,11,143,A,44.869227660345146,57.71054895655148,2.243461383017257,0.9065151831826812,A,618.3483339846134,Correct
2,11,144,A,49.792159188888775,76.44681479612538,2.489607959444439,1.2008237587692352,A,587.2564159799367,Correct
2,11,145,B,85.7091987233139,64.73434550386114,4.285459936165695,1.016844721349368,B,1142.995708854869,Correct
2,11,146,B,74.080137564944,41.31050414820329,3.7040068782471995,0.6489038817404307,B,796.3136248290539,Correct
2,11,147,B,40.33917355470125,27.725340740293493,2.016958677735062,0.4355086339398992,B,644.764208002016,Correct
2,11,148,A,18.296467153425336,39.00673316711658,0.9148233576712669,0.6127163317917539,A,541.0010409541428,Correct
2,11,149,A,65.09424562265205,81.91489076313218,3.254712281132603,1.2867160952053323,A,742.9837500676513,Correct
2,11,150,B,58.54517524791161,28.21252985673316,2.92725876239558,0.44316138268547794,B,506.5608751028776,Correct
2,11,151,B,78.45370460930918,48.69203042564781,3.922685230465459,0.7648526253679293,B,575.0452908687294,Correct
2,11,152,B,89.73790898536576,65.43709066627399,4.486895449268288,1.0278834165472779,B,502.9304581694305,Correct
2,11,153,B,44.23012373630231,24.523177969292313,2.211506186815116,0.385209178755019,B,550.5138330627233,Correct
2,11,154,A,48.46802809665442,62.6720977090367,2.4234014048327213,0.9844510087388569,A,997.5124169141054,Correct
2,11,155,B,44.51931728346525,20.046324506697744,2.2259658641732627,0.31488692900859333,B,674.4521660730243,Correct
2,11,156,B,69.34011654277577,40.99095595910446,3.467005827138789,0.6438844305237267,B,1258.5774171166122,Correct
2,11,157,B,45.71764097955962,21.0665131848898,2.285882048977981,0.3309120152920116,B,634.998458204791,Correct
2,11,158,A,18.33575403706991,41.35219495633227,0.9167877018534955,0.6495587594231317,A,494.631249923259,Correct
2,11,159,A,32.41822738096783,50.45858507064493,1.6209113690483914,0.7926016008423685,A,610.7363339979202,Correct
2,11,160,B,52.293518181982236,29.956475173629045,2.6146759090991116,0.4705552116645902,A,595.6777080427855,Incorrect
2,11,161,B,72.2705681931876,53.75671545073053,3.6135284096593803,0.8444085117056598,B,484.2834589071572,Correct
2,11,162,A,46.47528937419218,77.18743761378411,2.323764468709609,1.2124574347844232,A,589.4042500294745,Correct
2,11,163,B,73.28557091209287,52.46263952893858,3.664278545604643,0.8240812146602147,B,460.93441685661674,Correct
2,11,164,B,69.06301348101447,52.55836251567673,3.4531506740507236,0.8255848278197958,B,964.3396250903606,Correct
2,11,165,B,50.57856950970941,31.005946306855876,2.5289284754854706,0.48704026567609005,B,650.4568748641759,Correct
2,11,166,A,28.235227658889404,47.51186042033721,1.4117613829444702,0.7463145582745752,A,1104.3465421535075,Correct
2,11,167,A,57.95602415757761,76.29190246713628,2.8978012078788806,1.1983904015957216,B,900.997957913205,Incorrect
2,11,168,A,53.49842617851636,81.77206838100014,2.674921308925818,1.2844726464729612,A,534.9080001469702,Correct
2,11,169,B,47.45521998858237,21.046446536288816,2.3727609994291186,0.3305968091128765,B,520.1306249946356,Correct
2,11,170,A,29.406901408664357,61.0868397335891,1.4703450704332177,0.959549834690303,A,553.5043750423938,Correct
2,11,171,A,67.03677435064962,78.78956914010014,3.3518387175324813,1.2376236579502182,B,461.77033381536603,Incorrect
2,11,172,A,51.78724703451838,80.85314905903132,2.589362351725919,1.2700382955172664,A,442.57666589692235,Correct
2,11,173,A,58.622568161998814,77.06492961840792,2.9311284080999407,1.2105330836930237,A,503.15370806492865,Correct
2,11,174,B,60.86235553457836,41.8610199714844,3.043117776728918,0.657551364070955,B,533.1461671739817,Correct
2,11,175,B,60.30520994759416,37.08713523736869,3.0152604973797077,0.5825633580220432,B,760.3506671730429,Correct
2,11,176,A,66.42629134267052,81.48316650508927,3.3213145671335265,1.2799345864181118,A,484.92695786990225,Correct
2,11,177,B,46.265113076872204,36.328592421476095,2.31325565384361,0.5706481953328357,B,729.6003340743482,Correct
2,11,178,B,68.77512546168023,48.27925595188576,3.4387562730840115,0.758368779096128,B,699.7726249974221,Correct
2,11,179,A,57.98406444093506,68.30065958551785,2.899203222046753,1.0728642519460008,A,789.2598330508918,Correct
2,11,180,B,89.35067684823302,68.26661092959344,4.467533842411651,1.0723294169094173,B,497.29729210957885,Correct
2,11,181,A,55.04922208068825,73.73211439193425,2.7524611040344125,1.1581813445367144,A,586.1601249780506,Correct
2,11,182,B,49.103894001736364,29.392912075743638,2.4551947000868184,0.4617027832238346,B,443.5122909490019,Correct
2,11,183,A,19.585961584416516,50.383321534113776,0.9792980792208258,0.7914193639751214,A,572.1197498496622,Correct
2,11,184,A,33.896347555516506,51.94505411180032,1.6948173777758253,0.8159510019397808,A,453.07758287526667,Correct
2,11,185,B,42.830539172516026,30.209730747377805,2.1415269586258012,0.47453334091443894,A,783.5952080786228,Incorrect
2,11,186,B,69.172187654349,59.96617541600541,3.4586093827174498,0.9419464807539973,B,586.9147919584066,Correct
2,11,187,B,55.07779784501193,27.67630295141051,2.753889892250596,0.43473835015338386,B,584.4455410260707,Correct
2,11,188,B,48.14628220234178,21.876410164263515,2.407314110117089,0.3436338472948367,B,523.4446658287197,Correct
2,11,189,A,58.715129311987766,86.62355194308391,2.9357564655993884,1.3606795720612312,A,589.4039170816541,Correct
2,11,190,A,15.854817124085226,31.882668867489798,0.7927408562042614,0.5008117914547098,A,618.6960840132087,Correct
2,11,191,B,51.928722254314344,23.0770723274941,2.5964361127157174,0.36249380445207885,B,978.8078749552369,Correct
2,11,192,B,45.58332592773115,35.796457465255806,2.2791662963865575,0.5622894389869356,A,955.3052501287311,Incorrect
2,11,193,B,72.59355401998332,49.572439690105014,3.629677700999166,0.7786820617547849,B,411.5163329988718,Correct
2,11,194,B,69.43621570861748,45.834928264765104,3.471810785430874,0.7199733695720059,B,775.9723751805723,Correct
2,11,195,B,58.98166786779422,37.757240057905776,2.9490833933897114,0.5930893399287152,B,470.4612500499934,Correct
2,11,196,A,45.224118894890964,67.7660448253732,2.2612059447445483,1.0644665429311453,A,558.8355001527816,Correct
2,11,197,A,37.21217525040781,66.0705096375113,1.8606087625203906,1.0378331384806954,A,574.4984161574394,Correct
2,11,198,A,15.226003478465056,31.950954384819557,0.7613001739232529,0.5018844178526586,A,563.0684159696102,Correct
2,11,199,B,42.796433946992565,18.3361265380472,2.1398216973496282,0.2880232021361096,B,480.885999975726,Correct
2,11,200,A,28.61110406743329,56.50043498150066,1.4305552033716646,0.887506757312551,A,516.8948748614639,Correct
2,11,201,B,56.90503946805861,40.07122885712089,2.8452519734029305,0.6294373909892316,B,505.00166695564985,Correct
2,11,202,B,58.37413706569113,30.024775429946946,2.918706853284556,0.47162806958202325,B,520.9299591369927,Correct
2,11,203,B,47.40404311405625,31.87602075028319,2.370202155702813,0.5007073630738273,B,658.5137909278274,Correct
2,11,204,B,44.66597268973987,25.971494745506252,2.2332986344869936,0.40795928547614185,B,478.15895918756723,Correct
2,11,205,A,25.348996107964425,51.83267976598112,1.2674498053982213,0.814185829843393,B,533.9709168765694,Incorrect
2,11,206,B,87.18807388389709,66.23258407785298,4.359403694194855,1.040378997836256,A,697.2747498657554,Incorrect
2,11,207,B,39.490844530772605,19.253315425761176,1.9745422265386303,0.30243037149409174,B,492.973999818787,Correct
2,11,208,B,77.32220797013696,48.87885308868202,3.866110398506848,0.7677872288964909,B,777.6320839766413,Correct
2,11,209,A,26.754661739830407,58.35050469403801,1.3377330869915205,0.9165675844002327,A,503.40108294039965,Correct
2,11,210,B,50.830761666142074,23.27532559421863,2.541538083307104,0.3656079594835386,B,577.5154167786241,Correct
2,11,211,A,58.51291321116511,72.27548120753467,2.925645660558256,1.1353006039812903,A,593.1929589714855,Correct
2,11,212,A,22.41599742482792,51.32422569923838,1.120799871241396,0.8061990520395589,A,509.3949579168111,Correct
2,11,213,A,24.459288332412903,54.16599639915873,1.2229644166206453,0.8508374818098413,A,597.9842911474407,Correct
2,11,214,B,66.47952427523714,49.50998652986261,3.323976213761857,0.7777010498077298,B,698.4182088635862,Correct
2,11,215,B,69.94789383590874,58.746170008695145,3.4973946917954373,0.9227826806292686,B,711.9344589300454,Correct
2,11,216,A,42.897774421891505,74.86862711192748,2.1448887210945755,1.176033644595925,A,567.006167024374,Correct
2,11,217,A,68.31620680232962,84.29956270754292,3.4158103401164808,1.3241744345142448,B,556.3408331945539,Incorrect
2,11,218,B,79.50195837704968,55.52768876616381,3.9750979188524838,0.8722268954930036,B,738.3970839437097,Correct
2,11,219,B,57.35703528567211,30.368599512392716,2.8678517642836057,0.47702884563971765,B,517.4749589059502,Correct
2,11,220,B,38.65612843924667,23.38785796788815,1.9328064219623338,0.3673756138755946,A,1287.8541247919202,Incorrect
2,11,221,A,37.66162557766222,69.61358853315697,1.883081278883111,1.093487691628943,A,490.9311670344323,Correct
2,11,222,A,48.985345718493235,69.86431636629293,2.449267285924662,1.097426115222095,A,1484.5135000068694,Correct
2,11,223,B,65.49384503195945,36.726346225616844,3.2746922515979726,0.5768960974779654,B,494.594749994576,Correct
2,11,224,B,46.43810050004843,26.405835805908865,2.321905025002421,0.41478189889870803,B,590.6046670861542,Correct
2,11,225,B,83.79491756335781,63.35811041781204,4.189745878167891,0.9952268711696464,B,682.2469159960747,Correct
2,11,226,A,55.7536912009362,74.97992619993363,2.7876845600468103,1.177781926582082,A,554.9853751435876,Correct
2,11,227,B,37.690712561083195,22.843400923349506,1.8845356280541596,0.3588233026190054,B,507.8619590494782,Correct
2,11,228,B,51.56223904541086,44.86710425255142,2.578111952270543,0.7047708255383146,B,685.8164998702705,Correct
2,11,229,B,65.46050168522581,57.546618642277366,3.2730250842612905,0.9039401718275599,B,511.5444159600884,Correct
2,11,230,B,69.07410870440052,49.697420246779764,3.4537054352200256,0.7806452517482397,B,397.19799999147654,Correct
2,11,231,A,23.70148523696309,39.44484796060992,1.1850742618481547,0.6195982228750923,A,444.8379999957979,Correct
2,11,232,A,16.886637383583246,37.00019859625893,0.8443318691791624,0.5811977604568521,A,490.04341708496213,Correct
2,11,233,B,33.22849126615078,12.781240035373326,1.6614245633075393,0.20076724899448298,B,645.7813340239227,Correct
2,11,234,B,42.9108541784894,21.64856493328558,2.14554270892447,0.34005486277585795,B,499.8298331629485,Correct
2,11,235,B,55.424723881721675,38.58116407908137,2.7712361940860837,0.6060315081889223,B,529.6843340620399,Correct
2,11,236,A,19.9419185230697,40.58815123151733,0.997095926153485,0.6375571886586319,A,494.7500831913203,Correct
2,11,237,A,44.655264493103545,62.066680962531514,2.2327632246551774,0.9749411447229525,A,660.4563749860972,Correct
2,11,238,A,39.121451490451825,49.5517282847766,1.956072574522591,0.7783567277606586,A,763.9723331667483,Correct
2,11,239,B,61.07631593159406,52.153224218785915,3.053815796579703,0.8192209303337956,B,556.0667908284813,Correct
2,11,240,B,86.63680149559883,68.15644992735554,4.331840074779942,1.0705990119327038,B,536.6640409920365,Correct
2,11,241,B,44.730431143977995,36.37458497524176,2.2365215571988997,0.5713706446779858,B,652.6891249231994,Correct
2,11,242,A,39.48295184428699,52.664455414402646,1.9741475922143494,0.8272513311759728,A,572.7148749865592,Correct
2,11,243,A,13.558420000302412,34.67795686236724,0.6779210000151207,0.5447200726015833,A,712.4506249092519,Correct
2,11,244,A,43.153917810143284,73.6621426231233,2.1576958905071644,1.1570822305624384,A,652.1714578848332,Correct
2,11,245,B,65.22446824299135,47.12490999357118,3.2612234121495676,0.7402363551844172,B,507.4385420884937,Correct
2,11,246,B,69.58593289226549,59.46070366735867,3.4792966446132745,0.9340065490932684,B,625.6561670452356,Correct
2,11,247,A,37.205565331361974,64.26000236732635,1.8602782665680988,1.009393756784276,A,498.7173341214657,Correct
2,11,248,B,58.101296678838835,30.918174324627373,2.9050648339419416,0.4856615466032896,B,1358.3884579129517,Correct
2,11,249,A,40.86236812789184,65.14143086747347,2.043118406394592,1.0232392032879103,A,601.657958002761,Correct
2,11,250,A,14.741464890054754,33.74399219360007,0.7370732445027377,0.5300493898910266,A,502.6311660185456,Correct
2,11,251,A,46.99324421976997,69.11049957246728,2.3496622109884986,1.0855851887139185,A,1287.9794579930604,Correct
2,11,252,A,45.05257799587708,75.87116641069493,2.2526288997938537,1.1917814950756394,A,1026.2274579145014,Correct
2,11,253,B,75.7949557730254,61.07514576624125,3.7897477886512707,0.9593661462807462,B,985.7537092175335,Correct
2,11,254,A,33.082631810410696,51.91340931977664,1.654131590520535,0.8154539267090508,A,563.5659580584615,Correct
2,11,255,B,61.53551821018815,37.70572453451504,3.0767759105094075,0.5922801359795643,B,588.3674160577357,Correct
2,11,256,B,43.21119196998233,35.35276197480698,2.1605595984991166,0.555319886520811,B,567.2568341251463,Correct
2,11,257,B,67.36219023618942,45.859317748999814,3.368109511809471,0.720356478694489,B,480.4205421824008,Correct
2,11,258,B,48.41939666198971,28.887340394581663,2.4209698330994853,0.4537612818268272,B,556.8121671676636,Correct
2,11,259,A,23.67356953078604,52.2359122056163,1.183678476539302,0.820519790193628,A,476.8385000061244,Correct
2,11,260,B,55.50049905180136,35.45322574477898,2.7750249525900683,0.5568979677292909,B,483.5017919540405,Correct
2,11,261,B,47.99986472899902,35.82035033788923,2.399993236449951,0.5626647473526273,B,495.1661671511829,Correct
2,11,262,B,76.18512431086414,64.22089852471895,3.809256215543207,1.008779515060963,B,509.28154098801315,Correct
2,11,263,A,31.257122822775834,51.33241841257696,1.5628561411387918,0.8063277428797461,A,512.8342499956489,Correct
2,11,264,A,32.84912987168264,64.69318293567028,1.642456493584132,1.0161981412402117,A,683.877500006929,Correct
2,11,265,B,58.46758965250671,47.6745434826597,2.9233794826253354,0.7488699778418544,B,498.45562502741814,Correct
2,11,266,A,33.506230569040355,49.05780321064083,1.6753115284520177,0.770598170839015,A,618.757292162627,Correct
2,11,267,A,39.43225195451799,58.825267453865074,1.9716125977258994,0.9240251403925863,B,472.57129196077585,Incorrect
2,11,268,A,40.47764447831933,55.35974667514407,2.023882223915966,0.8695888672961231,B,605.6323749944568,Incorrect
2,11,269,B,60.34711539983166,32.26046324786668,3.017355769991583,0.5067461717045074,B,509.1390840243548,Correct
2,11,270,A,46.15084394135945,63.162978765167196,2.3075421970679724,0.9921617503374869,B,612.7787500154227,Incorrect
2,11,271,B,59.80100433554357,32.73530593321128,2.990050216777178,0.5142049831639546,B,564.685916993767,Correct
2,11,272,B,66.91860795483103,34.79532964142223,3.3459303977415518,0.5465637599036361,B,490.0271249935031,Correct
2,11,273,B,45.15598691243531,24.339727243431767,2.2577993456217653,0.382327541491723,B,646.7442088760436,Correct
2,11,274,A,32.990776550222165,58.717859925494786,1.6495388275111083,0.9223379868822447,B,529.8393329139799,Incorrect
2,11,275,A,16.29997433442044,36.36922083713935,0.814998716721022,0.5712863849937091,A,565.9868749789894,Correct
2,11,276,B,75.34572525404184,44.4057713358369,3.767286262702092,0.6975242250282672,B,483.70054201222956,Correct
2,11,277,B,39.23987829129632,27.38380046036483,1.961993914564816,0.43014373176825477,B,534.8698340822011,Correct
2,11,278,A,64.60847376573253,79.39973907619947,3.2304236882866264,1.2472081848936734,A,1000.475250184536,Correct
2,11,279,A,46.757294064407645,73.20391341203796,2.337864703220382,1.1498843829464092,A,2190.7860829960555,Correct
2,11,280,A,31.199876879079348,47.60864685337948,1.5599938439539673,0.747834876009639,A,628.5749168600887,Correct
2,11,281,A,46.740082382462475,64.48652117810913,2.3370041191231237,1.0129519059435514,A,840.4729580506682,Correct
2,11,282,A,28.133282667768096,53.60451962103325,1.4066641333884047,0.84201782520324,A,909.5944578293711,Correct
2,11,283,A,31.277188174983586,55.03596976592336,1.5638594087491793,0.8645029914990741,A,1055.0997499376535,Correct
2,11,284,A,37.667491343962,55.44052995022059,1.8833745671981001,0.8708578080136895,A,695.6193328369409,Correct
2,11,285,A,52.26251749200883,81.08911037576704,2.6131258746004415,1.2737447672132078,A,831.5445829648525,Correct
2,11,286,A,24.704000884036915,48.30818407872387,1.2352000442018458,0.7588231810499116,A,530.4980000946671,Correct
2,11,287,B,87.13075331996112,69.65537420753739,4.356537665998056,1.0941440594672371,B,452.8476670384407,Correct
2,11,288,A,62.01221820257038,87.76929940403744,3.100610910128519,1.378676931092235,B,827.2339578252286,Incorrect
2,11,289,A,28.663978267896823,43.170121184456804,1.433198913394841,0.678114677838353,A,811.369791161269,Correct
2,11,290,B,33.458940005083136,11.68576744740485,1.6729470002541569,0.18355960582162908,B,1259.3073749449104,Correct
2,11,291,A,16.12191942789305,36.73315889907707,0.8060959713946525,0.5770031107024353,A,1096.2925420608371,Correct
2,11,292,A,24.956059435620993,37.92158296476972,1.2478029717810497,0.5956708322730819,A,1891.2934169638902,Correct
2,11,293,A,10.836862024077135,36.70253606300558,0.5418431012038567,0.576522088318264,A,481.2781671062112,Correct
2,11,294,A,35.44791784209367,64.05438992797664,1.7723958921046836,1.0061640041395374,A,565.3789169155061,Correct
2,11,295,B,51.79441785349607,21.598765913627652,2.589720892674803,0.3392726216042913,B,508.4855421446264,Correct
2,11,296,B,40.97522430547924,24.30658595220748,2.0487612152739616,0.3818069593065194,B,503.67383286356926,Correct
2,11,297,B,40.19312948845588,18.093935783610483,2.009656474422794,0.2842188786615809,B,504.02129092253745,Correct
2,11,298,B,84.81998107926152,58.699273887416254,4.240999053963076,0.9220460380788105,B,628.7298330571502,Correct
2,11,299,A,58.66744779473686,68.18826410143268,2.933372389736843,1.0710987478105076,B,997.1752921119332,Incorrect
