subject,day,trial,cat,x,y,xt,yt,resp,rt,fb,ns_left_digit,ns_right_digit,ns_left_size,ns_right_size,ns_congruent,ns_cue,ns_correct_side,ns_resp,ns_rt,ns_fb
1,22,0,A,16.031194100177473,40.00395020665941,0.8015597050088736,0.6283805804190655,B,2724.6182919479907,Incorrect,7,3,big,small,True,Size,left,left,9042.507541831583,Correct
1,22,1,A,39.25667976806246,63.07112204092566,1.9628339884031232,0.9907188682871867,B,944.491125177592,Incorrect,8,3,small,big,False,Value,left,left,2260.376667138189,Correct
1,22,2,B,79.3904713314385,57.205399715596734,3.969523566571925,0.8985803174609316,B,1438.4587919339538,Correct,7,6,small,big,False,Size,right,left,2261.6962091997266,Incorrect
1,22,3,A,34.55245540925179,50.39053105885719,1.7276227704625895,0.7915326109249703,B,1134.5338337123394,Incorrect,7,6,small,big,False,Value,left,right,1350.4807078279555,Incorrect
1,22,4,B,88.50813219545341,68.54633519612277,4.42540660977267,1.0767233154132139,B,1526.030832901597,Correct,4,7,big,small,False,Size,left,left,1561.6325829178095,Correct
1,22,5,B,52.39007717303908,27.96469898001289,2.6195038586519543,0.4392684643772924,B,1507.7256672084332,Correct,2,5,big,small,False,Size,left,right,509.58729162812233,Incorrect
1,22,6,B,59.53911157835333,27.02780458730419,2.976955578917666,0.42455176167067676,B,1138.7527496553957,Correct,3,7,big,small,False,Size,left,right,927.8339999727905,Incorrect
1,22,7,A,58.37901143323479,73.57506182662736,2.9189505716617394,1.1557143686097369,B,1008.3158328197896,Incorrect,6,8,big,small,False,Size,left,right,1042.2425409778953,Incorrect
1,22,8,B,71.64134293237377,51.360354751622666,3.582067146618689,0.806766565867317,B,1253.1329998746514,Correct,5,8,big,small,False,Value,right,left,1374.707959126681,Incorrect
1,22,9,A,46.491334311669675,61.217614929710706,2.324566715583484,0.96160404666734,B,3944.448540918529,Incorrect,7,2,small,big,False,Value,left,left,3056.63949996233,Correct
1,22,10,B,30.467973886569702,12.440101769045263,1.523398694328485,0.19540866163770995,B,754.1507501155138,Correct,7,2,small,big,False,Value,left,right,843.4865833260119,Incorrect
1,22,11,A,19.40209268217335,49.516476016462576,0.9701046341086674,0.77780298642487,B,490.27283303439617,Incorrect,2,5,big,small,False,Value,right,left,731.5710410475731,Incorrect
1,22,12,B,83.14758618930132,61.281249763656916,4.157379309465066,0.962603620301529,B,822.1640409901738,Correct,5,4,small,big,False,Value,left,right,1619.0790827386081,Incorrect
1,22,13,A,42.98874852158039,68.79828202914798,2.1494374260790194,1.08068088701185,B,694.3779159337282,Incorrect,4,6,big,small,False,Size,left,left,551.5348338522017,Correct
1,22,14,B,71.14778817833546,55.016920370112665,3.557389408916773,0.8642037642894029,A,884.3157906085253,Incorrect,8,4,big,small,True,Size,left,right,850.6605830043554,Incorrect
1,22,15,A,65.26647412484861,88.15449200482331,3.263323706242431,1.3847275223164652,A,1122.888790909201,Correct,5,4,small,big,False,Size,right,right,441.042915917933,Correct
1,22,16,B,57.007650697282905,27.954489818001772,2.850382534864145,0.4391080992354252,B,883.6061246693134,Correct,3,2,small,big,False,Size,right,left,670.138250105083,Incorrect
1,22,17,A,63.439933355600104,73.05546036266823,3.171996667780005,1.1475524878998942,B,725.5739173851907,Incorrect,7,6,small,big,False,Value,left,left,979.2665829882026,Correct
1,22,18,A,25.505096387679593,38.29737080717486,1.2752548193839797,0.6015736938981237,B,315.88333286345005,Incorrect,8,7,small,big,False,Size,right,left,801.3642500154674,Incorrect
1,22,19,B,62.167998981266656,40.97861012437855,3.1083999490633327,0.6436905026053399,B,812.0963331311941,Correct,7,5,small,big,False,Size,right,left,916.0684999078512,Incorrect
1,22,20,B,41.82802796611335,33.86346132743137,2.091401398305668,0.5319260066569023,A,953.4953748807311,Incorrect,8,5,small,big,False,Size,right,left,505.5214581079781,Incorrect
1,22,21,A,34.78578498993372,65.50939567609329,1.7392892494966858,1.0290191809856082,B,744.7071252390742,Incorrect,3,7,big,small,False,Value,right,left,1318.8028750009835,Incorrect
1,22,22,A,20.83354543529196,50.803259235383976,1.0416772717645981,0.7980157299615006,B,661.5387080237269,Incorrect,6,3,small,big,False,Size,right,left,783.7845417670906,Incorrect
1,22,23,B,61.76549020571063,48.388243628304416,3.0882745102855313,0.7600807535139713,B,674.5818750932813,Correct,2,8,big,small,False,Size,left,right,976.0700417682528,Incorrect
1,22,24,B,55.36178700978034,25.893468733090074,2.768089350489017,0.4067336557391639,B,836.3651251420379,Correct,6,8,small,big,True,Size,right,right,1101.9755410961807,Correct
1,22,25,A,25.640376976750623,48.576689281862144,1.282018848837531,0.7630408509180608,B,683.4962079301476,Incorrect,2,3,big,small,False,Value,right,left,404.4068749062717,Incorrect
1,22,26,B,34.66159187531346,15.95769426886022,1.733079593765673,0.2506628754164161,B,618.2147092185915,Correct,6,2,small,big,False,Size,right,left,1408.3212497644126,Incorrect
1,22,27,A,56.35267578964719,80.52480412587492,2.8176337894823598,1.2648806653680287,B,444.9470001272857,Incorrect,7,4,small,big,False,Size,right,right,656.5861250273883,Correct
1,22,28,A,57.90421775164634,85.88518685649876,2.895210887582317,1.3490813604028158,B,988.6334161274135,Incorrect,5,7,big,small,False,Value,right,right,1572.5533748045564,Correct
1,22,29,A,19.684724074732166,37.59040520712533,0.9842362037366084,0.5904687042208423,B,1074.550834018737,Incorrect,5,6,big,small,False,Value,right,right,2544.627749826759,Correct
1,22,30,B,66.07123345567327,55.494309942771565,3.3035616727836636,0.8717025821612308,A,2540.719584096223,Incorrect,6,2,small,big,False,Size,right,right,3777.960749808699,Correct
1,22,31,A,30.88356639093374,41.42517494820605,1.5441783195466872,0.6507051264547804,B,719.198958016932,Incorrect,5,4,small,big,False,Value,left,right,1471.4505830779672,Incorrect
1,22,32,A,11.650315394446618,36.79597229253452,0.582515769722331,0.5779897811796002,B,489.21008314937353,Incorrect,3,7,big,small,False,Size,left,left,1233.6605829186738,Correct
1,22,33,A,55.17022244363865,81.51912737974718,2.7585111221819325,1.2804994585163214,B,245.08333299309015,Incorrect,7,6,big,small,True,Size,left,left,653.2824160531163,Correct
1,22,34,A,49.060185329342886,80.2214004629707,2.453009266467144,1.2601148117757681,B,120.45312486588955,Incorrect,4,8,big,small,False,Size,left,right,3565.059957560152,Incorrect
1,22,35,A,47.842762135458614,75.4766235196465,2.3921381067729306,1.18558402983542,B,497.5623330101371,Incorrect,6,3,small,big,False,Value,left,left,629.6515418216586,Correct
1,22,36,A,41.845373107393186,74.45361578305437,2.0922686553696592,1.1695146618862036,B,608.9429161511362,Incorrect,7,3,small,big,False,Size,right,right,889.2912911251187,Correct
1,22,37,A,55.48576039012312,83.93970839354756,2.774288019506156,1.3185218561681924,B,558.040417265147,Incorrect,3,6,big,small,False,Value,right,left,768.2276251725852,Incorrect
1,22,38,B,65.51729225634737,57.75841843281451,3.2758646128173687,0.9072671151574767,B,355.92291597276926,Correct,7,6,small,big,False,Size,right,left,898.1714593246579,Incorrect
1,22,39,B,80.72298024593542,53.58831089238215,4.036149012296772,0.8417632190889681,B,974.5115409605205,Correct,4,7,big,small,False,Value,right,left,6488.8187921606,Incorrect
1,22,40,A,51.51953166805994,78.21838233947796,2.575976583402997,1.2286514766669077,A,16798.04562497884,Correct,3,6,big,small,False,Value,right,right,8104.557374957949,Correct
1,22,41,A,21.735030708120387,46.30936121246276,1.0867515354060193,0.7274257448875456,B,686.129666864872,Incorrect,3,7,big,small,False,Size,left,right,763.2059580646455,Incorrect
1,22,42,A,64.52606938519963,79.05543725369778,3.226303469259982,1.2417999045127288,A,386.16395834833384,Correct,8,6,small,big,False,Value,left,right,1003.5927910357714,Incorrect
1,22,43,B,46.6891075145113,22.829322438269042,2.334455375725565,0.35860215829249326,A,782.7230412513018,Incorrect,3,6,big,small,False,Size,left,left,1228.4519169479609,Correct
1,22,44,A,36.595546322834586,58.81911529560774,1.8297773161417294,0.9239285025166615,A,1367.652041837573,Correct,8,5,small,big,False,Size,right,right,583.7581669911742,Correct
1,22,45,A,37.6936117285206,50.5637554788015,1.88468058642603,0.7942536137505671,A,1130.5727087892592,Correct,7,8,big,small,False,Size,left,left,679.0017080493271,Correct
1,22,46,A,47.31235066286608,60.697527364192766,2.365617533143304,0.9534345302920672,A,620.5958747304976,Correct,8,2,small,big,False,Size,right,right,718.078332953155,Correct
1,22,47,A,64.04834919872458,84.87237606086296,3.2024174599362287,1.3331721656275866,A,1076.4079997316003,Correct,3,6,small,big,True,Value,right,right,875.8387500420213,Correct
1,22,48,B,44.91407286430079,17.19222540169403,2.2457036432150397,0.27005484510410904,A,381.47666584700346,Incorrect,8,7,small,big,False,Size,right,right,782.229000236839,Correct
1,22,49,A,22.235227203496137,36.248549650866494,1.1117613601748069,0.5693908864322352,A,457.2018748149276,Correct,2,8,big,small,False,Size,left,right,965.0276252068579,Incorrect
1,22,50,B,41.12351443742363,29.070992848898754,2.0561757218711816,0.4566460878333087,A,544.3138750270009,Incorrect,2,7,big,small,False,Size,left,right,958.5691671818495,Incorrect
1,22,51,B,56.32114177368388,35.45199722343675,2.8160570886841936,0.5568786701611732,B,437.72741686552763,Correct,5,6,big,small,False,Size,left,left,969.6932923980057,Correct
1,22,52,B,37.60075556044198,17.562138495845154,1.8800377780220991,0.2758654263993682,A,816.9104997068644,Incorrect,4,5,big,small,False,Size,left,left,926.2505830265582,Correct
1,22,53,B,36.20777103046383,13.52348030850759,1.8103885515231917,0.21242633194086835,A,1068.0031669326127,Incorrect,7,8,big,small,False,Value,right,right,1547.7410843595862,Correct
1,22,54,A,44.47316331020853,65.4292286071586,2.223658165510426,1.0277599196114833,B,612.8233331255615,Incorrect,3,6,big,small,False,Value,right,left,476.4618328772485,Incorrect
1,22,55,B,41.89789889644082,31.178912122068997,2.094894944822041,0.48975720634806846,A,815.4598330147564,Incorrect,5,6,big,small,False,Size,left,right,966.3116671144962,Incorrect
1,22,56,B,78.8220388099944,51.821972208478726,3.94110194049972,0.8140176359234559,B,384.8767918534577,Correct,8,4,small,big,False,Value,left,right,1853.9435830898583,Incorrect
1,22,57,B,36.36114978969101,26.50010698619511,1.8180574894845507,0.41626270713587055,B,289.77983305230737,Correct,5,6,big,small,False,Size,left,left,941.2185000255704,Correct
1,22,58,A,38.23625216218961,68.80909391899289,1.9118126081094804,1.080850719780391,B,254.98262513428926,Incorrect,4,7,big,small,False,Size,left,left,1289.1368339769542,Correct
1,22,59,A,25.71560988304749,53.985893822459644,1.2857804941523745,0.8480084371505892,B,974.5625001378357,Incorrect,7,3,small,big,False,Size,right,right,1696.6481660492718,Correct
1,22,60,B,60.38578405354127,30.054642139727587,3.0192892026770637,0.4720972147621921,A,1281.5589592792094,Incorrect,2,3,big,small,False,Size,left,right,602.5114576332271,Incorrect
1,22,61,B,79.99759512909951,66.65961162045562,3.9998797564549755,1.0470867307898608,B,327.245915774256,Correct,6,2,big,small,True,Value,left,left,930.0315408036113,Correct
1,22,62,A,18.638428837563822,43.45251754335064,0.9319214418781911,0.6825505494708598,B,1724.4940004311502,Incorrect,6,8,big,small,False,Value,right,left,992.2332921996713,Incorrect
1,22,63,A,52.0542744239102,68.01733838154134,2.60271372119551,1.0684138528809066,B,645.7866248674691,Incorrect,8,3,small,big,False,Size,right,right,1530.6951659731567,Correct
1,22,64,B,79.52137622648854,66.03136468536105,3.976068811324427,1.037218251010194,B,1894.9847500771284,Correct,4,3,small,big,False,Value,left,left,1498.100417200476,Correct
1,22,65,A,46.00185531125281,63.151278782060025,2.3000927655626406,0.9919779674326037,B,763.2676246576011,Incorrect,3,2,small,big,False,Size,right,right,864.3709579482675,Correct
1,22,66,A,39.053569406294585,64.23602457431018,1.952678470314729,1.0090171144923314,B,1988.4139159694314,Incorrect,6,5,small,big,False,Value,left,left,1219.0482919104397,Correct
1,22,67,A,59.661215187906734,86.94744803720336,2.983060759395337,1.3657673200102918,B,1050.2801248803735,Incorrect,5,4,big,small,True,Value,left,right,4956.316750030965,Incorrect
1,22,68,A,48.52028869458795,61.81414280253884,2.4260144347293973,0.9709742845820318,B,2045.0541251339018,Incorrect,8,6,small,big,False,Size,right,left,1327.2293750196695,Incorrect
1,22,69,A,36.83115130481105,66.84963348018681,1.8415575652405525,1.0500715871826258,B,618.4885832481086,Incorrect,8,3,big,small,True,Value,left,left,1897.3670001141727,Correct
1,22,70,B,72.78480462689879,63.0845112537157,3.6392402313449397,0.9909291855498793,B,528.187083080411,Correct,4,8,big,small,False,Size,left,left,2191.353582777083,Correct
1,22,71,A,21.727637306861716,43.66130838657364,1.0863818653430857,0.6858302283668909,B,745.7010000944138,Incorrect,2,3,big,small,False,Value,right,left,783.9636248536408,Incorrect
1,22,72,A,53.27491901051126,64.849600978399,2.6637459505255627,1.0186551501098389,B,1884.5890839584172,Incorrect,2,7,big,small,False,Size,left,left,1648.193667177111,Correct
1,22,73,A,36.272498846994075,44.0436565316478,1.8136249423497037,0.6918361389852842,B,335.849542170763,Incorrect,2,4,big,small,False,Value,right,left,53.99399995803833,Incorrect
1,22,74,A,50.64666172249415,75.76122729489627,2.5323330861247073,1.1900545754829632,B,310.0933339446783,Incorrect,7,4,small,big,False,Value,left,left,715.5584166757762,Correct
1,22,75,A,30.626091960464425,43.78354117911866,1.5313045980232212,0.6877502565823269,B,243.30912483856082,Incorrect,5,4,small,big,False,Value,left,right,3969.1157499328256,Incorrect
1,22,76,B,62.29584010318965,47.450761986582684,3.1147920051594826,0.7453548263214298,B,3276.2934169732034,Correct,7,8,big,small,False,Size,left,left,495.1991671696305,Correct
1,22,77,B,63.18002527551858,54.554330986645546,3.159001263775929,0.8569374272457583,B,1420.4564169049263,Correct,5,6,big,small,False,Size,left,left,2093.625291250646,Correct
1,22,78,A,13.39525321618541,39.19886722112885,0.6697626608092705,0.6157343664547008,B,69.24079172313213,Incorrect,7,3,small,big,False,Size,right,left,2272.8748749941587,Incorrect
1,22,79,B,65.60141064522828,38.20064548533539,3.280070532261414,0.6000543360955889,A,779.1673331521451,Incorrect,8,7,small,big,False,Size,right,right,1461.491999682039,Correct
1,22,80,A,51.313677305956666,70.23062782342478,2.5656838652978333,1.103180122135351,B,284.00033293291926,Incorrect,7,4,small,big,False,Size,right,right,1604.5016660355031,Correct
1,22,81,B,31.102545369012127,13.24275781262693,1.5551272684506063,0.20801675328708802,A,358.93391678109765,Incorrect,6,8,big,small,False,Value,right,left,464.16645776480436,Incorrect
1,22,82,A,35.72674692191732,46.454118036843276,1.7863373460958658,0.7296995797676996,B,84.85045796260238,Incorrect,2,5,big,small,False,Size,left,left,1025.8653340861201,Correct
1,22,83,B,42.61511259941091,26.622114278914637,2.1307556299705452,0.4181791932083307,B,532.9475002363324,Correct,3,6,big,small,False,Value,right,right,167.1995408833027,Correct
1,22,84,A,45.20764250681996,60.108663404808794,2.260382125340998,0.9441846768482448,B,1171.6909580864012,Incorrect,5,2,big,small,True,Size,left,left,796.7515829950571,Correct
1,22,85,A,40.70808205205671,64.81565466277526,2.0354041026028353,1.0181219226309388,A,571.5459999628365,Correct,5,4,big,small,True,Size,left,right,1019.3658331409097,Incorrect
1,22,86,B,36.0439600580081,16.89800268347391,1.8021980029004052,0.26543320545371124,B,42.09029162302613,Correct,5,4,small,big,False,Size,right,right,385.2487918920815,Correct
1,22,87,A,32.09259159458927,62.42455090860752,1.6046295797294636,0.9805625526906172,B,4112.047292292118,Incorrect,6,4,small,big,False,Value,left,left,1194.5685418322682,Correct
1,22,88,B,84.84564795469663,69.60999638343763,4.242282397734831,1.0934312662730987,B,4766.523791942745,Correct,5,6,big,small,False,Size,left,left,1043.6883340589702,Correct
1,22,89,A,36.64405880691632,51.31936474039598,1.832202940345816,0.8061226962766155,B,764.5819587633014,Incorrect,4,6,big,small,False,Value,right,right,1932.6374167576432,Correct
1,22,90,A,25.232217259901894,55.50641587945704,1.2616108629950946,0.8718927417700103,B,1061.183708254248,Incorrect,4,2,small,big,False,Value,left,right,950.1324999146163,Incorrect
1,22,91,B,62.463102171014604,44.62288310481781,3.12315510855073,0.7009346087204587,B,606.4413329586387,Correct,6,8,big,small,False,Value,right,right,767.830915749073,Correct
1,22,92,B,53.29032438243515,32.69357414409235,2.6645162191217575,0.5135494617533687,A,424.17904222384095,Incorrect,7,2,small,big,False,Value,left,right,1695.4508339986205,Incorrect
1,22,93,A,18.873733947993934,39.549356703306486,0.9436866973996968,0.6212398423665495,A,492.531165946275,Correct,2,6,big,small,False,Size,left,left,759.3591250479221,Correct
1,22,94,B,35.43663813139533,23.417440140014982,1.7718319065697665,0.3678402895487491,B,315.59733394533396,Correct,3,8,big,small,False,Size,left,right,491.1282919347286,Incorrect
1,22,95,A,47.42033787064494,75.96982610269295,2.3710168935322473,1.1933312378935714,B,571.5669998899102,Incorrect,3,7,big,small,False,Value,right,left,516.5591663680971,Incorrect
1,22,96,A,24.328060813323237,45.1275256072025,1.216403040666162,0.7088615146113633,A,4053.622500039637,Correct,5,3,small,big,False,Size,right,left,-0.3128340467810631,Incorrect
1,22,97,A,56.1757839755323,74.42159414091128,2.8087891987766147,1.1690116671076405,B,3527.57433289662,Incorrect,5,3,small,big,False,Value,left,left,129.88991709426045,Correct
1,22,98,A,38.338694032684394,71.02972211150887,1.9169347016342198,1.115732265860204,A,3666.852875147015,Correct,4,8,big,small,False,Size,left,right,75.88795898482203,Incorrect
1,22,99,B,52.202189743411026,20.42338433580371,2.6101094871705515,0.320809770954009,A,3733.6929170414805,Incorrect,4,3,small,big,False,Size,right,right,32.58754080161452,Correct
1,22,100,B,81.51634203760511,61.70299434350149,4.075817101880256,0.9692283686701841,B,65.14200009405613,Correct,6,2,big,small,True,Value,left,right,133.87395814061165,Incorrect
1,22,101,A,13.333638152938939,32.33099481043345,0.6666819076469469,0.5078540788985373,B,119.01162518188357,Incorrect,7,8,big,small,False,Size,left,left,1536.2281668931246,Correct
1,22,102,B,69.56218409181685,52.583160597686856,3.4781092045908424,0.8259743551811264,B,850.632042158395,Correct,3,2,big,small,True,Value,left,right,1805.0602078437805,Incorrect
1,22,103,B,79.58493278537472,63.545132773899596,3.9792466392687356,0.9981646114693549,A,5315.869292244315,Incorrect,4,8,big,small,False,Value,right,right,683.118375018239,Correct
1,22,104,B,31.00238472241479,12.867036896528763,1.5501192361207392,0.20211494293801785,A,4087.0224996469915,Incorrect,2,4,big,small,False,Size,left,left,1892.7536248229444,Correct
1,22,105,A,66.29219150550168,88.97273116114373,3.314609575275084,1.397580392928344,B,5390.525457914919,Incorrect,6,4,big,small,True,Size,left,right,1006.4453333616257,Incorrect
1,22,106,A,29.192486069939886,44.99370912998794,1.4596243034969942,0.7067595303026306,B,1138.524207752198,Incorrect,6,2,small,big,False,Size,right,left,2397.964417003095,Incorrect
1,22,107,B,79.54968663709123,52.154224102539196,3.977484331854561,0.8192366364710645,B,416.73750011250377,Correct,3,6,big,small,False,Value,right,right,1390.0636248290539,Correct
1,22,108,B,89.10718070077606,64.2602353655748,4.455359035038803,1.009397416712204,B,605.1682918332517,Correct,7,3,small,big,False,Value,left,left,2325.0792920589447,Correct
1,22,109,B,73.95829346919162,54.879197075569486,3.697914673459581,0.8620404118375777,A,644.3574158474803,Incorrect,6,2,small,big,False,Size,right,right,1344.429874792695,Correct
1,22,110,B,60.56326869793771,36.688373544778194,3.0281634348968858,0.5762996240021664,B,370.2682498842478,Correct,3,5,big,small,False,Value,right,right,704.0598327293992,Correct
1,22,111,A,54.99695625647177,72.56298945703873,2.7498478128235884,1.1398167730037323,A,937.090708874166,Correct,2,8,big,small,False,Size,left,left,1452.32154102996,Correct
1,22,112,A,54.72221446053034,84.04810764342683,2.736110723026517,1.3202245876035692,B,4339.841375127435,Incorrect,2,3,big,small,False,Value,right,left,302.3112090304494,Incorrect
1,22,113,A,52.398571301241496,63.265094215604755,2.6199285650620747,0.9937657760820501,B,3834.2882497236133,Incorrect,5,4,small,big,False,Value,left,left,646.5927907265723,Correct
1,22,114,A,30.640247782232734,50.5005894223215,1.5320123891116366,0.7932614036555982,B,63.81833413615823,Incorrect,6,7,big,small,False,Value,right,left,615.0020002387464,Incorrect
1,22,115,A,58.65529884230868,78.08895977304348,2.9327649421154343,1.2266185117473116,B,535.8403343707323,Incorrect,6,3,small,big,False,Value,left,left,2738.8182911090553,Correct
1,22,116,A,17.497030500148334,35.68259030701603,0.8748515250074166,0.5605008178478795,A,668.4531252831221,Correct,4,6,big,small,False,Value,right,right,364.5690828561783,Correct
1,22,117,B,49.29673970351317,42.29141356201006,2.4648369851756584,0.6643119707816927,B,871.7668750323355,Correct,7,4,big,small,True,Value,left,left,2555.877124890685,Correct
1,22,118,A,51.59309658685826,70.27153525423014,2.5796548293429127,1.1038226945558278,A,6231.858666986227,Correct,2,3,big,small,False,Value,right,right,2445.9117082878947,Correct
1,22,119,B,47.04934478765238,17.770984372421843,2.352467239382619,0.2791459697572974,B,438.1436253897846,Correct,4,8,big,small,False,Size,left,left,1122.5858749821782,Correct
1,22,120,A,57.5300243236259,71.34762016865987,2.876501216181295,1.1207257968648843,B,3615.720957983285,Incorrect,6,5,small,big,False,Value,left,left,969.7732077911496,Correct
1,22,121,A,39.67022892516215,66.09865283156543,1.9835114462581074,1.0382752107391409,A,522.9616253636777,Correct,6,8,big,small,False,Value,right,right,3.1956671737134457,Correct
1,22,122,B,76.96685232684877,50.63993479195918,3.848342616342438,0.7954502356034255,A,4148.981042206287,Incorrect,5,3,small,big,False,Value,left,right,1464.7452081553638,Incorrect
1,22,123,B,71.65925770141412,53.74411274367686,3.582962885070706,0.8442105488461841,B,6615.514082834125,Correct,3,2,small,big,False,Size,right,right,4577.527542132884,Correct
1,22,124,B,61.44934439881558,41.51237123050593,3.072467219940779,0.6520748024542485,A,4281.330709345639,Incorrect,8,3,small,big,False,Size,right,right,1313.5204170830548,Correct
1,22,125,B,73.48828515118768,59.19701011998791,3.6744142575593846,0.9298644605371731,A,1544.2214170470834,Incorrect,5,2,small,big,False,Size,right,left,396.23970817774534,Incorrect
1,22,126,A,54.84337269585853,62.148712582905766,2.742168634792926,0.9762296944026014,B,3811.1776672303677,Incorrect,8,4,small,big,False,Size,right,left,2801.7833749763668,Incorrect
1,22,127,A,54.09171873809146,61.62984032066521,2.704585936904573,0.9680792679665692,A,239.79533277451992,Correct,4,3,small,big,False,Value,left,right,1563.8033337891102,Incorrect
1,22,128,B,61.05670088996456,30.900651733837837,3.0528350444982277,0.4853863023908082,B,719.1360839642584,Correct,4,3,big,small,True,Value,left,left,764.7540420293808,Correct
1,22,129,A,52.009028122199744,69.75722595570039,2.600451406109987,1.095743942986158,B,874.716707970947,Incorrect,3,2,small,big,False,Value,left,left,1004.7137080691755,Correct
1,22,130,B,38.27280521675927,19.200961402971434,1.9136402608379632,0.3016079964271811,B,657.9380412586033,Correct,8,7,small,big,False,Size,right,left,1157.4468333274126,Incorrect
1,22,131,B,63.779763776717644,34.63216049537996,3.188988188835882,0.5440007049511416,B,266.20412478223443,Correct,6,5,small,big,False,Value,left,left,279.14966689422727,Correct
1,22,132,B,54.12458985604526,36.614742530218365,2.706229492802263,0.5751430307300788,B,640.3885423205793,Correct,8,7,small,big,False,Size,right,left,449.1376248188317,Incorrect
1,22,133,A,53.46063110403176,76.17573501995273,2.673031555201588,1.196565647602431,A,3901.904083788395,Correct,2,3,big,small,False,Value,right,left,332.6479159295559,Incorrect
1,22,134,A,29.75884168022399,45.22439670107566,1.4879420840111997,0.7103831621956489,B,2976.7470830120146,Incorrect,2,4,big,small,False,Value,right,right,1034.63220782578,Correct
1,22,135,B,48.16403971646855,19.859746118877275,2.4082019858234274,0.3119561625461163,A,929.3175423517823,Incorrect,8,7,big,small,True,Size,left,left,149.3759169243276,Correct
1,22,136,A,68.55601990992056,88.37094551434575,3.4278009954960282,1.3881275660932624,A,430.96204195171595,Correct,7,8,big,small,False,Size,left,left,152.16841595247388,Correct
1,22,137,A,57.467374196505965,74.57802244288679,2.8733687098252982,1.1714688371291393,B,1470.170458778739,Incorrect,8,7,small,big,False,Value,left,left,2903.5380417481065,Correct
1,22,138,A,55.64764992211588,77.53451447777208,2.7823824961057944,1.2179093054151011,B,6472.574499901384,Incorrect,2,5,big,small,False,Size,left,right,188.4091249667108,Incorrect
1,22,139,A,27.026264768476015,40.00300040377011,1.351313238423801,0.6283656609501685,B,3789.29991601035,Incorrect,6,7,big,small,False,Value,right,left,734.5042922534049,Incorrect
1,22,140,A,29.794103705908476,61.5447569689737,1.4897051852954237,0.9667427818034849,B,823.3520840294659,Incorrect,6,5,small,big,False,Value,left,left,3752.137458883226,Correct
1,22,141,B,52.22494572787345,40.401747812530864,2.611247286393672,0.6346291706001723,A,1516.5307093411684,Incorrect,5,2,big,small,True,Size,left,left,3543.3629998005927,Correct
1,22,142,A,49.809522995078424,80.69629132253567,2.4904761497539214,1.267574379954099,A,1486.2075839191675,Correct,8,5,small,big,False,Value,left,left,952.7334161102772,Correct
1,22,143,B,47.90274768413957,32.89426469676071,2.3951373842069783,0.5167019015829076,B,1486.810457892716,Correct,5,3,small,big,False,Value,left,right,-1.4147907495498657,Incorrect
1,22,144,B,60.04195421959662,46.68100912011518,3.002097710979831,0.7332635765695599,A,139.19758331030607,Incorrect,3,4,big,small,False,Size,left,left,164.75687501952052,Correct
1,22,145,A,32.99030859292877,42.72415973224224,1.6495154296464387,0.6711095317280454,B,1463.511792011559,Incorrect,3,2,small,big,False,Value,left,left,557.5665831565857,Correct
1,22,146,A,38.51185458118765,65.46001025145944,1.9255927290593826,1.0282434365494875,B,65.09033404290676,Incorrect,4,3,small,big,False,Size,right,right,1474.57433398813,Correct
1,22,147,A,42.321888449950904,59.56239559079516,2.1160944224975453,0.9356039220912558,B,5015.344209037721,Incorrect,4,3,small,big,False,Size,right,left,1360.9835840761662,Incorrect
1,22,148,A,15.05181781993372,43.64340540285695,0.752590890996686,0.6855490089562823,A,438.8450002297759,Correct,5,2,big,small,True,Value,left,left,3681.7318331450224,Correct
1,22,149,B,66.60148047224108,52.84478022039638,3.330074023612054,0.8300838666048224,B,1002.8804577887058,Correct,6,3,small,big,False,Size,right,left,2108.49512508139,Incorrect
1,22,150,B,66.24784176056302,46.76175753904244,3.312392088028151,0.7345319697680144,B,710.2589160203934,Correct,4,2,small,big,False,Size,right,left,563.0196672864258,Incorrect
1,22,151,B,65.9023086704819,50.528707812901445,3.295115433524095,0.7937030863019817,B,394.89033399149776,Correct,5,7,big,small,False,Size,left,left,254.75137494504452,Correct
1,22,152,A,16.894044084809245,38.53654187544906,0.8447022042404623,0.605330584253331,B,27.324709109961987,Incorrect,8,5,small,big,False,Size,right,right,2736.7734578438103,Correct
1,22,153,B,74.04462657198216,53.80350094297565,3.702231328599108,0.8451434164993191,B,1085.6772908009589,Correct,3,2,small,big,False,Value,left,right,3623.5174159519374,Incorrect
1,22,154,B,50.82044378800033,22.94109961817538,2.5410221894000165,0.3603579501286569,A,782.6607911847532,Incorrect,5,8,big,small,False,Value,right,right,2097.703041974455,Correct
1,22,155,A,25.169112619798625,51.68135444870724,1.2584556309899313,0.8118088173181441,B,6472.381541971117,Incorrect,3,6,big,small,False,Size,left,right,5203.793750144541,Incorrect
1,22,156,A,41.44982249778545,50.65729480126511,2.0724911248892726,0.7957229259919345,B,303.58833400532603,Incorrect,2,7,big,small,False,Size,left,left,322.17141706496477,Correct
1,22,157,A,43.410992340587065,71.037874337734,2.1705496170293532,1.1158603207303002,B,1266.34612493217,Incorrect,2,7,big,small,False,Size,left,right,3945.049667265266,Incorrect
1,22,158,B,81.51784373345888,53.82306237995414,4.075892186672944,0.8454506868328456,A,6325.165125075728,Incorrect,8,5,small,big,False,Value,left,right,1491.9160418212414,Incorrect
1,22,159,B,74.53899565565902,54.52784058841525,3.726949782782951,0.8565213170434035,B,266.4805827662349,Correct,3,6,big,small,False,Value,right,left,3321.3923326693475,Incorrect
1,22,160,B,31.87233277588749,18.909108447096223,1.5936166387943747,0.297023580916651,B,2344.0439170226455,Correct,7,8,big,small,False,Value,right,left,3530.8694588020444,Incorrect
1,22,161,A,31.447738885428592,58.90999048154112,1.5723869442714296,0.9253559665992711,B,6921.296958811581,Incorrect,8,6,small,big,False,Size,right,right,385.3991669602692,Correct
1,22,162,A,38.81143551272084,64.24284481114445,1.9405717756360419,1.0091242465220027,B,731.6014999523759,Incorrect,4,5,big,small,False,Value,right,right,5674.170542042702,Correct
1,22,163,B,30.82642540476109,13.65466997471776,1.5413212702380545,0.21448705439883223,A,544.7763749398291,Incorrect,7,2,small,big,False,Value,left,left,6832.886416930705,Correct
1,22,164,A,40.97921123293014,67.05291926086085,2.048960561646507,1.0532647927583498,B,14032.870625145733,Incorrect,7,3,small,big,False,Size,right,right,970.7907917909324,Correct
1,22,165,A,17.67320749077919,31.403909642592826,0.8836603745389595,0.4932914591358365,B,308.1953749060631,Incorrect,3,4,small,big,True,Size,right,left,1649.7482918202877,Incorrect
1,22,166,B,71.14701655864098,40.83465659457175,3.557350827932049,0.641429285846843,B,575.6692080758512,Correct,8,2,small,big,False,Value,left,left,164.48279097676277,Correct
1,22,167,A,22.335230719815,40.7172856502616,1.1167615359907501,0.6395856273648947,A,69.54899989068508,Correct,4,3,small,big,False,Size,right,right,6163.081209175289,Correct
1,22,168,B,62.69906577169495,49.45132225623215,3.1349532885847475,0.7767795535524019,B,26.635583024471998,Correct,3,5,big,small,False,Value,right,left,574.9658751301467,Incorrect
1,22,169,A,45.50843901676984,59.786996790135845,2.275421950838492,0.9391319494804367,B,1348.5784167423844,Incorrect,8,4,small,big,False,Value,left,right,4143.25370779261,Incorrect
1,22,170,B,60.930199644006784,39.304066970662895,3.046509982200339,0.617386840256179,B,7595.967959146947,Correct,8,6,small,big,False,Size,right,left,4834.721707738936,Incorrect
1,22,171,B,68.44309863887707,41.806404399879455,3.4221549319438536,0.6566934646783265,A,716.4058750495315,Incorrect,2,4,big,small,False,Value,right,right,225.2359576523304,Correct
1,22,172,A,52.06919430309319,79.78716187411581,2.60345971515466,1.2532938079725093,B,2092.967957723886,Incorrect,6,5,big,small,True,Size,left,left,5342.331707943231,Correct
1,22,173,A,35.263046889314,47.46216150054758,1.7631523444657,0.745533889468063,B,663.6652080342174,Incorrect,8,2,small,big,False,Value,left,left,3512.535790912807,Correct
1,22,174,B,69.47007845960144,43.71237229177694,3.473503922980072,0.6866323383141423,B,2265.686416067183,Correct,6,2,big,small,True,Size,left,right,988.2807498797774,Incorrect
1,22,175,B,77.19525350699728,56.503539280138604,3.859762675349864,0.8875555195215288,A,2293.281457852572,Incorrect,2,7,big,small,False,Value,right,right,3815.709416754544,Correct
1,22,176,A,36.594397370397985,53.31623920493222,1.8297198685198992,0.8374895270162559,B,118.0739589035511,Incorrect,4,7,big,small,False,Value,right,right,1174.7960830107331,Correct
1,22,177,B,75.8657588631623,54.35507477596424,3.7932879431581146,0.8538075180074657,B,1499.795415904373,Correct,3,6,big,small,False,Value,right,right,2823.468334041536,Correct
1,22,178,A,27.88165817788049,44.446540108134585,1.3940829088940245,0.6981646194059985,B,748.0987911112607,Incorrect,4,3,big,small,True,Size,left,right,165.44433310627937,Incorrect
1,22,179,A,23.212879445103955,38.88069930742415,1.1606439722551978,0.6107365965531873,B,3715.2824169024825,Incorrect,3,5,big,small,False,Size,left,right,5190.549375023693,Incorrect
1,22,180,B,69.6719101645277,37.518961403433764,3.483595508226385,0.5893464675767326,B,113.93449967727065,Correct,8,3,small,big,False,Size,right,right,2977.9283748939633,Correct
1,22,181,B,66.87091164908905,34.65949005690085,3.343545582454453,0.544429996699641,B,671.6923327185214,Correct,3,8,small,big,True,Value,right,right,2913.2652920670807,Correct
1,22,182,B,55.358483715567274,36.91567730950798,2.7679241857783636,0.5798701031892084,B,1115.3468750417233,Correct,7,4,small,big,False,Value,left,right,4501.671292353421,Incorrect
1,22,183,A,32.76032783380847,56.05432068875286,1.6380163916904236,0.8804992103887617,B,5182.4907921254635,Incorrect,5,7,big,small,False,Size,left,right,669.0499167889357,Incorrect
1,22,184,B,51.81882967736693,28.205960055070207,2.5909414838683467,0.44305818448227857,B,180.35833397880197,Correct,5,3,small,big,False,Size,right,right,6349.408124573529,Correct
1,22,185,B,75.7650347140786,58.026658065825984,3.7882517357039296,0.9114806134598292,A,1969.3034579977393,Incorrect,7,3,small,big,False,Size,right,right,1934.841041918844,Correct
1,22,186,B,58.89398405671183,42.1876018857263,2.9446992028355914,0.6626813007838432,B,237.35899990424514,Correct,5,3,small,big,False,Value,left,right,2654.283791780472,Incorrect
1,22,187,B,36.58829272257395,22.499223211227847,1.8294146361286974,0.3534169717593518,A,1279.0439166128635,Incorrect,6,3,small,big,False,Value,left,right,280.8719160966575,Incorrect
1,22,188,A,51.60238941618988,74.45125487766845,2.5801194708094943,1.1694775768711223,A,3906.112707685679,Correct,5,8,big,small,False,Value,right,left,1000.3745416179299,Incorrect
1,22,189,A,29.06581576034357,45.92014547667505,1.4532907880171786,0.7213119584064847,B,542.7228747867048,Incorrect,4,2,small,big,False,Value,left,left,5003.479416947812,Correct
1,22,190,B,75.95770094450366,51.586315159224796,3.797885047225183,0.810315943649942,B,8541.299792006612,Correct,7,2,big,small,True,Size,left,left,3027.1924156695604,Correct
1,22,191,B,60.81050682469013,51.08062561189412,3.0405253412345066,0.8023725908154861,A,4115.309124812484,Incorrect,6,5,small,big,False,Size,right,left,946.8550002202392,Incorrect
1,22,192,A,32.03894343779598,64.96597278171662,1.6019471718897988,1.020483114121777,A,4420.903833117336,Correct,4,2,small,big,False,Value,left,right,72.55462510511279,Incorrect
1,22,193,B,58.164278107594136,38.27662576839375,2.9082139053797067,0.6012478315909578,B,3435.503375250846,Correct,2,5,big,small,False,Size,left,right,330.2634577266872,Incorrect
1,22,194,A,66.05787029865516,89.78134199346991,3.3028935149327583,1.4102820221805892,B,263.87770799919963,Incorrect,6,4,small,big,False,Value,left,right,22.47816603630781,Incorrect
1,22,195,B,71.83411326678214,45.65259288468378,3.591705663339107,0.7171092521192411,B,3619.324750266969,Correct,7,2,small,big,False,Size,right,right,543.7837918289006,Correct
1,22,196,B,46.371533768534306,38.3666238340443,2.3185766884267154,0.6026615179003831,B,-1.0764999315142632,Correct,3,8,big,small,False,Size,left,right,447.52875017002225,Incorrect
1,22,197,A,47.26641763886279,54.58740347218905,2.3633208819431393,0.8574569286338554,A,3048.1510828249156,Correct,7,5,small,big,False,Size,right,right,2244.502999819815,Correct
1,22,198,B,43.37155905713466,30.37272761690467,2.168577952856733,0.4770936897537576,A,3330.7141247205436,Incorrect,3,4,big,small,False,Value,right,left,499.35962492600083,Incorrect
1,22,199,A,53.61632568362462,66.67921073643153,2.680816284181231,1.047394592983695,B,1742.5599158741534,Incorrect,6,8,big,small,False,Size,left,right,2005.703375209123,Incorrect
1,22,200,A,50.05922518371427,56.92024631090022,2.5029612591857133,0.8941011382542282,B,241.029916331172,Incorrect,3,6,big,small,False,Size,left,right,2858.704667072743,Incorrect
1,22,201,B,57.90742129437434,34.56344839897076,2.895371064718717,0.5429213778646822,A,17313.187249936163,Incorrect,4,7,big,small,False,Value,right,right,1946.4471670798957,Correct
1,22,202,B,79.49354643658398,66.23078832366585,3.974677321829199,1.0403507901954465,B,195.58579195290804,Correct,5,6,big,small,False,Value,right,right,501.39983324334025,Correct
1,22,203,A,66.45605510153007,81.8031223255611,3.3228027550765034,1.2849604406934496,A,863.9994999393821,Correct,7,3,big,small,True,Size,left,right,3483.353625051677,Incorrect
1,22,204,A,59.230993309587845,79.30533055821344,2.9615496654793922,1.2457252193609674,B,1408.3493328653276,Incorrect,3,4,small,big,True,Size,right,left,1176.6650001518428,Incorrect
1,22,205,B,51.77240788084068,35.21211902543456,2.5886203940420343,0.553110672238173,B,768.650958314538,Correct,7,5,big,small,True,Value,left,left,350.24708276614547,Correct
1,22,206,B,74.63073319361264,63.301152809607665,3.731536659680632,0.9943321831521418,B,3750.2119159325957,Correct,8,2,big,small,True,Value,left,right,496.12100003287196,Incorrect
1,22,207,A,62.6022571105119,76.45121968543044,3.1301128555255953,1.200892950608638,B,249.74466720595956,Incorrect,4,3,big,small,True,Value,left,left,17.139708157628775,Correct
1,22,208,B,72.14378802943361,41.24343428204812,3.6071894014716803,0.647850350746479,A,29.401166830211878,Incorrect,7,2,small,big,False,Size,right,right,166.51791566982865,Correct
1,22,209,B,54.96277027946374,45.32522831231485,2.7481385139731866,0.711967021441242,A,17.72037474438548,Incorrect,3,5,big,small,False,Value,right,right,292.260208632797,Correct
1,22,210,B,86.3265058498882,69.96359606366502,4.316325292494411,1.098985597061669,B,3435.3554588742554,Correct,2,7,small,big,True,Size,right,right,200.22595906630158,Correct
1,22,211,A,66.11004404707515,86.8781052230717,3.305502202353757,1.3646780856330154,A,3010.3344582021236,Correct,4,8,big,small,False,Value,right,left,3020.8018328994513,Incorrect
1,22,212,B,67.94680247352143,34.697135538245405,3.3973401236760714,0.5450213305378055,A,287.32299990952015,Incorrect,4,3,small,big,False,Size,right,left,4935.265791602433,Incorrect
1,22,213,A,49.116052263059345,70.5332543198532,2.4558026131529673,1.1079337680251569,A,8455.128999892622,Correct,6,2,big,small,True,Size,left,left,3237.30008257553,Correct
1,22,214,A,57.41241192290937,69.75612672833638,2.8706205961454687,1.0957266763631008,A,14.267624821513891,Correct,5,7,small,big,True,Value,right,right,290.44762486591935,Correct
1,22,215,B,50.49795311880946,20.634994377986594,2.5248976559404728,0.32413373372374676,A,2252.7412502095103,Incorrect,7,4,small,big,False,Value,left,right,864.2637082375586,Incorrect
1,22,216,B,78.44018961608396,50.55595040887879,3.922009480804198,0.7941310119989177,A,109.36499992385507,Incorrect,7,8,big,small,False,Value,right,left,152.35224971547723,Incorrect
1,22,217,B,66.21792760532857,46.69781653164674,3.310896380266428,0.7335275867725269,B,2456.4442089758813,Correct,2,4,big,small,False,Value,right,left,24.716665968298912,Incorrect
1,22,218,B,40.058543128732914,20.779264329387626,2.0029271564366455,0.326399920821023,B,348.4691670164466,Correct,6,8,big,small,False,Value,right,right,3529.215000104159,Correct
1,22,219,A,34.418268768471656,66.57186201393164,1.7209134384235827,1.0457083631938051,A,632.8710420057178,Correct,2,3,big,small,False,Size,left,right,1780.0289997830987,Incorrect
1,22,220,B,36.894847389963,11.835317584258025,1.8447423694981497,0.18590873387803558,B,1815.9120422787964,Correct,6,2,small,big,False,Size,right,left,852.3711250163615,Incorrect
1,22,221,A,13.982346077714755,36.25583587402441,0.6991173038857377,0.5695053381579619,A,125.59108389541507,Correct,8,5,small,big,False,Size,right,left,140.5289159156382,Incorrect
1,22,222,A,23.952751177232184,41.60588704261485,1.1976375588616093,0.6535437453958279,B,3775.397416204214,Incorrect,6,3,small,big,False,Size,right,left,121.10666604712605,Incorrect
1,22,223,B,46.75181522652746,20.469102813812295,2.337590761326373,0.32152791512723433,B,1075.7074584253132,Correct,8,4,small,big,False,Size,right,left,165.60020809993148,Incorrect
1,22,224,B,72.6949606208002,57.561873772073234,3.63474803104001,0.9041797988460414,A,1180.0924590788782,Incorrect,3,5,big,small,False,Size,left,right,3041.4297077804804,Incorrect
1,22,225,B,80.33817467814697,64.52527441434859,4.016908733907348,1.0135606403549147,A,352.70545817911625,Incorrect,6,2,small,big,False,Size,right,right,202.46075000613928,Correct
1,22,226,B,58.396040183194074,27.14449551587823,2.919802009159704,0.4263847384904207,B,781.9641656242311,Correct,3,4,big,small,False,Value,right,left,1383.487541694194,Incorrect
1,22,227,B,46.97253494455808,17.572383144284135,2.348626747227904,0.27602634896074074,B,1065.2935411781073,Correct,6,4,small,big,False,Size,right,left,289.15545903146267,Incorrect
1,22,228,B,58.586272480716005,25.77996281601127,2.9293136240358,0.40495070896299523,A,3683.933958876878,Incorrect,3,5,big,small,False,Size,left,right,938.2090410217643,Incorrect
1,22,229,A,59.44652875038629,81.5799549558018,2.9723264375193144,1.2814549358466658,B,283.7512088008225,Incorrect,2,8,big,small,False,Size,left,left,824.8582910746336,Correct
1,22,230,B,68.36140825445644,59.60091921085224,3.4180704127228214,0.9362090497000608,A,954.085708130151,Incorrect,2,6,big,small,False,Value,right,right,21.277334075421095,Correct
1,22,231,B,58.43309051408438,36.99149739173938,2.921654525704219,0.5810610822558722,A,1709.5923330634832,Incorrect,2,3,big,small,False,Value,right,right,344.1001670435071,Correct
1,22,232,A,12.136020112139509,32.40484415102914,0.6068010056069754,0.5090141016279766,B,85.08362481370568,Incorrect,5,7,big,small,False,Value,right,right,1031.13566711545,Correct
1,22,233,A,25.62303322069426,52.31876206879738,1.281151661034713,0.8218211928012309,A,824.8297912068665,Correct,8,4,small,big,False,Size,right,right,884.1374577023089,Correct
1,22,234,A,55.07522077858442,84.32979645561643,2.753761038929221,1.3246493451184358,B,307.90695920586586,Incorrect,6,2,small,big,False,Size,right,right,2882.3275421746075,Correct
1,22,235,A,30.513735571668008,41.90236785013204,1.5256867785834003,0.6582008550299597,B,1778.0529158189893,Incorrect,3,6,big,small,False,Size,left,left,11008.603125344962,Correct
1,22,236,B,37.860938811533245,19.43572357734498,1.8930469405766621,0.3052956320389446,B,2036.0407079569995,Correct,8,5,big,small,True,Size,left,left,1214.0866667032242,Correct
1,22,237,A,52.5607633873789,78.03860323446804,2.6280381693689447,1.2258275130890675,A,2605.4065828211606,Correct,6,2,small,big,False,Value,left,left,2438.574417028576,Correct
1,22,238,B,45.76961793396376,24.209440953736273,2.288480896698188,0.3802810092388687,A,6589.083792176098,Incorrect,6,3,big,small,True,Size,left,right,47.20745887607336,Incorrect
1,22,239,B,55.8357155212895,41.6670558322273,2.791785776064475,0.6545045824962051,B,438.11004096642137,Correct,5,8,small,big,True,Size,right,right,766.6457081213593,Correct
1,22,240,A,29.85179914255268,61.88952317510366,1.492589957127634,0.9721583567054045,B,4191.541749984026,Incorrect,6,4,small,big,False,Size,right,left,89.85533332452178,Incorrect
1,22,241,B,66.47963990246501,42.83796954542095,3.3239819951232503,0.6728972520929887,A,646.0692081600428,Incorrect,8,7,small,big,False,Value,left,right,155.05112474784255,Incorrect
1,22,242,B,67.06098040681854,57.97384537580788,3.353049020340927,0.9106510336649433,B,325.094582978636,Correct,4,8,big,small,False,Value,right,right,429.9457920715213,Correct
1,22,243,A,39.43007965993449,51.53421539675172,1.9715039829967247,0.8094975624947461,B,397.51712465658784,Incorrect,8,6,small,big,False,Value,left,left,203.8081670179963,Correct
1,22,244,B,85.07314146504305,66.37618362878266,4.253657073252152,1.0426346543075533,B,731.5196669660509,Correct,8,6,small,big,False,Value,left,right,1041.6040839627385,Incorrect
1,22,245,A,32.283465352697505,52.40622113635686,1.6141732676348752,0.8231949966219043,B,3.7648328579962254,Incorrect,5,3,small,big,False,Value,left,right,125.98404195159674,Incorrect
1,22,246,B,67.56250019922895,59.22046831399713,3.3781250099614475,0.9302329409870025,A,155.71016678586602,Incorrect,4,5,small,big,True,Size,right,left,94.03266664594412,Incorrect
1,22,247,A,37.30782786552779,63.997744524774305,1.8653913932763897,1.0052742202267368,A,79.91300011053681,Correct,3,4,big,small,False,Size,left,left,1176.1772092431784,Correct
1,22,248,A,52.83617594783307,66.36222569461229,2.6418087973916533,1.042415403590309,B,1635.6447082944214,Incorrect,7,2,small,big,False,Size,right,right,1473.3456247486174,Correct
1,22,249,A,35.701338434065676,64.75168191857011,1.785066921703284,1.0171170411148145,B,3197.571166791022,Incorrect,7,3,small,big,False,Size,right,right,4649.334583897144,Correct
1,22,250,B,37.297824614632475,27.548868120906018,1.8648912307316237,0.43273660851676193,B,415.71558406576514,Correct,2,3,small,big,True,Value,right,right,459.02695786207914,Correct
1,22,251,A,14.017457901997467,35.96740541188747,0.7008728950998733,0.5649746830533572,A,3768.7369999475777,Correct,8,2,small,big,False,Value,left,right,1098.156209103763,Incorrect
1,22,252,A,34.76839391075338,51.73399177446712,1.7384196955376692,0.8126356424977036,B,318.83220886811614,Incorrect,5,2,small,big,False,Value,left,right,610.3119170293212,Incorrect
1,22,253,A,47.370442212267655,54.50092516978008,2.3685221106133825,0.8560985306361407,B,1135.8415838330984,Incorrect,7,6,small,big,False,Size,right,left,1092.2095412388444,Incorrect
1,22,254,B,54.46066018603736,45.223989919511766,2.7230330093018678,0.7103767724857851,B,315.8657499589026,Correct,4,6,big,small,False,Value,right,left,285.4986251331866,Incorrect
1,22,255,B,49.03854476093328,34.535801330911,2.451927238046664,0.5424870987351329,B,0.9315828792750835,Correct,6,5,small,big,False,Size,right,left,2874.3057078681886,Incorrect
1,22,256,B,38.87564384607891,25.992019647433324,1.9437821923039453,0.4082816898816905,B,328.8707919418812,Correct,3,6,big,small,False,Size,left,left,142.47845811769366,Correct
1,22,257,A,43.238143516626195,61.93632996303339,2.1619071758313098,0.9728935960108953,B,12.549625243991613,Incorrect,6,7,small,big,True,Size,right,left,1692.6044579595327,Incorrect
1,22,258,A,27.282378744473753,52.995927710920085,1.3641189372236877,0.8324580858340115,B,4992.469499818981,Incorrect,3,2,small,big,False,Value,left,right,129.49541676789522,Incorrect
1,22,259,B,76.60402691370389,59.816653855034964,3.8302013456851944,0.9395978015665072,B,2123.886249959469,Correct,5,6,big,small,False,Value,right,right,4949.683625251055,Correct
1,22,260,B,61.61472636000312,31.623053983278865,3.0807363180001563,0.49673377038971167,A,798.4097921289504,Incorrect,4,8,big,small,False,Size,left,left,3954.1966659016907,Correct
1,22,261,B,84.37179360676086,69.35199494287428,4.218589680338043,1.0893785891216516,A,1758.8363327085972,Incorrect,3,6,big,small,False,Size,left,right,2238.7144998647273,Incorrect
1,22,262,B,59.422786703418616,29.729252011684157,2.9711393351709305,0.4669859985831327,A,5784.617625176907,Incorrect,6,8,big,small,False,Value,right,right,98.92733441665769,Correct
1,22,263,B,71.20846887563816,55.90699569154372,3.5604234437819082,0.8781850347441498,A,438.28854197636247,Incorrect,8,7,small,big,False,Size,right,left,-3.2806252129375935,Incorrect
1,22,264,B,80.17974511870838,51.14613986888262,4.00898725593542,0.8034016863577883,A,23.190540727227926,Incorrect,5,7,big,small,False,Value,right,right,914.6980000659823,Correct
1,22,265,B,33.93500009111587,13.75292420055786,1.6967500045557933,0.21603042816924925,B,49.81962498277426,Correct,4,2,small,big,False,Size,right,left,1853.3050827682018,Incorrect
1,22,266,B,77.82892335506487,56.5083650673356,3.891446167753244,0.8876313228095581,B,452.7726252563298,Correct,6,5,small,big,False,Size,right,right,1114.0295839868486,Correct
1,22,267,A,66.90028143457266,87.88831445633777,3.345014071728633,1.3805464151621019,A,448.3111249282956,Correct,7,2,small,big,False,Value,left,left,45.38579098880291,Correct
1,22,268,A,20.99495912389191,50.9146000091568,1.0497479561945955,0.7997646667461491,A,1606.5832911990583,Correct,5,6,big,small,False,Value,right,right,1363.3992075920105,Correct
1,22,269,A,47.06850872958165,77.15347281108933,2.3534254364790828,1.2119239169112903,B,338.55866687372327,Incorrect,4,6,big,small,False,Value,right,left,1446.6322497464716,Incorrect
1,22,270,A,35.7449462560218,61.14387157386721,1.7872473128010897,0.9604456887424951,B,4905.486082658172,Incorrect,7,6,small,big,False,Size,right,left,6539.305374957621,Incorrect
1,22,271,B,43.537578301499444,15.234792028547336,2.176878915074972,0.2393075535792633,B,59.12958271801472,Correct,7,2,big,small,True,Value,left,right,316.68891618028283,Incorrect
1,22,272,A,61.78930187202431,79.18400227636606,3.089465093601216,1.243819399166345,A,304.26316568627954,Correct,3,6,big,small,False,Value,right,right,1045.7142079249024,Correct
1,22,273,A,30.623662553413464,60.80982840094957,1.5311831276706733,0.9551985508523957,B,4692.663750145584,Incorrect,7,8,big,small,False,Value,right,left,71.74370810389519,Incorrect
1,22,274,B,76.04416264217642,44.87941278132809,3.8022081321088206,0.704964167456221,B,766.427000053227,Correct,7,5,small,big,False,Value,left,right,1342.0131248421967,Incorrect
1,22,275,A,31.20379541513519,59.94859466394183,1.5601897707567594,0.9416703229463597,A,33.661124762147665,Correct,8,6,small,big,False,Size,right,left,40.77012464404106,Incorrect
1,22,276,B,64.80836418760069,52.6704199262184,3.240418209380034,0.827345021508486,B,608.3213747479022,Correct,6,2,small,big,False,Size,right,right,854.5199171639979,Correct
1,22,277,B,51.048618716335746,31.757373658777624,2.5524309358167874,0.498843658918609,A,512.6647092401981,Incorrect,4,7,big,small,False,Value,right,right,559.7895421087742,Correct
1,22,278,A,40.65639022076299,54.142255490988916,2.0328195110381495,0.8504645604963621,A,719.8180840350688,Correct,5,3,small,big,False,Value,left,right,1274.4464999996126,Incorrect
1,22,279,B,32.73233072620529,14.213679357561517,1.6366165363102647,0.22326795325098076,A,28.95412500947714,Incorrect,4,6,big,small,False,Value,right,right,5176.727875135839,Correct
1,22,280,B,42.20144122603524,26.446505928796327,2.110072061301762,0.4154207436951272,A,2123.8371660001576,Incorrect,2,6,big,small,False,Value,right,left,5468.172832857817,Incorrect
1,22,281,B,48.97405564537071,26.373924944834233,2.448702782268535,0.4142806442650991,A,9038.217667024583,Incorrect,5,2,small,big,False,Value,left,right,200.13091573491693,Incorrect
1,22,282,B,68.01199220480264,39.87663262469308,3.400599610240132,0.6263806805181742,B,3688.9889580197632,Correct,2,4,big,small,False,Size,left,right,2010.6107499450445,Incorrect
1,22,283,A,18.108720779046656,42.87068156131289,0.9054360389523327,0.6734110912370399,A,206.3800417818129,Correct,5,2,small,big,False,Value,left,right,444.582708645612,Incorrect
1,22,284,A,46.52460577450064,67.05183687325548,2.326230288725032,1.0532477906536033,B,3967.3274168744683,Incorrect,2,8,big,small,False,Value,right,left,361.7429998703301,Incorrect
1,22,285,B,84.21360244836904,59.952523117682134,4.210680122418452,0.9417320309534123,A,183.87975031509995,Incorrect,8,6,small,big,False,Size,right,right,290.09358305484056,Correct
1,22,286,B,35.34711638590514,15.033158889678056,1.767355819295257,0.23614030764030336,B,3782.0161660201848,Correct,3,7,big,small,False,Value,right,left,1470.7498750649393,Incorrect
1,22,287,B,40.76633386779132,14.517934453890923,2.0383166933895662,0.22804718112820935,A,5017.593625001609,Incorrect,7,5,small,big,False,Value,left,right,780.2037913352251,Incorrect
1,22,288,A,29.544881687926388,40.67934740192534,1.4772440843963193,0.6389896947535785,A,4276.107707992196,Correct,7,6,small,big,False,Value,left,left,1011.0644167289138,Correct
1,22,289,A,13.761879186135445,30.525584559541244,0.6880939593067723,0.47949476099394395,B,3655.8125843293965,Incorrect,2,6,big,small,False,Size,left,right,1788.341584149748,Incorrect
1,22,290,A,59.53774117453415,76.43764259782358,2.9768870587267076,1.200679682215224,A,1459.9672080948949,Correct,7,4,small,big,False,Value,left,left,1707.8282916918397,Correct
1,22,291,A,50.11997751582927,61.969209200710644,2.5059988757914637,0.9734100618686079,B,4963.618624955416,Incorrect,4,5,big,small,False,Size,left,right,70.00829186290503,Incorrect
1,22,292,A,66.30842840517437,81.51302094284603,3.315421420258718,1.2804035388297803,B,231.01154202595353,Incorrect,6,5,small,big,False,Value,left,right,271.1115418933332,Incorrect
1,22,293,B,61.51824117141592,42.858039120254205,3.075912058570796,0.6732125042372729,B,2691.7482502758503,Correct,4,5,big,small,False,Size,left,right,3548.4473751857877,Incorrect
1,22,294,B,68.68801148857017,36.15914138679378,3.4344005744285084,0.5679864647043299,B,751.7230417579412,Correct,7,5,small,big,False,Value,left,right,1692.7629169076681,Incorrect
1,22,295,B,53.31451062836149,41.86682820423093,2.6657255314180746,0.6576425995775892,A,4232.865040656179,Incorrect,3,5,big,small,False,Size,left,left,28.825209010392427,Correct
1,22,296,B,88.22427996171636,66.10929232642283,4.4112139980858185,1.0384423355335504,B,1960.2261669933796,Correct,2,5,big,small,False,Value,right,right,2966.7754997499287,Correct
1,22,297,A,60.83417300648364,75.99371379520996,3.041708650324182,1.1937064648901847,A,937.8467076458037,Correct,2,6,big,small,False,Value,right,left,1275.6249587982893,Incorrect
1,22,298,B,73.61613446084635,50.372199455703466,3.6808067230423176,0.7912446587759889,B,4626.509291585535,Correct,6,3,small,big,False,Value,left,right,543.7715831212699,Incorrect
1,22,299,B,37.83052990019222,28.36038127757851,1.8915264950096111,0.44548382737323083,A,4217.8189172409475,Incorrect,7,4,small,big,False,Size,right,left,174.39354211091995,Incorrect
1,22,300,B,85.68722734727797,69.82624816476232,4.284361367363898,1.0968281413107754,B,3666.3660830818117,Correct,2,4,big,small,False,Value,right,right,70.79779217019677,Correct
1,22,301,B,51.265067510965736,38.73153160306254,2.563253375548287,0.608393475732311,A,1.5590409748256207,Incorrect,3,4,big,small,False,Size,left,right,293.04983420297503,Incorrect
1,22,302,A,33.04626454019702,44.35546702198403,1.6523132270098513,0.6967340467140469,A,3854.1166251525283,Correct,8,4,small,big,False,Size,right,right,67.08029098808765,Correct
1,22,303,B,80.56329360038212,59.71161369435014,4.028164680019106,0.9379478345808105,B,3639.0074999071658,Correct,7,8,small,big,True,Value,right,right,40.931417141109705,Correct
1,22,304,A,23.21237786635375,50.726227943422856,1.1606188933176875,0.7968057252568925,B,3506.481250282377,Incorrect,2,8,big,small,False,Value,right,left,76.78024983033538,Incorrect
1,22,305,B,54.414516485549804,36.3485536268941,2.72072582427749,0.5709617452143256,B,1145.526290871203,Correct,7,3,small,big,False,Size,right,left,597.3837496712804,Incorrect
1,22,306,A,42.9819633954524,59.20500508495373,2.14909816977262,0.929990045153185,B,10.431000031530857,Incorrect,7,2,small,big,False,Value,left,right,4310.25724997744,Incorrect
1,22,307,B,42.19605864022706,23.658447820444557,2.1098029320113527,0.37162602934023037,B,16561.18245795369,Correct,4,6,big,small,False,Value,right,left,4110.946082975715,Incorrect
1,22,308,B,44.304530517784585,16.222522448936928,2.2152265258892294,0.2548227867413788,B,7825.936540961266,Correct,8,6,small,big,False,Value,left,right,17825.987291987985,Incorrect
1,22,309,A,46.00967024686308,74.15022684805274,2.3004835123431544,1.1647490396392954,B,16579.140750225633,Incorrect,6,8,big,small,False,Value,right,left,1913.1443328224123,Incorrect
1,22,310,A,49.438414506027335,74.74339283848713,2.471920725301367,1.1740664692288356,A,2856.771499849856,Correct,7,2,big,small,True,Value,left,right,3080.7312089018524,Incorrect
1,22,311,A,56.2931298684105,80.99828090903637,2.814656493420525,1.2723180212861551,A,3873.77595808357,Correct,2,3,big,small,False,Value,right,right,7455.3099581971765,Correct
1,22,312,B,66.56103375656643,40.40027808255574,3.3280516878283213,0.6346060841357092,B,1142.696666996926,Correct,7,5,small,big,False,Size,right,left,1649.6144160628319,Incorrect
1,22,313,B,66.5971001459803,44.45894089473771,3.3298550072990154,0.6983594105064541,B,85.49066679552197,Correct,5,4,small,big,False,Size,right,right,1747.7355422452092,Correct
1,22,314,B,74.41925837037519,54.41085980144592,3.7209629185187594,0.8546837871386335,A,577.650791965425,Incorrect,3,4,big,small,False,Value,right,left,775.6044170819223,Incorrect
1,22,315,B,67.7269683880446,38.33779955950872,3.38634841940223,0.6022087472547529,A,1016.4451659657061,Incorrect,6,4,small,big,False,Value,left,right,879.2159999720752,Incorrect
1,22,316,A,28.222532220566134,50.310686584248806,1.4111266110283065,0.790278416850673,B,442.3977923579514,Incorrect,7,3,small,big,False,Value,left,right,1424.820624757558,Incorrect
1,22,317,B,62.33807368618333,47.2820738756944,3.1169036843091664,0.7427050796718571,B,8.038083091378212,Correct,6,8,big,small,False,Size,left,right,652.9442919418216,Incorrect
1,22,318,A,20.138841912445827,37.55395025819706,1.0069420956222914,0.589896071222142,A,55.07279094308615,Correct,7,5,big,small,True,Size,left,right,24.347582831978798,Incorrect
1,22,319,B,76.48445387003495,46.85780841416326,3.8242226935017474,0.7360407333862663,B,80.02450037747622,Correct,3,6,big,small,False,Size,left,right,1359.8902495577931,Incorrect
1,22,320,B,79.24609891978108,50.092089381215935,3.9623049459890534,0.7868447000149564,B,465.28566628694534,Correct,3,6,big,small,False,Value,right,left,64.4697081297636,Incorrect
1,22,321,A,24.46864137313363,53.39196219396425,1.2234320686566815,0.8386789809465102,B,1336.9119996204972,Incorrect,5,4,small,big,False,Size,right,left,1736.634542234242,Incorrect
1,22,322,A,44.113054444250245,63.045724933620356,2.205652722212512,0.9903199314585227,B,465.78224981203675,Incorrect,5,7,big,small,False,Size,left,left,1007.8889997676015,Correct
1,22,323,B,60.40058340378947,39.12733083193042,3.0200291701894737,0.61461067548085,B,952.0636252127588,Correct,6,4,small,big,False,Size,right,right,405.9056672267616,Correct
1,22,324,A,32.72876879559775,57.35065553494184,1.6364384397798875,0.9008619905356604,B,568.505416624248,Incorrect,3,2,small,big,False,Size,right,left,423.354874830693,Incorrect
1,22,325,B,87.60869273088088,61.2941729079957,4.380434636544043,0.9628066165781093,B,59.71174966543913,Correct,5,6,big,small,False,Value,right,right,497.5148751400411,Correct
1,22,326,B,71.89043360665762,48.057461624465574,3.594521680332881,0.7548848419479723,B,776.934249792248,Correct,8,6,small,big,False,Size,right,left,633.4481672383845,Incorrect
1,22,327,A,52.55506710407539,72.47483255658457,2.6277533552037697,1.1384320076495824,B,586.4489590749145,Incorrect,8,5,small,big,False,Size,right,left,1387.3227499425411,Incorrect
1,22,328,A,34.80835277701751,55.66350708930323,1.7404176388508756,0.8743603247239919,A,836.8787919171154,Correct,3,7,big,small,False,Size,left,left,792.0730840414762,Correct
1,22,329,A,31.44066621322441,64.14011509241848,1.5720333106612205,1.0075105718737285,B,1971.6193745844066,Incorrect,8,3,small,big,False,Value,left,right,383.4116249345243,Incorrect
1,22,330,A,30.308548082708562,50.42252442932162,1.515427404135428,0.7920351616130433,B,643.5537501238286,Incorrect,5,4,small,big,False,Value,left,right,901.3283750973642,Incorrect
1,22,331,B,87.13056323091553,67.95556370305543,4.356528161545777,1.067443498500361,A,651.467792224139,Incorrect,6,2,small,big,False,Size,right,left,1214.446249883622,Incorrect
1,22,332,B,64.49595508874027,40.21656195192348,3.224797754437014,0.631720277904008,B,418.34804229438305,Correct,8,7,small,big,False,Size,right,right,978.9080419577658,Correct
1,22,333,B,59.68327601264097,47.623467087209676,2.9841638006320483,0.748067671698266,B,438.95420897752047,Correct,4,8,big,small,False,Size,left,right,526.6472497023642,Incorrect
1,22,334,B,40.66856509224884,30.13849006510757,2.033428254612442,0.47341429489415454,B,754.8445831052959,Correct,2,5,big,small,False,Value,right,right,1151.4004999771714,Correct
1,22,335,B,45.45706266559905,18.41886017871309,2.2728531332799524,0.2893227791247131,B,1063.2098326459527,Correct,5,3,small,big,False,Size,right,left,12557.979833334684,Incorrect
1,22,336,B,39.61382028959767,23.577088483383754,1.9806910144798835,0.37034803986217457,A,1303.610083181411,Incorrect,3,5,big,small,False,Value,right,right,965.808208566159,Correct
1,22,337,B,51.94300005012519,31.896320160845214,2.5971500025062597,0.5010262254692966,B,3792.7753748372197,Correct,3,2,big,small,True,Value,left,left,1452.723582740873,Correct
1,22,338,B,57.04566022801112,43.74612398813335,2.8522830114005564,0.6871625087207398,A,4964.568915776908,Incorrect,8,4,small,big,False,Value,left,right,2986.7867501452565,Incorrect
1,22,339,A,39.395497039513245,68.0180208681254,1.9697748519756624,1.0684245733550999,A,6513.691707979888,Correct,5,7,big,small,False,Size,left,left,51.99975008144975,Correct
1,22,340,A,11.38745413732551,31.68780773363425,0.5693727068662754,0.49775091992175596,B,3667.7982923574746,Incorrect,5,4,small,big,False,Value,left,right,109.97649980708957,Incorrect
1,22,341,A,48.2666583950478,79.80283305542102,2.41333291975239,1.253539970312817,B,23.85391714051366,Incorrect,3,8,big,small,False,Size,left,left,1198.331749998033,Correct
1,22,342,B,57.09122035055634,39.75707140866771,2.854561017527817,0.6245026173285764,A,1012.0215839706361,Incorrect,3,7,big,small,False,Size,left,left,10363.31708310172,Correct
1,22,343,B,53.219320054261544,37.388352846527305,2.660966002713077,0.5872948731623661,B,59.1490832157433,Correct,5,4,small,big,False,Size,right,left,862.0361248031259,Incorrect
1,22,344,B,61.9856804780304,39.833567758809906,3.0992840239015202,0.6257042191867421,A,2544.9942499399185,Incorrect,4,8,big,small,False,Size,left,left,1803.9607079699636,Correct
1,22,345,B,79.87212204016515,63.79259771623681,3.9936061020082576,1.002051781693693,A,10508.07858305052,Incorrect,6,7,big,small,False,Value,right,left,4689.464833121747,Incorrect
1,22,346,B,78.31311826696104,53.922107997385865,3.9156559133480524,0.8470064917533142,A,1092.7247498184443,Incorrect,5,2,small,big,False,Size,right,left,3386.656832881272,Incorrect
1,22,347,B,68.74763630919301,41.14772045153717,3.4373818154596507,0.6463468814125783,A,3138.4578747674823,Incorrect,5,2,small,big,False,Size,right,left,3685.514665674418,Incorrect
1,22,348,A,52.893592995146285,80.86594383627798,2.644679649757314,1.2702392754082785,B,4522.187042050064,Incorrect,4,5,big,small,False,Size,left,left,8264.936834108084,Correct
1,22,349,B,31.1869519168595,12.20307085939147,1.559347595842975,0.19168538881549962,A,10938.326666131616,Incorrect,5,4,small,big,False,Value,left,left,12979.823749978095,Correct
1,22,350,A,62.01035798567555,80.26026391899889,3.100517899283777,1.2607252775155242,A,14439.602874685079,Correct,5,3,small,big,False,Size,right,right,28325.13279095292,Correct
1,22,351,B,76.87844797705596,44.527160713908714,3.8439223988527975,0.6994310049201383,B,31772.132833022624,Correct,6,2,small,big,False,Value,left,left,878.5515832714736,Correct
1,22,352,B,53.619244899413665,23.762159152594766,2.680962244970683,0.3732551231361159,B,4247.485958039761,Correct,3,7,big,small,False,Size,left,right,501.6437079757452,Incorrect
1,22,353,B,79.10198638764786,52.077457837293096,3.9550993193823927,0.818030794796361,A,244.58687473088503,Incorrect,5,3,big,small,True,Value,left,right,20398.13237544149,Incorrect
1,22,354,A,57.414979672078154,79.35829281138857,2.8707489836039075,1.24655714848843,A,24042.019959073514,Correct,6,5,small,big,False,Size,right,right,545.293957926333,Correct
1,22,355,B,55.31908989027474,25.2856991546504,2.7659544945137373,0.3971868335256567,B,8634.079999756068,Correct,3,5,big,small,False,Size,left,left,22878.350540995598,Correct
1,22,356,A,68.10875360076301,83.01991940690804,3.4054376800381503,1.3040738445517952,B,59.037667233496904,Incorrect,3,8,big,small,False,Size,left,left,3969.8852919973433,Correct
1,22,357,B,54.42750682511816,28.72161065971347,2.7213753412559076,0.45115800523911065,B,7425.972292199731,Correct,5,3,small,big,False,Size,right,right,103.90337510034442,Correct
1,22,358,A,45.24578785195301,67.82669411282431,2.262289392597651,1.0654192197106547,B,3845.6999170593917,Incorrect,4,5,big,small,False,Value,right,right,26496.430916246027,Correct
1,22,359,A,47.22890839249012,63.60938788262818,2.361445419624506,0.9991739283570416,B,30025.311790872365,Incorrect,2,4,big,small,False,Value,right,right,9654.412708245218,Correct
1,22,360,B,84.07244261478334,65.52795498865474,4.203622130739166,1.0293107099856018,A,3725.3087498247623,Incorrect,8,5,small,big,False,Value,left,left,3453.3179998397827,Correct
1,22,361,B,47.25236319869225,22.555425881636612,2.3626181599346125,0.3542998012416933,B,6720.466583035886,Correct,2,4,big,small,False,Size,left,left,3792.915124911815,Correct
1,22,362,A,21.611858581051038,34.407252207710755,1.080592929052552,0.5404678538297765,B,1174.1540422663093,Incorrect,4,2,small,big,False,Value,left,right,833.0249590799212,Incorrect
1,22,363,B,42.886337301353386,27.542909353925964,2.1443168650676694,0.43264300842391706,A,110.12258287519217,Incorrect,5,8,big,small,False,Value,right,right,140.9642919898033,Correct
1,22,364,A,44.10628493709698,59.34138853256015,2.205314246854849,0.9321323513385429,A,3587.8564580343664,Correct,8,5,small,big,False,Value,left,left,23.331708274781704,Correct
1,22,365,B,48.159237049949134,33.23226370330654,2.4079618524974564,0.5220111775623328,A,1086.0589579679072,Incorrect,8,5,small,big,False,Value,left,right,3105.5474169552326,Incorrect
1,22,366,B,77.50914379154443,59.655150264934434,3.8754571895772214,0.937060909105566,B,6571.522333659232,Correct,8,7,small,big,False,Size,right,right,558.7759581394494,Correct
1,22,367,B,79.69790195008613,52.8687395757222,3.9848950975043067,0.8304602192782042,A,-0.16412511467933655,Incorrect,4,3,small,big,False,Value,left,left,643.8894998282194,Correct
1,22,368,B,71.88899803428865,39.79890828758143,3.5944499017144325,0.6251597894857988,A,154.8432083800435,Incorrect,5,6,small,big,True,Value,right,left,164.72554206848145,Incorrect
1,22,369,B,67.34007334679742,58.90888856563315,3.3670036673398713,0.9253386577446643,B,3491.580457892269,Correct,5,7,big,small,False,Value,right,left,127.87816720083356,Incorrect
1,22,370,A,46.262265673756076,74.86278274313871,2.313113283687804,1.1759418414656668,B,45.626749750226736,Incorrect,8,3,small,big,False,Value,left,right,137.40595802664757,Incorrect
1,22,371,A,31.485065761149436,52.28934550078677,1.5742532880574718,0.8213591184314509,B,3474.319249857217,Incorrect,5,6,big,small,False,Value,right,right,617.6213338039815,Correct
1,22,372,B,59.53482563484267,43.248843653982476,2.9767412817421337,0.6793512474980244,B,2590.0597078725696,Correct,5,3,small,big,False,Value,left,left,480.69849982857704,Correct
1,22,373,A,25.997595379928836,55.87814271802968,1.2998797689964416,0.8777318132960201,A,225.44695902615786,Correct,6,2,small,big,False,Size,right,left,4406.940707936883,Incorrect
1,22,374,A,51.68431148070948,63.680305547694104,2.584215574035474,1.0002879004349456,A,460.38037491962314,Correct,6,4,small,big,False,Value,left,left,1366.434333845973,Correct
1,22,375,A,22.323003878024032,34.2302525661123,1.1161501939012015,0.5376875499611078,B,410.3226661682129,Incorrect,4,3,small,big,False,Size,right,right,550.8961658924818,Correct
1,22,376,A,20.874656189936445,51.11051496069855,1.0437328094968223,0.802842091608609,B,1046.8653752468526,Incorrect,4,7,big,small,False,Value,right,left,640.9287499263883,Incorrect
1,22,377,B,32.00028101011856,13.753886115954199,1.6000140505059282,0.21604553790096181,B,4272.348291706294,Correct,8,5,small,big,False,Value,left,right,177.16412525624037,Incorrect
1,22,378,B,68.64912021526503,52.538314840046475,3.432456010763252,0.8252699196673879,B,1577.740500215441,Correct,4,2,small,big,False,Value,left,left,3778.8148750551045,Correct
1,22,379,A,25.384002951229945,55.88666735492856,1.2692001475614973,0.8778657179793004,A,1624.6104589663446,Correct,8,4,small,big,False,Size,right,left,8201.032707933336,Incorrect
1,22,380,B,72.00262909464482,54.92320638830497,3.600131454732241,0.8627317085054743,B,4628.226625267416,Correct,2,8,big,small,False,Size,left,right,979.9432498402894,Incorrect
1,22,381,A,48.96488450657252,76.92360870014475,2.448244225328626,1.208313219899953,A,1141.5088339708745,Correct,8,6,small,big,False,Value,left,left,1477.342332713306,Correct
1,22,382,A,37.05314516172298,47.06178721199612,1.852657258086149,0.7392448248500654,B,2237.1703325770795,Incorrect,4,5,big,small,False,Value,right,left,1785.2225000970066,Incorrect
1,22,383,B,45.15600824137826,16.674062568884334,2.257800412068913,0.2619155623595179,A,1420.6258752383292,Incorrect,6,8,big,small,False,Value,right,left,6141.179999802262,Incorrect
