subject,day,trial,cat,x,y,xt,yt,resp,rt,fb
7,3,0,A,55.979736656659725,81.0310132847716,2.7989868328329863,1.2728321802418772,A,1608.2263329881243,Correct
7,3,1,B,79.06089437317264,53.975500503261856,3.953044718658632,0.8478451792743982,B,987.770124047529,Correct
7,3,2,A,54.17057986200619,67.68773599131664,2.70852899310031,1.0632364706422288,A,781.4345830120146,Correct
7,3,3,B,43.617787376193284,22.59387133466493,2.180889368809664,0.3549037010056818,B,935.6259580235928,Correct
7,3,4,A,56.066902928465794,64.81449995335117,2.8033451464232892,1.0181037844977203,A,803.8320419727825,Correct
7,3,5,A,20.263092873383446,33.19423170387828,1.0131546436691723,0.5214137723123071,A,549.9819579999894,Correct
7,3,6,A,22.22186963372253,47.55572288985572,1.1110934816861266,0.7470035483346135,A,575.9321249788627,Correct
7,3,7,A,43.366351744707124,71.27544160159206,2.168317587235356,1.1195920185846497,A,596.4402910321951,Correct
7,3,8,A,38.96104034421249,70.12767024327506,1.9480520172106248,1.1015628682482024,A,847.3186250193976,Correct
7,3,9,A,30.217393369166192,43.09966938140031,1.5108696684583096,0.6770080235037809,B,762.9882079781964,Incorrect
7,3,10,B,60.65334647267177,36.81007991542313,3.032667323633589,0.5782113832017326,B,531.8512080120854,Correct
7,3,11,A,15.14009875883524,37.42887066721926,0.7570049379417619,0.5879313256014925,A,447.66866602003574,Correct
7,3,12,A,26.076681310158833,56.64079878870309,1.3038340655079417,0.8897115868402364,A,740.3750410303473,Correct
7,3,13,B,47.6908643766454,25.100788338375988,2.38454321883227,0.3942822612157718,B,738.0384990246966,Correct
7,3,14,A,17.01153711630335,41.31148111008992,0.8505768558151675,0.6489192278218601,A,520.815541036427,Correct
7,3,15,B,43.34943878058621,24.824213682924135,2.1674719390293107,0.3899378366870884,B,545.8386249956675,Correct
7,3,16,B,84.443311032995,66.64789610673193,4.222165551649749,1.0469027039306242,B,2330.2645420189947,Correct
7,3,17,B,68.35959932098626,58.52817610165222,3.4179799660493133,0.9193584403448015,B,2076.2747499975376,Correct
7,3,18,B,62.121150754714265,38.899845320891686,3.1060575377357136,0.611037341429463,B,638.2069159881212,Correct
7,3,19,A,59.057954435999235,76.31478009314722,2.952897721799962,1.1987497625047596,A,670.8263329928741,Correct
7,3,20,B,57.90599371414682,49.57575507496207,2.8952996857073408,0.7787341396983387,B,1425.5011670175008,Correct
7,3,21,B,60.334760189996864,42.66675048914505,3.016738009499843,0.6702077494462341,B,780.8124579605646,Correct
7,3,22,B,37.849446742274814,13.12331139102086,1.8924723371137406,0.2061404932840119,B,958.8252079556696,Correct
7,3,23,A,19.044889022089354,48.450439212282575,0.9522444511044676,0.761057719462529,B,1087.78387500206,Incorrect
7,3,24,B,58.03794919037046,46.44084546150151,2.901897459518523,0.7294910946417602,B,748.3117489609867,Correct
7,3,25,A,68.81762535192485,87.66774786381961,3.440881267596242,1.3770817632286898,B,624.2965829442255,Incorrect
7,3,26,A,25.02732188764743,42.20461559707309,1.2513660943823717,0.6629485515367299,A,598.2532079797238,Correct
7,3,27,B,61.62159066278169,51.12194533573624,3.081079533139085,0.8030216395198397,A,1341.151416010689,Incorrect
7,3,28,B,36.87155292779961,11.80553094296091,1.8435776463899805,0.1854408464106649,B,858.7114170077257,Correct
7,3,29,A,42.23946467825193,67.25778627183503,2.1119732339125963,1.0564828362415468,A,1266.458333004266,Correct
7,3,30,A,40.72175528222307,69.52412213290229,2.036087764111153,1.0920823567000268,A,811.5104999742471,Correct
7,3,31,B,33.85895465683673,20.57023311579647,1.6929477328418363,0.3231164661960783,B,794.3379580392502,Correct
7,3,32,B,39.93584032868242,20.568133791205295,1.9967920164341209,0.3230834900825127,B,722.5740419817157,Correct
7,3,33,B,61.18271793225351,50.764594060707914,3.0591358966126756,0.7974083788179402,B,1114.628040988464,Correct
7,3,34,A,23.20627263344019,34.499483047610006,1.1603136316720095,0.541916612475086,A,534.3136249575764,Correct
7,3,35,B,51.55890708807458,28.75442181620255,2.577945354403729,0.45167340168002007,B,991.014625004027,Correct
7,3,36,B,35.28313338786867,16.355437083106416,1.7641566693934336,0.25691060493268597,B,991.9699169695377,Correct
7,3,37,B,61.63664811983301,34.69058605986895,3.0818324059916504,0.5449184515720439,B,1287.9072909709066,Correct
7,3,38,B,86.83529987937506,68.49125611693671,4.341764993968753,1.0758581352605268,B,995.3731240238994,Correct
7,3,39,A,61.89828855230529,79.62324454988752,3.0949144276152647,1.250719000664551,A,2062.87808297202,Correct
7,3,40,A,23.013042269538882,34.172222627358316,1.150652113476944,0.5367760178147188,A,594.655541004613,Correct
7,3,41,B,71.66455800892516,47.55530855997241,3.583227900446258,0.7469970400560255,B,738.8437920017168,Correct
7,3,42,A,23.89508262101789,54.30944584550247,1.1947541310508947,0.8530907804438163,A,623.7721240031533,Correct
7,3,43,B,47.72113199660144,35.745875701195146,2.3860565998300722,0.5614949024950427,B,1348.4482080093585,Correct
7,3,44,A,64.879716648666,77.08462811958776,3.2439858324333,1.2108425070259907,A,1195.0064999982715,Correct
7,3,45,A,57.91237332584535,75.55751425188555,2.8956186662922674,1.1868546584861486,A,989.2061660066247,Correct
7,3,46,A,39.96539760689491,60.93057958075479,1.9982698803447454,0.9570953059493373,A,994.45833300706,Correct
7,3,47,B,86.80883945753652,68.76524635053835,4.340441972876826,1.080161963785718,B,1204.1294160299003,Correct
7,3,48,A,29.339992179191576,41.8626618051551,1.4669996089595787,0.6575771539339464,A,2688.3981240098365,Correct
7,3,49,A,46.56588843248707,76.72254161737939,2.3282944216243537,1.2051548655494813,A,1244.320957979653,Correct
7,3,50,A,41.00320291640975,58.63922375276246,2.0501601458204872,0.9211027727694332,A,1438.7513330439106,Correct
7,3,51,A,50.380967979587794,71.44191388042182,2.5190483989793897,1.1222069590256394,B,1602.0057910354808,Incorrect
7,3,52,B,78.73612594913442,61.49809876528022,3.936806297456721,0.9660098764537193,B,672.650207998231,Correct
7,3,53,B,54.608294582994496,47.54576741750031,2.7304147291497247,0.7468471681405396,B,1450.1767490291968,Correct
7,3,54,B,48.193127921096305,32.075081647915425,2.409656396054815,0.5038342043419195,B,1453.6117909592576,Correct
7,3,55,A,15.355848479519661,44.74824642850831,0.7677924239759831,0.702903811204137,A,638.9908739947714,Correct
7,3,56,A,28.22626259221507,58.55115152195187,1.4113131296107533,0.9197193374029341,A,958.8348750257865,Correct
7,3,57,B,50.5201013647559,35.5443293079714,2.526005068237795,0.5583290191534966,B,786.5251249750145,Correct
7,3,58,A,34.21950592929349,55.91768033692589,1.7109752964646745,0.878352868761344,A,965.401916007977,Correct
7,3,59,A,57.52144423529223,84.06174922731587,2.876072211764612,1.3204388691022153,B,1002.1776250214316,Incorrect
7,3,60,B,43.413003936062964,34.129281058441045,2.170650196803148,0.5361014932274982,B,885.3283330099657,Correct
7,3,61,A,19.87172303729304,43.64386553202803,0.993586151864652,0.6855562366484003,A,568.0266239796765,Correct
7,3,62,B,59.57836240912978,28.06003505763516,2.9789181204564894,0.4407659999826934,B,895.561458019074,Correct
7,3,63,B,49.99756607304115,25.061742526128313,2.4998783036520575,0.3936689310312181,B,645.4686249489896,Correct
7,3,64,A,63.90222905590359,82.46981128006645,3.19511145279518,1.2954327663019671,B,935.5968750314787,Incorrect
7,3,65,B,39.708930258388314,16.108092168381216,1.9854465129194157,0.25302532009766854,B,655.0579580361955,Correct
7,3,66,B,51.99562824209309,39.14149929315316,2.599781412104654,0.6148332331493003,B,1735.4226669995114,Correct
7,3,67,B,34.07890252002987,10.444596699123693,1.7039451260014937,0.164063341298376,B,787.9427499719895,Correct
7,3,68,B,45.38374438183418,36.42738549154933,2.269187219091709,0.572200033248674,A,839.7317500202917,Incorrect
7,3,69,A,26.22477924739139,51.31098838072454,1.3112389623695693,0.8059911207265772,A,620.435125019867,Correct
7,3,70,B,58.56548584929471,41.04032357497533,2.9282742924647356,0.6446598952204525,B,944.8854170041159,Correct
7,3,71,B,49.20933770458879,22.429394782785725,2.4604668852294393,0.3523201093703244,B,612.6404579845257,Correct
7,3,72,B,47.853900015267655,36.08370425194397,2.3926950007633825,0.5668015009610698,A,1366.2041670177132,Incorrect
7,3,73,A,51.16553527881112,71.96342083124631,2.558276763940556,1.1303987710531704,A,1160.5631249840371,Correct
7,3,74,A,64.10787076384028,76.02973919147817,3.2053935381920144,1.194272350491479,B,1084.3482490163296,Incorrect
7,3,75,A,51.703935979967085,71.12371591226352,2.585196798998354,1.1172087170298728,A,3541.4831660455093,Correct
7,3,76,A,35.85918749518226,58.03759154747065,1.792959374759113,0.9116523561878942,A,733.8949580444023,Correct
7,3,77,B,84.9826893334626,55.87474639147736,4.24913446667313,0.8776784639232904,B,691.6793750133365,Correct
7,3,78,B,36.43704589364924,11.387235152699738,1.821852294682462,0.17887027150210472,B,687.7323749940842,Correct
7,3,79,A,60.72796129393182,86.54143342129518,3.036398064696591,1.3593896573373558,A,765.8807080006227,Correct
7,3,80,A,66.05209714883247,79.03491308349581,3.3026048574416236,1.2414775116010912,A,1119.1015830263495,Correct
7,3,81,A,53.2048345957535,76.00259601861953,2.6602417297876753,1.19384598652924,A,636.973999964539,Correct
7,3,82,B,46.6013545543388,33.17019861897369,2.3300677277169397,0.5210362614974102,B,1110.7271669898182,Correct
7,3,83,A,47.30864104593184,67.07594152560971,2.365432052296592,1.05362642564737,A,934.3160829739645,Correct
7,3,84,A,19.686532274542444,37.148905083719285,0.9843266137271222,0.5835336364995851,A,518.9247910166159,Correct
7,3,85,A,46.28498932497757,72.73138874003581,2.314249466248879,1.1424619827553995,A,916.9107910129242,Correct
7,3,86,B,76.99933491243101,54.626415345441586,3.84996674562155,0.8580697257059201,B,888.8189169811085,Correct
7,3,87,A,39.61735667079495,66.14138047093097,1.9808678335397474,1.0389463749288206,A,903.9418749744073,Correct
7,3,88,B,81.18994935001942,60.37789940824694,4.059497467500972,0.9484138261006605,B,1718.055541976355,Correct
7,3,89,A,40.842703695161866,53.596052945394455,2.0421351847580933,0.8418848309733039,A,753.0424169963226,Correct
7,3,90,A,38.903444278616604,62.08764639760538,1.9451722139308303,0.9752704690069892,A,664.4184170290828,Correct
7,3,91,A,51.796244080449085,72.02078314331666,2.5898122040224543,1.1312998161441363,A,696.4434170513414,Correct
7,3,92,A,19.812255156153494,47.389769392852244,0.9906127578076748,0.7443967568994952,A,569.6851239772514,Correct
7,3,93,B,55.29694782226843,23.56042195456478,2.7648473911134217,0.370086242639682,B,821.9478749670088,Correct
7,3,94,A,10.927020767999402,36.570151015924104,0.5463510383999701,0.5744425888614823,A,463.39658298529685,Correct
7,3,95,A,22.375355667730812,44.32670894062548,1.1187677833865406,0.69628231582841,A,605.3949159686454,Correct
7,3,96,A,47.05099994773552,73.57017177718969,2.352549997386776,1.1556375558927912,A,975.1730830175802,Correct
7,3,97,B,48.66670236601836,26.502214547363128,2.4333351183009184,0.4162958126292828,B,1611.0882079810835,Correct
7,3,98,A,66.8000788041057,84.54025624309622,3.3400039402052846,1.3279552397295487,A,1809.0630000224337,Correct
7,3,99,A,60.75805166228732,70.07880846821342,3.037902583114366,1.1007953492803275,A,516.790832974948,Correct
7,3,100,B,76.37452132980074,46.82011831103121,3.8187260664900373,0.7354486986307032,B,875.1962499809451,Correct
7,3,101,A,40.84535913949056,59.64842065666803,2.0422679569745283,0.9369552006661097,A,890.3417080291547,Correct
7,3,102,B,56.8188133759613,25.075151033692386,2.840940668798065,0.3938795513755125,B,890.0941670290194,Correct
7,3,103,B,40.16470508101864,22.24597646483854,2.008235254050932,0.349438981169341,B,993.2949999929406,Correct
7,3,104,A,39.52611245091487,72.26409288214388,1.9763056225457436,1.1351217165843686,A,751.0342079913244,Correct
7,3,105,A,66.47505865662768,78.72605625884387,3.323752932831384,1.2366259999444031,A,996.9392080092803,Correct
7,3,106,A,27.62269012996215,40.53815147707125,1.3811345064981078,0.6367717943523863,A,531.1482500401326,Correct
7,3,107,B,44.9917306682204,19.41069876636385,2.2495865334110197,0.3049025432272656,B,644.8266659863293,Correct
7,3,108,A,57.298166943333605,77.10715341018766,2.86490834716668,1.2111963334633336,A,1162.4230419984087,Correct
7,3,109,A,55.76032069722132,64.55005018611158,2.7880160348610663,1.013949817267703,A,965.1859169825912,Correct
7,3,110,A,39.572850379282464,54.82293749039802,1.9786425189641232,0.8611566883402344,A,781.8932909867726,Correct
7,3,111,B,63.7939995981498,41.353764530900094,3.18969997990749,0.6495834142427895,B,1621.2780000059865,Correct
7,3,112,B,46.96331321805933,17.919391465138013,2.3481656609029664,0.2814771429183861,B,602.4583330145106,Correct
7,3,113,B,44.636981083436055,17.532373166747035,2.231849054171803,0.27539787370323654,B,1320.9451250149868,Correct
7,3,114,A,39.25186462971223,64.01975809403885,1.9625932314856116,1.005620008564141,A,904.2606240254827,Correct
7,3,115,B,86.12171158894525,62.45929218472506,4.306085579447262,0.9811082673797532,B,843.2791240047663,Correct
7,3,116,A,51.11490304421967,66.61604851959251,2.5557451522109833,1.0464024432016652,A,683.2563749630935,Correct
7,3,117,B,43.54835012905214,20.988928484427404,2.177417506452607,0.3296933176669934,B,651.5765420044772,Correct
7,3,118,B,85.28294750214705,62.532137503036374,4.264147375107353,0.9822525189640293,B,650.1290830201469,Correct
7,3,119,A,52.726499557662585,61.894633206595394,2.6363249778831293,0.9722386248923749,A,651.4021240291186,Correct
7,3,120,B,64.02222538505565,34.10442150921996,3.2011112692527828,0.5357110003414758,A,2234.0424159774557,Incorrect
7,3,121,A,19.271439605299502,39.177477771163645,0.9635719802649751,0.6153983817603256,A,555.0867489655502,Correct
7,3,122,B,50.61245906808463,37.38240613507467,2.5306229534042317,0.587201462437303,A,706.069000007119,Incorrect
7,3,123,A,37.65213269470368,61.48915291509549,1.882606634735184,0.965869355367617,A,685.4648739681579,Correct
7,3,124,A,56.73770075036235,74.19493074504335,2.8368850375181176,1.1654512468111584,A,806.979123968631,Correct
7,3,125,A,25.130250940113775,37.9642567423155,1.2565125470056886,0.5963411504032757,A,600.7481659762561,Correct
7,3,126,A,52.83261448097653,79.32833038653538,2.6416307240488264,1.2460864998194177,A,2547.6118329679593,Correct
7,3,127,A,12.814537259544384,30.09597684520762,0.6407268629772191,0.4727464987975638,A,874.2741660098545,Correct
7,3,128,A,60.83776248353604,84.337377613028,3.041888124176802,1.324768429660585,A,1232.578166993335,Correct
7,3,129,B,49.003541256981144,29.062835315743698,2.450177062849057,0.456517949602152,A,2225.525999965612,Incorrect
7,3,130,A,48.11436358956533,67.14244090664599,2.4057181794782663,1.0546709954820292,A,874.9700830085203,Correct
7,3,131,A,11.865594836325414,34.3438744124099,0.5932797418162707,0.5394723177491871,A,599.0530000417493,Correct
7,3,132,B,64.2259860780575,44.04878138702785,3.211299303902875,0.6919166400253476,B,1091.545916046016,Correct
7,3,133,B,68.28461698214767,52.84072313883509,3.4142308491073834,0.8300201381166824,B,750.1961249508895,Correct
7,3,134,A,56.64177022997146,71.48116050322432,2.832088511498573,1.122823443535012,A,758.8908330071718,Correct
7,3,135,B,60.72730456535595,52.28048864306429,3.0363652282677975,0.8212199952356769,A,1157.894041039981,Incorrect
7,3,136,A,19.928771984039265,49.61316865835513,0.9964385992019632,0.7793218308919992,A,804.6125409891829,Correct
7,3,137,A,46.27019001681847,71.27903548606581,2.3135095008409237,1.1196484711899524,A,832.1103329653852,Correct
7,3,138,A,45.6415959087606,62.83323204198804,2.28207979543803,0.986982100922062,A,482.8156240400858,Correct
7,3,139,A,32.72279959092418,52.36549823668436,1.636139979546209,0.8225553228096842,A,781.2800420215353,Correct
7,3,140,A,49.84726041699018,69.29786019759726,2.4923630208495093,1.0885282425313203,A,673.4087909571826,Correct
7,3,141,A,40.48161720689983,65.61109764562372,2.0240808603449914,1.03061671178727,A,629.8183749895543,Correct
7,3,142,A,60.419111315145464,81.89465807618741,3.020955565757273,1.2863982809019918,A,846.9970829901285,Correct
7,3,143,B,67.99620212943735,49.3272843910326,3.3998101064718673,0.7748311713220125,B,708.9067079941742,Correct
7,3,144,B,81.49189339643067,58.95773854204442,4.074594669821534,0.9261059913797727,B,2054.996332968585,Correct
7,3,145,B,45.31376635799607,19.9125990356186,2.2656883178998037,0.31278637422089295,B,899.5728330337442,Correct
7,3,146,A,51.18414209152894,76.79400748268155,2.559207104576447,1.2062774487365597,A,684.7778329974972,Correct
7,3,147,B,54.1925148272482,29.140406565877264,2.70962574136241,0.45773643594989893,B,1032.668708008714,Correct
7,3,148,B,37.46172588819528,26.71004815179944,1.873086294409764,0.41956045525361374,B,1970.0502919731662,Correct
7,3,149,B,51.629989819622544,43.79724008340777,2.581499490981127,0.6879654384677114,A,1712.269124982413,Incorrect
7,3,150,A,62.259491219700166,80.24717027468901,3.1129745609850086,1.2605196030316612,B,1311.9351670029573,Incorrect
7,3,151,A,30.16435719256389,47.33721015070681,1.5082178596281945,0.7435711582544834,A,737.7002499997616,Correct
7,3,152,B,59.76434363569326,40.05301176633487,2.988217181784663,0.6291512375963159,B,960.8634579926729,Correct
7,3,153,A,26.38490174184622,44.01921976870064,1.3192450870923111,0.6914522872105225,A,923.2737079728395,Correct
7,3,154,B,58.14815326108871,27.653557099759865,2.907407663054436,0.4343810591511573,B,908.4297079825774,Correct
7,3,155,B,41.37965774763377,24.421733126758504,2.0689828873816882,0.38361568689477504,B,877.0401660003699,Correct
7,3,156,A,39.85407570253558,70.78323995560827,1.992703785126779,1.111860533209112,A,993.6615410260856,Correct
7,3,157,A,33.76777749974436,42.348843558614206,1.6883888749872182,0.6652140790588292,A,1926.5849579824135,Correct
7,3,158,B,59.26190844890535,32.747161762375306,2.9630954224452677,0.5143912140929742,B,1331.8457909626886,Correct
7,3,159,B,54.68887891840024,33.29493509259817,2.7344439459200123,0.522995617443277,B,642.3484160332009,Correct
7,3,160,A,56.65880814429787,67.1511002933138,2.8329404072148936,1.05480701680973,A,816.015749995131,Correct
7,3,161,A,18.37564316544381,39.848332839894496,0.9187821582721907,0.6259361485380672,A,539.2334579955786,Correct
7,3,162,B,81.47997005503798,67.81021614210138,4.073998502751899,1.0651603843518085,B,738.4752910002135,Correct
7,3,163,B,78.65696836704869,62.517860172853844,3.932848418352435,0.9820282511859577,B,845.6458740402013,Correct
7,3,164,A,40.930096295990516,69.29880145841767,2.0465048147995257,1.088543027821713,A,1104.748041019775,Correct
7,3,165,A,49.216826574833355,69.03921215924113,2.460841328741668,1.0844654086454955,A,956.500792002771,Correct
7,3,166,B,56.35169466223811,31.67400049543757,2.8175847331119055,0.4975340363313307,B,657.76733297389,Correct
7,3,167,B,36.68077921779324,10.916072319790718,1.8340389608896617,0.17146926302954707,B,696.2123749544844,Correct
7,3,168,A,62.48436624239045,75.96557944554436,3.1242183121195226,1.1932645315590698,A,1022.2459579817951,Correct
7,3,169,B,78.43447199632386,59.91373864646518,3.9217235998161932,0.9411228059041693,B,739.8229160462506,Correct
7,3,170,A,30.56081070906668,45.08471018071162,1.528040535453334,0.7081889714647428,A,692.3199990415014,Correct
7,3,171,A,45.758826266840295,61.927589737376714,2.2879413133420146,0.9727563048673267,A,519.4158329977654,Correct
7,3,172,B,56.640890856058135,28.044345021662565,2.832044542802907,0.44051954147396294,B,1194.4274579873309,Correct
7,3,173,B,66.43072789543005,36.524679765524695,3.3215363947715026,0.5737283281304608,B,1453.2267490285449,Correct
7,3,174,B,68.03023901262793,52.32026591304466,3.4015119506313964,0.8218448151314278,A,1462.3385000159033,Incorrect
7,3,175,A,31.788865841159335,54.906129527582706,1.5894432920579669,0.8624634658045172,A,350.7345410180278,Correct
7,3,176,B,55.24833689354715,32.61408186400586,2.7624168446773574,0.5123007999376845,B,754.5997079578228,Correct
7,3,177,A,18.884016217130895,34.21331878098812,0.9442008108565447,0.5374215546863899,A,523.7777489819564,Correct
7,3,178,A,19.481192087887216,32.7494456007919,0.9740596043943609,0.5144270885429321,A,531.5295830368996,Correct
7,3,179,A,50.95876166236428,73.81398468112396,2.547938083118214,1.1594673600320426,A,822.3987499950454,Correct
7,3,180,B,67.1504417175265,49.487400619530604,3.3575220858763255,0.7773462711578617,B,792.1773749985732,Correct
7,3,181,B,53.82553594028974,23.27200039727297,2.691276797014487,0.3655557274120576,B,740.8835830283351,Correct
7,3,182,A,41.07162309448216,53.309501429033936,2.053581154724108,0.837383690279938,A,781.5939990105107,Correct
7,3,183,A,18.943827843416152,33.076155897983774,0.9471913921708076,0.5195590418904826,A,520.9730410133488,Correct
7,3,184,A,53.75651382823027,83.98231669744087,2.687825691411513,1.3191911458406582,B,879.104208026547,Incorrect
7,3,185,A,15.826753569156175,36.52454165540669,0.7913376784578088,0.5737261587018002,A,447.0315409707837,Correct
7,3,186,B,77.52615971735767,46.59636572811224,3.876307985867884,0.7319340012771032,B,817.979582992848,Correct
7,3,187,A,45.692068596102516,64.96801416959414,2.2846034298051254,1.0205151801675727,A,955.3577490150928,Correct
7,3,188,B,83.91742443544692,60.22921890937772,4.195871221772347,0.9460783582857625,B,691.0220829886384,Correct
7,3,189,A,51.79707964283262,62.04637293706086,2.5898539821416313,0.9746221470048149,A,516.3711240165867,Correct
7,3,190,A,66.30170186478288,88.04156662640975,3.3150850932391442,1.3829536946203258,A,582.7710409648716,Correct
7,3,191,A,51.79910338264566,79.97739204493497,2.589955169132283,1.2562819365081923,A,784.9576660082676,Correct
7,3,192,B,33.70062623721981,13.214746037750594,1.6850313118609903,0.20757674535626047,B,700.7054580026306,Correct
7,3,193,A,29.076451259736114,40.63383138051754,1.4538225629868058,0.6382747307612016,A,434.5971660222858,Correct
7,3,194,B,51.14558402230597,43.7859861709507,2.5572792011152985,0.6877886624242149,A,1118.7942079850473,Incorrect
7,3,195,B,55.07981974994637,28.243341348101534,2.753990987497318,0.44364536846012315,B,763.3124580024742,Correct
7,3,196,A,11.581027775307838,33.16090099593792,0.5790513887653919,0.5208902147762852,A,449.20291600283235,Correct
7,3,197,B,38.2821562715413,14.01883130641372,1.9141078135770646,0.2202072872207197,B,602.5850409641862,Correct
7,3,198,A,13.342298611402633,35.50447028047667,0.6671149305701317,0.5577029150137132,A,482.97029198147357,Correct
7,3,199,A,57.84980163596083,71.813548546204,2.8924900817980417,1.1280445827048424,A,631.4907080377452,Correct
7,3,200,B,43.182421526578764,33.40819808986314,2.159121076328938,0.524774748443933,B,490.90112501289696,Correct
7,3,201,A,39.413153078691494,68.24331443275483,1.9706576539345746,1.0719634763928043,A,575.163125002291,Correct
7,3,202,A,57.6350409611516,78.45360672133461,2.8817520480575802,1.2323463726168382,A,544.5182080147788,Correct
7,3,203,B,50.69156040129127,25.685938073225913,2.5345780200645636,0.40347377175704446,B,725.6447079707868,Correct
7,3,204,A,67.67798269433703,83.10108693159069,3.383899134716852,1.3053488210480604,B,1311.9144159718417,Incorrect
7,3,205,B,45.68375950259424,17.721009553603224,2.284187975129712,0.2783609671389721,B,669.0306250238791,Correct
7,3,206,A,44.30500631885882,71.23568832050144,2.2152503159429413,1.1189675755054977,A,482.2040409781039,Correct
7,3,207,B,69.0596130520636,41.12713472776475,3.4529806526031797,0.6460235216197169,A,876.6683329595253,Incorrect
7,3,208,B,73.76681680707742,61.650808558451835,3.688340840353871,0.9684086362755151,A,851.2886249809526,Incorrect
7,3,209,A,45.43518292711169,61.92544578258638,2.2717591463555844,0.9727226277042321,A,528.1634580460377,Correct
7,3,210,A,57.58692314075432,71.4256188295364,2.879346157037716,1.1219509969648818,A,823.7824580282904,Correct
7,3,211,A,28.978538577623446,59.86700314576547,1.4489269288811724,0.9403886863758693,A,658.4369160118513,Correct
7,3,212,B,83.88492819092394,57.98532295126479,4.194246409546197,0.9108313229986252,A,1496.5702909976244,Incorrect
7,3,213,B,76.19856006338148,58.86934112765421,3.809928003169074,0.9247174480415497,B,1007.3267910047434,Correct
7,3,214,B,50.8554114094776,24.532016449935902,2.5427705704738797,0.3853480132843129,B,811.1474579782225,Correct
7,3,215,A,28.70482369513943,39.47098941808969,1.4352411847569715,0.6200088519289552,A,877.0248749642633,Correct
7,3,216,B,54.1445817683061,44.198733458809336,2.707229088415305,0.694272081660844,B,1063.9740829938091,Correct
7,3,217,A,14.12534178037167,41.57575779550338,0.7062670890185835,0.6530704762889098,A,629.0745830046944,Correct
7,3,218,B,68.93845677697222,53.80440983911712,3.446922838848611,0.8451576934065236,B,983.5687910090201,Correct
7,3,219,B,80.9342241579395,52.80474340526397,4.046711207896975,0.8294549697833568,B,783.7081660400145,Correct
7,3,220,A,33.43239756374978,48.6135773616858,1.6716198781874891,0.7636202875209559,A,909.8669580416754,Correct
7,3,221,A,19.17473785355797,34.375937635680074,0.9587368926778985,0.539975965682567,A,449.4028749759309,Correct
7,3,222,B,36.816094681378246,25.266501057938324,1.8408047340689122,0.3968852705276889,B,1659.2163329478353,Correct
7,3,223,A,46.01713275851161,65.47519215999884,2.3008566379255804,1.0284819134111618,A,1126.804124971386,Correct
7,3,224,B,81.19567904694301,65.7151265114497,4.059783952347151,1.0322507933904712,B,1625.6956250290386,Correct
7,3,225,A,55.387162697212105,74.82646686536135,2.769358134860605,1.1753713929914964,A,713.0207910086028,Correct
7,3,226,A,49.010711038450815,77.9917293448807,2.4505355519225405,1.2250912197532033,A,784.9675419856794,Correct
7,3,227,B,55.36919152832643,42.62881796674721,2.7684595764163213,0.6696119067777481,B,945.5114989541471,Correct
7,3,228,B,88.95262686168745,63.48668517099262,4.447631343084373,0.9972465186697925,B,885.351917007938,Correct
7,3,229,B,68.48633320512741,47.8687400917871,3.42431666025637,0.7519204110447878,B,1036.8190410081297,Correct
7,3,230,B,82.77721857259864,64.45136835426166,4.138860928629932,1.0123997266777904,B,1196.9218739541247,Correct
7,3,231,B,65.73288969711479,43.15823407360107,3.2866444848557395,0.677927955537669,B,864.5732500008307,Correct
7,3,232,B,66.61777476597695,36.049908963531486,3.3308887382988472,0.5662706458120568,B,572.4563329713419,Correct
7,3,233,A,10.979599029262694,36.30907596502199,0.5489799514631347,0.570341631551734,A,462.7611659816466,Correct
7,3,234,B,41.20869804134849,29.696486124953125,2.0604349020674246,0.4664713132379198,B,1116.2626660079695,Correct
7,3,235,A,39.445000245810725,71.69568845363224,1.9722500122905362,1.126193240699968,A,684.291707992088,Correct
7,3,236,B,61.57425319136522,46.82421088336347,3.0787126595682612,0.7355129846065696,B,1567.4834580277093,Correct
7,3,237,B,73.14801062106261,63.41978432814328,3.6574005310531303,0.99619564268772,B,683.2381240092218,Correct
7,3,238,B,48.969182831344,36.96831776090615,2.4484591415672,0.5806969774661792,B,838.0017500021495,Correct
7,3,239,B,79.51778867578406,66.75734783686578,3.9758894337892032,1.04862196768718,B,662.98945795279,Correct
7,3,240,A,17.77068620861634,46.89621527635896,0.888534310430817,0.7366440269668737,A,737.9176660324447,Correct
7,3,241,B,35.12319491532334,18.015956721816597,1.7561597457661668,0.28299398642325335,B,677.6641250471584,Correct
7,3,242,B,64.7917350132984,38.683547800718806,3.2395867506649205,0.607639747927639,B,690.1996659580618,Correct
7,3,243,B,46.78965619948845,28.57853891161622,2.339482809974422,0.44891063947531784,B,600.9221659624018,Correct
7,3,244,B,81.59970006750542,63.779419526598254,4.079985003375271,1.0018447791749123,B,576.8988750060089,Correct
7,3,245,B,77.26413268561967,50.353037972979166,3.863206634280983,0.7909436709091962,B,659.6312079927884,Correct
7,3,246,B,77.43692685720363,58.783930848366545,3.8718463428601813,0.9233758265117938,B,637.1017079800367,Correct
7,3,247,B,70.6517479896934,44.23605844501511,3.53258739948467,0.6948583811731409,B,620.0623330078088,Correct
7,3,248,A,44.39683396633015,63.199754461341364,2.2198416983165075,0.9927394216221438,A,1559.4264160026796,Correct
7,3,249,A,27.506290735781484,39.85477440225741,1.375314536789074,0.626037332363052,A,1130.5466250050813,Correct
7,3,250,B,60.485182682362385,42.18061182779733,3.024259134118119,0.6625715012106541,A,1393.362165952567,Incorrect
7,3,251,B,50.03174180066757,42.86683218375678,2.5015870900333783,0.673350625355784,B,1045.7391659729183,Correct
7,3,252,A,26.608717501600836,47.84975358354906,1.3304358750800418,0.7516221716707979,A,682.8245830256492,Correct
7,3,253,B,51.35864897825698,25.621604016876617,2.5679324489128486,0.4024632147630316,B,640.9502499736845,Correct
7,3,254,B,60.449450843807526,43.69765438905409,3.0224725421903766,0.6864011500387904,B,1239.1995409852825,Correct
7,3,255,B,65.54312135723723,47.577148630915076,3.277156067861861,0.7473401030881625,B,1752.1892910008319,Correct
7,3,256,A,43.654164339397184,74.3820813427676,2.1827082169698593,1.1683910015257857,A,714.4841240369715,Correct
7,3,257,A,68.40732615088132,84.75633034379703,3.420366307544066,1.3313493237665122,B,654.7384159639478,Incorrect
7,3,258,B,66.84196473378282,46.80144404732321,3.3420982366891407,0.7351553639823216,A,1710.1537080015987,Incorrect
7,3,259,A,41.20056512996603,68.48275688296391,2.0600282564983017,1.0757246296054763,A,617.6382499979809,Correct
7,3,260,A,54.21482671076208,78.49176245404567,2.710741335538104,1.2329457214647253,A,640.8265409991145,Correct
7,3,261,B,54.37865996097644,46.534817850752574,2.718932998048822,0.7309672094803172,A,851.2375829741359,Incorrect
7,3,262,B,71.3520627082998,59.00487820312316,3.56760313541499,0.9268464594444611,B,835.2311250055209,Correct
7,3,263,A,30.794482537657696,63.730869709839595,1.5397241268828847,1.0010821604366018,A,598.3853749930859,Correct
7,3,264,A,48.56649151874832,59.1776260981809,2.428324575937416,0.9295599770346438,A,1266.7120829573832,Correct
7,3,265,B,67.1896527054088,41.518419029353666,3.35948263527044,0.6521698010564008,B,625.356082979124,Correct
7,3,266,B,75.26290811341681,64.7221320753086,3.7631454056708407,1.0166528732622888,B,637.0536239701323,Correct
7,3,267,A,30.76408156601773,57.741854686546134,1.5382040783008863,0.9070069324395135,A,432.1453740121797,Correct
7,3,268,B,87.1502988684553,62.000230983586725,4.357514943422765,0.9738973508945317,B,1241.4465409819968,Correct
7,3,269,A,33.26213044460444,43.84197240472126,1.663106522230222,0.6886680921277938,A,704.744373972062,Correct
7,3,270,A,24.002153214217774,38.151330751424624,1.2001076607108887,0.5992797020667499,A,460.6794160208665,Correct
7,3,271,A,51.84573150205466,60.753907948150896,2.592286575102733,0.9543201544339069,B,975.5677910288796,Incorrect
7,3,272,B,66.63322706286917,43.0070912034158,3.3316613531434585,0.6755538088845864,B,623.6277909483761,Correct
7,3,273,B,65.90644462159382,39.64276376586044,3.295322231079691,0.622707077074114,A,1705.728332977742,Incorrect
7,3,274,A,28.042351431362132,49.77749462862901,1.4021175715681065,0.7819030571970313,A,476.12379101337865,Correct
7,3,275,A,53.84521653675718,62.115612598130426,2.6922608268378587,0.9757097610575809,B,1112.2312910156325,Incorrect
7,3,276,B,41.23123937712124,12.991184567390995,2.0615619688560622,0.2040650499917232,B,849.4070830056444,Correct
7,3,277,B,69.74193299600016,46.242365734529706,3.487096649800008,0.7263733823810544,B,1626.9874580320902,Correct
7,3,278,B,83.42264862806039,59.947231916217454,4.17113243140302,0.9416489169551616,B,1176.8162910011597,Correct
7,3,279,A,48.81189132007777,57.97453923474896,2.4405945660038886,0.910661932775703,A,515.1183329871856,Correct
7,3,280,B,44.844220746176326,17.755451534111515,2.242211037308816,0.27890198050367176,B,641.8819579994306,Correct
7,3,281,B,63.556727002588396,45.460835053399116,3.17783635012942,0.71409712714908,A,1570.1299579814076,Incorrect
7,3,282,B,73.56827184840223,50.91751683882818,3.6784135924201116,0.799810484199486,B,4904.172374983318,Correct
7,3,283,A,42.910538045767765,72.72512592511612,2.1455269022883883,1.1423636066886869,A,452.54437503172085,Correct
7,3,284,B,59.71700781199703,31.838808595323126,2.9858503905998517,0.5001228359105934,B,649.2571659618989,Correct
7,3,285,B,57.56861442064894,45.191786235487776,2.878430721032447,0.7098709182000437,B,1368.133999989368,Correct
7,3,286,A,31.43106015136397,61.27387248540975,1.5715530075681985,0.9624877382858051,A,537.9394989577122,Correct
7,3,287,B,52.596463014849874,32.86151815218502,2.6298231507424936,0.5161875200635605,B,923.551415966358,Correct
7,3,288,A,34.25843592208631,50.65572045258251,1.7129217961043155,0.7956981961806572,A,824.2060829652473,Correct
7,3,289,B,80.65581497495621,51.015510652120724,4.032790748747811,0.8013497674191714,B,630.2725829882547,Correct
7,3,290,B,75.71897685248142,53.98000689446434,3.7859488426240713,0.8479159655018778,B,649.8817500541918,Correct
7,3,291,A,65.67976742969788,79.6614423538939,3.283988371484894,1.2513190103667993,A,629.8136240220629,Correct
7,3,292,B,52.641497174667045,38.88982842091143,2.6320748587333522,0.6108799963325144,A,722.6514989743009,Incorrect
7,3,293,B,56.38872430516314,36.381107380233175,2.8194362152581567,0.5714730983760096,B,906.8375420174561,Correct
7,3,294,B,85.16414591983902,69.63048815151382,4.258207295991951,1.0937531502133346,B,939.5775409648195,Correct
7,3,295,B,39.1359052459902,28.21929538591418,1.9567952622995102,0.44326765536934176,B,1234.0054170344956,Correct
7,3,296,A,35.65708549677589,50.64222775569032,1.7828542748387946,0.7954862533934891,B,1552.0195409771986,Incorrect
7,3,297,B,58.3498671715256,29.536151546871167,2.91749335857628,0.46395278357482633,B,657.6829580008052,Correct
7,3,298,B,53.30008964243404,45.890970538756726,2.665004482121702,0.7208536795533187,B,668.499541003257,Correct
7,3,299,A,33.0394160716218,43.179968717989134,1.6519708035810903,0.6782693625333588,A,710.0777080049738,Correct
