subject,day,trial,cat,x,y,xt,yt,resp,rt,fb,resp_key
7,23,0,A,27.59333180377449,48.63878219893296,1.3796665901887246,0.7640162041786088,A,1045.3664159867913,Correct,k
7,23,1,B,63.29784736642946,33.604453354345374,3.164892368321473,0.5278575189295616,B,1121.3162910426036,Correct,d
7,23,2,B,69.24903015024053,58.160819903939824,3.4624515075120263,0.9135880226848818,A,2114.130000001751,Incorrect,k
7,23,3,A,25.777591549240153,54.270206375883745,1.2888795774620077,0.8524744082963915,A,1078.3707910450175,Correct,k
7,23,4,B,44.03744112824093,26.716247978965555,2.2018720564120464,0.41965784191100675,B,1099.9974160222337,Correct,d
7,23,5,B,37.610427426067176,14.270419737706074,1.8805213713033588,0.2241592290581009,B,841.8398330686614,Correct,d
7,23,6,A,50.52396103606122,79.50175004112785,2.5261980518030613,1.2488105693836964,A,815.8966659102589,Correct,k
7,23,7,B,47.263478020749474,19.17702315424802,2.3631739010374737,0.3012319752955347,B,808.3642079727724,Correct,d
7,23,8,A,19.313840986470865,50.78706636254339,0.9656920493235432,0.7977613729097182,A,732.4588749324903,Correct,k
7,23,9,B,67.01244455827778,54.94990683298608,3.3506222279138886,0.8631511181097632,B,2606.299165985547,Correct,d
7,23,10,B,58.371755962485,48.64826605248879,2.91858779812425,0.7641651762019026,B,882.3463740991428,Correct,d
7,23,11,A,62.683158364379786,75.93300143829043,3.1341579182189894,1.192752797417782,A,1841.3162910146639,Correct,k
7,23,12,B,57.045631583948435,37.633752128223925,2.8522815791974216,0.5911495960652378,B,1901.9414989743382,Correct,d
7,23,13,B,71.42379247154857,38.840203430548286,3.5711896235774283,0.6101004888067179,B,1820.0512499315664,Correct,d
7,23,14,A,16.42337451475549,36.998443606247555,0.8211687257377746,0.5811701931382178,A,726.9399990327656,Correct,k
7,23,15,B,61.97273398241379,45.99951793912437,3.0986366991206897,0.7225587381311251,A,1589.6722910692915,Incorrect,k
7,23,16,B,74.34432904943223,55.113054280777746,3.717216452471612,0.8657138322269344,B,1959.7173739457503,Correct,d
7,23,17,A,61.60993074645,79.26590478813652,3.0804965373224995,1.2451059208127886,A,1698.8554160343483,Correct,k
7,23,18,A,65.4480846012748,76.39411483107921,3.27240423006374,1.1999959496540675,A,800.4807500401512,Correct,k
7,23,19,B,64.88882727664118,52.58240068424668,3.244441363832059,0.8259624184887214,B,2578.238832997158,Correct,d
7,23,20,A,29.65172363175462,59.71513576340714,1.4825861815877313,0.938003159112185,A,867.9136250866577,Correct,k
7,23,21,B,68.7161465135226,39.28276444133033,3.4358073256761306,0.6170522209079086,B,1015.6689160503447,Correct,d
7,23,22,A,15.540403038907165,40.800312968270006,0.7770201519453582,0.640889817426407,A,851.2815829599276,Correct,k
7,23,23,A,50.45218430668088,78.85641431873887,2.5226092153340436,1.238673659560915,A,977.3508330108598,Correct,k
7,23,24,B,78.44422884126779,59.72906976781135,3.9222114420633893,0.9382220339415418,B,597.0794999739155,Correct,d
7,23,25,A,28.394733635535655,47.793226164693216,1.4197366817767827,0.7507342410517786,A,863.3255410240963,Correct,k
7,23,26,A,43.303375153477226,65.29767153629652,2.1651687576738614,1.0256934259747423,A,1336.2074990291148,Correct,k
7,23,27,A,58.261834093228494,78.98471300006827,2.9130917046614244,1.2406889705345634,A,1941.1086239852011,Correct,k
7,23,28,B,62.090394761387635,52.63331762040605,3.1045197380693814,0.8267622198516292,B,1930.5109579581767,Correct,d
7,23,29,A,26.738430133815335,37.00078983362934,1.336921506690767,0.5812070475917491,A,1635.4364580474794,Correct,k
7,23,30,B,45.37183041462269,35.05067542898267,2.268591520731135,0.5505747221552612,B,1726.6274989815429,Correct,d
7,23,31,A,17.71227378014493,37.49389501541778,0.8856136890072465,0.5889527256745173,A,1399.158291053027,Correct,k
7,23,32,A,32.694988442041975,53.21625142912463,1.6347494221020986,0.8359189227066264,A,1325.2707079518586,Correct,k
7,23,33,B,70.54679661434419,51.5910558170956,3.5273398307172097,0.8103904097296425,B,1106.5145409666002,Correct,d
7,23,34,B,36.898360814181316,21.39304223463234,1.844918040709066,0.33604112161128563,B,2369.8825830360875,Correct,d
7,23,35,B,66.49505957158792,48.59505907942918,3.324752978579396,0.7633294030234835,B,2443.0765829747543,Correct,d
7,23,36,B,66.42992928671322,37.341355001596064,3.321496464335661,0.5865566327405133,B,659.5736240269616,Correct,d
7,23,37,B,48.49411711051647,21.68957840411006,2.4247058555258234,0.34069910086905997,B,904.3442490510643,Correct,d
7,23,38,B,51.00986554808995,20.899770901094314,2.5504932774044975,0.32829283362293815,B,683.9781659655273,Correct,d
7,23,39,B,36.24901707123981,16.135542993004254,1.8124508535619908,0.2534565166425221,B,778.467083000578,Correct,d
7,23,40,B,49.43733144222148,34.201647032792906,2.471866572111074,0.5372382152944667,B,536.539625027217,Correct,d
7,23,41,B,84.82345746556365,64.47786231298412,4.241172873278183,1.0128158928082254,B,1650.5729989148676,Correct,d
7,23,42,A,45.43479041472999,67.98624441489942,2.2717395207364994,1.0679254299950405,A,978.5476659890264,Correct,k
7,23,43,B,57.71789992625337,38.80299264655996,2.8858949963126683,0.6095159831786576,B,882.4391240486875,Correct,d
7,23,44,A,45.99658756184371,58.519703837024515,2.2998293780921855,0.9192253583232333,A,2133.759416989051,Correct,k
7,23,45,B,35.509285591498454,23.429080930651043,1.7754642795749225,0.3680231426604702,B,1456.0587079031393,Correct,d
7,23,46,A,63.83500486632174,87.08113738741685,3.191750243316087,1.3678673074127612,A,1112.068873946555,Correct,k
7,23,47,B,60.417389390850616,35.562043767419325,3.020869469542531,0.5586072772318162,B,1341.653374955058,Correct,d
7,23,48,A,63.208360078266765,83.4371496128381,3.160418003913338,1.310627681300823,A,1365.813250071369,Correct,k
7,23,49,B,69.31804289881775,49.51664138046268,3.4659021449408876,0.7778055839565093,B,2561.5310409339145,Correct,d
7,23,50,A,65.21926726151474,81.45413272315952,3.2609633630757373,1.2794785248380296,A,992.756542051211,Correct,k
7,23,51,B,46.24385384347683,36.88906834554753,2.3121926921738414,0.5794521305607195,B,1044.6957499952987,Correct,d
7,23,52,B,61.685620945294914,41.7460924749336,3.0842810472647453,0.6557460871766577,B,765.4413740383461,Correct,d
7,23,53,B,39.38708863253936,12.553711050438118,1.969354431626968,0.19719323205672698,A,795.1271240599453,Incorrect,k
7,23,54,B,60.40130098485167,34.953648111083,3.0200650492425836,0.5490506206097054,B,1214.9797499878332,Correct,d
7,23,55,B,67.51605211811334,48.631350106212096,3.375802605905667,0.7638994611391455,B,1246.646248968318,Correct,d
7,23,56,B,60.34347562815613,47.868205024326876,3.017173781407806,0.7519120062247767,B,1252.9108750168234,Correct,d
7,23,57,A,46.80766048562642,71.70210379142279,2.340383024281321,1.1262940125903333,A,1145.073457970284,Correct,k
7,23,58,B,38.7475489908834,19.651980001436968,1.93737744954417,0.3086925800050396,B,955.1401250064373,Correct,d
7,23,59,B,62.835871497609745,29.72573918900603,3.141793574880487,0.46693081929353775,B,925.2028330229223,Correct,d
7,23,60,B,58.75124132653811,41.48654724995497,2.937562066326905,0.6516691603163218,B,581.0305000049993,Correct,d
7,23,61,A,63.452836734525434,87.13367899721868,3.1726418367262714,1.3686926290895676,A,1481.7707489710301,Correct,k
7,23,62,B,41.46529811311384,23.38337746037629,2.073264905655692,0.36730523422817657,B,1295.2681659953669,Correct,d
7,23,63,A,11.605257105629615,34.68589033310191,0.5802628552814808,0.544844691268471,B,559.2065410455689,Incorrect,d
7,23,64,A,17.751588346026317,47.43684119529577,0.887579417301316,0.7451361590432343,A,1008.0799580318853,Correct,k
7,23,65,B,67.81269353311313,42.05602019815591,3.3906346766556568,0.660614420468753,B,1959.8070420324802,Correct,d
7,23,66,A,17.546677126363157,44.2046778252542,0.877333856318158,0.6943654555506111,A,684.3807910336182,Correct,k
7,23,67,A,14.910993350715007,41.001456623195054,0.7455496675357502,0.6440493745695508,A,764.5698329433799,Correct,k
7,23,68,A,14.639069801156875,34.16041505552724,0.7319534900578438,0.5365905449101127,A,654.8025829251856,Correct,k
7,23,69,A,35.89465653190416,49.089283582962906,1.794732826595208,0.7710926633711116,A,943.1665409356356,Correct,k
7,23,70,A,52.30442644232104,74.85360894004448,2.615221322116052,1.1757977397036352,A,807.1042499504983,Correct,k
7,23,71,A,52.81398689602171,64.30900746934074,2.6406993448010856,1.0101635271266598,A,1096.50404099375,Correct,k
7,23,72,B,61.43874963380398,42.00472470760996,3.071937481690199,0.6598086727874457,B,1773.9454580005258,Correct,d
7,23,73,A,15.759316685961728,43.372320536465864,0.7879658342980863,0.6812908178325143,A,733.8693750789389,Correct,k
7,23,74,B,59.128839565213475,29.714669361145468,2.956441978260674,0.4667569348441216,B,1641.7969160247594,Correct,d
7,23,75,A,27.213173894825694,47.72142883889185,1.3606586947412849,0.7496064512953537,A,1351.2669579358771,Correct,k
7,23,76,A,44.29652394856613,69.8595917561142,2.2148261974283066,1.0973519012189523,A,868.7766239745542,Correct,k
7,23,77,A,51.46219444677119,81.7666802939,2.5731097223385597,1.2843880105987076,A,619.2674989579245,Correct,k
7,23,78,B,73.25250189127851,46.04234143765798,3.6626250945639254,0.7232314080730962,B,1185.3182920021936,Correct,d
7,23,79,B,68.66533916980131,57.53890428532084,3.4332669584900657,0.9038189949918511,B,795.9952910896391,Correct,d
7,23,80,B,48.17060471146037,39.787909861259664,2.4085302355730187,0.6249870266091312,B,2948.4364580130205,Correct,d
7,23,81,A,29.340452867359637,42.97611021672143,1.4670226433679818,0.6750671606835865,B,1053.3875409746543,Incorrect,d
7,23,82,B,86.61781356542036,69.06222051417495,4.330890678271018,1.0848268230396516,B,1176.3612909708172,Correct,d
7,23,83,A,59.82166705693679,69.06515513279106,2.9910833528468395,1.0848729199210791,A,1568.5655410634354,Correct,k
7,23,84,B,39.97288240664906,14.340345685335372,1.9986441203324532,0.22525762327493845,B,733.3625410683453,Correct,d
7,23,85,B,42.41863611203843,28.962728263322745,2.1209318056019213,0.45494547169986105,B,859.011791064404,Correct,d
7,23,86,A,36.71483932531105,56.55837647328953,1.8357419662655525,0.8884169001372609,A,1145.1492910273373,Correct,k
7,23,87,B,38.00478587062573,12.357861083560145,1.9002392935312866,0.19411682797097876,B,757.8584159491584,Correct,d
7,23,88,B,37.607763151102105,20.943394921496115,1.8803881575551054,0.3289780781330099,A,611.0222080023959,Incorrect,k
7,23,89,B,70.82123097348082,57.01644559490856,3.5410615486740413,0.8956122330738342,B,2099.9109159456566,Correct,d
7,23,90,A,65.33470182873202,83.12904043206194,3.266735091436601,1.3057879136066735,A,1264.291499974206,Correct,k
7,23,91,A,23.2199882494929,46.814065664079266,1.160999412474645,0.7353536238747079,A,892.5678329542279,Correct,k
7,23,92,B,58.19175217444945,45.98148900506985,2.9095876087224726,0.7222755402972363,B,2111.0212500207126,Correct,d
7,23,93,B,62.06633322628132,41.96867445733545,3.103316661314066,0.6592423967803333,B,697.233373997733,Correct,d
7,23,94,B,44.147824178778315,35.29601240813854,2.207391208938916,0.554428466412111,B,646.6841669753194,Correct,d
7,23,95,A,25.71290545011994,39.995884147763256,1.285645272505997,0.6282538790622075,A,670.319415978156,Correct,k
7,23,96,B,66.59089748227179,56.61899737098713,3.329544874113589,0.8893691309715649,B,557.7129169832915,Correct,d
7,23,97,A,16.58565143119188,36.90483696536667,0.829282571559594,0.5796998234616249,A,915.2999160578474,Correct,k
7,23,98,A,31.805212781519476,53.25746590809464,1.5902606390759737,0.8365663182283948,A,1378.8693329552189,Correct,k
7,23,99,A,40.46045482570886,53.13806728800179,2.023022741285443,0.8346908090897327,A,958.0375000368804,Correct,k
7,23,100,A,54.86009386692437,68.46879745963493,2.7430046933462187,1.075505355496583,A,892.1685829991475,Correct,k
7,23,101,B,72.46984639353354,46.0401752971583,3.6234923196766773,0.7231973824176939,B,780.1090829307213,Correct,d
7,23,102,B,73.01575304473243,48.10993347783957,3.650787652236622,0.755709067893372,B,2535.788832930848,Correct,d
7,23,103,A,67.74651355882858,87.44583270488081,3.3873256779414294,1.3735959280634782,A,814.2418329371139,Correct,k
7,23,104,A,57.17968294733342,74.73540663769,2.858984147366671,1.173941022280064,B,1259.8982499912381,Incorrect,d
7,23,105,B,82.3479506877891,68.46384036770144,4.117397534389455,1.0754274896785758,B,2191.339374985546,Correct,d
7,23,106,B,64.87801197527206,56.98713223768753,3.2439005987636027,0.8951517799353461,B,1524.574749986641,Correct,d
7,23,107,A,60.150842435517816,70.9282890315981,3.0075421217758906,1.1141389587668107,B,1170.0208330294117,Incorrect,d
7,23,108,B,63.99909212450758,55.634962886564736,3.199954606225379,0.8739119534358628,A,773.2980829896405,Incorrect,k
7,23,109,A,47.67254221227847,68.91846829591199,2.3836271106139235,1.082568768475491,A,1694.5810409961268,Correct,k
7,23,110,B,50.84082249629519,25.05095351989376,2.542041124814759,0.39349945771758804,B,1422.82995802816,Correct,d
7,23,111,A,48.17337099117743,67.5635320177388,2.4086685495588713,1.0612854791875348,A,974.3197909556329,Correct,k
7,23,112,A,41.10515693514623,58.273956160706376,2.0552578467573115,0.915365162850444,A,929.1453330079094,Correct,k
7,23,113,A,40.50051400032129,57.345646236638444,2.0250257000160645,0.9007833046619126,A,643.6929990304634,Correct,k
7,23,114,A,28.668993669918713,47.680629870541054,1.4334496834959356,0.7489655825991293,A,753.1902079936117,Correct,k
7,23,115,A,15.205304076856532,37.43102070790443,0.7602652038428266,0.5879650983615998,A,931.0461659915745,Correct,k
7,23,116,A,22.103554372562606,38.77105454782163,1.1051777186281302,0.6090143006968278,A,382.04754097387195,Correct,k
7,23,117,B,55.747177465794174,47.61087588251611,2.7873588732897088,0.7478698895174404,A,1426.3960829703137,Incorrect,k
7,23,118,A,52.347217675220165,66.68973046058697,2.6173608837610085,1.0475598364243173,B,625.3303330158815,Incorrect,d
7,23,119,A,40.61280749243848,63.13438955763,2.030640374621924,0.9917126721156326,A,1449.4693749584258,Correct,k
7,23,120,B,60.65692139292417,46.45245132246108,3.032846069646208,0.7296733990794061,B,1372.693166951649,Correct,d
7,23,121,A,32.98450586100379,43.81347143336329,1.6492252930501894,0.6882203999166019,A,911.1711659934372,Correct,k
7,23,122,A,65.92246997772396,79.73688655193217,3.296123498886198,1.2525040850583644,A,1163.7833330314606,Correct,k
7,23,123,B,84.28272942450066,65.30633973561868,4.214136471225033,1.0258295857312942,B,1474.383124965243,Correct,d
7,23,124,A,25.230305328995563,43.95259182087905,1.2615152664497782,0.6904056978535222,A,1118.0868749506772,Correct,k
7,23,125,B,88.67687181575205,67.32929055021188,4.433843590787602,1.0576060228197917,B,955.1783329807222,Correct,d
7,23,126,A,67.524267073632,81.33699651176701,3.3762133536816004,1.2776385535321295,A,1577.7994580566883,Correct,k
7,23,127,A,52.311382663886484,70.40204482996305,2.615569133194324,1.1058727341775558,A,2380.17229095567,Correct,k
7,23,128,A,61.16693298456002,83.47380780634076,3.0583466492280014,1.311203506857832,A,1121.0940409218892,Correct,k
7,23,129,B,87.86654611983538,69.38572730789534,4.393327305991769,1.0899084558723435,B,1419.702999992296,Correct,d
7,23,130,B,64.33543506805243,47.05022157492657,3.2167717534026217,0.7390631522478066,B,2730.35045794677,Correct,d
7,23,131,B,40.53862450885558,21.32404482198202,2.026931225442779,0.33495731278779095,B,974.8988329665735,Correct,d
7,23,132,B,46.4268577596024,20.098723649035822,2.32134288798012,0.3157100128117119,B,1125.3625419922173,Correct,d
7,23,133,B,39.99164899425509,20.538675720687618,1.9995824497127543,0.32262076379287635,B,1132.8804579097778,Correct,d
7,23,134,B,44.147115271826394,33.11206658623885,2.2073557635913197,0.5201231256625203,B,1108.6996239610016,Correct,d
7,23,135,B,83.29109179519043,59.867009991254534,4.164554589759521,0.94038879390456,B,1001.7098740208894,Correct,d
7,23,136,A,29.948408140063734,52.64236898141442,1.497420407003187,0.8269043982978735,A,2040.7412078930065,Correct,k
7,23,137,A,36.779714882494524,44.27513773126056,1.8389857441247262,0.695472237166022,A,1822.6367080351338,Correct,k
7,23,138,B,72.58125363518394,42.9178989552261,3.629062681759197,0.6741527803262368,B,2330.378832994029,Correct,d
7,23,139,B,72.9692359462168,59.628996097198964,3.64846179731084,0.9366500803994736,B,5693.955499911681,Correct,d
7,23,140,B,49.809017720279186,39.90959417344925,2.4904508860139596,0.6268984393152909,B,1826.2595830019563,Correct,d
7,23,141,A,65.15606796534419,87.08630333774798,3.2578033982672094,1.3679484539708064,A,880.1304989028722,Correct,k
7,23,142,B,69.287399215338,36.04105477200468,3.4643699607669,0.5661315644967863,B,840.6629160745069,Correct,d
7,23,143,A,10.940402706816435,31.37594123488955,0.5470201353408217,0.4928521324149703,A,541.1872499389574,Correct,k
7,23,144,B,80.49657802307453,61.537809493760165,4.024828901153727,0.9666336511180257,B,805.8639580849558,Correct,d
7,23,145,B,55.16448466654395,43.253118334586915,2.7582242333271974,0.6794183940239412,B,714.5989999407902,Correct,d
7,23,146,A,20.564166411567925,39.95070641118937,1.0282083205783963,0.6275442288355759,A,660.176416975446,Correct,k
7,23,147,B,72.82395003156451,52.36535008616179,3.641197501578225,0.8225529956667177,B,1574.8987919650972,Correct,d
7,23,148,B,70.94841133172203,39.275479258523376,3.5474205665861014,0.6169377855239767,B,944.9745409656316,Correct,d
7,23,149,A,63.28345565072488,76.97881797868543,3.1641727825362445,1.2091804452193204,A,788.6319989338517,Correct,k
7,23,150,A,33.10984526360747,53.179905370508635,1.6554922631803735,0.8353480001529514,B,1362.0549170300364,Incorrect,d
7,23,151,B,60.46935551663798,53.171301892279736,3.0234677758318993,0.8352128570329554,B,2700.2854170277715,Correct,d
7,23,152,B,69.88857326239783,47.94136210311364,3.494428663119891,0.7530611549311497,B,636.6506250342354,Correct,d
7,23,153,B,48.96067910077895,27.176329878239866,2.448033955038947,0.4268847914850558,B,645.2437909319997,Correct,d
7,23,154,A,49.954218983688556,63.55799353291815,2.4977109491844276,0.9983666277996162,A,2669.1229990683496,Correct,k
7,23,155,A,29.470371857016755,55.54564584340925,1.4735185928508379,0.8725089646027746,A,849.1789159597829,Correct,k
7,23,156,A,15.486189854281932,39.00231847348741,0.7743094927140965,0.6126469859463877,A,608.7383329868317,Correct,k
7,23,157,A,26.877836915847375,38.39277162108375,1.3438918457923688,0.6030722463787371,A,534.7949579590932,Correct,k
7,23,158,A,32.85362211204916,52.46747798307452,1.642681105602458,0.8241572169200555,A,801.7967909108847,Correct,k
7,23,159,A,59.02937312207783,76.3117509158561,2.951468656103891,1.1987021802991382,A,978.9276249939576,Correct,k
7,23,160,B,80.9559501872344,58.52111692816951,4.04779750936172,0.919247555107033,B,1894.78387509007,Correct,d
7,23,161,A,14.61964687224394,36.1856836933611,0.730982343612197,0.568403390280936,A,689.8392910370603,Correct,k
7,23,162,B,81.07991512801763,67.80169865596547,4.053995756400882,1.0650265919924502,B,1116.307207965292,Correct,d
7,23,163,A,15.371215454466267,44.62547193645503,0.7685607727233134,0.7009752739927231,A,583.005667082034,Correct,k
7,23,164,A,61.70329594599626,80.91268781060238,3.085164797299813,1.270973528039964,A,1024.363207980059,Correct,k
7,23,165,B,62.71699235246279,48.057253013304944,3.135849617623139,0.7548815650915237,B,1481.3364999135956,Correct,d
7,23,166,A,27.943204785603694,44.72681697958974,1.3971602392801847,0.7025671982076718,A,1251.2448329944164,Correct,k
7,23,167,A,43.59257583368057,62.13533259714955,2.1796287916840287,0.9760195220778171,A,1123.5200410010293,Correct,k
7,23,168,A,16.975428147394812,47.18956824326378,0.8487714073697405,0.7412520045955584,A,665.9185419557616,Correct,k
7,23,169,A,32.06415093934302,62.48154850425978,1.6032075469671512,0.9814578688294843,A,616.8037500465289,Correct,k
7,23,170,B,73.45478847146475,59.214519479685144,3.672739423573238,0.9301394969161427,B,1448.1464580167085,Correct,d
7,23,171,A,45.295375435820006,57.543581874391144,2.264768771791,0.9038924703891499,A,1798.6043739365414,Correct,k
7,23,172,A,68.01879501404767,82.95884676671288,3.4009397507023835,1.3031145177629326,A,2039.808583096601,Correct,k
7,23,173,B,74.66279258609163,42.19278710481198,3.7331396293045818,0.6627627500147772,B,731.2311669811606,Correct,d
7,23,174,B,79.13154592464676,60.98422416784692,3.9565772962323376,0.9579379531529049,B,748.4729160787538,Correct,d
7,23,175,A,50.0162418473937,61.274088386742676,2.500812092369685,0.9624911296560122,A,1181.1125000240281,Correct,k
7,23,176,B,49.48847619831329,28.30510734223361,2.4744238099156646,0.44461558642715815,B,668.8672079471871,Correct,d
7,23,177,A,53.946188729323694,74.31776171623666,2.6973094364661847,1.1673806711948294,A,1019.424166996032,Correct,k
7,23,178,A,30.986615097440144,51.7004837641526,1.549330754872007,0.8121092999025009,A,1353.8127489155158,Correct,k
7,23,179,B,55.43156333942152,26.49146849883592,2.771578166971076,0.41612701409374175,B,601.2929999269545,Correct,d
7,23,180,A,50.04204917654859,79.43154848614137,2.502102458827429,1.247707845936616,A,774.9725830508396,Correct,k
7,23,181,A,46.82091351566539,71.16593346340076,2.341045675783269,1.1178718687723992,A,750.3202080260962,Correct,k
7,23,182,B,37.47976938656499,14.847875003142061,1.8739884693282494,0.2332298751564531,B,663.9346659649163,Correct,d
7,23,183,A,25.39913252648792,55.46131326646637,1.269956626324396,0.8711842715818643,A,687.2502079932019,Correct,k
7,23,184,A,63.477999387700805,79.33378423368676,3.1738999693850407,1.2461721686501404,A,1212.1131250169128,Correct,k
7,23,185,A,62.5227614420678,74.61273098825951,3.1261380721033896,1.1720140376849377,A,931.2965410063043,Correct,k
7,23,186,B,69.9698311344341,46.17276040517063,3.498491556721705,0.7252800244242287,B,1282.4379579396918,Correct,d
7,23,187,B,68.61378747721042,58.85691852589509,3.430689373860521,0.924522314269425,B,1697.053249925375,Correct,d
7,23,188,A,18.136621190145952,39.5245202581371,0.9068310595072976,0.6208497123981224,A,639.805915998295,Correct,k
7,23,189,B,38.16176830720062,23.99962448392712,1.9080884153600308,0.3769852198380959,B,784.8847080022097,Correct,d
7,23,190,A,54.06144629914659,81.47125166599636,2.7030723149573292,1.2797474285632968,A,1436.8235000874847,Correct,k
7,23,191,B,51.573911468248255,27.1648628977415,2.5786955734124124,0.4267046685765931,B,1231.4567910507321,Correct,d
7,23,192,A,22.763382390136314,35.814164889985705,1.1381691195068158,0.562567586564163,A,955.414375057444,Correct,k
7,23,193,B,70.8463622346714,55.50627625599341,3.5423181117335703,0.8718905485697724,B,768.756749923341,Correct,d
7,23,194,A,51.70647936406104,72.53269694613125,2.5853239682030518,1.139340939355104,A,1054.0763329481706,Correct,k
7,23,195,A,35.46329941632308,64.85423123160753,1.773164970816154,1.0187278819571597,A,1041.0091249505058,Correct,k
7,23,196,A,23.781948860811806,54.60451691664317,1.1890974430405903,0.8577257459907287,A,1266.6860830504447,Correct,k
7,23,197,A,40.09513190338098,56.64301389926478,2.004756595169049,0.8897463817155739,A,1045.8096249494702,Correct,k
7,23,198,A,58.73882374757339,71.90637159271743,2.93694118737867,1.1295026437098943,A,1092.1965829329565,Correct,k
7,23,199,A,63.05420010973131,88.03437968244702,3.1527100054865658,1.3828408023685508,A,810.1072499994189,Correct,k
7,23,200,B,58.916954850342464,42.40295548048264,2.945847742517123,0.6660640671398965,B,1210.9608750324696,Correct,d
7,23,201,A,47.19576274558311,61.57719590530042,2.3597881372791556,0.9672523314237564,A,845.452624023892,Correct,k
7,23,202,B,45.85589756140454,20.179813992601893,2.292794878070227,0.3169837769498331,B,992.1529170824215,Correct,d
7,23,203,A,24.25154506972485,44.84658310703037,1.2125772534862422,0.7044484801382536,A,735.0777080282569,Correct,k
7,23,204,A,12.314458532868972,33.51341010588772,0.6157229266434485,0.526427414926994,A,582.6344169909135,Correct,k
7,23,205,B,87.55996420027255,67.06046935036018,4.377998210013627,1.0533833892868751,B,795.2896659262478,Correct,d
7,23,206,B,79.18516115825781,64.11397826096382,3.9592580579128906,1.0071000154852983,B,1554.0852079866454,Correct,d
7,23,207,A,25.868555243611397,43.820125347383964,1.2934277621805699,0.6883249193536268,A,1768.907999037765,Correct,k
7,23,208,A,51.93630056499092,80.85741231864955,2.596815028249546,1.2701052626427514,A,910.1418330101296,Correct,k
7,23,209,B,71.19369595449089,38.341209553164084,3.5596847977245445,0.6022623113098354,B,1710.9970829915255,Correct,d
7,23,210,B,58.5493527165447,41.47484882104308,2.9274676358272353,0.6514854018246812,B,1751.24141597189,Correct,d
7,23,211,A,23.245840178888944,43.24445428848968,1.162292008944447,0.679282299506094,A,3627.2587080020458,Correct,k
7,23,212,A,62.304921877319146,71.91289276704956,3.115246093865957,1.129605078076767,A,1610.761290998198,Correct,k
7,23,213,B,84.74770118309422,57.33418859083997,4.237385059154711,0.900603328382573,B,610.1391250267625,Correct,d
7,23,214,A,48.926304361849866,66.9836541840441,2.446315218092493,1.0521767794759609,A,787.0090829674155,Correct,k
7,23,215,B,58.29926339534613,46.742171576230206,2.9149631697673066,0.7342243141835922,B,1379.722582991235,Correct,d
7,23,216,A,35.75531812207004,46.408708936300805,1.7877659061035018,0.728986295284348,A,2140.9126250073314,Correct,k
7,23,217,B,38.10892325811142,11.521128359067326,1.9054461629055708,0.1809734610695547,B,914.5542080514133,Correct,d
7,23,218,B,67.749247370217,45.443770712191586,3.3874623685108505,0.7138290811042004,B,1044.3984579760581,Correct,d
7,23,219,B,89.37139868278645,65.44207656298451,4.468569934139322,1.0279617348296646,B,638.2523740176111,Correct,d
7,23,220,A,15.107267140613338,44.527448721126376,0.7553633570306669,0.6994355289269343,A,1137.3877909500152,Correct,k
7,23,221,B,64.13203321871329,54.03698800671536,3.2066016609356645,0.8488110227200837,B,972.228458034806,Correct,d
7,23,222,A,45.123367811084194,74.59766020257432,2.2561683905542096,1.1717773063369756,A,1600.8270410820842,Correct,k
7,23,223,A,11.959086535497086,31.957840314524514,0.5979543267748543,0.5019925817835297,A,793.6770409578457,Correct,k
7,23,224,A,43.499475947372666,58.5215990361899,2.1749737973686334,0.9192551280421085,A,725.8013329701498,Correct,k
7,23,225,B,81.5572415506934,57.047925577971235,4.07786207753467,0.8961067194914583,B,661.7387910373509,Correct,d
7,23,226,B,70.54097484522043,46.936750970410266,3.5270487422610217,0.7372807601600725,B,732.9239579848945,Correct,d
7,23,227,B,32.53015830976719,13.2408912285902,1.6265079154883595,0.20798743305360254,B,770.8545828936622,Correct,d
7,23,228,A,46.51439344521496,76.61604867985261,2.325719672260748,1.2034820783985145,A,1111.220333026722,Correct,k
7,23,229,A,29.535633534604884,57.5026536209373,1.476781676730244,0.9032495708872758,A,810.093125095591,Correct,k
7,23,230,B,80.6113313171068,51.65858806015569,4.030566565855341,0.8114512037230327,B,613.019916927442,Correct,d
7,23,231,B,56.6931706510708,48.60001569350307,2.8346585325535396,0.7634072613352895,B,1571.250707958825,Correct,d
7,23,232,B,70.56298511858374,60.47528817810712,3.528149255929187,0.949943605320335,B,761.6605829680339,Correct,d
7,23,233,B,34.04317166720368,20.22352668790656,1.7021585833601842,0.3176704143620218,B,816.0402920329943,Correct,d
7,23,234,B,74.87231591663381,42.94840115807151,3.7436157958316905,0.6746319078081241,B,1248.89691604767,Correct,d
7,23,235,A,23.93465588746941,36.731563509976425,1.1967327943734705,0.5769780503890443,A,1295.0426239985973,Correct,k
7,23,236,B,57.42051100527691,27.230375467722425,2.8710255502638455,0.4277337376194425,B,953.4816659288481,Correct,d
7,23,237,B,78.26265953607998,58.64409530786813,3.913132976803999,0.9211792949780908,B,719.6155829587951,Correct,d
7,23,238,B,53.46480944981668,46.50669838093181,2.673240472490834,0.7305255098812585,B,1567.869707942009,Correct,d
7,23,239,A,34.40146569161965,50.00446785288015,1.7200732845809825,0.785468344266376,A,1360.5811659945175,Correct,k
7,23,240,A,56.05078970117913,64.4053460035599,2.8025394850589564,1.0116768092834627,A,1851.4765829313546,Correct,k
7,23,241,B,59.26655274817162,30.032070175424685,2.963327637408581,0.47174265517603653,B,626.9022501073778,Correct,d
7,23,242,A,52.017851552448946,71.8969859878738,2.6008925776224476,1.1293552149737631,B,694.0561250085011,Incorrect,d
7,23,243,B,57.0288071576534,32.18556596071179,2.85144035788267,0.5055696878690094,B,643.058333080262,Correct,d
7,23,244,B,50.6857036815676,27.509730500104634,2.5342851840783798,0.43212183620681893,B,1287.2376660816371,Correct,d
7,23,245,B,88.1698160818292,69.15875420611394,4.40849080409146,1.0863431707267486,B,1049.2767499526963,Correct,d
7,23,246,B,72.08582126063726,47.30547891071851,3.604291063031863,0.7430727251023008,B,721.375874010846,Correct,d
7,23,247,A,44.87372892130869,57.43599905599615,2.2436864460654347,0.9022025634295389,A,2506.7632920108736,Correct,k
7,23,248,B,86.02136013081002,66.40209396681227,4.301068006540501,1.0430416529455828,B,2391.140833031386,Correct,d
7,23,249,B,66.44154895240499,42.38879270875386,3.3220774476202495,0.6658415988418086,B,840.7100830227137,Correct,d
7,23,250,A,61.3847108358962,84.77734144585592,3.0692355417948103,1.3316793653858723,A,989.1195830423385,Correct,k
7,23,251,B,85.44827510964501,68.0433716294617,4.27241375548225,1.0688227821829852,B,1174.773707985878,Correct,d
7,23,252,B,87.41117801899273,64.7594273437598,4.370558900949636,1.0172387059691888,B,934.409833047539,Correct,d
7,23,253,A,51.054283520896675,60.925832398335906,2.5527141760448337,0.9570207373822754,B,2821.5321250027046,Incorrect,d
7,23,254,A,32.459858156987416,43.293088674281236,1.6229929078493708,0.680046246651667,A,523.4038750641048,Correct,k
7,23,255,A,32.231843251188465,54.441225078630566,1.6115921625594234,0.855160763797271,A,634.1031660558656,Correct,k
7,23,256,B,73.144737463589,47.35017735164224,3.6572368731794493,0.7437748465704652,B,756.0022489633411,Correct,d
7,23,257,B,31.023410539048847,12.192555165369313,1.5511705269524425,0.19152020868006261,B,834.8788329167292,Correct,d
7,23,258,A,46.23784988093375,70.31176020135048,2.311892494046688,1.1044545465476494,A,781.3802920281887,Correct,k
7,23,259,B,55.24147890991016,37.780479198029745,2.7620739454955077,0.5934543794881613,B,1020.4947489546612,Correct,d
7,23,260,B,40.86096074594244,13.461538093188285,2.043048037297122,0.21145334589789735,B,1188.3031660690904,Correct,d
7,23,261,B,50.040572364827746,38.36241799768614,2.502028618241387,0.6025954527773582,B,1861.2349580507725,Correct,d
7,23,262,B,60.25536497667523,38.34445046481371,3.0127682488337615,0.6023132194309825,B,738.3990420494229,Correct,d
7,23,263,B,63.10348845655335,36.078385840944485,3.1551744228276677,0.5667179595564461,B,853.1273329863325,Correct,d
7,23,264,B,81.71518435741233,60.83664612912439,4.085759217870616,0.9556198027414955,B,1450.1478329766542,Correct,d
7,23,265,B,84.4591773971604,55.01950307311351,4.22295886985802,0.8642443332932722,B,1713.5894160019234,Correct,d
7,23,266,B,59.424601224712355,39.79139932979242,2.9712300612356177,0.6250418390526684,B,1015.3318749507889,Correct,d
7,23,267,A,58.52304680701736,71.25289837588033,2.926152340350868,1.1192379104232286,A,1475.337791023776,Correct,k
7,23,268,A,65.42759852501094,81.30979529012066,3.2713799262505465,1.277211277741665,A,924.7651250334457,Correct,k
7,23,269,A,27.699232778949934,37.74936531681638,1.3849616389474966,0.5929656437849383,A,675.3374160034582,Correct,k
7,23,270,A,50.677836866245855,71.65498858445002,2.5338918433122926,1.1255539286498435,A,800.903792027384,Correct,k
7,23,271,A,56.00279050863246,67.8715047863799,2.8001395254316233,1.0661231041248778,A,789.8607909446582,Correct,k
7,23,272,A,57.75139707274164,67.41089922203213,2.8875698536370815,1.05888792883909,A,836.6562079172581,Correct,k
7,23,273,A,49.90824173365243,65.59578266004358,2.4954120866826215,1.0303761445563284,A,571.9084989978,Correct,k
7,23,274,A,18.76061632902584,43.558556457488955,0.9380308164512919,0.6842162048391177,A,652.5875409133732,Correct,k
7,23,275,B,49.821201939404524,28.117611972079406,2.491060096970226,0.4416704160398654,B,1431.8212919170037,Correct,d
7,23,276,A,57.20683367948047,69.26553183170078,2.8603416839740237,1.0880204297473057,A,1067.0702909119427,Correct,k
7,23,277,A,34.34089184920066,62.9280697426314,1.717044592460033,0.9884718080401848,A,751.3232920318842,Correct,k
7,23,278,B,50.50971171459493,38.639474841797366,2.5254855857297462,0.6069474515077912,B,2179.3678749818355,Correct,d
7,23,279,A,41.259639464917456,53.72898564881521,2.062981973245873,0.8439729329957465,A,2345.4772499389946,Correct,k
7,23,280,A,67.31442963868838,81.8158870386869,3.365721481934419,1.2851609483383555,A,1061.391373979859,Correct,k
7,23,281,B,55.76194449907611,43.68943811562069,2.7880972249538054,0.6862720891174993,B,1785.2021669968963,Correct,d
7,23,282,B,77.82319373194262,57.36875486475961,3.891159686597131,0.9011462941436125,B,2112.7918330021203,Correct,d
7,23,283,B,59.3473796981164,32.48147084023644,2.96736898490582,0.5102177508473894,B,1283.5614170180634,Correct,d
7,23,284,B,52.00181034219419,38.237125038774266,2.6000905171097095,0.6006273555810377,B,1732.596292044036,Correct,d
7,23,285,A,55.32649247151056,70.78092061432463,2.766324623575528,1.1118241010814232,A,1164.118790999055,Correct,k
7,23,286,B,60.59684759726874,50.543320228143344,3.029842379863437,0.7939326175838575,B,1428.3838329138234,Correct,d
7,23,287,A,15.603207900177406,35.556320006927564,0.7801603950088704,0.5585173686122572,A,862.5465829391032,Correct,k
7,23,288,A,17.621263538935473,33.61820580722235,0.8810631769467736,0.5280735419541973,A,819.6088329423219,Correct,k
7,23,289,A,52.67711841971702,62.219358088079574,2.633855920985851,0.9773393914029173,B,1418.420249945484,Incorrect,d
7,23,290,A,16.054403041144745,36.232488566766875,0.8027201520572373,0.5691385995131549,A,1829.7517501050606,Correct,k
7,23,291,B,72.05159674445831,52.03149204893282,3.6025798372229154,0.8173087658812154,B,1264.3632920226082,Correct,d
7,23,292,A,44.805748190759076,66.36843676220924,2.2402874095379537,1.0425129668119766,A,1929.7300420003012,Correct,k
7,23,293,A,35.938539155575576,44.516324254558896,1.7969269577787788,0.6992607862147168,B,1140.9634159645066,Incorrect,d
7,23,294,A,48.8070462813924,73.248103204982,2.44035231406962,1.150578514590792,A,1510.105666005984,Correct,k
7,23,295,A,47.19354377214361,54.11874768584406,2.3596771886071806,0.8500953007566366,B,3886.869333102368,Incorrect,d
7,23,296,B,86.84268439373798,62.56968401866207,4.342134219686899,0.9828422982523173,B,817.4040829762816,Correct,d
7,23,297,B,53.379314618904644,26.16840248713957,2.668965730945232,0.4110523050488928,B,937.8361239796504,Correct,d
7,23,298,B,89.34804873054196,68.72805671874411,4.467402436527098,1.0795777904155455,B,872.5288750138134,Correct,d
7,23,299,B,48.69862810372748,23.852569775982566,2.434931405186374,0.3746752898873238,B,827.8113330015913,Correct,d
7,23,300,B,40.70653015089519,15.660663897394869,2.0353265075447595,0.2459971332519731,B,1645.788082969375,Correct,d
7,23,301,B,74.06640262278371,42.168913318933335,3.7033201311391855,0.6623877414631287,B,733.6787080857903,Correct,d
7,23,302,B,51.93720019219272,30.33239040105024,2.596860009609636,0.47646007424878495,B,675.2276250626892,Correct,d
7,23,303,B,88.0367343177037,62.55020397353238,4.401836715885185,0.982536306418962,B,2506.894916994497,Correct,d
7,23,304,B,74.54893541582086,50.00597813169705,3.7274467707910435,0.7854920676705566,B,696.1302490672097,Correct,d
7,23,305,B,51.82893208459916,40.45459979631515,2.591446604229958,0.6354593676200941,B,1618.9889159286395,Correct,d
7,23,306,A,52.083730477216605,65.65746338055398,2.60418652386083,1.031345023048446,A,887.9842499736696,Correct,k
7,23,307,A,38.583505492963255,61.48718344937582,1.9291752746481625,0.965838419072435,A,1233.0492910696194,Correct,k
7,23,308,A,39.66668146662904,50.16451007376686,1.983334073331452,0.7879822815933857,A,1242.4720419803634,Correct,k
7,23,309,B,75.29979411837687,52.545482856613965,3.7649897059188437,0.8253825146083342,B,1020.7837909692898,Correct,d
7,23,310,A,34.42461253440813,58.51958128143293,1.7212306267204067,0.9192234332245022,A,3137.268290971406,Correct,k
7,23,311,B,57.9066804934057,27.41363148825842,2.895334024670285,0.43061231645865244,B,671.6461250325665,Correct,d
7,23,312,B,75.4556962951964,61.69409046850069,3.77278481475982,0.9690885069287292,B,1136.1417910084128,Correct,d
7,23,313,A,30.083395910950433,38.90575324233014,1.5041697955475217,0.6111301428424083,A,840.6766660045832,Correct,k
7,23,314,B,36.31227335609567,15.635183048598947,1.8156136678047836,0.24559688101505062,B,892.8648739820346,Correct,d
7,23,315,A,28.50047137680999,44.36244818659871,1.4250235688404995,0.6968437065913817,A,969.5608330657706,Correct,k
7,23,316,A,24.78369169029651,45.036892611049225,1.2391845845148255,0.7074378548369233,A,957.6947080204263,Correct,k
7,23,317,A,52.71643624927734,64.9264314138488,2.6358218124638673,1.019861999767745,A,1853.425957961008,Correct,k
7,23,318,A,24.00964895776289,48.251160684259744,1.2004824478881446,0.7579274596642555,A,604.2233739281073,Correct,k
7,23,319,A,31.475906463333512,50.554243660827396,1.5737953231666757,0.7941042024632186,A,719.2048330325633,Correct,k
7,23,320,B,61.933673606171865,52.02516165093904,3.096683680308593,0.8172093282220574,B,738.7392910895869,Correct,d
7,23,321,A,20.531351949295534,40.28048558863769,1.0265675974647765,0.6327243880414684,A,791.8423750670627,Correct,k
7,23,322,A,55.27658703839254,69.5850859207186,2.763829351919627,1.0930399736397205,A,752.0437919301912,Correct,k
7,23,323,A,41.467151481440474,60.82000908351204,2.073357574072024,0.9553584686401297,A,673.4055830165744,Correct,k
7,23,324,B,37.99579548246516,27.257768802916253,1.8997897741232581,0.42816403112245377,B,954.9419990507886,Correct,d
7,23,325,A,56.17822803159534,71.18714124222858,2.808911401579767,1.1182049997832213,A,886.5418329369277,Correct,k
7,23,326,B,54.51675023954105,35.94948429897169,2.725837511977052,0.5646931788699553,B,1315.260999952443,Correct,d
7,23,327,B,74.78703413957953,47.57307101985531,3.739351706978977,0.7472760521234147,B,646.3113330537453,Correct,d
7,23,328,A,36.89944438959226,46.46912982942696,1.844972219479613,0.7299353844541903,B,2555.5542489746585,Incorrect,d
7,23,329,A,51.62380452591769,59.496607685633045,2.5811902262958846,0.9345705280934938,B,1117.376625072211,Incorrect,d
7,23,330,B,81.85910506690635,57.40421241482322,4.092955253345318,0.901703260037583,B,577.5784170255065,Correct,d
7,23,331,A,16.825399771351336,33.96709759798918,0.8412699885675667,0.5335539213880516,A,616.1470409715548,Correct,k
7,23,332,B,43.69234047379973,17.5351380844571,2.1846170236899867,0.27544130492906505,B,668.4559580171481,Correct,d
7,23,333,A,36.98310787399558,67.52737041074434,1.8491553936997789,1.060717453993156,A,941.2222080864012,Correct,k
7,23,334,B,57.20230430383502,25.175388904626708,2.860115215191751,0.3954540841702062,B,806.789500056766,Correct,d
7,23,335,A,34.634339228472605,61.18456784094414,1.7317169614236303,0.961084944210882,A,1842.0283750165254,Correct,k
7,23,336,A,41.5125368603365,61.941671442782,2.075626843016825,0.972977499778583,A,699.0774580044672,Correct,k
7,23,337,B,76.46284479203082,63.66647382480707,3.823142239601541,1.0000706322399038,B,615.548458066769,Correct,d
7,23,338,B,64.00212677427889,38.524243276702,3.200106338713945,0.6051373983159649,A,3592.830916051753,Incorrect,k
7,23,339,A,24.608130328908473,57.12364901222136,1.2304065164454236,0.8972961804151822,A,1026.8003329401836,Correct,k
7,23,340,A,40.90980353005128,72.06157105051294,2.0454901765025637,1.1319405110921517,A,1021.6970830224454,Correct,k
7,23,341,B,68.99126228403927,58.566163672423144,3.4495631142019634,0.9199551477111099,B,875.3045409685001,Correct,d
7,23,342,B,51.532847557181846,30.970137874416196,2.576642377859092,0.4864777881346447,B,1949.800249072723,Correct,d
7,23,343,B,65.90643203919414,44.943370339556154,3.2953216019597074,0.7059688104315751,B,1690.8843740820885,Correct,d
7,23,344,B,53.27053233122618,36.71917901628198,2.6635266165613087,0.5767835152169997,B,2132.5912500033155,Correct,d
7,23,345,A,27.48202329439859,43.533887216156714,1.3741011647199295,0.6838287013024227,A,1631.5451660193503,Correct,k
7,23,346,B,82.66779712417339,64.1551705029988,4.1333898562086695,1.007747061710108,B,940.0183740071952,Correct,d
7,23,347,B,50.10742928674419,26.701266188509763,2.50537146433721,0.419422508496839,B,1005.8058330323547,Correct,d
7,23,348,A,58.577435007090585,68.65169991260716,2.928871750354529,1.0783783805094882,A,1354.2302079731598,Correct,k
7,23,349,A,62.01020663848103,79.3204865181163,3.1005103319240517,1.245963288622412,A,854.3689999496564,Correct,k
7,23,350,B,71.76083898100917,45.547273589091084,3.5880419490504583,0.7154549004926649,B,982.1030829334632,Correct,d
7,23,351,A,65.53549505981866,89.44447467723988,3.2767747529909332,1.4049905227510755,A,1527.52641600091,Correct,k
7,23,352,A,52.019516009914874,72.45365064079814,2.600975800495744,1.1380992828944643,A,2269.6434169774875,Correct,k
7,23,353,A,28.539413801534522,44.827038217429546,1.426970690076726,0.7041414697303279,A,5574.447583057918,Correct,k
7,23,354,A,52.06727961430109,60.24007357137549,2.603363980715055,0.9462488629177094,A,2295.5657499842346,Correct,k
7,23,355,B,61.900249601900946,53.99509736321335,3.095012480095047,0.8481530060306833,B,929.4971670024097,Correct,d
7,23,356,A,66.78071497263842,83.4959301371554,3.339035748631921,1.31155100361767,A,777.2053739754483,Correct,k
7,23,357,B,78.95625566521392,52.00008705899402,3.9478127832606957,0.8168154574528264,B,847.302749985829,Correct,d
7,23,358,A,43.25434033291478,69.89121184579727,2.162717016645739,1.0978485884262232,A,850.2822499722242,Correct,k
7,23,359,A,20.11311303541958,41.476891269505145,1.0056556517709792,0.6515174845301,A,703.1752499751747,Correct,k
7,23,360,B,58.44032197965304,41.16945481192212,2.922016098982652,0.6466882839471575,B,672.639666008763,Correct,d
7,23,361,B,38.172942053255056,13.025084338056402,1.9086471026627527,0.20459754634412733,B,893.4039580635726,Correct,d
7,23,362,A,34.035462001596315,61.26374567196239,1.701773100079816,0.9623286666721527,A,1096.3882500072941,Correct,k
7,23,363,A,10.009161853634186,33.03247661045181,0.5004580926817093,0.5188729292463604,A,646.547791082412,Correct,k
7,23,364,B,36.311093821716355,23.82860943954127,1.8155546910858178,0.37429892180261637,B,1505.4704999784008,Correct,d
7,23,365,B,65.59810007782421,51.995044220959585,3.2799050038912103,0.8167362447382154,B,2558.2531250547618,Correct,d
7,23,366,B,48.59433000510951,37.243892897140526,2.4297165002554753,0.5850257015837087,B,616.2859580945224,Correct,d
7,23,367,A,20.53304705699576,45.80133646703383,1.026652352849788,0.7194457108471389,A,782.7205000212416,Correct,k
7,23,368,A,31.90031563259563,50.7552322433494,1.5950157816297814,0.7972613237347512,A,937.5734169734642,Correct,k
7,23,369,A,32.967583498529336,48.65325370117279,1.648379174926467,0.7642435220042243,A,3917.5980830332264,Correct,k
7,23,370,B,43.79052427902904,17.670955961187254,2.1895262139514524,0.2775747271478732,B,2246.169541031122,Correct,d
7,23,371,B,88.56050779621177,62.23584022352034,4.428025389810588,0.9775982921809984,B,861.2681250087917,Correct,d
7,23,372,A,32.80271821719544,53.157444001133825,1.640135910859772,0.8349951777878643,A,1151.411958038807,Correct,k
7,23,373,A,33.289663738256515,66.08577695073083,1.6644831869128256,1.0380729568759484,A,1190.4384579975158,Correct,k
7,23,374,A,36.013433372024735,46.54169304414901,1.8006716686012367,0.7310752047656485,A,1668.2054159464315,Correct,k
7,23,375,B,78.78976492898398,57.88637738184573,3.939488246449199,0.9092770896286647,B,1372.8741660015658,Correct,d
7,23,376,A,43.573363043059466,69.67020157977933,2.1786681521529734,1.0943769672857737,A,1198.6621669493616,Correct,k
7,23,377,B,65.72399268297221,56.0190150236803,3.2861996341486104,0.8799446302986514,B,2003.817707998678,Correct,d
7,23,378,B,47.38077786019115,33.98541075498287,2.3690388930095576,0.5338415837854288,B,2544.5693330839276,Correct,d
7,23,379,A,21.33188881559815,35.52141662746782,1.0665944407799075,0.5579691076097761,A,980.4902909090742,Correct,k
7,23,380,A,20.526909111420235,38.5651673759299,1.0263454555710119,0.6057802325634107,A,691.120040952228,Correct,k
7,23,381,A,63.45875269659743,80.69866892667869,3.172937634829872,1.2676117272726435,A,1277.3716660449281,Correct,k
7,23,382,A,36.22824618588849,62.788802071909416,1.8114123092944243,0.986284196584071,A,1804.9807500792667,Correct,k
7,23,383,A,39.43854286483277,68.83085467301088,1.9719271432416383,1.0811925369051882,A,707.5689160265028,Correct,k
7,23,384,A,16.34950948129677,41.2009143375285,0.8174754740648384,0.6471824490198097,A,937.5929159577936,Correct,k
7,23,385,A,43.0167035800969,68.36792397771256,2.150835179004845,1.0739208385478363,A,821.3450409239158,Correct,k
7,23,386,A,64.40368112766433,89.11312395114001,3.220184056383216,1.3997856777166906,A,789.2309159506112,Correct,k
7,23,387,B,82.54525335538015,67.81060890974686,4.127262667769008,1.0651665539315565,B,2710.849415976554,Correct,d
7,23,388,A,57.84729285531032,76.78713491666862,2.892364642765516,1.2061694947220722,A,1401.1052079731598,Correct,k
7,23,389,A,55.00279653804412,63.45301481287163,2.7501398269022057,0.996717625921209,A,1636.700583039783,Correct,k
7,23,390,B,45.016253259101774,21.358704637142605,2.250812662955089,0.33550174789120724,B,925.1368739642203,Correct,d
7,23,391,A,48.582019665147484,80.01291936626451,2.4291009832573742,1.2568399983666456,A,1121.33279198315,Correct,k
7,23,392,B,66.28451229999798,36.19365581653737,3.314225614999899,0.5685286160989564,B,1714.3129160394892,Correct,d
7,23,393,B,67.54272411104208,53.726636306899195,3.3771362055521035,0.843936029619226,B,3515.6263750977814,Correct,d
7,23,394,B,57.38644555085866,36.44178939015199,2.869322277542933,0.5724262891588398,B,1397.8287079371512,Correct,d
7,23,395,A,24.88774149502577,36.28535466016645,1.2443870747512886,0.5699690181663954,A,713.7031659949571,Correct,k
7,23,396,A,50.54595865755301,68.99068078533932,2.52729793287765,1.0837030796069027,A,832.6386669650674,Correct,k
7,23,397,B,55.22164214206606,48.0437376300199,2.761082107103303,0.75466926594733,B,1629.3773329816759,Correct,d
7,23,398,A,29.096491089677713,43.209117055440274,1.4548245544838858,0.6787272235473629,A,1437.091707950458,Correct,k
7,23,399,B,71.61057989036237,54.535281266915526,3.5805289945181187,0.8566381949479744,B,2401.1221249820665,Correct,d
7,23,400,B,87.59554863144766,67.94392267562031,4.379777431572382,1.0672606416690087,B,775.1344989519566,Correct,d
7,23,401,B,74.40022333830497,64.03745829415391,3.7200111669152482,1.0058980426573834,B,711.540290969424,Correct,d
7,23,402,A,15.63904900424519,30.4993114061271,0.7819524502122596,0.4790820632651814,A,527.9091239208356,Correct,k
7,23,403,B,54.8795031293232,24.561132873973133,2.74397515646616,0.38580537300358375,B,779.9586239270866,Correct,d
7,23,404,B,75.86679423792404,51.48947122932803,3.7933397118962024,0.8087947227564,B,1888.720749062486,Correct,d
7,23,405,A,49.88570654841749,57.67867196005676,2.4942853274208745,0.9060144604926496,B,3620.962542016059,Incorrect,d
7,23,406,B,37.47082193549069,23.273358900567118,1.8735410967745343,0.36557706673190143,B,830.2382079418749,Correct,d
7,23,407,B,73.44367678654353,60.2290713426293,3.6721838393271766,0.9460760403126987,B,5734.929665923119,Correct,d
7,23,408,A,32.594777308678346,55.7569602445602,1.6297388654339173,0.8758282834540424,A,798.258623923175,Correct,k
7,23,409,B,42.24680574637398,16.09343014653653,2.112340287318699,0.2527950095970984,B,2912.6509580528364,Correct,d
7,23,410,A,59.36863387496494,69.52569827817479,2.968431693748247,1.0921071147320722,A,2800.4702910548076,Correct,k
7,23,411,A,12.034184534920097,38.20279679373501,0.6017092267460049,0.6000881287689079,A,2367.263332940638,Correct,k
7,23,412,A,51.63944326857033,63.618342761843245,2.581972163428517,0.9993145912708207,A,1480.0435409415513,Correct,k
7,23,413,B,33.18206716990224,11.159262463710991,1.659103358495112,0.17528928487737394,B,1027.6615420589224,Correct,d
7,23,414,A,31.252589208011944,40.7487390289521,1.5626294604005972,0.640079695882018,A,636.2769580446184,Correct,k
7,23,415,B,57.3300249691571,30.579985202316166,2.866501248457855,0.48034928429240525,B,764.820915996097,Correct,d
7,23,416,A,38.2022081742261,67.02460833817511,1.910110408711305,1.0528200858247205,A,2342.1634170226753,Correct,k
7,23,417,B,63.86781156094131,41.078369613433075,3.1933905780470657,0.6452575209950376,B,835.5468329973519,Correct,d
7,23,418,B,81.29891783918451,61.25307119063632,4.064945891959225,0.9621609923115784,B,4988.184665911831,Correct,d
7,23,419,A,48.45865748911413,61.70764194874728,2.4229328744557064,0.9693013730826691,A,1274.9250000342727,Correct,k
7,23,420,A,25.70020571705553,40.54064439761861,1.2850102858527765,0.6368109530567742,A,1797.201873967424,Correct,k
7,23,421,B,88.9391703521426,63.976044108332154,4.44695851760713,1.0049333508823644,B,2509.067832957953,Correct,d
7,23,422,B,72.60374689639374,42.18155742473527,3.6301873448196873,0.6625863546126216,B,3265.9709160216153,Correct,d
7,23,423,A,11.423623083053748,31.14143641599006,0.5711811541526874,0.48916853933354015,A,623.3735410496593,Correct,k
7,23,424,B,65.951084537771,43.53349816534783,3.29755422688855,0.6838225901066075,B,876.7186659388244,Correct,d
7,23,425,B,74.28073847538089,49.383073861535195,3.714036923769044,0.7757075102754055,B,747.1983329160139,Correct,d
7,23,426,A,20.816743895118673,34.57165478641246,1.0408371947559336,0.543050283497179,A,702.75754109025,Correct,k
7,23,427,A,24.933887502715557,53.66450395138993,1.2466943751357777,0.8429600568611352,A,980.031083105132,Correct,k
7,23,428,B,56.66441731022509,42.75140178090701,2.8332208655112545,0.6715374488278153,B,1560.0315829506144,Correct,d
7,23,429,B,69.26154304792882,54.03566798490357,3.4630771523964414,0.8487902878659511,A,2276.028999942355,Incorrect,k
7,23,430,B,83.34381171457028,57.88858441919129,4.167190585728514,0.9093117576902198,B,686.4520410308614,Correct,d
7,23,431,B,58.342292644183836,51.279729625021616,2.917114632209192,0.805500109340194,B,1864.4154579378664,Correct,d
7,23,432,B,44.63315849646823,17.253227037048905,2.231657924823412,0.27101305655154817,B,662.6192919211462,Correct,d
7,23,433,B,61.82350316541067,33.34206529855835,3.0911751582705334,0.5237359369873105,B,552.4076250148937,Correct,d
7,23,434,A,63.2771187700814,86.77469176320864,3.1638559385040703,1.3630536708040748,A,836.3672079285607,Correct,k
7,23,435,B,79.04341564006319,63.36255330390837,3.9521707820031593,0.995296659861251,B,858.558457926847,Correct,d
7,23,436,B,85.12783635447317,57.45237454282912,4.256391817723658,0.9024597889752061,B,818.8059169333428,Correct,d
7,23,437,A,26.643629062816977,39.85832896811705,1.332181453140849,0.6260931673530088,A,975.3326670033857,Correct,k
7,23,438,A,30.015953660386813,59.38647633278091,1.5007976830193406,0.932840588848243,A,1755.2567910170183,Correct,k
7,23,439,A,23.225673973150837,48.53362495031039,1.1612836986575419,0.7623643979798871,B,951.5779580688104,Incorrect,d
7,23,440,A,14.91788032212817,31.24624962790389,0.7458940161064085,0.49081494141627835,A,602.0351659972221,Correct,k
7,23,441,B,30.585293325662615,12.187129646646724,1.5292646662831308,0.1914349848312586,B,692.4132079584524,Correct,d
7,23,442,A,48.261785879304156,61.46010681473507,2.413089293965208,0.9654131002900784,A,4856.142916949466,Correct,k
7,23,443,A,30.3455274884336,49.689529902812396,1.51727637442168,0.7805213105150288,A,914.8703750688583,Correct,k
7,23,444,B,68.51308837537934,44.09936456378991,3.425654418768967,0.6927111987079021,B,590.9841669490561,Correct,d
7,23,445,A,29.405312802029236,55.09951845495115,1.470265640101462,0.8655012119720488,A,724.831999046728,Correct,k
7,23,446,B,74.0729485346684,52.88473766728583,3.70364742673342,0.8307115167128429,B,484.9586240015924,Correct,d
7,23,447,A,50.303831357680856,80.05546230911843,2.5151915678840426,1.257508261350305,A,826.2924581067637,Correct,k
7,23,448,A,40.61909563345675,63.42154927714479,2.030954781672838,0.9962233664418056,A,687.8710830351338,Correct,k
7,23,449,A,24.98833328226125,46.068698015338754,1.2494166641130626,0.7236454162271744,A,672.0966249704361,Correct,k
7,23,450,A,21.469137640097156,39.1474648729171,1.0734568820048578,0.6149269402571041,A,1098.40975003317,Correct,k
7,23,451,B,35.63912807058047,21.79592579627765,1.7819564035290234,0.3423696017988706,B,2276.9272909499705,Correct,d
7,23,452,B,51.47350693958103,34.16228710071107,2.573675346979052,0.5366199509270962,B,1207.8724160091951,Correct,d
7,23,453,B,40.42092463751321,22.236606939474758,2.0210462318756606,0.3492918050090886,B,1575.8024170063436,Correct,d
7,23,454,A,37.97178754480239,46.42454408167808,1.8985893772401194,0.7292350331662768,A,3533.9077080134302,Correct,k
7,23,455,B,41.757845180361514,14.955991526653797,2.087892259018076,0.2349281655364338,B,852.9426660388708,Correct,d
7,23,456,B,63.21816605579932,47.23437973143968,3.1609083027899665,0.7419559018058076,B,1874.5497909840196,Correct,d
7,23,457,A,14.842498506852184,31.777616637069016,0.7421249253426092,0.49916163487804405,A,719.8094989871606,Correct,k
7,23,458,B,87.38031950456697,65.46621471754396,4.369015975228348,1.0283408960748406,B,1118.4680829755962,Correct,d
7,23,459,B,48.48294170443714,26.17700343992842,2.4241470852218567,0.41118740849936936,B,1019.9707079445943,Correct,d
7,23,460,A,48.87160739242995,75.28291472838298,2.4435803696214977,1.182541259257574,A,695.9634160157293,Correct,k
7,23,461,A,60.56633913865687,79.51641588786062,3.0283169569328434,1.2490409399654683,A,1275.838500005193,Correct,k
7,23,462,A,47.616863466604265,63.52380985346265,2.3808431733302133,0.997829671818366,A,1951.3969579711556,Correct,k
7,23,463,A,13.348932960459695,39.84730295246346,0.6674466480229847,0.6259199711041303,A,1088.120665983297,Correct,k
7,23,464,B,37.838789420564396,12.834443106601583,1.89193947102822,0.2016029608830785,B,2259.218499995768,Correct,d
7,23,465,B,83.09996512911742,54.651046502523506,4.154998256455872,0.8584566310166101,B,2358.648999943398,Correct,d
7,23,466,A,57.51027010292949,80.29470309690913,2.875513505146474,1.2612662468571167,A,1665.4486240586266,Correct,k
7,23,467,A,46.46271902403037,75.41971453801149,2.3231359512015186,1.184690105642281,A,2211.3393330946565,Correct,k
7,23,468,A,44.69969356915483,59.66670495627428,2.2349846784577414,0.9372424097727048,A,1150.1210829010233,Correct,k
7,23,469,A,56.93290593626151,72.97179310824477,2.8466452968130755,1.1462382457406803,A,1778.6009169649333,Correct,k
7,23,470,B,72.50187562466665,42.76038419635281,3.6250937812333324,0.6716785442796953,B,1201.792624895461,Correct,d
7,23,471,B,53.309667868247246,38.19267459866859,2.6654833934123623,0.5999291297006137,B,1361.1981250578538,Correct,d
7,23,472,A,55.357152393603904,81.30477864608716,2.7678576196801954,1.2771324764814584,A,2970.9276250796393,Correct,k
7,23,473,A,49.3330485303213,74.20062678844295,2.466652426516065,1.1655407200516519,A,4635.262249968946,Correct,k
7,23,474,A,35.643501927111345,43.66702382967617,1.7821750963555671,0.6859200063372054,A,3833.5433329921216,Correct,k
7,23,475,A,33.45837162617588,43.05626892606789,1.6729185813087941,0.6763262907456068,A,3812.254874035716,Correct,k
7,23,476,B,70.52687435571497,60.32573549296829,3.5263437177857484,0.9475944372355513,B,962.2052500490099,Correct,d
7,23,477,A,64.98602490286612,84.56790376261955,3.249301245143306,1.3283895259506708,A,1624.9408329604194,Correct,k
7,23,478,B,50.75168200842213,27.94308158033172,2.5375841004211064,0.43892889905715204,B,2423.0735830496997,Correct,d
7,23,479,A,37.542026921048695,51.13528152271112,1.8771013460524346,0.8032311238549757,A,4599.852957995608,Correct,k
7,23,480,B,57.91732980003076,40.31911927765828,2.895866490001538,0.6333312446095092,B,1744.502623914741,Correct,d
7,23,481,B,54.74780268272736,47.26475861252494,2.7373901341363682,0.7424330921540162,B,6003.26841592323,Correct,d
7,23,482,B,76.74365073597784,53.94440559492898,3.837182536798892,0.8473567415964851,B,2202.2916660644114,Correct,d
7,23,483,B,71.77353337672143,52.00318648994321,3.588676668836072,0.816864143200328,B,6781.6302080173045,Correct,d
7,23,484,B,48.34428360910801,35.35566911327555,2.4172141804554004,0.5553655517450902,A,5132.8987499000505,Incorrect,k
7,23,485,A,26.207702072101767,54.74653017035843,1.3103851036050884,0.8599564849636502,A,989.1680410364643,Correct,k
7,23,486,A,43.59119388033957,67.96990671805968,2.1795596940169784,1.067668798053199,A,1349.6577909681946,Correct,k
7,23,487,A,24.453225823300393,51.04349585876374,1.2226612911650196,0.8017893580171659,A,785.0559579674155,Correct,k
7,23,488,A,39.655026942620665,58.472174544666565,1.9827513471310334,0.9184787699447229,A,2830.350624048151,Correct,k
7,23,489,B,85.81946573802938,61.217641949966456,4.290973286901469,0.9616044711005247,B,1637.8853740170598,Correct,d
7,23,490,A,54.094871421138535,73.18435974690495,2.7047435710569268,1.149577234692746,A,1998.7207080703229,Correct,k
7,23,491,B,75.87429673713503,53.12760660019418,3.793714836856751,0.8345264929898931,B,2444.070833036676,Correct,d
7,23,492,A,66.92392268474192,82.93703007618029,3.346196134237096,1.3027718219894189,A,3206.1999579891562,Correct,k
7,23,493,A,66.52717496028279,79.38642392994319,3.3263587480141394,1.2469990310653722,A,5141.902583069168,Correct,k
7,23,494,A,64.91790164389654,77.42332307412397,3.245895082194827,1.216162714930885,A,936.6877499269322,Correct,k
7,23,495,A,58.60344165884098,81.72101781520585,2.930172082942049,1.2836707460606567,A,1294.5979989599437,Correct,k
7,23,496,B,53.65155530131239,23.394414690311905,2.68257776506562,0.36747860663058507,B,2832.131415954791,Correct,d
7,23,497,A,52.35692277790484,64.35925681931299,2.617846138895242,1.0109528420702625,A,1945.6102499971166,Correct,k
7,23,498,A,16.628387527210624,32.22786122273855,0.8314193763605311,0.5062340602913339,A,879.5243749627843,Correct,k
7,23,499,B,47.34982969534218,32.85606523213602,2.367491484767109,0.5161018657957277,B,938.3118740515783,Correct,d
7,23,500,A,63.41988794561634,81.83995585077905,3.1709943972808166,1.2855390203546022,A,741.0667489748448,Correct,k
7,23,501,B,45.86351984369568,24.76032234342764,2.293175992184784,0.3889342338731373,B,557.1667500771582,Correct,d
7,23,502,B,81.39096017907542,52.08426836654856,4.069548008953771,0.818137774339741,B,2648.195250076242,Correct,d
7,23,503,B,39.41850341397229,24.448261939543023,1.9709251706986146,0.38403240051153653,B,1611.334374989383,Correct,d
7,23,504,A,65.02076168207826,75.33461912541873,3.251038084103913,1.1833534300270028,A,750.902623985894,Correct,k
7,23,505,B,50.70700357162066,20.215693715089817,2.535350178581033,0.3175473743127376,B,779.4348740717396,Correct,d
7,23,506,A,67.88234365437827,82.64026067942152,3.3941171827189134,1.2981101792060803,A,634.783874033019,Correct,k
7,23,507,B,75.43060999185782,52.50466878266855,3.771530499592891,0.8247414086339843,B,1811.0113330185413,Correct,d
7,23,508,A,47.486050137346695,62.67678870951081,2.374302506867335,0.9845246948019942,A,1784.823999973014,Correct,k
7,23,509,A,44.71393081674854,64.64880989834933,2.2356965408374267,1.0155011311998867,A,1191.5308330208063,Correct,k
7,23,510,B,40.4863559210061,30.96107961087693,2.024317796050305,0.48633550126369846,B,980.406291084364,Correct,d
7,23,511,A,31.132856411527385,45.606045168242,1.5566428205763692,0.7163780822991669,A,4302.052207989618,Correct,k
7,23,512,B,81.01598584240915,58.8367716863315,4.050799292120457,0.924205848453595,B,1599.0237080259249,Correct,d
7,23,513,B,62.239665035586604,30.860427657234276,3.11198325177933,0.48475446407303235,B,2706.2499989988282,Correct,d
7,23,514,B,45.127991782863184,22.0142746813918,2.256399589143159,0.34579941806584136,B,2651.2920829700306,Correct,d
7,23,515,B,60.07686954063094,49.277461046145326,3.0038434770315465,0.7740485480506368,B,3269.5281240157783,Correct,d
7,23,516,A,23.08729826398418,40.53460832166016,1.154364913199209,0.6367161385973362,A,613.5380830382928,Correct,k
7,23,517,A,45.65562392697443,61.61252265216513,2.2827811963487217,0.9678072426658834,A,1000.1240409910679,Correct,k
7,23,518,B,79.58130111725677,60.89739495967244,3.9790650558628387,0.9565740431403152,B,1080.3340410348028,Correct,d
7,23,519,B,73.99444406957562,47.886908713450346,3.699722203478781,0.7522058030865033,B,605.1218749489635,Correct,d
7,23,520,B,72.18721053885724,59.68890371336075,3.6093605269428624,0.9375911070336134,B,974.2248749826103,Correct,d
7,23,521,A,15.825710720235076,40.7679413209462,0.7912855360117539,0.6403813247793217,A,620.3147079795599,Correct,k
7,23,522,A,33.114973786319936,48.07590892477164,1.6557486893159967,0.7551746114635727,A,2480.1212910097092,Correct,k
7,23,523,A,19.942750583522148,44.62880818402094,0.9971375291761074,0.701027679646941,A,568.6739989323542,Correct,k
7,23,524,B,67.72790270841382,53.866368122684854,3.386395135420691,0.8461309318489506,B,942.4738329835236,Correct,d
7,23,525,A,46.11998381054098,53.16326820416484,2.305999190527049,0.8350866641551404,B,1915.206165984273,Incorrect,d
7,23,526,B,89.68238925608597,66.72012957277158,4.484119462804299,1.0480373445618916,B,663.102291058749,Correct,d
7,23,527,B,55.466692098023685,42.61243757703601,2.7733346049011844,0.6693546042178499,B,703.2967909472063,Correct,d
7,23,528,B,42.791236437893915,31.300277149458534,2.139561821894696,0.49166360374031703,B,1138.2883329642937,Correct,d
7,23,529,B,36.14442486450349,15.362498283124122,1.8072212432251746,0.24131355873524277,B,530.132457963191,Correct,d
7,23,530,B,40.83910267675669,20.894887422876185,2.0419551338378343,0.32821612412646795,B,1421.016874955967,Correct,d
7,23,531,A,54.352890946090085,63.43686940464393,2.7176445473045043,0.9964640144418224,A,1931.1175000621006,Correct,k
7,23,532,B,80.72930926958148,60.283631229391645,4.0364654634790735,0.9469330650098651,B,922.7224999340251,Correct,d
7,23,533,B,55.365683276360514,48.62884917430778,2.768284163818026,0.763860176592657,B,1988.0257080076262,Correct,d
7,23,534,A,54.751884073922085,73.59006997480753,2.7375942036961045,1.155950116050071,A,1437.381749972701,Correct,k
7,23,535,B,85.03124795887113,69.10085615441679,4.251562397943556,1.085433710257404,B,628.0552920652553,Correct,d
7,23,536,A,50.492076501093266,72.99608180271004,2.524603825054663,1.146619771661167,A,1255.6477080797777,Correct,k
7,23,537,A,36.59203040144741,55.29071297287598,1.8296015200723703,0.8685044884366451,A,778.1791239976883,Correct,k
7,23,538,B,77.87749064971504,57.92255477931295,3.8938745324857518,0.9098453628592097,B,780.9189580148086,Correct,d
7,23,539,A,60.35978458758254,80.31073557070478,3.0179892293791273,1.261518084366593,A,627.699917065911,Correct,k
7,23,540,A,25.007511675492157,41.75896553329953,1.2503755837746078,0.6559482967046159,A,948.1198749272153,Correct,k
7,23,541,B,73.3609048404334,56.4125192586027,3.6680452420216705,0.8861257803665947,B,2811.904374975711,Correct,d
7,23,542,B,62.91704680067491,55.60601931684286,3.1458523400337457,0.8734573089058283,B,588.1803329102695,Correct,d
7,23,543,B,72.29052301000189,49.90567319640341,3.6145261505000947,0.78391648143137,B,1019.345415988937,Correct,d
7,23,544,A,22.47977377284319,43.29198098020015,1.1239886886421595,0.6800288470337292,A,567.197791999206,Correct,k
7,23,545,B,79.57712001857215,57.47583052615845,3.9788560009286074,0.9028282346997569,B,625.0890830997378,Correct,d
7,23,546,A,32.747352380075355,50.181600123809325,1.6373676190037678,0.7882507314717001,A,1166.3912490475923,Correct,k
7,23,547,B,80.3377524752679,50.148040618230134,4.016887623763395,0.7877235799907717,B,1022.7947079110891,Correct,d
7,23,548,B,76.95251390473577,59.259721752063726,3.8476256952367884,0.9308495325502933,B,652.9520410113037,Correct,d
7,23,549,B,79.04387151024723,48.61024441509477,3.9521935755123616,0.76356793371833,B,974.5144990738481,Correct,d
7,23,550,A,68.13376366652065,87.40588442425867,3.406688183326032,1.3729684219388478,A,843.5040829936042,Correct,k
7,23,551,A,22.574808159198657,54.87328940736998,1.1287404079599328,0.8619476144025009,A,569.0631250618026,Correct,k
7,23,552,A,12.632702832100865,31.48741814889521,0.6316351416050432,0.49460320768539556,A,673.946623923257,Correct,k
7,23,553,B,67.66954097880628,35.269137342761,3.3834770489403136,0.554006313872337,B,633.0901659093797,Correct,d
7,23,554,B,86.48786656488107,57.89818653208977,4.324393328244054,0.9094625873269235,B,587.6729580340907,Correct,d
7,23,555,B,81.77414171195123,50.60413170127958,4.088707085597561,0.7948878419701514,B,606.467041070573,Correct,d
7,23,556,A,60.7680430386217,80.41211147402927,3.038402151931085,1.2631104933322692,A,1044.7692909510806,Correct,k
7,23,557,B,70.50663338400017,57.64438807364432,3.5253316692000083,0.9054759304642005,A,1838.3524999953806,Incorrect,k
7,23,558,B,75.32921315288819,63.62800238449376,3.7664606576444095,0.9994663242685972,B,2614.1885409597307,Correct,d
7,23,559,A,11.884302035914889,38.96889581845063,0.5942151017957444,0.6121219841087526,A,626.5694999601692,Correct,k
7,23,560,A,30.69173199893055,49.46707299144741,1.5345865999465276,0.7770269655226062,A,702.3772919783369,Correct,k
7,23,561,B,36.93417567440815,20.958972076523455,1.8467087837204077,0.3292227635119985,B,949.3447080021724,Correct,d
7,23,562,B,75.38692589079871,58.22818989802385,3.769346294539935,0.9146462680773156,B,1708.3179999608546,Correct,d
7,23,563,A,32.11630276426176,53.0771108107822,1.605815138213088,0.8337333069846238,A,1291.8754999991506,Correct,k
7,23,564,A,47.95661115493378,75.19252997742515,2.397830557746689,1.1811214989095458,A,1050.8073329692706,Correct,k
7,23,565,A,16.65171024410209,35.550483982231995,0.8325855122051046,0.5584256965507083,A,606.0305410064757,Correct,k
7,23,566,A,38.42520192352671,50.99767600050801,1.9212600961763355,0.8010696213667423,A,998.2073330320418,Correct,k
7,23,567,A,61.40765977779188,73.73747302458574,3.0703829888895937,1.1582655177415706,B,624.1353739751503,Incorrect,d
7,23,568,A,33.927427233011684,61.83333888969298,1.6963713616505842,0.9712758160139378,A,796.0253329947591,Correct,k
7,23,569,B,83.09491040876135,61.662182458320714,4.154745520438067,0.9685872970768687,B,616.7921660235152,Correct,d
7,23,570,B,57.874522724036574,27.771675421261286,2.8937261362018285,0.43623645740657335,B,1545.0545829953626,Correct,d
7,23,571,B,69.20301789289039,43.29301363064636,3.4601508946445194,0.6800450678690069,B,814.3551249522716,Correct,d
7,23,572,A,25.468612706884922,41.08688641068466,1.2734306353442462,0.6453913025334261,A,783.2113750046119,Correct,k
7,23,573,B,74.67946233162097,55.517243665994414,3.7339731165810486,0.8720628242432126,B,1181.5034159226343,Correct,d
7,23,574,B,70.85082301171835,49.650641657234445,3.5425411505859175,0.7799104553819356,B,2528.4229579847306,Correct,d
7,23,575,B,69.69147020738322,42.50767447086656,3.484573510369161,0.6677089891943039,B,902.7370830299333,Correct,d
7,23,576,B,56.698783141906354,34.606281477581994,2.834939157095318,0.5435941982901605,B,585.8036249410361,Correct,d
7,23,577,A,28.198628213982794,55.028896189870466,1.4099314106991399,0.8643918800262621,A,861.2452079541981,Correct,k
7,23,578,B,58.3482005311698,27.91664713429219,2.91741002655849,0.4385136677497545,B,8699.006165959872,Correct,d
7,23,579,A,23.62019171349639,36.55174511633618,1.1810095856748193,0.5741534696668417,A,1803.241292014718,Correct,k
7,23,580,B,39.464424765551755,29.279332408383205,1.9732212382775878,0.4599186779809511,B,1465.865375008434,Correct,d
7,23,581,A,36.96038530041235,53.36122775843085,1.8480192650206175,0.8381962055620905,A,2214.5708750467747,Correct,k
7,23,582,B,54.49446117415581,26.40460628729413,2.7247230587077906,0.4147625856654704,B,3805.9356659650803,Correct,d
7,23,583,B,54.21643144329747,27.305584334191025,2.7108215721648734,0.4289151157313553,B,2705.296791042201,Correct,d
7,23,584,B,60.81875657891965,39.13166832977663,3.0409378289459825,0.6146788087376931,B,2216.3224579999223,Correct,d
7,23,585,A,27.441974157705864,46.60281318262323,1.372098707885293,0.7320352776557336,A,1909.675957984291,Correct,k
7,23,586,B,39.0325254993448,27.58160578400424,1.95162627496724,0.43325085052618734,B,1170.511708012782,Correct,d
7,23,587,B,62.417092824206065,41.893909127327575,3.120854641210303,0.6580679857228535,B,1534.1273739468306,Correct,d
7,23,588,B,63.17899051701186,55.8110239410158,3.158949525850593,0.8766775140120965,B,2255.706875002943,Correct,d
7,23,589,A,11.985899980751213,35.00515442840515,0.5992949990375607,0.5498596799502691,A,1422.7652490371838,Correct,k
7,23,590,A,46.06275882491412,59.54732035678731,2.303137941245706,0.9353671208692047,A,2015.718000009656,Correct,k
7,23,591,A,45.271283270389674,66.76616485413851,2.263564163519484,1.0487604650706328,A,3326.807500096038,Correct,k
7,23,592,A,23.18803943168982,52.53463180287108,1.159401971584491,0.8252120666547226,A,1595.062708016485,Correct,k
7,23,593,A,48.830826941374625,78.40693559857314,2.441541347068731,1.231613264334827,A,688.6473749764264,Correct,k
7,23,594,B,46.542237562797226,23.01748458963965,2.327111878139861,0.36155780245464103,B,2341.025124071166,Correct,d
7,23,595,B,56.81143000272345,41.76479264980625,2.840571500136172,0.6560398288366615,B,1887.1366661041975,Correct,d
7,23,596,B,59.81779835111745,51.379745496029976,2.9908899175558723,0.8070711549682051,B,2022.1273329807445,Correct,d
7,23,597,A,56.964371666155834,70.4937915855474,2.8482185833077915,1.1073138888442284,A,1614.4874159945175,Correct,k
7,23,598,A,55.904309641997685,66.94147774958107,2.795215482099884,1.0515142735926424,A,1795.7185830455273,Correct,k
7,23,599,B,86.52269743210789,64.32755723604005,4.326134871605394,1.0104549061806019,B,3463.7863331008703,Correct,d
