subject,day,trial,cat,x,y,xt,yt,resp,rt,fb,resp_key
7,24,0,B,45.575369295665034,29.15330994578066,2.278768464783252,0.45793912176745394,B,2343.6362920328975,Correct,d
7,24,1,B,45.97306445317392,16.646938509015673,2.2986532226586958,0.2614894986234233,B,712.9885419271886,Correct,d
7,24,2,A,57.517998775118045,77.03148213315441,2.875899938755902,1.2100076918232565,A,662.1799169806764,Correct,k
7,24,3,B,78.18311233253472,52.897801109983746,3.909155616626736,0.8309167167908948,B,1582.1323749842122,Correct,d
7,24,4,B,34.55446216545623,12.799290682539713,1.7277231082728115,0.20105078789713526,B,993.563084048219,Correct,d
7,24,5,B,39.39491473687616,12.160032948051992,1.969745736843808,0.19100935088504986,B,1395.7965419394895,Correct,d
7,24,6,B,42.24320883510828,15.182091897446732,2.112160441755414,0.2384797418557189,B,598.3553329715505,Correct,d
7,24,7,A,43.522519600168174,69.02271313743917,2.176125980008409,1.0842062426170729,A,980.3025419823825,Correct,k
7,24,8,A,45.73107147980235,52.81278009592244,2.2865535739901177,0.829581209825016,A,1157.03283296898,Correct,k
7,24,9,B,68.02472695661172,56.17657681626495,3.401236347830586,0.8824196051490033,B,2063.341874978505,Correct,d
7,24,10,B,45.20096049577798,15.334549837483362,2.2600480247888988,0.24087454557772145,B,698.996250052005,Correct,d
7,24,11,A,24.19609206507675,46.49525542296645,1.2098046032538377,0.7303457643178619,A,1658.9478749083355,Correct,k
7,24,12,B,54.21422303761823,26.819818711145228,2.7107111518809113,0.4212847271677196,B,1480.4572920547798,Correct,d
7,24,13,A,26.283681749922607,37.187413286246716,1.3141840874961304,0.5841385219304007,A,1401.6936670523137,Correct,k
7,24,14,A,67.61183331547414,85.12934775948051,3.380591665773707,1.3372086676303734,A,1179.8720420338213,Correct,k
7,24,15,B,42.21230087125844,15.750940777343871,2.110615043562922,0.24741519916615703,B,880.4384589893743,Correct,d
7,24,16,B,57.456660407669396,32.06063731518495,2.8728330203834695,0.503607313293959,B,1807.0270409807563,Correct,d
7,24,17,B,75.56168659676729,53.577508958871526,3.7780843298383644,0.8415935427141606,B,1517.7802089601755,Correct,d
7,24,18,B,73.99833189162324,63.40816047256262,3.699916594581162,0.9960130555912271,B,1119.2291249753907,Correct,d
7,24,19,A,52.28985998694463,69.02814901968785,2.614492999347231,1.084291629255764,A,953.4117500297725,Correct,k
7,24,20,A,14.234334139703094,42.91874743571587,0.7117167069851547,0.6741661082266037,A,2764.6626660134643,Correct,k
7,24,21,A,37.58259014751276,67.0337386851169,1.879129507375638,1.052963504979106,A,1127.0900829695165,Correct,k
7,24,22,A,42.74183152843563,74.03147635109195,2.1370915764217817,1.162883711194985,A,836.2461249344051,Correct,k
7,24,23,A,29.783963401416027,41.13319405241999,1.4891981700708012,0.6461187012688301,A,1186.6218339418992,Correct,k
7,24,24,B,61.947760356508276,53.034614818932184,3.0973880178254136,0.8330657815056087,B,1460.5007499922067,Correct,d
7,24,25,B,79.64016175131567,63.35180638886965,3.9820080875657835,0.9951278477145792,B,1077.9511670116335,Correct,d
7,24,26,B,39.93089379897735,17.225623159301982,1.9965446899488677,0.2705794558538466,B,722.4163329228759,Correct,d
7,24,27,A,15.44682989530591,43.074178011486666,0.7723414947652956,0.6766076060015276,A,656.9974580779672,Correct,k
7,24,28,A,16.489377152196933,37.7328844623704,0.8244688576098467,0.5927067631286765,A,2362.4332500621676,Correct,k
7,24,29,B,81.93274973446964,54.540573818239345,4.096637486723482,0.8567213301497628,B,831.3227499602363,Correct,d
7,24,30,B,46.3785364686126,37.25539567616504,2.31892682343063,0.5852063868141052,A,986.9631250621751,Incorrect,k
7,24,31,B,83.59387810538756,62.729880141706545,4.179693905269378,0.9853586530687677,B,782.5644160620868,Correct,d
7,24,32,A,37.67430338571403,51.11197052382285,1.8837151692857017,0.8028649555406996,A,1108.7632500566542,Correct,k
7,24,33,A,64.71930957052521,83.25168720432694,3.23596547852626,1.3077144446003446,A,1131.2822080217302,Correct,k
7,24,34,A,62.878759136154954,84.6423288109568,3.1439379568077475,1.3295585918761677,A,1043.903541052714,Correct,k
7,24,35,A,61.19785624167887,75.95150774512202,3.0598928120839433,1.193043493805718,A,771.095540956594,Correct,k
7,24,36,A,38.40205031369224,61.601376249292855,1.9201025156846123,0.9676321553789959,A,793.5509160161018,Correct,k
7,24,37,A,36.335206045603876,44.607878574525564,1.816760302280194,0.7006989181097751,B,3590.1691659819335,Incorrect,d
7,24,38,A,18.121692145667318,33.89434191140066,0.9060846072833658,0.5324110777355847,A,671.1917499778792,Correct,k
7,24,39,A,60.8898314369693,80.18609946307518,3.0444915718484653,1.259560304966087,A,1070.615665987134,Correct,k
7,24,40,B,79.15658864890366,59.42355894712554,3.957829432445183,0.9334230811922481,B,3374.7102909255773,Correct,d
7,24,41,B,45.180492040531576,29.66478101086225,2.259024602026579,0.4659732904703742,B,1465.3409579768777,Correct,d
7,24,42,A,60.602982290451486,79.76720697989073,3.0301491145225743,1.2529803572270062,A,699.476582929492,Correct,k
7,24,43,B,73.55678052914234,51.38547132691234,3.677839026457117,0.8071610961093837,B,1036.4924159366637,Correct,d
7,24,44,A,44.18577486988961,68.6165212278187,2.2092887434944806,1.0778257950210164,A,844.2193330265582,Correct,k
7,24,45,B,76.40052884171047,48.223559584358846,3.820026442085523,0.7574939026008569,B,888.016915996559,Correct,d
7,24,46,A,40.440991736490545,67.74835229730978,2.0220495868245276,1.0641886293502079,A,1068.6156249139458,Correct,k
7,24,47,B,80.56365867028853,59.11908760239138,4.028182933514427,0.928640456493021,B,939.3080830341205,Correct,d
7,24,48,A,39.03030320426273,69.24761526831546,1.9515151602131366,1.0877389970277611,A,911.0896249767393,Correct,k
7,24,49,B,77.64398437373113,59.12235272778776,3.882199218686557,0.9286917449628125,B,675.7490419549868,Correct,d
7,24,50,A,25.32446491674178,58.17933972424626,1.2662232458370888,0.9138789313419845,A,740.3837079182267,Correct,k
7,24,51,A,20.56428631389347,45.3700389710569,1.0282143156946733,0.7126709056227748,A,617.6834580255672,Correct,k
7,24,52,B,36.770301136878594,17.77823642078916,1.8385150568439297,0.2792598846666686,B,788.243459071964,Correct,d
7,24,53,A,37.641837121798126,45.17390476110844,1.8820918560899063,0.7095900366573161,A,1267.3727090004832,Correct,k
7,24,54,B,50.64090881351579,20.192722803152808,2.5320454406757897,0.3171865480717998,B,1082.913791993633,Correct,d
7,24,55,B,37.098018826326594,15.641879077252788,1.8549009413163298,0.24570206198718622,B,794.3533749785274,Correct,d
7,24,56,B,85.83883280972437,64.73183064463497,4.291941640486218,1.0168052180330194,B,2446.911166072823,Correct,d
7,24,57,A,45.920157153185826,53.300123540265794,2.296007857659291,0.8372363827476372,B,1072.4459580378607,Incorrect,d
7,24,58,A,26.56682767213875,38.15402473463068,1.3283413836069373,0.599322019055995,A,984.6057910472155,Correct,k
7,24,59,A,56.438065115475105,71.06603366939108,2.8219032557737553,1.1163026464776193,A,2577.413459075615,Correct,k
7,24,60,B,74.69515832076323,51.90897828288006,3.734757916038161,0.8153843241442406,B,744.452791986987,Correct,d
7,24,61,A,56.596056864797994,75.54255606811412,2.8298028432398996,1.186619695884912,A,741.0674999700859,Correct,k
7,24,62,B,58.88213377742176,51.22404442558142,2.944106688871088,0.8046254082728189,B,810.9920000424609,Correct,d
7,24,63,B,54.447391418088095,46.83127594298534,2.7223695709044047,0.7356239623035958,B,1823.7659169826657,Correct,d
7,24,64,B,45.71026518246774,17.005366461739555,2.2855132591233867,0.2671196717390162,B,777.4891669396311,Correct,d
7,24,65,A,57.66848922287568,71.23368861993512,2.883424461143784,1.1189361642824551,A,2607.861040974967,Correct,k
7,24,66,B,83.16344803268177,60.22281854504229,4.158172401634089,0.9459778215978799,B,2236.045541940257,Correct,d
7,24,67,B,33.262377388404246,12.21399155750299,1.6631188694202124,0.19185693074029572,B,1756.0694999992847,Correct,d
7,24,68,B,52.60618743112553,35.44422187698714,2.630309371556276,0.5567565353047472,B,968.3365419041365,Correct,d
7,24,69,B,58.11710068635493,35.96015862747072,2.9058550343177467,0.5648608508299281,B,829.4485419755802,Correct,d
7,24,70,A,41.48287076245104,58.38528884077016,2.074143538122552,0.9171139724994082,A,1155.8235420379788,Correct,k
7,24,71,A,41.53100947901792,69.43207759388699,2.076550473950896,1.0906365244621592,A,646.3848339626566,Correct,k
7,24,72,B,65.41647168241798,46.420478646477726,3.270823584120899,0.7291711734594815,B,1306.7516250303015,Correct,d
7,24,73,A,35.68999773026343,52.38324288804338,1.7844998865131714,0.8228340551414342,A,1847.8320420254022,Correct,k
7,24,74,A,47.85107393391656,78.43202783323963,2.392553696695828,1.232007412235279,A,879.4255410321057,Correct,k
7,24,75,A,21.57528775136008,34.3037905920342,1.078764387568004,0.5388426825710865,A,1179.614583030343,Correct,k
7,24,76,A,36.92911671724344,67.58028493128798,1.8464558358621719,1.0615486333381967,A,762.419749982655,Correct,k
7,24,77,B,51.21204656982268,40.838893950803154,2.560602328491134,0.6414958460828792,B,1530.2258749725297,Correct,d
7,24,78,B,68.89077485742744,45.17837652382157,3.4445387428713725,0.7096602789417571,B,616.1024160683155,Correct,d
7,24,79,B,53.028441821854955,42.31865615278939,2.6514220910927473,0.6647398963969782,B,1491.9686670182273,Correct,d
7,24,80,B,76.28973946520499,64.47178045496395,3.8144869732602498,1.0127203592058438,B,858.6035000625998,Correct,d
7,24,81,A,57.04730333533161,68.36698624959926,2.852365166766581,1.0739061087490773,A,1538.306999951601,Correct,k
7,24,82,A,41.339007087238556,50.15954849514315,2.0669503543619276,0.7879043452986134,A,1081.81100001093,Correct,k
7,24,83,A,28.600648107382227,57.04940274417648,1.4300324053691114,0.8961299227639512,A,865.5045829946175,Correct,k
7,24,84,B,53.43049273137041,43.12759075740262,2.6715246365685204,0.6774466114524156,B,1464.8657910292968,Correct,d
7,24,85,B,36.839187961687344,18.06926220258744,1.8419593980843671,0.2838313069571822,B,678.8766670506448,Correct,d
7,24,86,A,24.980001926443524,54.720423661527384,1.2490000963221761,0.8595464048818777,A,1139.4876670092344,Correct,k
7,24,87,A,28.472201948707784,53.419789378951656,1.4236100974353891,0.8391160893461429,A,608.0191669752821,Correct,k
7,24,88,B,63.33492289408454,43.15985061174267,3.1667461447042276,0.6779533480594185,B,1270.2176669845358,Correct,d
7,24,89,B,67.92788863519812,56.21254644510695,3.3963944317599055,0.8829846147576151,B,1610.2707920363173,Correct,d
7,24,90,B,49.63918052317727,35.00803088695377,2.4819590261588633,0.5499048632554927,B,1069.1621670266613,Correct,d
7,24,91,B,38.749025119218615,13.923457830249141,1.937451255960931,0.21870916416038994,B,961.1996670719236,Correct,d
7,24,92,A,31.412697266877856,55.771515882491215,1.5706348633438927,0.8760569228800044,A,1693.7623340636492,Correct,k
7,24,93,B,31.602065312446147,13.23503219177126,1.5801032656223075,0.20789539951846506,B,894.9466249905527,Correct,d
7,24,94,A,24.737870183602276,39.774833982372435,1.2368935091801136,0.6247816311838745,A,1381.2819169834256,Correct,k
7,24,95,B,52.8317228795805,32.80241072374436,2.641586143979025,0.5152590627487516,B,1196.496417047456,Correct,d
7,24,96,B,48.38698373948495,31.505139837462167,2.419349186974247,0.49488157931845134,B,1073.2575840083882,Correct,d
7,24,97,B,82.21400670197767,64.11039291320807,4.110700335098883,1.007043696974448,B,728.2194580184296,Correct,d
7,24,98,A,21.891248122810325,35.83680115143902,1.0945624061405161,0.5629231561275952,A,1473.697041044943,Correct,k
7,24,99,A,35.66022022434933,56.70439599990213,1.7830110112174666,0.890710569497695,A,747.2924999892712,Correct,k
7,24,100,B,65.78437290757466,36.786188684213634,3.289218645378733,0.5778361006194678,B,4065.1702500181273,Correct,d
7,24,101,B,60.40031025602841,34.64977241757937,3.0200155128014203,0.5442773523781279,B,1055.634165997617,Correct,d
7,24,102,A,24.44664221939334,39.94113494942371,1.222332110969667,0.6273938806657404,A,788.2140410365537,Correct,k
7,24,103,A,45.11343594444495,52.98839964500465,2.2556717972222473,0.832339835251133,A,1084.9365000613034,Correct,k
7,24,104,A,14.73564793682782,41.67142920506551,0.736782396841391,0.6545732792761048,A,580.973583040759,Correct,k
7,24,105,A,12.816006166609224,35.613010683247246,0.6408003083304612,0.5594078636735219,A,1331.2598339980468,Correct,k
7,24,106,A,46.51378624762115,71.10693167264395,2.325689312381057,1.116945070810448,A,1345.6462080357596,Correct,k
7,24,107,B,61.70936555121112,35.19179449630288,3.0854682775605564,0.5527914152811342,B,1207.8897920437157,Correct,d
7,24,108,B,63.909740271518395,35.22149806754801,3.19548701357592,0.5532579978871797,B,1273.0974999722093,Correct,d
7,24,109,A,31.107476958639715,48.90938622018792,1.5553738479319859,0.768266842204641,A,1237.4102910980582,Correct,k
7,24,110,A,61.51066484172141,79.71084038977364,3.0755332420860704,1.252094952899907,A,1194.1087499726564,Correct,k
7,24,111,B,55.157780307711995,45.39947790365767,2.7578890153855995,0.7131333312947153,B,1510.63720905222,Correct,d
7,24,112,B,63.15704420867796,35.22974241153933,3.157852210433898,0.5533874997397636,B,1126.3495410094038,Correct,d
7,24,113,A,56.371352095399835,72.62037928489555,2.8185676047699917,1.140718250311661,A,796.2289170827717,Correct,k
7,24,114,A,23.023339020308192,35.45564224747679,1.1511669510154094,0.5569359260649048,A,686.6102910134941,Correct,k
7,24,115,B,76.77879991958108,63.70326851106942,3.8389399959790533,1.0006486018201683,B,1133.67000001017,Correct,d
7,24,116,B,56.73815162013957,47.747070677677065,2.8369075810069786,0.7500092323571146,B,1717.4155839020386,Correct,d
7,24,117,A,15.596565183626243,43.52299630423445,0.7798282591813122,0.6836576272579933,A,658.689791103825,Correct,k
7,24,118,B,37.38819554761116,24.48505214053456,1.869409777380558,0.38461029963733206,B,1445.1856670202687,Correct,d
7,24,119,A,66.07027690985312,89.11884673959113,3.303513845492656,1.399875571067471,A,852.0211250288412,Correct,k
7,24,120,B,80.08769628779055,63.51721104813914,4.004384814389527,0.9977260180267319,B,600.2636250341311,Correct,d
7,24,121,A,36.451144408291704,56.149331809418115,1.822557220414585,0.8819916415822182,A,809.3173330416903,Correct,k
7,24,122,A,41.90820365815984,55.07689076070929,2.095410182907992,0.8651457769820594,A,754.4923339737579,Correct,k
7,24,123,A,65.66403059764082,77.70218407000674,3.283201529882041,1.2205430532110753,A,1079.1261669946834,Correct,k
7,24,124,B,72.14984444089866,45.91787995946141,3.6074922220449332,0.7212763717453097,B,1203.290875069797,Correct,d
7,24,125,A,28.818010508691067,39.83074413554548,1.4409005254345533,0.6256598658162221,A,947.9294579941779,Correct,k
7,24,126,A,31.753360883710677,45.448009134289876,1.587668044185534,0.7138956580828345,A,711.3863750128075,Correct,k
7,24,127,A,63.65625214896816,80.35240442174877,3.1828126074484078,1.2621726171482097,A,896.6559579130262,Correct,k
7,24,128,B,37.52863594247741,13.495162012085746,1.8764317971238704,0.21198150918086314,B,682.2826670249924,Correct,d
7,24,129,B,45.98907649652663,31.441040916417066,2.2994538248263314,0.4938747158211597,B,1180.8355409884825,Correct,d
7,24,130,B,78.49335879707846,54.57280481287844,3.924667939853923,0.857227613429643,B,2829.0188329992816,Correct,d
7,24,131,A,24.48873809752134,40.659895510531356,1.2244369048760668,0.6386841451580696,A,882.1580840740353,Correct,k
7,24,132,A,35.12131091052244,67.10438302591336,1.7560655455261218,1.0540731836894253,A,745.993125019595,Correct,k
7,24,133,A,47.35502277016037,69.80410935554289,2.367751138508018,1.0964803857087604,A,940.6982079381123,Correct,k
7,24,134,B,61.714312560489866,39.219139209721675,3.0857156280244933,0.616052798106885,B,1049.1498329211026,Correct,d
7,24,135,A,57.5254509626485,68.08123513474229,2.876272548132425,1.0694175407331281,A,3076.7144999699667,Correct,k
7,24,136,B,64.03308143718577,51.47995496402964,3.2016540718592887,0.8086452416106445,B,1336.9536669924855,Correct,d
7,24,137,B,57.36468801487244,42.62598895917445,2.8682344007436225,0.6695674688307105,B,1616.4810410700738,Correct,d
7,24,138,B,35.799529554197,20.980349234186036,1.78997647770985,0.3295585551193355,B,1370.3162089223042,Correct,d
7,24,139,B,57.49915073485678,25.03627680540528,2.874957536742839,0.39326891642550876,B,1023.9412499358878,Correct,d
7,24,140,B,52.162676297620564,37.31131216185825,2.6081338148810285,0.5860847209174469,B,888.0445839604363,Correct,d
7,24,141,A,44.52610117422673,56.729381503279015,2.2263050587113367,0.8911030408669701,A,1390.9843339351937,Correct,k
7,24,142,B,33.67665241208201,20.214201750213228,1.6838326206041003,0.31752393858325906,B,1303.5812499001622,Correct,d
7,24,143,A,28.974404216295667,48.87242708183082,1.4487202108147834,0.7676862894169127,A,1008.4174579242244,Correct,k
7,24,144,A,44.012515065983585,54.48287258094574,2.2006257532991795,0.8558149612338396,A,1927.7972090058029,Correct,k
7,24,145,A,19.386673595645874,50.258224430200336,0.9693336797822937,0.7894543432619222,A,1079.1424170602113,Correct,k
7,24,146,A,24.924341048415165,42.857748084827584,1.246217052420758,0.6732079326634819,A,664.8111670510843,Correct,k
7,24,147,B,85.11556739139459,59.57169353714599,4.25577836956973,0.935749973891002,B,660.6182500254363,Correct,d
7,24,148,B,77.58670977980353,54.40053465098944,3.8793354889901766,0.854521600054527,B,1015.5210000229999,Correct,d
7,24,149,A,61.59949658468777,74.31066484831123,3.0799748292343883,1.1672691938541393,A,1287.3272920260206,Correct,k
7,24,150,A,52.997076036379994,76.13378266120301,2.649853801819,1.195906661492187,A,1401.8547079758719,Correct,k
7,24,151,B,42.80964999727447,20.222725726856044,2.1404824998637237,0.3176578328952613,B,817.3045410076156,Correct,d
7,24,152,A,18.699565989037243,41.61238128659538,0.9349782994518621,0.6536457567417271,A,678.8562500150874,Correct,k
7,24,153,A,59.6451873792046,86.31627004266083,2.98225936896023,1.35585279925648,A,1603.898165980354,Correct,k
7,24,154,A,21.33075488911702,40.49877985530503,1.066537744455851,0.6361533463638829,A,776.7008329974487,Correct,k
7,24,155,B,44.230536433239834,28.415816989664187,2.2115268216619914,0.44635460950240513,B,1116.329750046134,Correct,d
7,24,156,B,76.96770192165593,55.61833418891135,3.8483850960827963,0.8736507504639296,B,837.7714999951422,Correct,d
7,24,157,B,33.04713231593159,18.264375538916298,1.6523566157965797,0.2868961400773228,B,924.7849170351401,Correct,d
7,24,158,A,48.316095680637076,75.90272421853668,2.415804784031854,1.1922772039620344,A,1209.6245409920812,Correct,k
7,24,159,A,49.003241570153165,64.83457181679438,2.4501620785076583,1.0184190725914055,A,693.6611660057679,Correct,k
7,24,160,B,44.13141201793276,30.835984702770787,2.206570600896638,0.4843705150421597,B,887.6734588993713,Correct,d
7,24,161,B,80.83019971251746,67.95749444239358,4.041509985625873,1.0674738264829644,B,1352.560832980089,Correct,d
7,24,162,B,35.43301907875734,14.781718256883543,1.771650953937867,0.2321906874162973,B,1378.4937920281664,Correct,d
7,24,163,B,78.394695925992,51.51098604207242,3.9197347962995996,0.8091326766447053,B,608.9938340010121,Correct,d
7,24,164,A,54.613073269175075,75.22948259639635,2.7306536634587535,1.181701949291,A,835.7381250243634,Correct,k
7,24,165,A,32.96672823153787,46.72325672439863,1.6483364115768935,0.7339272003858033,A,909.6056249691173,Correct,k
7,24,166,B,44.42003299499346,32.796382848565074,2.221001649749673,0.5151643771068516,B,1253.607916063629,Correct,d
7,24,167,A,13.684705526470548,34.97606023915809,0.6842352763235274,0.5494026694942655,A,1841.1465419922024,Correct,k
7,24,168,A,43.81060498310111,51.45666836697033,2.1905302491550556,0.8082794565994014,A,1405.5509590543807,Correct,k
7,24,169,A,41.81841024924326,70.32838759740847,2.0909205124621626,1.1047157290741698,A,1224.3036249419674,Correct,k
7,24,170,A,33.396246093632584,53.953155829071704,1.6698123046816291,0.847494189952985,A,843.1267910636961,Correct,k
7,24,171,B,57.0356983521898,46.35438574792658,2.85178491760949,0.7281329886367677,B,1587.5370419817045,Correct,d
7,24,172,B,44.51970996134873,31.381147512689143,2.2259854980674363,0.49293391243540907,B,1232.3064170777798,Correct,d
7,24,173,A,17.408156811887267,41.93820087960444,0.8704078405943634,0.6587637189406915,A,1129.403083003126,Correct,k
7,24,174,A,20.021865530293667,42.046008148275064,1.0010932765146834,0.6604571515569877,A,828.139916062355,Correct,k
7,24,175,A,26.171649543123934,48.708360222769116,1.3085824771561965,0.7651091332212838,A,871.3723330292851,Correct,k
7,24,176,A,45.17223705403767,65.55530942058708,2.258611852701884,1.0297403923976105,A,1651.2343750800937,Correct,k
7,24,177,B,40.18651545843919,19.08165783861304,2.00932577292196,0.2997339804205041,B,848.7555420724675,Correct,d
7,24,178,A,36.907531879675886,69.71999459213325,1.8453765939837945,1.0951591140948298,A,2199.6817080071196,Correct,k
7,24,179,B,59.64426331327845,51.993881568721356,2.982213165663923,0.8167179818395637,B,1130.946792080067,Correct,d
7,24,180,A,60.26604227365027,84.40392048897397,3.0133021136825135,1.3258136827116882,A,1367.085332982242,Correct,k
7,24,181,B,44.587958919196296,25.482919291290656,2.229397945959815,0.4002847601877017,B,2149.132207967341,Correct,d
7,24,182,B,62.960514056056105,34.598648458464126,3.1480257028028054,0.5434742991062336,A,1399.2316250223666,Incorrect,k
7,24,183,A,57.28772743652115,65.39520928231943,2.8643863718260576,1.027225545306509,A,1755.6470419513062,Correct,k
7,24,184,A,48.73958411285358,74.70752836962072,2.436979205642679,1.1735031114692576,A,744.5149580016732,Correct,k
7,24,185,A,37.14888966072148,47.531298669721366,1.857444483036074,0.7466198935818948,B,2244.5669999578968,Incorrect,d
7,24,186,A,48.95069761870169,58.83295028046203,2.4475348809350845,0.9241458219505654,A,1791.071583982557,Correct,k
7,24,187,A,63.1422914232961,82.59984294954961,3.157114571164805,1.2974752989898786,A,855.6531670037657,Correct,k
7,24,188,B,54.57152894279645,41.79694817373215,2.728576447139823,0.6565449266253511,B,1545.0780000537634,Correct,d
7,24,189,A,44.30649535748711,71.75717492053062,2.2153247678743555,1.1271590678634835,A,1580.6191669544205,Correct,k
7,24,190,B,38.640865825617055,19.528430478559038,1.9320432912808527,0.3067518686379004,B,829.1766669135541,Correct,d
7,24,191,B,57.08859050122517,31.163981195163366,2.854429525061258,0.4895226718966785,B,1647.7658330695704,Correct,d
7,24,192,B,75.08970644138863,45.36518571453217,3.7544853220694314,0.7125946708475545,B,813.7471249792725,Correct,d
7,24,193,A,58.19090075283884,71.3760607697975,2.909545037641942,1.1211725407828723,A,1907.712124986574,Correct,k
7,24,194,A,35.23072362453824,63.429923274274074,1.7615361812269124,0.9963549048811183,A,1383.3800409920514,Correct,k
7,24,195,B,74.27497529965696,53.17414919826348,3.7137487649828476,0.8352575824107606,B,841.0897499416023,Correct,d
7,24,196,A,55.5652542523581,83.7758843619154,2.778262712617905,1.3159485142969072,A,912.0654169237241,Correct,k
7,24,197,B,81.81212464600051,62.91963767458154,4.090606232300026,0.9883393574249847,B,1498.9017919870093,Correct,d
7,24,198,B,41.867506119570606,22.621835044961717,2.0933753059785305,0.35534295393985926,B,2804.6771249501035,Correct,d
7,24,199,A,24.186040387649467,46.29388004389978,1.2093020193824733,0.7271825672604134,A,1193.323666928336,Correct,k
7,24,200,B,62.43110370853801,38.26208574007666,3.121555185426901,0.601019437360238,B,1234.8427090328187,Correct,d
7,24,201,B,45.429510110161054,24.515886629134584,2.271475505508053,0.3850946466516473,B,1680.675582960248,Correct,d
7,24,202,B,74.84672201955365,53.33957187019831,3.742336100977683,0.8378560356651992,B,1550.6222910480574,Correct,d
7,24,203,B,40.54610595823698,29.557314543801112,2.027305297911849,0.4642852111532416,B,1522.4990419810638,Correct,d
7,24,204,A,27.548799041601214,57.856837750015316,1.3774399520800609,0.9088130821769238,A,1289.039875031449,Correct,k
7,24,205,B,59.23537976433532,39.34270833525166,2.9617689882167664,0.6179938173917627,B,1923.634291975759,Correct,d
7,24,206,B,83.47454199579448,59.955370713616006,4.1737270997897244,0.9417767608857435,B,2217.984791030176,Correct,d
7,24,207,A,61.488640820745225,70.98634255270181,3.0744320410372614,1.1150508613438828,A,2603.6497079767287,Correct,k
7,24,208,A,49.7294656570215,76.17382607771727,2.486473282851075,1.196535662007916,A,835.1559579605237,Correct,k
7,24,209,A,22.061575254398196,40.98720681062687,1.1030787627199097,0.6438255390371547,A,799.3127909721807,Correct,k
7,24,210,B,61.16697467142451,52.23551889202973,3.0583487335712256,0.8205136120382573,B,831.6719169961289,Correct,d
7,24,211,B,85.66759792594453,57.21098591679333,4.283379896297227,0.8986680653041351,B,679.3808330548927,Correct,d
7,24,212,A,31.194663771127708,40.530921229150195,1.5597331885563852,0.6366582218836243,B,1648.5251660924405,Incorrect,d
7,24,213,A,26.01255685795729,36.22788227723806,1.3006278428978644,0.5690662440864348,A,812.7215839922428,Correct,k
7,24,214,A,13.810791792315673,31.050050274096208,0.6905395896157835,0.48773304917347193,A,675.7778329774737,Correct,k
7,24,215,A,33.99441250000036,45.82403135684625,1.6997206250000179,0.7198022013426826,A,791.9337500352412,Correct,k
7,24,216,A,64.13693215294133,86.31586915048277,3.206846607647066,1.3558465020568726,A,1514.3986250041053,Correct,k
7,24,217,B,60.94340371686452,40.40645339929922,3.047170185843226,0.6347030857842838,B,812.11141590029,Correct,d
7,24,218,B,54.45439514105847,45.91362408491472,2.722719757052923,0.7212095206242574,B,1699.3302080081776,Correct,d
7,24,219,A,37.4176661042818,68.81557169681825,1.87088330521409,1.0809524724765296,A,1261.6220409981906,Correct,k
7,24,220,B,70.94136026360644,53.90775110440674,3.547068013180322,0.8467809742057565,B,2842.5937079591677,Correct,d
7,24,221,A,38.56391430892109,53.66485639402569,1.9281957154460545,0.8429655930171118,A,1759.567999979481,Correct,k
7,24,222,B,47.99619350779152,33.03507155063745,2.399809675389576,0.5189136904714788,B,2977.846374968067,Correct,d
7,24,223,B,37.084097314611164,20.95155097156513,1.8542048657305583,0.32910619306790556,B,1378.9338750066236,Correct,d
7,24,224,B,89.55593753160034,64.55864824299107,4.477796876580016,1.0140848752293417,B,1370.5121669918299,Correct,d
7,24,225,B,35.95125669058882,15.35726617076838,1.797562834529441,0.24123137290654498,B,716.9280420057476,Correct,d
7,24,226,A,60.69084564400808,81.75015567526148,3.0345422822004036,1.284128442496117,A,1834.3309999909252,Correct,k
7,24,227,B,65.10520776320374,46.84695960642554,3.255260388160187,0.7358703207128213,B,1472.3559159319848,Correct,d
7,24,228,B,40.996868371061026,21.849238184247298,2.0498434185530514,0.3432070308308245,B,716.5038749808446,Correct,d
7,24,229,A,26.131874090984923,50.27739437136209,1.3065937045492462,0.7897554639935398,A,1475.6089580478147,Correct,k
7,24,230,B,53.266025644765136,43.11702923879826,2.663301282238257,0.6772807115061246,B,2119.0931670134887,Correct,d
7,24,231,B,57.14879985967076,35.00942655641532,2.857439992983538,0.5499267863801289,B,1436.72208301723,Correct,d
7,24,232,A,16.124087142807547,42.06062501551189,0.8062043571403774,0.6606867527706362,A,937.3787910444662,Correct,k
7,24,233,B,71.58609609797097,40.5938509701235,3.5793048048985487,0.6376467199432944,B,759.4548329943791,Correct,d
7,24,234,A,31.182007489905523,44.73098305491969,1.559100374495276,0.7026326387659262,A,1385.7824580045417,Correct,k
7,24,235,A,51.99272097799018,75.95147953103464,2.5996360488995087,1.1930430506198697,A,1377.7074579847977,Correct,k
7,24,236,B,60.106121085830736,44.07354204792926,3.005306054291537,0.6923055795772769,B,1036.4749999716878,Correct,d
7,24,237,A,46.235137073489184,68.59327798726645,2.311756853674459,1.0774606910521938,A,1681.146166054532,Correct,k
7,24,238,B,37.22003929938344,15.903652847461373,1.861001964969172,0.24981399475413524,B,1181.1396670527756,Correct,d
7,24,239,A,37.729066675395956,52.00181498728202,1.8864533337697977,0.8168425996869041,A,935.1903749629855,Correct,k
7,24,240,A,41.60138131058013,57.42541617989251,2.0800690655290066,0.9020363280004337,A,768.5636250535026,Correct,k
7,24,241,A,14.125125009497179,33.607247993684766,0.706256250474859,0.5279014170216517,A,841.5396249620244,Correct,k
7,24,242,A,37.04212770209733,47.42841735236194,1.8521063851048667,0.7450038376278546,A,1539.6908749826252,Correct,k
7,24,243,B,73.4358319602915,48.65128657411262,3.6717915980145746,0.7642126224446196,B,523.3299171086401,Correct,d
7,24,244,B,49.00312304494095,35.35194951177743,2.450156152247047,0.5553071243813862,B,1125.5369579885155,Correct,d
7,24,245,A,41.79393019841355,68.7889751088854,2.0896965099206772,1.0805346942502276,A,1334.115375066176,Correct,k
7,24,246,A,68.35502951192167,89.02778188569174,3.4177514755960834,1.3984451276874181,A,1102.5311660487205,Correct,k
7,24,247,B,56.60362701136224,28.478148330350457,2.8301813505681124,0.44733370791234706,B,1050.5877919495106,Correct,d
7,24,248,B,41.33966148420047,29.905056259054692,2.0669830742100235,0.4697475252431785,B,1316.9823329662904,Correct,d
7,24,249,B,40.73585653414665,21.497004208941355,2.0367928267073325,0.33767415248499516,B,1093.3326670201495,Correct,d
7,24,250,A,57.25004071554024,77.2050001447768,2.862502035777012,1.2127333063761487,A,815.2877909597009,Correct,k
7,24,251,B,37.616139691391396,24.359651424271263,1.8808069845695699,0.38264050979249375,B,1126.3374590780586,Correct,d
7,24,252,A,19.303493852879516,46.50575698876193,0.9651746926439757,0.7305107225276334,A,1507.4959999183193,Correct,k
7,24,253,A,29.953343689473343,41.896768352170014,1.497667184473667,0.6581128983216533,A,1542.6842080196366,Correct,k
7,24,254,A,52.11673807388802,67.81397062403605,2.605836903694401,1.0652193596161283,A,780.5613339878619,Correct,k
7,24,255,A,28.7624266817864,52.11937121186618,1.43812133408932,0.8186891685445908,A,662.9573330283165,Correct,k
7,24,256,A,41.59322018514948,65.52500783943043,2.0796610092574737,1.0292644162738411,A,671.7102919938043,Correct,k
7,24,257,B,58.468291717512415,34.253493447182564,2.923414585875621,0.5380526168672743,B,1044.68354198616,Correct,d
7,24,258,B,81.98933487930336,60.20839489087963,4.099466743965167,0.9457512553681033,B,1324.702832964249,Correct,d
7,24,259,B,78.43559321612771,61.782874138597954,3.9217796608063855,0.9704831175574108,B,2468.3810410788283,Correct,d
7,24,260,B,66.70882550985395,57.618949036567116,3.335441275492698,0.9050763350042197,B,2815.4667080380023,Correct,d
7,24,261,B,83.22319339059948,54.69986615869986,4.161159669529974,0.8592234883825821,B,2615.3030829736963,Correct,d
7,24,262,A,44.55006884969325,62.6456196280193,2.2275034424846623,0.98403509201483,A,2428.9233329473063,Correct,k
7,24,263,A,50.49744457801769,61.01971943363768,2.5248722289008843,0.9584955114841323,A,783.8497500633821,Correct,k
7,24,264,B,67.82935353834776,49.40170840102402,3.391467676917388,0.776000220937211,B,900.8292499929667,Correct,d
7,24,265,B,62.08520382870106,37.8851461595973,3.104260191435053,0.5950984842758322,B,574.0259579615667,Correct,d
7,24,266,B,60.7304600309519,31.48456331503731,3.0365230015475952,0.4945583640600196,B,612.1714169858024,Correct,d
7,24,267,B,72.49286804502144,41.17897036893084,3.6246434022510723,0.6468377539671246,B,1135.7834589434788,Correct,d
7,24,268,A,41.12710871146111,65.16710304969138,2.056355435573056,1.0236424609831971,A,1428.604666958563,Correct,k
7,24,269,B,37.15304622729228,11.396268501205476,1.8576523113646142,0.1790121670086194,B,1091.1569580202922,Correct,d
7,24,270,A,27.267849447968196,53.59156884530518,1.3633924723984097,0.8418143948938118,A,1260.8823749469593,Correct,k
7,24,271,A,43.650776409341546,67.65952656654474,2.1825388204670775,1.0627933580341018,A,1137.1226250194013,Correct,k
7,24,272,B,54.414317487782306,28.407775827501034,2.7207158743891156,0.4462282992225148,B,803.2689579995349,Correct,d
7,24,273,A,16.287885256801655,31.003609528725505,0.8143942628400828,0.48700355965105274,A,1206.8255000049248,Correct,k
7,24,274,A,55.35899658339077,83.47472457261514,2.7679498291695386,1.3112179073887955,A,3047.410083003342,Correct,k
7,24,275,A,21.638144211966928,42.14862719352109,1.0819072105983465,0.6620690877503042,A,685.071666026488,Correct,k
7,24,276,A,17.590576334896976,36.37193527282634,0.8795288167448488,0.5713290232497735,A,538.4767500218004,Correct,k
7,24,277,B,80.44291789650353,59.986936760354794,4.022145894825177,0.9422725991884304,B,1094.278333010152,Correct,d
7,24,278,B,66.95713483602731,46.67301740849373,3.3478567418013654,0.7331380430569621,B,948.1184999458492,Correct,d
7,24,279,A,57.39656630905236,77.59126607975278,2.869828315452618,1.2188007574944113,A,1117.1176659408957,Correct,k
7,24,280,B,81.0188755395186,53.16573604935245,4.05094377697593,0.8351254289766983,B,870.484207989648,Correct,d
7,24,281,B,56.65430327446083,36.700878139479904,2.8327151637230417,0.5764960457164215,B,1043.3315830305219,Correct,d
7,24,282,B,57.93391527960949,49.61509963114922,2.8966957639804742,0.7793521625417202,B,2614.678708021529,Correct,d
7,24,283,A,24.503504770495045,38.38039523702978,1.2251752385247523,0.6028778385926271,A,1938.6455420171842,Correct,k
7,24,284,B,77.1492382210653,47.71323081386177,3.857461911053265,0.7494776770193115,B,3112.1086250059307,Correct,d
7,24,285,A,35.42790751768982,67.22673915011039,1.771395375884491,1.0559951491939208,A,1368.567708064802,Correct,k
7,24,286,A,11.48646182623084,37.579500437823846,0.574323091311542,0.590297412505209,A,974.0711669437587,Correct,k
7,24,287,B,61.335144002918305,28.65110505276043,3.0667572001459154,0.4500505057549078,B,1334.9298329558223,Correct,d
7,24,288,B,84.44364300516523,68.64783934091663,4.222182150258261,1.0783177387911804,B,1565.5721250222996,Correct,d
7,24,289,A,59.18172316410622,68.06604428544743,2.9590861582053107,1.0691789234303959,A,3526.2237500865012,Correct,k
7,24,290,A,28.253260269007626,56.021492751562675,1.4126630134503813,0.8799835503572158,A,845.3260420355946,Correct,k
7,24,291,B,55.902851769825155,35.53912176677892,2.7951425884912577,0.5582472192877288,B,635.6409169966355,Correct,d
7,24,292,B,70.90853238904229,40.79779288423238,3.545426619452115,0.6408502320389119,B,654.3223339831457,Correct,d
7,24,293,B,74.04345849525696,51.88802143010618,3.702172924762848,0.8150551346706566,B,1067.280000075698,Correct,d
7,24,294,B,78.17734148507073,53.83598341764092,3.908867074253536,0.8456536500182131,B,720.6867500208318,Correct,d
7,24,295,B,54.36791794095974,39.015646191940974,2.718395897047987,0.6128563372583018,B,1097.0222089672461,Correct,d
7,24,296,A,23.38155285248108,48.732924289077324,1.169077642624054,0.7654949846725646,A,991.4130000397563,Correct,k
7,24,297,B,50.68739998906808,28.739106358137484,2.534369999453404,0.45143282702730214,B,1062.3149169841781,Correct,d
7,24,298,A,52.7091203173561,62.17911641549991,2.635456015867805,0.9767072766881952,A,1208.1883329665288,Correct,k
7,24,299,A,32.008462217377925,54.40833660271642,1.6004231108688964,0.8546441528256726,A,765.6347920419648,Correct,k
7,24,300,A,35.36492032941365,63.85421167275311,1.7682460164706826,1.003019611459444,A,1147.544709034264,Correct,k
7,24,301,A,27.940125053793395,50.94754283717431,1.3970062526896698,0.8002821314785905,A,651.7862079199404,Correct,k
7,24,302,B,52.749734949527735,40.34408060561255,2.637486747476387,0.6337233362321342,B,974.9982500215992,Correct,d
7,24,303,B,50.17875225815855,42.678852166630975,2.508937612907928,0.6703978421516634,B,1211.6121250437573,Correct,d
7,24,304,B,83.27915329507883,55.652785921695745,4.163957664753941,0.874191917017024,B,884.3692089430988,Correct,d
7,24,305,B,66.51263833176272,41.19830067881268,3.325631916588136,0.6471413937647065,B,1229.266416048631,Correct,d
7,24,306,B,40.459169662971874,22.059116333870904,2.0229584831485936,0.3465037890958573,B,588.579791947268,Correct,d
7,24,307,A,31.721086670184942,43.48877773215918,1.586054333509247,0.6831201231847532,A,1246.6122079640627,Correct,k
7,24,308,A,21.99576045964884,48.54018833238572,1.099788022982442,0.7624674953444398,A,972.3622919991612,Correct,k
7,24,309,A,51.93846039502712,66.26953016397384,2.596923019751356,1.040959345599937,A,2846.666416968219,Correct,k
7,24,310,A,63.68431769734566,84.54330396163806,3.184215884867283,1.3280031131804548,A,1572.0014170510694,Correct,k
7,24,311,A,42.350863913178294,55.8054266970111,2.117543195658915,0.8765895927088689,A,1268.915333901532,Correct,k
7,24,312,A,39.62138308685052,48.355305037882346,1.981069154342526,0.7595633553455234,A,2108.8140410138294,Correct,k
7,24,313,A,46.6353781142572,64.15120591530398,2.33176890571286,1.0076847861122253,A,1946.1915000574663,Correct,k
7,24,314,B,56.89303992156686,35.860670971501335,2.8446519960783427,0.5632981023843467,B,1063.3926669834182,Correct,d
7,24,315,B,53.34038904852534,42.30727023104994,2.6670194524262674,0.6645610467565232,B,2048.432832933031,Correct,d
7,24,316,B,74.71757067409605,49.03457587584283,3.7358785337048026,0.7702333167171957,B,680.8509170077741,Correct,d
7,24,317,A,65.70942976740824,82.17609685430622,3.2854714883704115,1.2908191108908584,A,955.1587499445304,Correct,k
7,24,318,A,55.91497312373218,66.84716910739395,2.795748656186609,1.050032876905317,A,1425.776083022356,Correct,k
7,24,319,A,49.32574580038776,74.82307586169017,2.466287290019388,1.175318127230388,A,1734.660041052848,Correct,k
7,24,320,A,41.49462377000648,57.790699239171595,2.074731188500324,0.9077741808779937,A,683.4668329684064,Correct,k
7,24,321,B,86.56727995095451,58.649481981776454,4.328363997547726,0.9212639086539792,B,1568.1408749660477,Correct,d
7,24,322,B,60.78964235117443,46.93513381719387,3.0394821175587214,0.7372553579767508,B,1544.611542019993,Correct,d
7,24,323,A,45.917215072476424,56.81822144514209,2.2958607536238214,0.8924985354104821,A,1358.7083329912275,Correct,k
7,24,324,B,73.4374608752449,57.77336733382147,3.6718730437622447,0.9075019319453904,B,2096.008500084281,Correct,d
7,24,325,B,46.52771879810377,34.97025353069149,2.3263859399051885,0.5493114579309645,B,2071.49975001812,Correct,d
7,24,326,B,53.24056751708669,43.24434899962437,2.662028375854334,0.6792806456324652,B,3428.881832980551,Correct,d
7,24,327,B,68.00186296899061,50.20015713574348,3.4000931484495305,0.7885422243335248,B,1018.9479159889743,Correct,d
7,24,328,A,20.335214501937507,50.55697357531143,1.0167607250968755,0.7941470838596585,A,1144.2757910117507,Correct,k
7,24,329,A,66.21789070120974,79.40939885977029,3.310894535060487,1.24735992041918,A,1020.7352909492329,Correct,k
7,24,330,B,74.75929810460072,49.72258933628618,3.7379649052300357,0.7810406068816941,B,1112.534458981827,Correct,d
7,24,331,A,33.28035962130567,64.46131931492664,1.6640179810652835,1.0125560360023969,A,710.6178749818355,Correct,k
7,24,332,A,57.735881395802934,66.78152433794303,2.886794069790147,1.0490017312780489,A,648.2857499504462,Correct,k
7,24,333,B,79.25910229320937,66.02540061017227,3.9629551146604682,1.0371245675362013,B,791.2797080352902,Correct,d
7,24,334,B,42.56324005001861,32.74538923120247,2.1281620025009302,0.5143633712384201,B,1615.744458977133,Correct,d
7,24,335,A,32.51444354599522,63.25459065264082,1.625722177299761,0.9936007865008301,A,903.0470419675112,Correct,k
7,24,336,B,73.06069372128765,47.92963642817561,3.653034686064382,0.7528769684599311,B,1085.0168749457225,Correct,d
7,24,337,A,68.71271387736509,85.01448799399431,3.435635693868255,1.335404454653151,A,1019.5703339995816,Correct,k
7,24,338,A,15.563573189163375,30.48651544021165,0.7781786594581688,0.47888106470260366,A,642.6738339941949,Correct,k
7,24,339,B,78.07398290111885,62.92058447895255,3.9036991450559424,0.9883542297932664,B,1094.5858749328181,Correct,d
7,24,340,B,74.18878171378908,46.53678220553509,3.709439085689454,0.7309980654930862,B,1258.4062920650467,Correct,d
7,24,341,B,67.0396609468553,44.301554005187306,3.351983047342765,0.6958871830265396,B,948.0210419278592,Correct,d
7,24,342,B,69.23789564099876,58.64807710461069,3.461894782049938,0.9212418408950633,B,797.645082930103,Correct,d
7,24,343,B,66.5832116917555,51.910491800743394,3.3291605845877745,0.815408098427243,B,1130.0664999289438,Correct,d
7,24,344,B,59.36152531287396,39.473490608217496,2.968076265643698,0.620048140531609,B,2265.947874984704,Correct,d
7,24,345,A,58.553325524816074,77.88187441879751,2.9276662762408034,1.2233656226094856,A,993.3368749916553,Correct,k
7,24,346,B,74.57104822484004,52.40869240689536,3.7285524112420023,0.8232338152487483,B,1378.2166249584407,Correct,d
7,24,347,B,49.234053669997685,31.497671715363317,2.461702683499884,0.4947642703308421,B,1674.1153750335798,Correct,d
7,24,348,B,59.90800866444562,52.44021191632239,2.995400433222281,0.8237289225450517,B,1880.5975000141189,Correct,d
7,24,349,B,74.642988462241,47.26606875505164,3.7321494231120496,0.7424536718247015,B,855.56712502148,Correct,d
7,24,350,B,55.948346369834354,41.04137694808732,2.7974173184917173,0.644676441566603,B,1173.106334055774,Correct,d
7,24,351,A,39.9998759134812,57.93863770618256,1.9999937956740599,0.9100979928837186,A,2181.3105839537457,Correct,k
7,24,352,A,40.65510394741347,65.20897110931847,2.0327551973706735,1.0243001229259199,A,1170.2432919992134,Correct,k
7,24,353,B,73.89833663070027,62.99378386673657,3.6949168315350134,0.9895040430878141,B,1460.990541963838,Correct,d
7,24,354,B,70.04892002199246,51.231609533189285,3.5024460010996226,0.8047442407052413,B,1483.2269579637796,Correct,d
7,24,355,B,32.982753788283375,14.545617113416348,1.649137689414169,0.22848201932719386,B,848.9304169779643,Correct,d
7,24,356,A,28.943472451669507,45.351294571324566,1.4471736225834753,0.7123764692802996,A,1453.4457080299035,Correct,k
7,24,357,A,45.900777795408175,56.446138886395,2.295038889770409,0.8866538762450383,A,1338.3962919469923,Correct,k
7,24,358,A,27.047009674940814,48.253191179877646,1.3523504837470406,0.7579593546148372,A,779.1055410634726,Correct,k
7,24,359,B,67.32083407781101,41.78316168470798,3.366041703890551,0.6563283689621654,B,766.7110420297831,Correct,d
7,24,360,A,41.23810820619633,67.97705679545818,2.0619054103098167,1.0677811112063378,A,1371.0488330107182,Correct,k
7,24,361,A,34.06890476884897,64.35022104385749,1.7034452384424483,1.01081090844131,A,791.3440000265837,Correct,k
7,24,362,A,51.48848105369827,82.10211986609706,2.574424052684914,1.2896570830773957,A,1164.365250035189,Correct,k
7,24,363,B,51.22661507055714,34.071441721285986,2.561330753527857,0.5351929550440241,B,1810.5615410022438,Correct,d
7,24,364,B,52.80697558040407,38.184178433664094,2.6403487790202034,0.5997956722528047,B,967.3396250000224,Correct,d
7,24,365,B,48.33451477358429,27.37444838645235,2.4167257386792143,0.42999682973475833,B,1720.3425000188872,Correct,d
7,24,366,A,58.478145254679006,82.0546610677238,2.9239072627339504,1.2889116020158076,A,1292.7593329222873,Correct,k
7,24,367,B,33.17070297861314,16.870216639357633,1.6585351489306572,0.26499674329337114,B,1151.7549169948325,Correct,d
7,24,368,B,61.30209556998945,47.97670931039004,3.0651047784994723,0.753616387564672,B,1889.1154170269147,Correct,d
7,24,369,A,27.20480613554557,59.38136539074042,1.3602403067772786,0.9327603063584066,A,1520.1812500599772,Correct,k
7,24,370,B,77.42930846735217,56.64056242691404,3.8714654233676082,0.8897078740779361,B,1502.1558329463005,Correct,d
7,24,371,B,72.70771154083447,41.35874205356004,3.635385577041723,0.6496616009858973,B,1925.1465420238674,Correct,d
7,24,372,A,11.443991955525394,34.34389319849653,0.5721995977762697,0.5394726128403458,A,578.651792020537,Correct,k
7,24,373,B,57.57769935284843,33.76008420961041,2.878884967642421,0.5303021626874243,B,1050.3388749202713,Correct,d
7,24,374,B,72.20415119129622,52.08567301772002,3.610207559564811,0.8181598385487466,B,1224.8206250369549,Correct,d
7,24,375,A,21.666907967851053,42.88988305114291,1.0833453983925525,0.6737127075339798,A,735.3970829863101,Correct,k
7,24,376,A,44.306618589474816,58.55777686389527,2.215330929473741,0.9198234080308185,A,2436.3277920056134,Correct,k
7,24,377,B,58.35863659315692,37.81231490926341,2.9179318296578463,0.5939544536708287,B,599.1350410040468,Correct,d
7,24,378,B,53.262274366329926,40.87041634521235,2.6631137183164966,0.6419909986963765,B,633.8317920453846,Correct,d
7,24,379,A,60.26463280175254,82.7664339905452,3.013231640087627,1.3000921049426066,A,1258.4856249159202,Correct,k
7,24,380,A,40.31147556101122,52.639133785777055,2.0155737780505607,0.8268535799636374,A,1529.9329169793054,Correct,k
7,24,381,A,36.379109750549546,45.407256152661205,1.8189554875274774,0.713255511744352,A,1448.5867499606684,Correct,k
7,24,382,A,12.686811630244197,30.604979383777554,0.6343405815122098,0.4807418919767132,A,894.8463749838993,Correct,k
7,24,383,B,47.05760672081445,26.088529898994235,2.352880336040722,0.40979766936818973,B,1405.0140409963205,Correct,d
7,24,384,B,58.972868103831644,28.929298058762264,2.9486434051915817,0.4544203512745849,B,1611.1792080337182,Correct,d
7,24,385,A,13.238741243151004,33.47541185781584,0.6619370621575501,0.5258305398420345,A,926.2919999891892,Correct,k
7,24,386,A,55.59239853637827,68.7218208033478,2.7796199268189135,1.0794798368855583,A,2570.670833927579,Correct,k
7,24,387,B,68.23954375187449,47.15587017830558,3.411977187593725,0.740722676628994,B,880.9976249467582,Correct,d
7,24,388,B,67.94215792415491,42.85070632625377,3.3971078962077454,0.6730973209784626,B,1511.4663750864565,Correct,d
7,24,389,B,71.02861494055546,55.583675694080426,3.5514307470277733,0.873106336100203,B,887.0925420196727,Correct,d
7,24,390,A,24.380494919341842,43.342405285200314,1.2190247459670922,0.6808209101644837,A,961.2436250317842,Correct,k
7,24,391,B,68.6105016444474,36.467465274567346,3.4305250822223696,0.5728296050081083,B,1213.5832080384716,Correct,d
7,24,392,A,68.91555889740775,86.99950699437127,3.445777944870388,1.3665850601972531,A,1120.6081659765914,Correct,k
7,24,393,A,25.92799660029402,37.68275624470747,1.2963998300147008,0.5919193509269394,A,781.9174999604002,Correct,k
7,24,394,B,69.34851944461741,37.447825004330234,3.4674259722308705,0.5882290596326001,B,1126.5816659433767,Correct,d
7,24,395,B,81.00644103848342,55.959328838316196,4.050322051924171,0.879007081891348,B,1591.8044589925557,Correct,d
7,24,396,B,77.87078435193192,66.17017861329957,3.8935392175965955,1.0393987350913318,B,1426.0403329972178,Correct,d
7,24,397,B,70.44640538293814,47.60204683145287,3.5223202691469067,0.747731203107648,B,706.1722920043394,Correct,d
7,24,398,A,25.628111970621223,56.09443875276463,1.281405598531061,0.8811293834646399,A,1336.5366249345243,Correct,k
7,24,399,B,66.86756288647243,58.89515869336694,3.3433781443236215,0.925122989415433,B,1737.4664170201868,Correct,d
7,24,400,A,51.432887001783705,61.26220639763723,2.5716443500891852,0.9623044878075937,A,1648.8927499158308,Correct,k
7,24,401,B,79.08669237160811,59.98333193308521,3.954334618580406,0.9422159746940928,B,768.8594579230994,Correct,d
7,24,402,A,27.736644950613154,55.92790253200297,1.3868322475306576,0.8785134386261325,A,675.5816249642521,Correct,k
7,24,403,B,45.99660175592724,26.3024874455591,2.2998300877963618,0.41315850665053117,B,938.3786250837147,Correct,d
7,24,404,A,36.55265686325857,54.10542195928146,1.8276328431629283,0.8498859807332726,A,1801.588459056802,Correct,k
7,24,405,B,73.28568143355491,47.766054561522616,3.664284071677746,0.7503074305072432,B,875.6229589926079,Correct,d
7,24,406,B,52.37535246267784,24.602366055150675,2.6187676231338917,0.38645306229894133,B,690.7840420026332,Correct,d
7,24,407,B,62.286919956212984,41.42327347952809,3.114345997810649,0.6506752582546318,B,686.4488329738379,Correct,d
7,24,408,A,63.05054856543316,83.75834897266515,3.1525274282716578,1.3156730690466751,A,1209.0920410118997,Correct,k
7,24,409,B,73.54070910671729,47.34206911279526,3.677035455335864,0.7436474826524893,B,1060.1491669658571,Correct,d
7,24,410,B,53.96704646007612,39.65586112950534,2.698352323003806,0.6229128099811551,B,2931.4240000676364,Correct,d
7,24,411,A,37.7126948316453,49.871504745598074,1.8856347415822652,0.783379764661197,A,1025.3680830355734,Correct,k
7,24,412,B,57.84403823238002,42.00375559869081,2.892201911619001,0.659793450060141,B,1149.1242919582874,Correct,d
7,24,413,A,42.8852167204422,59.009875130451576,2.1442608360221103,0.9269249509953885,A,782.1190840331838,Correct,k
7,24,414,B,79.10198734021222,50.74511007234947,3.9550993670106105,0.7971023250444925,B,711.5839169127867,Correct,d
7,24,415,B,52.73959008402716,23.840011647438494,2.6369795042013577,0.3744780272654394,B,886.3307500723749,Correct,d
7,24,416,B,72.00447547274251,55.573719966479736,3.6002237736371256,0.8729499518967456,B,778.6056250333786,Correct,d
7,24,417,A,36.10357614922828,67.73127089513333,1.805178807461414,1.0639203153122554,A,1234.8397080786526,Correct,k
7,24,418,B,86.59308699793716,67.70995735677353,4.329654349896859,1.0635855230345894,B,734.8175840452313,Correct,d
7,24,419,A,37.14266481911384,45.52353349645283,1.857133240955692,0.7150819919895254,A,1500.2069580368698,Correct,k
7,24,420,A,42.570532013905265,72.98522735764136,2.1285266006952632,1.1464492704367344,A,1400.1270839944482,Correct,k
7,24,421,A,66.3398852383101,86.97409357526685,3.316994261915505,1.366185867143448,A,881.6962910350412,Correct,k
7,24,422,A,37.295760416702045,61.063302691337476,1.8647880208351024,0.9591801156951782,A,782.3839170159772,Correct,k
7,24,423,B,42.05450727148507,23.07406098753452,2.1027253635742538,0.36244650243460647,B,606.3725419808179,Correct,d
7,24,424,A,57.511711762710654,80.19194721056222,2.8755855881355323,1.2596521611688138,A,927.1494169952348,Correct,k
7,24,425,B,59.26698467626594,52.3015210384858,2.963349233813297,0.821550371330395,B,1045.7953750155866,Correct,d
7,24,426,B,49.488618334489814,35.16760961680382,2.474430916724491,0.5524115200823233,B,1379.4381669722497,Correct,d
7,24,427,B,77.8062535660394,59.304632185913164,3.89031267830197,0.931554983995548,B,1790.7614160794765,Correct,d
7,24,428,B,65.09183448699669,42.60959375690593,3.2545917243498343,0.6693099335957059,B,780.3236249601468,Correct,d
7,24,429,B,72.60866311461598,52.79602753674618,3.630433155730799,0.8293180612408312,B,834.0247500455007,Correct,d
7,24,430,B,78.03118458991338,66.63986318053885,3.901559229495669,1.046776523021049,B,762.9974170122296,Correct,d
7,24,431,B,64.22197886003346,50.773546802409356,3.211098943001673,0.7975490081557338,B,1165.8365840557963,Correct,d
7,24,432,B,64.2229591004908,34.91122815555075,3.21114795502454,0.5483842895063769,B,761.8300409521908,Correct,d
7,24,433,B,66.01942175165433,57.01471897798427,3.300971087582717,0.8955851114386097,B,1146.5761250583455,Correct,d
7,24,434,B,39.426786439955066,27.992445419658942,1.9713393219977533,0.4397043044320689,B,882.3049169732258,Correct,d
7,24,435,A,32.12066381351971,62.08980412540887,1.6060331906759857,0.9753043625160686,A,2693.6061249580234,Correct,k
7,24,436,A,58.84872152665193,73.17524543005837,2.9424360763325965,1.149434067338507,A,1360.4540409287438,Correct,k
7,24,437,A,37.676927516775685,50.73291705203577,1.8838463758387842,0.7969107975292797,A,1173.1896250275895,Correct,k
7,24,438,B,44.481030436098024,29.054085100425894,2.2240515218049013,0.45638050154135335,B,986.4270000252873,Correct,d
7,24,439,A,32.326208843950525,51.382545764472255,1.6163104421975263,0.8071151414820368,A,1952.2163749206811,Correct,k
7,24,440,A,50.32229353524322,63.96684004330634,2.516114676762161,1.0047887737670231,A,2891.5084580658004,Correct,k
7,24,441,A,19.46686220825034,41.49630434682395,0.9733431104125171,0.6518224244355416,A,684.6376670291647,Correct,k
7,24,442,A,59.64616719643955,68.63093916583283,2.9823083598219773,1.078052271461742,A,888.3314579725266,Correct,k
7,24,443,A,59.80679180031463,73.43794278554941,2.990339590015731,1.153560507749148,A,874.1691670147702,Correct,k
7,24,444,A,62.533004391648284,74.59106311978115,3.126650219582414,1.1716736796027851,A,662.1422080788761,Correct,k
7,24,445,B,74.87650270396703,45.2827099586666,3.743825135198352,0.7112991447039217,B,667.4136660294607,Correct,d
7,24,446,A,36.969539282579724,58.495098678178984,1.8484769641289862,0.9188388613918858,A,682.8884590649977,Correct,k
7,24,447,A,36.62774131989923,57.988385202541615,1.8313870659949614,0.9108794247291991,A,594.00079108309,Correct,k
7,24,448,A,37.43606687263932,52.188961800290045,1.871803343631966,0.8197822949513477,A,1089.864833978936,Correct,k
7,24,449,A,64.34891164614939,76.97016532932156,3.21744558230747,1.2090445297209422,A,1258.7887089466676,Correct,k
7,24,450,B,46.23749087439931,30.48502575098197,2.311874543719966,0.47885766471890306,B,1475.2236669883132,Correct,d
7,24,451,B,71.28587728252529,59.98727229615663,3.5642938641262645,0.9422778697724811,B,2199.2828329093754,Correct,d
7,24,452,B,35.58233910542332,20.386949374723063,1.7791169552711663,0.320237451923685,B,1290.2181249810383,Correct,d
7,24,453,B,44.9237140582546,37.724957801868285,2.2461857029127303,0.5925822514366718,B,1255.635124980472,Correct,d
7,24,454,A,39.242049199141476,71.67516317859985,1.962102459957074,1.1258708304336944,A,1082.0926249725744,Correct,k
7,24,455,B,69.44237454141926,57.93098623667254,3.472118727070963,0.9099778038817093,B,754.9742090050131,Correct,d
7,24,456,A,17.542178808518234,45.141873466038184,0.8771089404259116,0.7090868902509279,A,2042.7879580529407,Correct,k
7,24,457,A,46.187717785114096,63.00263054713746,2.309385889255705,0.9896430064185946,A,1924.2866659769788,Correct,k
7,24,458,A,14.916943154827344,35.16888663870938,0.7458471577413672,0.552431579495508,A,583.8398330379277,Correct,k
7,24,459,A,56.934395045292696,85.20525347909808,2.846719752264635,1.3384009918859534,A,825.4952499410138,Correct,k
7,24,460,A,54.93170358606952,69.27743626012668,2.7465851793034757,1.0882074240717456,A,1377.7099169092253,Correct,k
7,24,461,B,57.84493536039685,30.738705249859027,2.892246768019843,0.48284245296909567,B,1279.0257080923766,Correct,d
7,24,462,A,31.138409655599922,64.46442065249312,1.5569204827799963,1.0126047516989727,A,2911.1657919129357,Correct,k
7,24,463,A,27.652152853522416,38.06758800852212,1.3826076426761207,0.5979642741372799,B,1202.7312919963151,Incorrect,d
7,24,464,A,22.427142137537754,41.300599981564545,1.1213571068768877,0.6487483074546696,A,1250.8202919270843,Correct,k
7,24,465,B,84.21210361247049,61.7640334329258,4.210605180623524,0.9701871684447704,B,980.2144169807434,Correct,d
7,24,466,A,45.543001651846936,67.906691435225,2.277150082592347,1.0666758147124589,A,1556.125291972421,Correct,k
7,24,467,A,49.61659718865287,75.49749190398323,2.4808298594326432,1.185911829650043,A,888.3565409341827,Correct,k
7,24,468,A,48.880795866522924,78.06607847104581,2.444039793326146,1.2262590930960093,A,595.1010839780793,Correct,k
7,24,469,A,27.481768977647477,43.64886990094156,1.374088448882374,0.6856348450914732,A,547.0769579987973,Correct,k
7,24,470,A,47.21372852117411,69.52032226201867,2.3606864260587055,1.0920226684677639,A,765.958167030476,Correct,k
7,24,471,A,33.97828999917,56.88170205878069,1.6989144999585,0.8934956865577441,A,1121.3003750890493,Correct,k
7,24,472,A,63.54089227967086,75.825317041605,3.1770446139835427,1.191061294870116,A,1795.125083066523,Correct,k
7,24,473,B,80.37863512356759,52.67913554750091,4.01893175617838,0.827481926167449,B,663.6149169644341,Correct,d
7,24,474,B,55.982416172531295,48.92955134355141,2.7991208086265646,0.7685835952217285,B,811.9637080235407,Correct,d
7,24,475,B,80.89268693782337,67.48160789309355,4.0446343468911685,1.0599986180468486,B,651.1570001021028,Correct,d
7,24,476,A,39.377903555010214,47.651635671738454,1.9688951777505108,0.7485101427893542,A,1311.596916988492,Correct,k
7,24,477,A,34.021249767903306,55.98128362646283,1.7010624883951653,0.879351946897111,A,581.3264580210671,Correct,k
7,24,478,B,64.5199382530357,45.49373237975487,3.2259969126517856,0.71461387714309,B,1309.402707964182,Correct,d
7,24,479,A,47.93709090204361,62.398001203720874,2.3968545451021805,0.9801455109014827,A,1138.952000066638,Correct,k
7,24,480,A,31.861456369650178,48.25719496881153,1.5930728184825087,0.7580222459843433,A,1585.831416072324,Correct,k
7,24,481,B,84.17247789162566,60.34059140226197,4.208623894581283,0.9478277933130482,B,651.0117079596967,Correct,d
7,24,482,A,24.048833267599655,36.445282901034346,1.2024416633799828,0.5724811650994559,A,724.1998329991475,Correct,k
7,24,483,A,41.29583296226636,61.5412598818342,2.064791648113318,0.9666878496871528,A,1049.6399590047076,Correct,k
7,24,484,A,21.98743772639467,44.44785678965704,1.0993718863197335,0.6981853017909888,A,928.5179590806365,Correct,k
7,24,485,B,46.5142017303653,33.78487579704384,2.325710086518265,0.5306915880321826,B,824.2316250689328,Correct,d
7,24,486,A,34.41756458477192,47.52228040481744,1.720878229238596,0.7464782350080432,A,1049.463165923953,Correct,k
7,24,487,B,73.12320281909761,44.541841518543315,3.656160140954881,0.6996616104600826,B,630.1024170825258,Correct,d
7,24,488,A,33.29817797923198,61.31860479356046,1.664908898961599,0.9631903917391271,A,1085.366916959174,Correct,k
7,24,489,A,28.452491669438906,54.94969970284691,1.4226245834719453,0.8631478645171455,A,741.3504578871652,Correct,k
7,24,490,B,78.51689062531763,51.944482523635585,3.925844531265881,0.8159420234538847,B,644.5648749358952,Correct,d
7,24,491,B,73.7772041527897,46.122425154020405,3.6888602076394847,0.7244893601480779,B,610.4654159862548,Correct,d
7,24,492,B,51.696403090327564,35.3936393224714,2.5848201545163785,0.5559619863964148,B,835.0171250058338,Correct,d
7,24,493,B,63.14956306323458,33.49679358259944,3.1574781531617293,0.5261664031895406,B,478.14650007057935,Correct,d
7,24,494,A,28.625583153348547,57.03590423682759,1.4312791576674275,0.8959178887063426,A,838.600791990757,Correct,k
7,24,495,A,42.34865761277137,71.76745426234379,2.1174328806385687,1.1273205353871034,A,739.8965420434251,Correct,k
7,24,496,A,22.282208118701462,35.728374931021165,1.114110405935073,0.561220001039989,A,617.195124970749,Correct,k
7,24,497,B,46.23841716107633,32.15010132025196,2.311920858053816,0.5050126105993553,B,1392.2262500273064,Correct,d
7,24,498,A,59.59311247801621,80.84257513520811,2.9796556239008107,1.2698722007102534,A,1110.2707920363173,Correct,k
7,24,499,A,23.247139371952414,49.98378373750483,1.1623569685976207,0.7851434389418308,A,1004.2253329884261,Correct,k
7,24,500,A,26.25207310378117,50.397642672651685,1.3126036551890587,0.7916443198932299,A,622.6492499699816,Correct,k
7,24,501,A,29.88207052259686,41.397753409078305,1.494103526129843,0.6502743899254111,A,780.3306250134483,Correct,k
7,24,502,A,46.419739244633135,71.73785334625181,2.320986962231657,1.1268555652844332,A,932.2359579382464,Correct,k
7,24,503,A,33.51788246696009,63.31369934228343,1.6758941233480045,0.9945292636265527,A,643.5032919980586,Correct,k
7,24,504,B,42.82821591449665,13.872133285409063,2.1414107957248323,0.21790296009529778,B,785.8057499397546,Correct,d
7,24,505,A,16.51089740675137,35.85818894075804,0.8255448703375684,0.5632591147366011,A,1710.3630839847028,Correct,k
7,24,506,B,72.18474193548626,44.28011906042736,3.6092370967743133,0.6955504837015999,B,846.2547499220818,Correct,d
7,24,507,A,56.44287062052321,82.1866221584406,2.8221435310261604,1.2909844419815855,A,1331.5511660184711,Correct,k
7,24,508,A,46.064236133687146,66.26284797352434,2.303211806684357,1.040854381997807,A,843.9104580320418,Correct,k
7,24,509,B,63.36858585433716,36.840543115833455,3.168429292716858,0.5786898980348021,B,2616.539334063418,Correct,d
7,24,510,B,63.63229495815215,38.255973801883925,3.1816147479076076,0.6009234312596107,B,1478.5705000394955,Correct,d
7,24,511,A,32.875410239552025,62.245298624053845,1.6437705119776012,0.977746864389152,A,873.5912080155686,Correct,k
7,24,512,A,54.220407069320075,62.5732605482328,2.7110203534660036,0.982898478247441,B,1245.803999947384,Incorrect,d
7,24,513,A,25.355999746866758,41.757395116498984,1.2677999873433379,0.6559236286551975,A,753.8952920585871,Correct,k
7,24,514,B,81.99803719973214,66.81007716463085,4.099901859986607,1.0494502380308575,B,597.1917499555275,Correct,d
7,24,515,B,63.170149082975804,51.928179650801845,3.1585074541487903,0.8156859385262504,B,1454.8936249921098,Correct,d
7,24,516,A,55.04066052013485,64.05743581976579,2.7520330260067425,1.0062118488958793,B,1240.4164579929784,Incorrect,d
7,24,517,B,37.914481719572095,15.652962423471099,1.8957240859786049,0.24587615878246943,B,839.850208023563,Correct,d
7,24,518,A,32.5265868159744,63.714046614631215,1.6263293407987198,1.0008179038750153,A,1466.9727500295267,Correct,k
7,24,519,A,35.279893734640126,54.39361178049417,1.7639946867320062,0.8544128558590784,A,840.1250840397552,Correct,k
7,24,520,B,88.82116165918254,68.76909503647519,4.441058082959127,1.0802224188030438,B,1102.76141599752,Correct,d
7,24,521,A,60.51676954478371,80.980157203748,3.0258384772391853,1.2720333347892063,A,703.4323749830946,Correct,k
7,24,522,B,54.12202579993466,27.59227034585252,2.7061012899967327,0.43341836907196885,B,815.2579170418903,Correct,d
7,24,523,A,59.643471047961484,82.28135138918088,2.9821735523980744,1.2924724452584548,A,1085.4194579878822,Correct,k
7,24,524,A,32.474015921963186,57.86326802123817,1.6237007960981595,0.9089140886410951,A,846.2887089699507,Correct,k
7,24,525,A,54.62162133727624,75.52791090444641,2.731081066863812,1.1863896501919664,A,795.733124949038,Correct,k
7,24,526,A,30.494978788553105,49.73845483205967,1.5247489394276554,0.7812898215065321,A,1260.9507080633193,Correct,k
7,24,527,A,62.58890231762658,85.66187942122738,3.1294451158813286,1.3455736554121132,A,784.043249906972,Correct,k
7,24,528,A,53.53763937855953,61.65831266128214,2.676881968927977,0.9685265104471326,A,1076.6836670227349,Correct,k
7,24,529,B,82.16302129683123,58.07517657004128,4.108151064841562,0.9122427403418587,B,1701.9715000642464,Correct,d
7,24,530,B,52.82956356012879,33.59875603731487,2.6414781780064396,0.5277680256829206,B,923.8907500403002,Correct,d
7,24,531,B,64.41068677581113,36.048421519570994,3.2205343387905567,0.5662472810969622,B,1745.398583007045,Correct,d
7,24,532,B,80.4955480411053,50.54405623218901,4.024777402055265,0.7939441787083719,B,612.1783750131726,Correct,d
7,24,533,B,89.24653775345229,63.659061699631394,4.4623268876726145,0.9999542028499068,B,1472.5613750051707,Correct,d
7,24,534,B,58.10274063150066,34.88778628843163,2.905137031575033,0.5480160655187375,B,2152.5424169376493,Correct,d
7,24,535,A,42.22869450753615,51.823254800308156,2.1114347253768075,0.8140377828288003,A,1619.2235829075798,Correct,k
7,24,536,B,71.02284638487652,59.97075019848354,3.5511423192438256,0.9420183412691225,B,1124.5144170243293,Correct,d
7,24,537,B,47.80581567550598,25.256729551678703,2.390290783775299,0.3967317800662903,B,935.9362090472132,Correct,d
7,24,538,B,47.685315679037224,27.11284447763137,2.3842657839518613,0.4258875651442465,B,925.2216250170022,Correct,d
7,24,539,B,65.60832224683158,39.60070063043652,3.2804161123415785,0.6220463508879404,B,1560.2056669304147,Correct,d
7,24,540,B,64.27652773004641,37.22728960646509,3.2138263865023204,0.584764897703652,B,712.1367499930784,Correct,d
7,24,541,A,37.752586031818204,55.9231301627814,1.88762930159091,0.878438474425699,A,2339.0174170490354,Correct,k
7,24,542,B,66.22175929591246,50.964881813310726,3.3110879647956235,0.800554491478845,B,1925.2306669950485,Correct,d
7,24,543,A,62.42116289140483,81.07928575528136,3.1210581445702417,1.2735904424354976,A,837.7200000686571,Correct,k
7,24,544,B,57.73725665559312,32.517618512520365,2.886862832779656,0.5107855571558472,B,2754.510707920417,Correct,d
7,24,545,A,12.441853004023681,33.58112009085508,0.6220926502011841,0.5274910008837346,A,821.2927500717342,Correct,k
7,24,546,A,42.35183165831024,65.37142194068579,2.117591582915512,1.0268518946178855,A,1559.5883330097422,Correct,k
7,24,547,B,60.82427547839081,47.044335332519466,3.041213773919541,0.7389706913682894,B,2119.7679999750108,Correct,d
7,24,548,B,85.91692650654639,61.83746126189364,4.295846325327319,0.9713405700850422,B,975.8889590157196,Correct,d
7,24,549,B,70.67782878120653,39.17064318969108,3.5338914390603264,0.6152910244056027,B,913.9162499923259,Correct,d
7,24,550,B,72.89662544292356,63.19227044384721,3.644831272146178,0.9926218629502491,A,2991.350083029829,Incorrect,k
7,24,551,A,50.97092829971354,61.87349855247673,2.548546414985677,0.9719066425217979,A,1494.768084026873,Correct,k
7,24,552,B,36.89341596624746,23.546474970926038,1.844670798312373,0.36986716393298585,B,1661.9260410079733,Correct,d
7,24,553,B,50.20427780502912,33.66085764979307,2.510213890251456,0.5287435155306086,B,1499.3664999492466,Correct,d
7,24,554,B,85.08298257955695,60.19983059591585,4.254149128977848,0.9456167277373965,B,1619.5892920950428,Correct,d
7,24,555,B,78.12455984104936,64.25631025824764,3.906227992052468,1.0093357612704863,A,1218.9944579731673,Incorrect,k
7,24,556,B,57.29718012251247,34.274747030638416,2.8648590061256236,0.5383864673755111,B,1027.9462080216035,Correct,d
7,24,557,B,68.98307157162462,42.38857874038432,3.4491535785812313,0.6658382378345193,B,1274.92754207924,Correct,d
7,24,558,A,63.64181774198619,77.98037990027598,3.182090887099309,1.224912943094241,A,961.9206249481067,Correct,k
7,24,559,A,17.73433426523528,44.93489958404058,0.8867167132617639,0.7058357521150846,A,866.8858340242878,Correct,k
7,24,560,A,43.494312742360705,55.587525386242824,2.174715637118035,0.873166806923283,A,1481.9389169570059,Correct,k
7,24,561,A,28.688249173776953,47.73728479724576,1.4344124586888478,0.749855516106755,A,914.2755420180038,Correct,k
7,24,562,B,81.83035391898906,65.06705940038435,4.091517695949453,1.0220709790146907,B,2170.7564159296453,Correct,d
7,24,563,B,82.0071969324046,65.47426194336045,4.10035984662023,1.0284673016023749,B,989.6828749915585,Correct,d
7,24,564,A,45.20401467056379,69.32909419259674,2.2602007335281895,1.0890188649774835,A,2241.2012920249254,Correct,k
7,24,565,A,20.903720093244026,51.36808155998608,1.0451860046622015,0.806887938289268,A,918.8564999494702,Correct,k
7,24,566,B,35.85042826005074,19.987403019592453,1.7925214130025369,0.31396139245345045,B,1281.1085421126336,Correct,d
7,24,567,B,44.85416202323268,23.44685845031434,2.242708101161634,0.3683023912863365,B,545.1948749832809,Correct,d
7,24,568,B,70.07866014546138,49.959486431508466,3.5039330072730697,0.7847617777517297,B,870.2282089507207,Correct,d
7,24,569,B,60.13800583675214,31.035073792861716,3.0069002918376073,0.4874977991563574,B,672.4548749625683,Correct,d
7,24,570,B,67.63697575595565,56.308560525295206,3.3818487877977823,0.8844928004024183,B,737.058375030756,Correct,d
7,24,571,A,27.900688616932673,57.99241745042836,1.3950344308466336,0.9109427631308914,A,1408.6486670421436,Correct,k
7,24,572,B,66.48564844459034,52.64829785672966,3.324282422229517,0.8269975288535458,B,1395.894290995784,Correct,d
7,24,573,A,31.98638755942293,47.51608040931282,1.5993193779711463,0.7463808457063953,A,2864.8162089521065,Correct,k
7,24,574,A,38.86612590516333,65.85532267773627,1.9433062952581666,1.034452989620808,A,637.0422079926357,Correct,k
7,24,575,A,58.15475974016944,71.27359955305545,2.907737987008472,1.1195630837538988,B,921.7529169982299,Incorrect,d
7,24,576,A,15.358681919982534,36.96532220732784,0.7679340959991267,0.5806499234206038,B,591.4513330208138,Incorrect,d
7,24,577,A,24.63332285657507,40.84112490385978,1.2316661428287534,0.6415308898115452,A,554.6782079618424,Correct,k
7,24,578,B,42.440933491702665,23.551587782041402,2.122046674585133,0.36994747578218196,B,756.4530830131844,Correct,d
7,24,579,B,59.354728966945956,47.65218945784992,2.967736448347298,0.7485188416412514,B,1195.2442910987884,Correct,d
7,24,580,B,41.05498103344705,23.6288241084404,2.0527490516723526,0.37116070116020883,B,656.2035409733653,Correct,d
7,24,581,B,73.70139208637153,55.989064589943766,3.6850696043185764,0.8794741699856587,B,694.5112079847604,Correct,d
7,24,582,A,53.31466890283204,82.18796499674774,2.665733445141602,1.2910055352363887,A,634.1093750670552,Correct,k
7,24,583,B,54.49305162083918,28.07306935407511,2.7246525810419593,0.44097074223239563,B,657.1794169722125,Correct,d
7,24,584,B,41.648330600675294,26.17201265341194,2.0824165300337647,0.4111090134080903,B,811.1324580386281,Correct,d
7,24,585,B,64.78975201079135,37.001794984768,3.2394876005395674,0.5812228364689139,B,680.7702919468284,Correct,d
7,24,586,B,57.35464718986175,28.323815218785892,2.8677323594930875,0.4449094490648626,B,883.2002080744132,Correct,d
7,24,587,A,19.367576870345054,47.34728478705436,0.9683788435172528,0.7437294102721688,A,930.5621249368414,Correct,k
7,24,588,A,25.441052210244862,49.74182724741317,1.2720526105122432,0.7813427952830291,A,1623.6126669682562,Correct,k
7,24,589,A,43.6479508593591,65.95180939149692,2.182397542967955,1.0359685993764052,A,854.8561669886112,Correct,k
7,24,590,A,52.30311857681834,73.30346634303993,2.6151559288409167,1.1514481567298045,A,778.9821670157835,Correct,k
7,24,591,B,78.47568521961817,52.51026953572785,3.923784260980909,0.8248293850573127,B,812.9526670090854,Correct,d
7,24,592,A,38.92732924156076,67.68071815640494,1.946366462078038,1.0631262347492154,A,839.1395419603214,Correct,k
7,24,593,A,49.038389640580434,58.43698729753227,2.4519194820290213,0.9179260499592372,A,1136.548375012353,Correct,k
7,24,594,A,42.1981120722874,69.91866936882694,2.1099056036143704,1.098279890189402,A,625.866417074576,Correct,k
7,24,595,A,19.33568338558945,37.83796617892066,0.9667841692794725,0.5943573828723809,A,578.1490410445258,Correct,k
7,24,596,B,35.00463332394202,21.059857378299544,1.7502316661971011,0.33080746612657325,B,696.5209579793736,Correct,d
7,24,597,A,40.16482479030784,69.72537142183438,2.008241239515392,1.0952435731382728,A,757.6331660384312,Correct,k
7,24,598,B,54.47953824090079,23.089322201034523,2.7239769120450394,0.3626862250156889,B,785.5089579243213,Correct,d
7,24,599,A,39.05954454319003,60.902857371838365,1.9529772271595016,0.9566598465099719,A,708.0782500561327,Correct,k
