subject,day,trial,cat,x,y,xt,yt,resp,rt,fb
7,12,0,B,72.90894390588002,60.35267844088985,3.6454471952940013,0.9480176560718331,B,1846.7393750324845,Correct
7,12,1,A,22.445079056029975,45.59751830872015,1.1222539528014988,0.7162441427030065,A,541.2694580154493,Correct
7,12,2,B,61.018482188401954,51.95626040235841,3.050924109420098,0.8161270299402373,B,815.4028749559075,Correct
7,12,3,A,17.773503952565854,33.198116225893976,0.8886751976282926,0.5214747902414432,A,574.345207947772,Correct
7,12,4,B,49.29279211977392,35.28325535355069,2.464639605988696,0.554228079067238,B,1136.9462489965372,Correct
7,12,5,B,64.16867757971598,55.83535460516312,3.2084338789857987,0.8770596991908074,A,2043.3382909977809,Incorrect
7,12,6,B,80.4820814414391,53.4130384939872,4.024104072071955,0.8390100466930949,B,676.2611249578185,Correct
7,12,7,A,32.14924221217142,59.184081516961925,1.6074621106085711,0.929661378515735,A,608.7908750050701,Correct
7,12,8,B,62.24007895543049,49.598235846962574,3.1120039477715244,0.7790872668391577,B,1563.8572910102084,Correct
7,12,9,A,43.518824068765745,68.57124028845759,2.1759412034382875,1.077114523688794,A,852.6917909621261,Correct
7,12,10,B,80.77975635899372,66.77099700536746,4.038987817949686,1.0488363683246424,B,553.5739999613725,Correct
7,12,11,A,49.74072752701747,61.40412824400698,2.4870363763508734,0.9645337909572892,A,1481.589958013501,Correct
7,12,12,B,39.44133260356635,20.825165324749,1.9720666301783176,0.32712093197012176,B,600.3546239808202,Correct
7,12,13,A,45.92420158047385,76.73218485220731,2.2962100790236923,1.2053063411279425,A,677.0514160161838,Correct
7,12,14,A,20.44932391985411,41.9205606880518,1.0224661959927055,0.6584866274597431,A,472.6051249890588,Correct
7,12,15,A,34.264361736653235,44.470338667094325,1.7132180868326616,0.6985384462959683,A,893.798916018568,Correct
7,12,16,B,87.53181965509694,63.527450882115005,4.376590982754847,0.9978868649626946,B,621.2878330261447,Correct
7,12,17,A,43.209069939751004,51.214074988409,2.16045349698755,0.8044688087199124,A,585.3841250063851,Correct
7,12,18,A,64.56292087404975,86.05032081108828,3.228146043702487,1.3516752784957993,A,834.1718750307336,Correct
7,12,19,A,21.175177829484127,45.132662451044304,1.0587588914742063,0.7089422039657434,A,575.4196249763481,Correct
7,12,20,B,31.47061130212559,17.088735121969,1.5735305651062794,0.26842922359159843,B,570.5436250427738,Correct
7,12,21,B,40.612259524736885,27.39852264561989,2.0306129762368443,0.43037498731346513,B,1244.954373978544,Correct
7,12,22,B,58.93691144500524,33.99610384482146,2.946845572250262,0.5340095504478342,B,592.9199579986744,Correct
7,12,23,B,46.79475168386489,24.965373424480656,2.3397375841932444,0.3921551687223714,B,720.4509999719448,Correct
7,12,24,B,65.93122140004877,45.783874598604754,3.2965610700024386,0.7191714204592651,B,735.9764580032788,Correct
7,12,25,B,56.05840461782214,45.86146622813708,2.8029202308911074,0.7203902269258593,B,1005.1480829715729,Correct
7,12,26,A,33.30750068470753,48.476778591016405,1.6653750342353764,0.7614714574561805,A,659.7998740035109,Correct
7,12,27,A,17.009881878136742,34.70640163609741,0.8504940939068371,0.5451668820625021,A,417.10250003961846,Correct
7,12,28,A,47.94589032342739,57.28001937851954,2.3972945161713697,0.8997524403851898,A,576.8729579867795,Correct
7,12,29,A,38.48169300397074,69.42353562054939,1.9240846501985371,1.0905023474587365,A,604.2971250135452,Correct
7,12,30,B,83.82677369831245,60.98499564469879,4.191338684915622,0.9579500714829564,B,731.9728329894133,Correct
7,12,31,A,49.3070607277212,62.58264506933186,2.46535303638606,0.9830458899601523,A,715.887832979206,Correct
7,12,32,B,70.08862106246758,60.75705266369181,3.5044310531233793,0.9543695515101117,A,1789.4562499714084,Incorrect
7,12,33,A,60.437129004777574,69.60994766837402,3.021856450238879,1.0934305010586687,B,694.2482079612091,Incorrect
7,12,34,B,83.95356827045579,66.20821715655501,4.197678413522789,1.0399962431315546,B,571.7753749922849,Correct
7,12,35,A,44.573633342902745,63.518017551719694,2.2286816671451373,0.9977386865553506,A,604.6944159897976,Correct
7,12,36,A,46.17069052570696,74.78540791607907,2.308534526285348,1.1747264405243496,A,734.3036659876816,Correct
7,12,37,A,41.24585531302499,60.595778860424176,2.0622927656512497,0.9518362685323014,A,682.3317909729667,Correct
7,12,38,B,43.18644071830791,22.21854493685653,2.159322035915395,0.3490080877354158,B,945.1550000230782,Correct
7,12,39,B,73.9303733688808,56.51828938385259,3.69651866844404,0.8877872136088663,B,625.1333330292255,Correct
7,12,40,B,68.81895576556572,51.12462330369992,3.4409477882782857,0.803063704942246,B,651.5744989737868,Correct
7,12,41,A,38.240739830272574,65.77105226206982,1.9120369915136286,1.0331292730269446,A,726.973541022744,Correct
7,12,42,B,70.85167470452882,52.39233093878108,3.542583735226441,0.8229768099085992,B,1210.797248990275,Correct
7,12,43,A,43.118152058727134,57.903685221470326,2.155907602936357,0.9095489605377353,A,1406.4693750115111,Correct
7,12,44,A,46.81643954692895,55.2827169036469,2.3408219773464474,0.8683788864749068,A,937.4711660202593,Correct
7,12,45,A,52.42602821754623,78.64738899368032,2.6213014108773116,1.2353902974328241,A,611.1151660443284,Correct
7,12,46,B,51.88798673074445,24.717306893097437,2.5943993365372227,0.3882585487593963,B,630.8410410420038,Correct
7,12,47,B,48.61242801861189,23.96058527414286,2.4306214009305944,0.376371993364795,B,768.1198330246843,Correct
7,12,48,B,82.80250950359651,65.00367781588628,4.1401254751798255,1.0210753834135307,B,1699.0584580344148,Correct
7,12,49,B,65.8029101376766,53.954957865652005,3.29014550688383,0.8475224962773958,B,488.83033299352974,Correct
7,12,50,B,45.18461883545954,22.169006660225318,2.259230941772977,0.34822994230573523,B,942.2029160195962,Correct
7,12,51,A,42.37931679017906,53.19130639045065,2.1189658395089532,0.8355270869554179,A,1509.1229989775456,Correct
7,12,52,A,46.166426540646675,53.78786305036399,2.308321327032334,0.8448977770565871,A,1747.2649159608409,Correct
7,12,53,A,63.46424058041285,75.74077611653814,3.1732120290206423,1.1897333291245273,A,1276.0851240018383,Correct
7,12,54,B,68.08862193227966,43.78364446993652,3.4044310966139837,0.6877518790706998,B,1269.3381250137463,Correct
7,12,55,A,22.352171299690973,50.66707777464224,1.1176085649845486,0.7958765965783936,A,903.8676250493154,Correct
7,12,56,B,45.959974304418616,20.36915077466493,2.2979987152209307,0.31995787216775096,A,3919.8834580020048,Incorrect
7,12,57,B,65.2418998874998,51.45456634833342,3.26209499437499,0.8082464381678645,B,1197.9202500078827,Correct
7,12,58,A,15.899050851736643,32.189888414981965,0.7949525425868322,0.5056375848219126,A,669.2202500416897,Correct
7,12,59,B,67.38174340108118,46.46151254810816,3.3690871700540588,0.7298157324790329,B,961.5501660155132,Correct
7,12,60,B,73.18235754061007,56.73335041858287,3.659117877030503,0.8911653844427769,B,773.2590829837136,Correct
7,12,61,B,41.57914731284791,30.982097981787348,2.0789573656423954,0.48666565706191145,B,1337.5177079578862,Correct
7,12,62,A,31.437804343308265,48.88861273261889,1.5718902171654134,0.7679405330249596,A,612.1969579835422,Correct
7,12,63,A,29.276126084915635,43.65605639666305,1.4638063042457818,0.6857477303022915,A,1862.7165000070818,Correct
7,12,64,B,42.1424915284933,27.660115426051952,2.107124576424665,0.4344840770996526,B,1137.4272909597494,Correct
7,12,65,B,82.50095846990826,60.817413681143975,4.125047923495413,0.9553177001550666,B,1253.0319989891723,Correct
7,12,66,A,50.61338140233518,70.24749233680107,2.5306690701167587,1.1034450292919977,A,1137.535207963083,Correct
7,12,67,B,78.61967931767491,66.59362747217901,3.9309839658837458,1.0460502542124648,B,1314.2233740072697,Correct
7,12,68,B,72.9864014348711,46.433332535432584,3.6493200717435545,0.7293730818750346,B,1655.3995829890482,Correct
7,12,69,A,65.05591824582258,79.71796416816454,3.2527959122911287,1.2522068529492003,A,1308.9240829576738,Correct
7,12,70,B,58.83028169423822,34.06765555530689,2.9415140847119106,0.5351334820878982,B,1042.8232499980368,Correct
7,12,71,A,65.44916050212811,80.2312904491668,3.2724580251064053,1.2602701633156568,A,1051.6323329648003,Correct
7,12,72,A,38.323658108867185,50.11279060321147,1.9161829054433595,0.7871698740496639,A,2393.41100002639,Correct
7,12,73,B,74.72862588557557,58.814210766917,3.7364312942787787,0.9238514623601408,B,1115.4836670029908,Correct
7,12,74,B,70.88845800601466,45.064117473505576,3.544422900300733,0.7078655019763628,B,1809.977248951327,Correct
7,12,75,B,43.999519832774126,26.494507168403338,2.1999759916387065,0.4161747454036902,B,1495.1028740033507,Correct
7,12,76,A,50.48861247530559,61.07880815473562,2.524430623765279,0.9594236749446888,A,1334.4961249968037,Correct
7,12,77,A,38.04637045270254,69.73649079925683,1.9023185226351271,1.0954182359103872,A,671.4943329570815,Correct
7,12,78,A,56.002639420052304,64.76818911210611,2.8001319710026156,1.0173763355045349,A,772.3976249690168,Correct
7,12,79,B,59.527777081539455,30.671857336209918,2.9763888540769727,0.4817924083969564,B,1274.4827080168761,Correct
7,12,80,B,66.05042483847512,48.99553459578894,3.302521241923756,0.7696200577241755,B,2097.2944170353003,Correct
7,12,81,B,58.53112164399356,43.90420829676401,2.926556082199678,0.6896456912339493,B,898.6427080235444,Correct
7,12,82,B,45.68830489534062,38.08880197819466,2.284415244767031,0.5982975023936635,B,565.1933330227621,Correct
7,12,83,A,63.50658187733387,89.27648984539735,3.1753290938666936,1.4023518231829206,A,1246.780832996592,Correct
7,12,84,B,73.34299084143359,57.96439611397692,3.6671495420716793,0.9105026050071933,B,1705.630416981876,Correct
7,12,85,A,54.07013377319903,83.07237220626584,2.7035066886599513,1.3048977711974084,A,1477.213833015412,Correct
7,12,86,A,62.89426731243606,80.44406654613054,3.144713365621803,1.2636124424310606,A,1497.5407909951173,Correct
7,12,87,B,36.8365294225015,18.144489878430473,1.841826471125075,0.28501298052605767,B,1480.7267489959486,Correct
7,12,88,A,44.935189195890025,72.21998566024584,2.246759459794501,1.134428881962943,A,736.1773329903372,Correct
7,12,89,B,64.35177580292797,55.22015046760521,3.217588790146399,0.8673960951957574,B,969.8762079933658,Correct
7,12,90,A,38.36868067398609,47.203974202531825,1.9184340336993047,0.7414782928745804,A,2002.2118740016595,Correct
7,12,91,B,51.5989640692195,26.401291183348754,2.5799482034609746,0.41471051213446714,B,902.3440409800969,Correct
7,12,92,B,38.56873606192433,20.12012533537179,1.9284368030962162,0.3160461897145494,B,860.5646250071004,Correct
7,12,93,B,46.37168422628375,17.95458358704029,2.3185842113141875,0.28202993947654825,B,2001.0519580100663,Correct
7,12,94,B,72.91135317859785,60.879681544422816,3.645567658929892,0.956295801464224,B,1624.7481249738485,Correct
7,12,95,B,59.107108615217456,30.35005350971168,2.9553554307608727,0.47673752571083666,B,1318.5206670314074,Correct
7,12,96,B,86.08732715993806,68.01593860879912,4.304366357996903,1.0683918653020883,B,1235.3857489652,Correct
7,12,97,A,42.86011631455277,55.798358058628715,2.143005815727639,0.8764785587968039,A,1260.0792489829473,Correct
7,12,98,A,17.348498244496195,31.90901712698826,0.8674249122248098,0.501225668947086,A,641.1646240158007,Correct
7,12,99,A,60.458276105765194,82.78493702184069,3.02291380528826,1.300382749878542,B,1611.0033330041915,Incorrect
7,12,100,B,76.22930500356671,63.43949936198393,3.8114652501783355,0.9965053257151153,B,2798.629291995894,Correct
7,12,101,A,39.98968631823331,52.38229392892402,1.9994843159116655,0.8228191489264447,A,3406.006333010737,Correct
7,12,102,B,58.289202314882694,36.34924495379942,2.9144601157441348,0.5709726045519606,B,993.7576249940321,Correct
7,12,103,A,34.472053743104794,48.326256151845826,1.7236026871552397,0.7591070565106869,A,1113.0309990257956,Correct
7,12,104,A,25.21676683730105,43.89865959178461,1.2608383418650526,0.6895585323799481,A,666.8494580080733,Correct
7,12,105,A,53.36669232999162,83.10311005409471,2.668334616499581,1.3053806001820403,A,2634.690332983155,Correct
7,12,106,B,88.5406974962604,64.16327911988876,4.42703487481302,1.0078744315663695,B,1064.8120410041884,Correct
7,12,107,A,23.377765019004585,44.441898853367576,1.1688882509502292,0.6980917147466013,A,1730.1525410148315,Correct
7,12,108,A,41.80229499788876,69.1656244386374,2.090114749894438,1.0864510880868694,A,1816.652791982051,Correct
7,12,109,B,83.69172722752575,68.23552217595667,4.1845863613762875,1.0718410759092445,B,788.1101249950007,Correct
7,12,110,A,20.79225091196011,46.47642525407914,1.0396125455980054,0.7300499807166507,A,562.5272499746643,Correct
7,12,111,A,37.22489798679125,50.14883064163375,1.8612448993395623,0.7877359896493764,A,1633.0694579519331,Correct
7,12,112,B,69.51304213378799,50.36561934757027,3.4756521066893993,0.7911412986791333,B,1190.6885829521343,Correct
7,12,113,B,60.18261573393637,47.09371701857105,3.0091307866968187,0.7397463770788971,B,2266.402998997364,Correct
7,12,114,A,59.93125094794953,68.59972181451573,2.996562547397476,1.0775619104539305,B,2663.6457500280812,Incorrect
7,12,115,B,73.48124703666309,50.08346898285595,3.6740623518331548,0.7867092911141628,B,1263.9315419946797,Correct
7,12,116,A,22.10813562157896,53.8680371411743,1.1054067810789479,0.8461571487300765,A,541.2268330110237,Correct
7,12,117,A,10.845655107890906,35.111066805381306,0.5422827553945453,0.5515233476774317,A,814.4695420050994,Correct
7,12,118,A,58.056908670786,84.47858990623557,2.9028454335393,1.3269865871752724,A,845.9660420194268,Correct
7,12,119,B,36.08443112298439,16.35021974982634,1.8042215561492196,0.2568286512531659,B,908.8086249539629,Correct
7,12,120,B,89.2492695228481,65.97403142367618,4.462463476142404,1.0363176622416161,B,1351.6037910012528,Correct
7,12,121,A,43.09669456378089,56.90687131443726,2.1548347281890448,0.8938910443010791,A,1109.0357920038514,Correct
7,12,122,A,41.322985373853975,71.6646815196951,2.066149268692699,1.1257061849206316,A,1236.831207992509,Correct
7,12,123,B,52.230919292644714,23.489444816056313,2.611545964632236,0.3689713363551268,B,786.8487910018303,Correct
7,12,124,B,72.3942580638951,52.33038213445691,3.619712903194755,0.822003720365782,B,756.0532500501722,Correct
7,12,125,A,21.558685055397508,42.75172188269931,1.0779342527698754,0.6715424769750108,A,592.8220410132781,Correct
7,12,126,A,32.15695312121906,42.98995843382029,1.6078476560609531,0.6752846879691019,A,1208.8367079850286,Correct
7,12,127,B,73.27742231758961,60.036911528724644,3.663871115879481,0.9430576010143085,B,772.0752080203965,Correct
7,12,128,B,35.82947049430234,12.523831334425598,1.791473524715117,0.19672388257514556,B,1395.107582968194,Correct
7,12,129,B,80.0379168596932,57.049577339837995,4.00189584298466,0.8961326653061888,B,562.3410410480574,Correct
7,12,130,A,46.02345448360233,76.44870855158115,2.3011727241801165,1.2008535058103726,A,2090.9887499874458,Correct
7,12,131,B,70.69907200891954,42.926621903172766,3.534953600445977,0.6742898000721714,B,988.2018740172498,Correct
7,12,132,B,84.10573398586232,54.26516898151475,4.205286699293116,0.8523952810906773,B,2726.926499977708,Correct
7,12,133,A,46.70974473087568,74.81410987355291,2.3354872365437838,1.175177289818067,A,3225.5998739856295,Correct
7,12,134,B,55.75828636830342,45.228905761598085,2.7879143184151713,0.7104539903527081,B,3232.523249986116,Correct
7,12,135,B,51.74211153398376,35.319580193028735,2.5871055766991877,0.5547986683114732,B,3148.3205829863437,Correct
7,12,136,A,24.395788794523646,49.18583854141273,1.2197894397261821,0.7726093451117796,A,1590.8416660386138,Correct
7,12,137,B,75.84250721374043,52.07576483462988,3.7921253606870216,0.8180042011727147,B,631.1807080055587,Correct
7,12,138,B,88.18535132864271,64.62042106078347,4.409267566432136,1.0150552003821824,B,919.9921670369804,Correct
7,12,139,A,44.35498001802702,54.81377304329641,2.217749000901351,0.8610127335417911,A,1932.7525830012746,Correct
7,12,140,B,80.8750182110944,58.88558511561338,4.04375091055472,0.9249726080077374,B,1481.5702500054613,Correct
7,12,141,B,72.83717471314418,45.81070781853016,3.641858735657209,0.7195929156922143,B,2854.7336669871584,Correct
7,12,142,B,83.03222857528888,58.976217492137366,4.1516114287644434,0.9263962580490629,B,1702.7878750232048,Correct
7,12,143,B,74.91891632390617,53.981844162325416,3.7459458161953085,0.8479448252379528,B,3428.172582993284,Correct
7,12,144,A,52.66625379848978,73.36486695009152,2.6333126899244887,1.1524126352100006,A,2303.3677919884212,Correct
7,12,145,A,56.53987344355568,71.49576295031949,2.826993672177784,1.1230528182376052,A,1154.4843739829957,Correct
7,12,146,A,57.32582448455291,83.59668833273787,2.8662912242276457,1.3131337096528244,A,964.1180420294404,Correct
7,12,147,A,59.76752261408727,73.69851886854676,2.9883761307043635,1.1576536272893763,A,2115.969208010938,Correct
7,12,148,B,51.44434526636812,22.334074501297028,2.572217263318406,0.3508228218900093,B,1567.5809579552151,Correct
7,12,149,A,44.83373380116251,65.00771102228099,2.2416866900581254,1.0211387368714309,A,1872.4244160111994,Correct
7,12,150,B,77.76556659146225,48.990183427223656,3.888278329573112,0.7695360017649114,B,1052.1887500071898,Correct
7,12,151,A,11.877165894581587,31.21037873305884,0.5938582947290794,0.49025148271766383,A,955.8626239886507,Correct
7,12,152,A,58.949332395734245,79.9116867189291,2.947466619786712,1.2552498396607836,A,1167.5357079948299,Correct
7,12,153,B,55.36711148297724,44.49175132922391,2.7683555741488624,0.6988747956061687,B,2504.1097910143435,Correct
7,12,154,A,45.637860357091874,61.54317637900049,2.281893017854594,0.9667179539542442,B,2689.8630000068806,Incorrect
7,12,155,B,60.307002589488874,39.509773451012194,3.015350129474444,0.6206180700934847,B,2350.974957982544,Correct
7,12,156,A,38.77773375401019,53.82642150662896,1.9388866877005098,0.8455034518712659,A,1492.9405830334872,Correct
7,12,157,B,71.96812492570822,56.38688282020499,3.5984062462854114,0.8857230841339226,B,1978.3214579802006,Correct
7,12,158,A,38.99089166535715,68.0307086042193,1.9495445832678573,1.0686238718476164,A,1222.1157909953035,Correct
7,12,159,A,21.89032094677547,34.75324618566051,1.0945160473387736,0.5459027145263428,A,1342.2882499871776,Correct
7,12,160,B,42.06928335508725,13.942687597586804,2.103464167754362,0.2190112246393811,B,1021.560248977039,Correct
7,12,161,B,52.72714676771922,31.11168042206448,2.636357338385961,0.4887011332739558,B,1679.7594579984434,Correct
7,12,162,A,34.140873633858234,62.65063836537822,1.7070436816929118,0.9841139261569154,A,2287.279208016116,Correct
7,12,163,A,45.6776382165971,73.81230563248312,2.283881910829855,1.1594409855976673,A,2448.2243329985067,Correct
7,12,164,A,41.57560633783787,51.931481706734985,2.0787803168918937,0.8157378070995569,A,2219.209373986814,Correct
7,12,165,B,36.782412380913954,17.088898058869965,1.839120619045698,0.26843178299845377,B,4332.583249954041,Correct
7,12,166,A,50.379432115163844,77.67545942616519,2.518971605758192,1.220123263487263,A,2977.48058300931,Correct
7,12,167,A,13.857286656021927,39.40115590797886,0.6928643328010964,0.6189119097172623,A,1942.4911660025828,Correct
7,12,168,A,29.705040403886827,38.57320996276184,1.485252020194341,0.6059065652219461,A,2511.172832979355,Correct
7,12,169,A,27.66220848609715,53.57637363878064,1.3831104243048573,0.8415757091478756,A,639.5198330283165,Correct
7,12,170,B,82.58942309768008,55.42674297625463,4.129471154884004,0.8706412427330559,B,2462.53625000827,Correct
7,12,171,B,47.44838831596807,39.43941169714843,2.372419415798403,0.6195128302483243,B,2078.4087919746526,Correct
7,12,172,A,46.798354968780515,76.35406767249349,2.339917748439026,1.1993668903580172,A,3829.746500006877,Correct
7,12,173,B,60.628864081699085,31.632605495519776,3.0314432040849546,0.49688380519314534,B,4081.5187499974854,Correct
7,12,174,B,53.77800549309883,41.68742442975991,2.6889002746549413,0.654824531678067,B,2398.555082967505,Correct
7,12,175,B,67.04739377684866,50.078819253600514,3.3523696888424332,0.7866362533378123,B,2313.897707965225,Correct
7,12,176,B,49.25211583429298,29.5987081550212,2.462605791714649,0.4649354204778145,B,2144.85100004822,Correct
7,12,177,B,72.54286601965458,53.84663191319345,3.627143300982729,0.8458209161952113,B,2498.382124991622,Correct
7,12,178,A,35.01115783159912,65.29846086871044,1.750557891579956,1.0257058247793063,B,2124.7735409997404,Incorrect
7,12,179,B,46.03406136597315,35.16295421468289,2.3017030682986577,0.5523383931968101,B,2604.2852079845034,Correct
7,12,180,B,43.7883258600001,34.357828625314205,2.189416293000005,0.539691510012921,B,2430.9382080100477,Correct
7,12,181,B,59.41618773097742,30.178625743520737,2.970809386548871,0.4740447446564028,B,1618.3976249885745,Correct
7,12,182,A,59.28541174751807,82.84868428975699,2.9642705873759034,1.3013840896214033,A,3074.4352499605156,Correct
7,12,183,A,39.62275794557832,66.14378640928412,1.981137897278916,1.0389841673200968,A,1084.727333043702,Correct
7,12,184,B,59.76731956832156,44.880317904475966,2.988365978416078,0.7049783850973809,B,1774.6881670318544,Correct
7,12,185,A,57.03517016539723,78.65669844349202,2.8517585082698615,1.2355365299285113,A,3439.2881660023704,Correct
7,12,186,B,46.7460161118081,39.511715116603355,2.337300805590405,0.6206485697052694,B,1561.1629580380395,Correct
7,12,187,B,74.22389187637823,52.82464441292693,3.7111945938189113,0.8297675740807217,B,2318.050707981456,Correct
7,12,188,A,24.17543002115902,56.02468238996133,1.208771501057951,0.8800336530800196,A,1002.0239159930497,Correct
7,12,189,A,28.593651267354957,54.72640334809776,1.429682563367748,0.8596403335788789,A,8081.725416996051,Correct
7,12,190,B,61.648773078499936,43.96407163647829,3.082438653924997,0.6905860223752779,B,7544.313958031125,Correct
7,12,191,B,39.62839327001305,27.388881614013712,1.9814196635006525,0.4302235463431302,B,2189.383083023131,Correct
7,12,192,B,41.135819667819646,17.426351372074418,2.0567909833909823,0.273732487246917,B,2952.609541011043,Correct
7,12,193,A,48.047274644235,63.854563336004425,2.40236373221175,1.003025135372878,A,2229.0916240308434,Correct
7,12,194,B,36.65852609402353,18.05657534589991,1.8329263047011763,0.28363202227834866,B,2858.0695830169134,Correct
7,12,195,B,76.15087771778168,55.0966247360784,3.8075438858890838,0.865455757542288,B,6691.373791021761,Correct
7,12,196,B,80.8581190906818,53.79359401363213,4.042905954534089,0.8449877988170929,B,926.0455830371939,Correct
7,12,197,A,16.691805297009818,40.400459780292394,0.8345902648504909,0.6346089382370824,A,703.1947910436429,Correct
7,12,198,A,21.68094228906989,47.57883528058551,1.0840471144534944,0.7473665969192316,A,707.1975410217419,Correct
7,12,199,B,70.25056772872264,38.9343328716963,3.5125283864361325,0.6115790706107035,B,757.1447909576818,Correct
7,12,200,A,24.609631501444284,52.01393625584281,1.2304815750722142,0.8170330001282178,A,780.7477490277961,Correct
7,12,201,A,16.04307346694938,36.59159596790802,0.802153673347469,0.5747794453795286,A,618.6903750058264,Correct
7,12,202,A,28.034353455345467,47.02337982126085,1.4017176727672733,0.7386415229671782,A,768.6537500121631,Correct
7,12,203,B,57.25630260331475,33.49602455730967,2.862815130165737,0.5261543233685367,B,539.9067500256933,Correct
7,12,204,A,21.842988754039755,51.00104011953732,1.0921494377019878,0.8011224648248838,A,395.89154202258214,Correct
7,12,205,B,73.35473096645677,52.23836817813957,3.6677365483228384,0.8205583685198103,B,496.6943739564158,Correct
7,12,206,A,43.404337295909244,65.19436530678787,2.1702168647954623,1.0240706955162702,A,442.86749995080754,Correct
7,12,207,A,27.378484335956948,41.82521523832408,1.3689242167978475,0.656988944637654,A,510.73008304229006,Correct
7,12,208,B,62.376152102688415,40.17297403794281,3.1188076051344207,0.631035600552273,B,647.6090410142206,Correct
7,12,209,B,72.1263863298598,56.09220615085734,3.6063193164929896,0.8810943138358881,B,720.9681249805726,Correct
7,12,210,B,60.31498447145503,50.52806477926781,3.015749223572751,0.7936929855532846,B,1723.43712503789,Correct
7,12,211,B,45.20290253550496,32.99103499317521,2.260145126775248,0.5182219658444152,B,745.1848330092616,Correct
7,12,212,A,42.58941317494291,69.86430743490001,2.1294706587471457,1.0974259749281032,A,655.6522499886341,Correct
7,12,213,A,43.005964710943864,62.60305006812935,2.150298235547193,0.9833664109317459,A,831.8921659956686,Correct
7,12,214,A,55.275482193131715,81.09790700964246,2.7637741096565858,1.2738829444150046,A,792.446542007383,Correct
7,12,215,A,45.47031296865889,66.04574151613078,2.2735156484329444,1.0374440817398343,A,939.6950409864075,Correct
7,12,216,A,64.18523728468911,78.1492689015481,3.2092618642344553,1.227565845322584,A,1538.0022910539992,Correct
7,12,217,A,28.930808523561048,40.93952145372634,1.4465404261780523,0.643076499202542,B,1091.802207985893,Incorrect
7,12,218,A,29.43158631947969,38.87464047960805,1.4715793159739843,0.6106414247084051,A,880.5308329756372,Correct
7,12,219,B,34.144231795058104,19.783673680520785,1.707211589752905,0.31076121947870916,B,586.8241669959389,Correct
7,12,220,B,53.33427255442745,24.604977692901592,2.6667136277213723,0.3864940858088019,B,648.3195410110056,Correct
7,12,221,B,52.80548854874031,39.00663853734777,2.6402744274370153,0.6127148453508213,B,1432.2538330452517,Correct
7,12,222,A,52.3990688026837,72.73132898254521,2.619953440134185,1.1424610440869323,A,1511.0504160402343,Correct
7,12,223,A,26.810592232532198,56.08018319887668,1.3405296116266099,0.8809054577478037,A,677.600540977437,Correct
7,12,224,B,66.62703137529562,47.399227653907246,3.3313515687647803,0.7445453269167258,B,703.335290949326,Correct
7,12,225,B,74.35275722033138,52.23913251477482,3.7176378610165695,0.8205703746916013,B,769.8717910097912,Correct
7,12,226,B,38.47080521276273,20.325640749712697,1.9235402606381364,0.3192744182940137,B,534.5979579724371,Correct
7,12,227,B,70.72318005755008,39.209466942336135,3.5361590028775036,0.6159008664860752,B,913.9901660382748,Correct
7,12,228,B,67.0837119403712,50.78970070388175,3.35418559701856,0.7978027530466963,B,1248.5046670190059,Correct
7,12,229,A,27.325539177947743,59.745998256990696,1.366276958897387,0.9384879460277529,A,823.2377500389703,Correct
7,12,230,A,29.686199261425212,42.800892064353235,1.4843099630712606,0.672314840382309,A,401.5100419637747,Correct
7,12,231,A,41.49738995547701,51.43810891859357,2.0748694977738507,0.8079879254660258,B,1981.8742910283618,Incorrect
7,12,232,B,70.51967491596781,42.0408018105687,3.5259837457983907,0.6603753705955355,B,679.451500007417,Correct
7,12,233,A,25.99858365839369,37.96239426509414,1.2999291829196846,0.5963118946794952,A,650.0543740112334,Correct
7,12,234,A,48.7802012194434,56.46595422730144,2.43901006097217,0.8869651348921386,B,1483.9908739668317,Incorrect
7,12,235,B,35.88532247737648,18.920435555620877,1.7942661238688238,0.29720150672128826,B,999.2163329734467,Correct
7,12,236,A,45.80134201013939,74.6843076276292,2.2900671005069695,1.173138360907,A,1066.3650410133414,Correct
7,12,237,B,82.9543174868604,63.087690998834994,4.14771587434302,0.9909791328694146,B,1519.745416007936,Correct
7,12,238,A,57.377419065588185,82.7192954549655,2.8688709532794094,1.299351654557216,A,1255.9767079656012,Correct
7,12,239,A,21.14236928276367,42.87104236119309,1.0571184641381834,0.6734167586683052,A,682.2960409917869,Correct
7,12,240,A,34.14613857085192,51.506394617139904,1.707306928542596,0.809060554710518,A,876.1367910192348,Correct
7,12,241,A,36.59012521170497,60.68526850783229,1.8295062605852486,0.9532419686266498,A,857.8808739548549,Correct
7,12,242,B,88.7542807664057,63.23013693383162,4.437714038320285,0.9932166683840103,B,977.5728329550475,Correct
7,12,243,A,30.353830181357576,52.637392191223675,1.5176915090678786,0.8268262230603652,A,1243.5644160141237,Correct
7,12,244,B,46.49795251182219,31.52357600683403,2.3248976255911096,0.49517117398974625,B,611.4468749728985,Correct
7,12,245,A,64.59228560016987,86.9880905686349,3.2296142800084935,1.366405731401135,A,977.389250008855,Correct
7,12,246,B,70.68249566514298,44.84835290237599,3.534124783257149,0.7044762800185345,B,843.6419579666108,Correct
7,12,247,B,41.117562144321084,29.917548355886687,2.055878107216054,0.4699437506413551,B,1331.8509999662638,Correct
7,12,248,A,52.139019481568695,69.80601236670263,2.606950974078435,1.0965102781381562,A,1622.9527500108816,Correct
7,12,249,A,38.55713070054474,61.62893909533061,1.927856535027237,0.968065111552117,A,1230.1351660280488,Correct
7,12,250,A,48.931522619513984,80.4139775120853,2.4465761309756995,1.2631398049895102,A,739.2011240008287,Correct
7,12,251,B,83.31903913030058,59.469085652569625,4.165951956515029,0.9341382130090745,B,641.8941249721684,Correct
7,12,252,B,66.95190433959546,45.504785291418486,3.347595216979773,0.7147874958735059,B,598.8273749826476,Correct
7,12,253,A,46.06575487785577,72.31768346320747,2.3032877438927883,1.1359635154632233,A,928.7866660160944,Correct
7,12,254,B,49.706157987560324,38.75078522714655,2.485307899378016,0.6086959109521975,B,1900.184291007463,Correct
7,12,255,A,35.42428460510266,58.13456718086785,1.771214230255133,0.9131756458751836,A,1789.3970829900354,Correct
7,12,256,B,83.25541814725976,63.78589844417542,4.162770907362988,1.0019465497742306,B,729.6136239892803,Correct
7,12,257,A,13.826567306962207,31.220759708231128,0.6913283653481104,0.49041454669435564,A,969.4321239949204,Correct
7,12,258,A,65.58109784279723,88.51435614619925,3.279054892139862,1.3903802550306503,A,783.9447910082527,Correct
7,12,259,A,45.616044935948835,54.59285113088409,2.2808022467974416,0.8575425002565336,A,1545.9299169597216,Correct
7,12,260,B,54.45569224834733,40.45180807793229,2.7227846124173665,0.6354155154102816,B,2053.7429999676533,Correct
7,12,261,A,37.292080580716245,53.75041879953723,1.8646040290358121,0.8443096041400042,A,1011.7686239536852,Correct
7,12,262,B,32.04425530356773,13.641147470805915,1.6022127651783864,0.21427464340409424,B,573.5335409990512,Correct
7,12,263,B,47.024063201347346,27.97494086608333,2.3512031600673673,0.4394293435474813,B,1001.6814170521684,Correct
7,12,264,A,48.29247135520224,55.57576174884698,2.4146235677601116,0.8729820241391716,A,1391.845165984705,Correct
7,12,265,B,65.41738030496177,38.65715906702782,3.270869015248088,0.6072252346681333,B,1527.1350829862058,Correct
7,12,266,B,89.28644578361255,65.31731510067291,4.464322289180627,1.0260019863624184,B,897.6805420243181,Correct
7,12,267,A,36.78912207023217,44.984006163794135,1.8394561035116084,0.7066071164660681,A,1306.3446250162087,Correct
7,12,268,A,37.10188543925658,46.86282882180625,1.855094271962829,0.7361195937651126,A,1522.0249579870142,Correct
7,12,269,B,70.64918612215298,61.111146025444896,3.532459306107649,0.959931637029954,B,1922.6945410482585,Correct
7,12,270,A,20.96729398813337,44.67253581422257,1.0483646994066687,0.7017145516559428,A,901.6531250090338,Correct
7,12,271,A,52.344172915711994,76.00124595875509,2.6172086457855994,1.1938247798384796,A,879.7165830037557,Correct
7,12,272,B,38.36423202368958,23.35768281098806,1.918211601184479,0.36690162361940337,B,647.708208009135,Correct
7,12,273,B,74.27360206558438,45.42553267798444,3.713680103279219,0.713542598732795,B,682.9349159961566,Correct
7,12,274,B,81.27196277313172,59.012741406003286,4.063598138656586,0.9269699743464707,B,1317.2787500079721,Correct
7,12,275,A,50.99213128402626,67.38523141801095,2.5496065642013126,1.0584847399163564,A,1316.2949580000713,Correct
7,12,276,B,49.53507277567718,28.514506932316998,2.476753638783859,0.4479048274965116,B,712.0099989697337,Correct
7,12,277,A,14.12636728077021,31.389979310742806,0.7063183640385106,0.493072641994826,A,768.1080830516294,Correct
7,12,278,B,81.35982487127298,51.90353752353594,4.0679912435636485,0.8152988608963134,B,656.908790988382,Correct
7,12,279,B,35.38666597684697,22.075751862913712,1.7693332988423487,0.34676509937500455,B,795.3594169812277,Correct
7,12,280,B,51.655241832531225,24.795476911937932,2.5827620916265612,0.38948644054399767,B,670.9926660405472,Correct
7,12,281,B,72.08642388013642,39.1703501957571,3.604321194006821,0.61528642206765,B,548.5100410296582,Correct
7,12,282,A,61.67963935137561,82.30201382094138,3.0839819675687807,1.2927970099775754,A,838.0226659937762,Correct
7,12,283,A,60.90419228602116,77.90534451066131,3.045209614301058,1.2237342899503774,A,1150.0199580332264,Correct
7,12,284,B,39.40978790862159,20.27956295172765,1.9704893954310794,0.3185506299357967,B,514.4107079831883,Correct
7,12,285,B,89.56366381980301,66.4572573088135,4.47818319099015,1.0439081566954753,B,531.5007919562049,Correct
7,12,286,B,62.43517818477976,48.782302354244564,3.121758909238988,0.7662706135064539,B,884.6355829737149,Correct
7,12,287,A,22.203006375219093,36.75347339225119,1.1101503187609547,0.5773222100150213,A,676.4325830154121,Correct
7,12,288,A,21.2146158848322,48.60777246266585,1.06073079424161,0.7635291043803765,A,1195.6253750249743,Correct
7,12,289,A,52.22279743998462,66.50920035970661,2.6111398719992307,1.0447240762309298,A,1257.8373739961535,Correct
7,12,290,A,50.79598617798692,57.93613699965984,2.539799308899346,0.9100587118775157,A,4005.5326669826172,Correct
7,12,291,A,31.703654957319173,44.614870011564236,1.5851827478659586,0.7008087393459688,A,1182.5179579900578,Correct
7,12,292,A,19.926644719815418,40.56973952714427,0.9963322359907708,0.6372679782826394,A,850.8401250001043,Correct
7,12,293,A,60.48492705268988,70.14376375951392,3.0242463526344943,1.1018156646101345,A,1221.2089989916421,Correct
7,12,294,B,30.117949316632775,13.836795558772994,1.5058974658316386,0.21734787638332556,B,563.3262080373242,Correct
7,12,295,A,58.320145481752775,82.8917190652125,2.916007274087639,1.302060078293503,A,885.594375024084,Correct
7,12,296,A,62.24267797489546,73.3118471107658,3.112133898744773,1.1515798015213998,A,1298.6030830070376,Correct
7,12,297,A,36.28915752999406,62.43447812382279,1.8144578764997028,0.9807184890225716,A,1184.5831249956973,Correct
7,12,298,B,87.3297336611838,69.6854631070266,4.36648668305919,1.0946166947951868,B,984.2739159939811,Correct
7,12,299,A,21.987877226909248,47.68726094419027,1.0993938613454624,0.749069743260438,A,1024.966166995,Correct
