subject,day,trial,cat,x,y,xt,yt,resp,rt,fb
7,8,0,B,33.795612147508095,10.879307065102196,1.689780607375405,0.17089175575936297,B,620.0262089841999,Correct
7,8,1,A,15.803188434897493,37.119360864813146,0.7901594217448746,0.5830695569942272,A,561.308459029533,Correct
7,8,2,A,32.115739323126526,40.56336922173082,1.6057869661563262,0.6371679137591992,A,983.0367920221761,Correct
7,8,3,A,26.128832494849078,37.55488746459306,1.3064416247424537,0.5899107928257848,A,693.2147500338033,Correct
7,8,4,A,34.249637188828736,56.65219213855778,1.7124818594414366,0.8898905531612528,A,858.703791978769,Correct
7,8,5,A,51.60172678312923,79.3660115952033,2.5800863391564617,1.2466783948610654,A,1088.229333050549,Correct
7,8,6,A,62.63907518171096,77.39310387216699,3.131953759085548,1.2156880328165582,A,745.9286249941215,Correct
7,8,7,B,38.84628401992768,20.461884912432744,1.942314200996384,0.3214145365974927,B,656.7130840267055,Correct
7,8,8,B,62.18444690205917,30.58400133535075,3.1092223451029586,0.4804123695625917,B,702.2621250362135,Correct
7,8,9,B,73.30603945326779,50.18148963055093,3.6653019726633893,0.7882489958476557,B,1543.7516249949113,Correct
7,8,10,A,23.470961546412774,50.632912018290824,1.1735480773206388,0.795339922132604,A,768.8057500054128,Correct
7,8,11,A,36.87875072590457,52.79223146344387,1.8439375362952284,0.829258432660836,A,902.0212079631165,Correct
7,8,12,B,34.67621632836084,21.748999486305475,1.733810816418042,0.34163248504552735,B,1414.891832973808,Correct
7,8,13,B,35.38777086458515,18.79039539360923,1.7693885432292575,0.29515884063305126,B,651.6246250248514,Correct
7,8,14,B,47.160984610314586,22.75507345069785,2.3580492305157295,0.3574358579230425,B,591.2016659858637,Correct
7,8,15,B,49.24360296679711,32.67195875373012,2.4621801483398555,0.5132099279955363,B,776.879083015956,Correct
7,8,16,B,66.18207884947033,44.05013715278276,3.3091039424735165,0.6919379363440257,B,786.76337498473,Correct
7,8,17,B,75.23002348428808,58.408384819619585,3.761501174214404,0.9174767632868124,A,1516.7100840480998,Incorrect
7,8,18,A,41.82472627749488,74.29043252771056,2.091236313874744,1.1669513853053186,A,782.3761249892414,Correct
7,8,19,A,34.11912912267765,61.298018890717714,1.7059564561338822,0.9628670291334356,A,897.8007909609005,Correct
7,8,20,A,26.569541843672667,46.55503366268234,1.3284770921836333,0.7312847587115419,A,539.7726250230335,Correct
7,8,21,B,32.32451482484689,15.164727678045004,1.6162257412423444,0.23820698533517992,B,564.5846250117756,Correct
7,8,22,A,46.301649860694134,59.97696824406451,2.3150824930347067,0.9421160141007069,A,846.5374590014108,Correct
7,8,23,A,12.045655135112781,32.59371177492001,0.602282756755639,0.5119808273265593,A,513.2241250248626,Correct
7,8,24,B,56.79018631392039,37.03729719631849,2.8395093156960196,0.58178050390388,B,752.030375006143,Correct
7,8,25,B,49.22268654166853,30.17240132472017,2.4611343270834265,0.4739469717145191,B,551.9933750038035,Correct
7,8,26,A,28.839290855487263,50.860062208230964,1.4419645427743633,0.7989079889724912,A,795.3173749847338,Correct
7,8,27,A,49.83925208352194,67.99026894270864,2.491962604176097,1.0679886471300386,A,930.4920420399867,Correct
7,8,28,A,25.95400787069397,49.52367314256593,1.2977003935346985,0.7779160386173364,A,592.7815830218606,Correct
7,8,29,A,66.8860962754164,80.46089978762777,3.3443048137708207,1.2638768583701796,A,1347.9380829958245,Correct
7,8,30,A,44.008611081927235,54.3349201761947,2.2004305540963616,0.8534909302946054,A,1144.5970420027152,Correct
7,8,31,A,40.32242340866449,71.97890920747423,2.0161211704332245,1.1306420618980388,A,815.1715419953689,Correct
7,8,32,A,27.105800211230182,60.10749976355852,1.355290010561509,0.9441663984142283,A,515.9603329957463,Correct
7,8,33,B,80.1715418415156,52.04438182924318,4.00857709207578,0.8175112380768624,B,744.9102500104345,Correct
7,8,34,A,28.99020486316975,49.59725954024856,1.4495102431584876,0.7790719310491556,A,632.1314999950118,Correct
7,8,35,B,63.496560879970154,40.61964548672576,3.1748280439985077,0.6380518992625972,B,926.6074159531854,Correct
7,8,36,A,48.363787025352835,56.32209572030702,2.418189351267642,0.8847054107484883,A,1262.4993750359863,Correct
7,8,37,B,53.253066358327956,39.08731291498538,2.662653317916398,0.6139820755114176,B,1206.4567080233246,Correct
7,8,38,A,23.72905491447344,37.65800395428688,1.186452745723672,0.5915305428582154,A,522.9636669973843,Correct
7,8,39,B,67.29092355935738,54.00590235861492,3.364546177967869,0.8483227305015616,B,1208.290207956452,Correct
7,8,40,A,36.56562336353943,49.2479717385861,1.8282811681769715,0.7735853310906992,A,507.8640830470249,Correct
7,8,41,A,37.20088182184698,68.97193580323693,1.8600440910923488,1.0834086341165798,A,623.9602089626715,Correct
7,8,42,B,55.812130248668836,43.33864798233785,2.790606512433442,0.6807618905891335,B,705.1728750229813,Correct
7,8,43,B,70.17051382192598,50.2156854743002,3.508525691096299,0.7887861429051859,B,1006.3995419768617,Correct
7,8,44,A,52.51276738029601,69.37696805996006,2.6256383690148004,1.0897708659275211,A,891.6662919800729,Correct
7,8,45,A,67.28019667901782,84.13492086947682,3.364009833950891,1.3215882465695346,B,714.6894999896176,Incorrect
7,8,46,B,67.60993156742211,35.44337779424483,3.3804965783711056,0.5567432764840358,B,606.9487080094405,Correct
7,8,47,A,56.834953369751716,73.07068729208963,2.8417476684875855,1.147791671947929,A,1204.6875419910066,Correct
7,8,48,A,38.99563773852685,70.84366384235389,1.9497818869263426,1.112809669402619,A,675.1352920546196,Correct
7,8,49,A,52.35874866180515,67.96345916268312,2.617937433090258,1.067567520090176,A,1788.3450000081211,Correct
7,8,50,A,61.669793841847024,86.46116148968184,3.083489692092351,1.358128748784126,A,557.6919169980101,Correct
7,8,51,B,85.18568678932596,68.54677157412439,4.259284339466298,1.0767301700228342,B,1232.4821670190431,Correct
7,8,52,B,49.03063401929266,35.60190683955498,2.451531700964633,0.5592334449046706,A,1437.5547500094399,Incorrect
7,8,53,A,55.90007451637971,74.35312578813708,2.7950037258189853,1.167936168737246,A,842.6759999711066,Correct
7,8,54,A,46.34140876056958,53.695437803839454,2.317070438028479,0.8434459646791485,A,1361.8082079919986,Correct
7,8,55,A,51.79065628190034,74.12762068005046,2.589532814095017,1.1643939427826866,A,1086.5479999920353,Correct
7,8,56,A,51.81738090944316,79.70562391312882,2.590869045472158,1.2520130126763822,A,645.7696249708533,Correct
7,8,57,A,45.99447972725702,76.6122148688709,2.299723986362851,1.2034218570364377,A,639.9433750193566,Correct
7,8,58,A,37.1155728449815,66.80692154991239,1.855778642249075,1.0494006697507718,A,764.7712919861078,Correct
7,8,59,A,36.96978970590978,65.11354871468424,1.8484894852954892,1.0228012314560657,A,883.392250048928,Correct
7,8,60,B,75.70838674612273,60.131862694562756,3.7854193373061364,0.9445490904395424,B,1559.600375010632,Correct
7,8,61,B,77.59995267436112,65.78813900618283,3.879997633718056,1.0333976709758406,A,2155.28829197865,Incorrect
7,8,62,B,38.09988723372119,17.851262936838694,1.9049943616860594,0.280406982498361,B,1234.9152920069173,Correct
7,8,63,A,50.204250789776566,61.345780388489075,2.510212539488828,0.9636172649860504,A,1723.5661669983529,Correct
7,8,64,B,84.74392572758579,55.71239527495442,4.23719628637929,0.8751282585484376,B,973.2255830313079,Correct
7,8,65,B,56.58309660844315,49.83630301605867,2.829154830422157,0.7828268171866238,B,1243.8684580265544,Correct
7,8,66,A,46.41956279094388,64.86615707056072,2.320978139547194,1.018915212597376,A,1423.451583017595,Correct
7,8,67,A,20.894335277215113,41.91769586146118,1.0447167638607555,0.6584416268688886,A,556.5131659968756,Correct
7,8,68,B,43.79786969657359,33.71370668391057,2.1898934848286795,0.5295736662172728,B,2080.837083980441,Correct
7,8,69,B,56.80476248479447,40.37566889217903,2.8402381242397237,0.634219523877218,B,1395.1610840158537,Correct
7,8,70,A,26.61972536619016,40.350228956207175,1.330986268309508,0.633819914297433,A,822.1456250175834,Correct
7,8,71,A,61.79863926828227,76.73217510008429,3.089931963414114,1.2053061879419522,A,961.5511249867268,Correct
7,8,72,B,73.37089545990884,45.90975198544946,3.668544772995442,0.7211486978280874,B,864.4197499961592,Correct
7,8,73,B,70.53585919587209,60.94460490919546,3.5267929597936045,0.9573156152933044,B,1591.8474590289406,Correct
7,8,74,A,44.515525534198204,73.78646849232351,2.2257762767099103,1.1590351367490912,A,1997.3827920039184,Correct
7,8,75,B,32.26846045966618,14.046498977800706,1.613423022983309,0.2206418899865762,B,1503.4261249820702,Correct
7,8,76,A,40.160637395802844,62.46148683137943,2.008031869790142,0.9811427408087863,A,1870.2865000232123,Correct
7,8,77,B,78.34790358818726,47.452563212505225,3.917395179409363,0.7453831199120584,B,659.1780830058269,Correct
7,8,78,A,23.919657132867375,47.593486667613206,1.1959828566433688,0.747596740368487,A,792.8422500262968,Correct
7,8,79,A,13.543179718194438,32.98181896440114,0.6771589859097219,0.5180772008029557,A,1033.9260420296341,Correct
7,8,80,B,55.25439912085038,24.16891470132962,2.762719956042519,0.3796444243546775,B,1397.5080829695798,Correct
7,8,81,B,59.459373176217035,45.98953885476396,2.972968658810852,0.722401987040544,B,1221.8556660227478,Correct
7,8,82,B,50.20914817951282,21.69418858835116,2.510457408975641,0.34077151747377765,B,734.0977920102887,Correct
7,8,83,B,67.9562368744948,51.52086941478872,3.3978118437247407,0.8092879243002966,B,1826.2883329880424,Correct
7,8,84,A,22.28233530855917,53.47227306807457,1.1141167654279585,0.839940501207052,A,566.4767079870217,Correct
7,8,85,B,75.55666562750059,55.07742471692637,3.7778332813750297,0.865154164346704,B,927.4761249544099,Correct
7,8,86,A,44.112437764745835,55.33630282484891,2.2056218882372916,0.8692206121568271,A,1318.3386669843458,Correct
7,8,87,B,51.60740157928525,27.799518015177036,2.5803700789642625,0.4366738078490864,B,1195.1915830140933,Correct
7,8,88,A,34.037610711239616,64.33276519854249,1.7018805355619806,1.010536712664291,A,860.9951250255108,Correct
7,8,89,B,59.388665477391015,43.47259137352128,2.9694332738695506,0.6828658684578275,B,1413.8851250172593,Correct
7,8,90,B,56.193255767746024,36.50170420873829,2.809662788387301,0.5733674289283992,B,2715.097500011325,Correct
7,8,91,B,44.369570257356756,31.737145459544053,2.218478512867838,0.49852591510807126,B,933.2081249449402,Correct
7,8,92,B,71.22528799218513,53.75510376609197,3.561264399609257,0.8443831954225577,B,787.3125830083154,Correct
7,8,93,B,72.04520688246025,60.16036808367994,3.6022603441230125,0.9449968520447337,B,1099.222542019561,Correct
7,8,94,A,30.12141158393455,62.50052294518332,1.5060705791967275,0.9817559186505412,A,882.0875840028748,Correct
7,8,95,A,29.82274206961774,46.37827575354089,1.491137103480887,0.7285082519674284,A,1737.3763340292498,Correct
7,8,96,B,71.3193703908108,44.55024823224679,3.5659685195405406,0.6997936628101409,B,1456.1495839734562,Correct
7,8,97,A,60.44594909142975,87.68625833919228,3.0222974545714876,1.377372525095916,A,1663.1439580232836,Correct
7,8,98,A,22.483423675159884,49.661590405303116,1.1241711837579942,0.780082437914428,A,1254.8589579528198,Correct
7,8,99,B,68.3778457788584,35.12978362716657,3.41889228894292,0.5518173508265274,B,1181.9266250240617,Correct
7,8,100,A,11.538274804116796,33.005833781374186,0.5769137402058397,0.5184544246658548,A,534.2588340281509,Correct
7,8,101,B,57.716896205980206,36.65433409382591,2.8858448102990106,0.5757649335569469,B,1671.1172920186073,Correct
7,8,102,B,49.16772633483296,35.224707792884125,2.458386316741648,0.5533084161348595,B,1086.4202919765376,Correct
7,8,103,B,49.84473044314932,25.77129348423763,2.492236522157466,0.4048145314179372,B,582.3532499489374,Correct
7,8,104,B,50.08295279385985,21.756300011607017,2.5041476396929925,0.3417471614288007,B,708.8473339681514,Correct
7,8,105,B,40.68435895057797,25.84599655076151,2.034217947528899,0.4059879644428975,B,1639.9605419719592,Correct
7,8,106,A,45.58053496709533,52.21212414723618,2.2790267483547666,0.8201461282463771,A,1120.353874983266,Correct
7,8,107,A,51.67921992509847,82.14345243294402,2.5839609962549237,1.2903063335191975,A,1631.7924170289189,Correct
7,8,108,B,71.4781761873792,57.23227503354025,3.57390880936896,0.8990024739680028,B,650.4785420256667,Correct
7,8,109,B,57.25858454897104,36.17464589799815,2.862929227448552,0.5682300089968155,B,588.6806250200607,Correct
7,8,110,B,44.029411650720334,25.30999906875745,2.201470582536017,0.3975685356838645,B,1440.5885000014678,Correct
7,8,111,B,79.16519688828582,51.00988998867627,3.9582598444142914,0.8012614782442445,B,642.6602500141598,Correct
7,8,112,A,23.059338749890106,53.77366340231397,1.1529669374945053,0.8446747295065994,A,564.8044580011629,Correct
7,8,113,B,88.68254925314127,64.6566859325737,4.434127462657063,1.0156248476561802,B,720.6007920322008,Correct
7,8,114,B,58.63340849930433,44.322379849593794,2.931670424965217,0.6962143146255008,B,1683.4811249864288,Correct
7,8,115,A,23.455884219185798,38.21430313833956,1.17279421095929,0.6002688700073047,A,604.2235419736244,Correct
7,8,116,B,84.47440514673319,62.43839961092574,4.22372025733666,0.9807800875979407,B,1423.3716670423746,Correct
7,8,117,A,33.42988689836619,59.348479369911104,1.6714943449183095,0.9322437339511905,A,1478.8774169865064,Correct
7,8,118,B,41.83166985061223,31.577433056948927,2.0915834925306114,0.49601715855467116,B,1343.766833015252,Correct
7,8,119,A,42.08405276705106,60.047174671900066,2.104202638352553,0.9432188140903217,B,1090.95837501809,Incorrect
7,8,120,B,72.20319237789032,58.82806538995814,3.610159618894516,0.9240690902699623,B,650.797665992286,Correct
7,8,121,B,52.28844608656137,28.524446366930853,2.6144223043280688,0.44806095577033017,B,874.4307089946233,Correct
7,8,122,A,23.477002787620375,43.72472613355802,1.1738501393810188,0.6868263920070576,A,739.408082969021,Correct
7,8,123,B,84.62226069095176,66.14481188899443,4.231113034547588,1.0390002755177186,B,2006.6341659985483,Correct
7,8,124,B,40.71006911166012,17.92633041886917,2.035503455583006,0.28158613974871316,B,761.679874965921,Correct
7,8,125,A,67.14269583093466,83.06055476504726,3.357134791546733,1.3047121432648257,A,957.7016250113957,Correct
7,8,126,B,73.33226203266344,62.805254058375596,3.666613101633172,0.9865426237831664,B,799.2833330063149,Correct
7,8,127,A,59.209249064468075,86.02644144942154,2.960462453223404,1.3513001823598758,A,1110.600833024364,Correct
7,8,128,A,43.140652902341714,54.30211373209232,2.1570326451170856,0.8529756078756934,A,1026.0741250240244,Correct
7,8,129,B,73.44010200746494,55.953298039359396,3.672005100373247,0.8789123503228582,B,557.679166959133,Correct
7,8,130,A,18.33456373355264,38.98139027820879,0.916728186677632,0.6123182466236865,A,924.5788330445066,Correct
7,8,131,A,23.605744070188877,34.93621176436055,1.1802872035094438,0.548776731115862,A,1057.6015000115149,Correct
7,8,132,B,48.96326905867423,32.81501996485792,2.4481634529337115,0.5154571282450001,B,2000.523249967955,Correct
7,8,133,A,25.26031726783777,46.67117530342413,1.2630158633918884,0.733109107338193,A,899.4277499732561,Correct
7,8,134,B,37.53814391481892,22.69188533323527,1.876907195740946,0.35644330129496954,B,783.7043339968659,Correct
7,8,135,B,61.25533523830186,44.27707288627569,3.062766761915093,0.6955026345099177,B,1554.9605829874054,Correct
7,8,136,B,51.37180545433985,27.316984567524276,2.5685902727169925,0.42909419017780015,B,706.1368339927867,Correct
7,8,137,A,13.991312796965413,36.080788210295836,0.6995656398482707,0.566755695885973,A,631.451208028011,Correct
7,8,138,B,77.3033927688013,62.05998815845828,3.865169638440065,0.9748360144024104,B,757.5211249641143,Correct
7,8,139,A,48.533990689701916,70.51123429441076,2.426699534485096,1.1075878782743476,A,1394.2529169726186,Correct
7,8,140,A,66.09552205937854,89.86147652242758,3.304776102968927,1.4115407724179507,A,843.4568340308033,Correct
7,8,141,B,58.0696789342208,29.94681759989376,2.9034839467110403,0.47040351085109877,B,1116.2617499940097,Correct
7,8,142,A,49.432210460064965,68.80012200361914,2.4716105230032483,1.0807097892632567,A,1328.14308302477,Correct
7,8,143,A,16.515146422821243,45.01960650712547,0.8257573211410622,0.7071663253514431,A,595.457624993287,Correct
7,8,144,B,63.329181589318665,35.14649780766431,3.166459079465933,0.5520798965598398,B,1231.8140830029733,Correct
7,8,145,B,36.48686096585418,17.02429458056333,1.824343048292709,0.2674169939342314,B,778.1323749804869,Correct
7,8,146,B,61.29966348222407,49.92736094002464,3.0649831741112035,0.7842571517115371,A,1269.046041998081,Incorrect
7,8,147,A,45.61712027797501,65.0628815901818,2.2808560138987506,1.0220053541254888,A,1455.1797920139506,Correct
7,8,148,A,33.107492298122196,44.60730731288461,1.6553746149061097,0.7006899447529027,A,536.206791002769,Correct
7,8,149,A,64.78873384600492,87.52469258738871,3.2394366923002456,1.374834656201227,A,639.236124989111,Correct
7,8,150,B,49.71455857518862,29.218582334924385,2.485727928759431,0.4589644180585347,B,1425.1156669924967,Correct
7,8,151,B,65.1248820627132,35.043778834862806,3.2562441031356597,0.5504663907081523,B,891.1664169863798,Correct
7,8,152,A,18.85071850904223,48.01549956629246,0.9425359254521115,0.7542257034795415,A,587.8626669873483,Correct
7,8,153,A,37.344144594534875,59.99786156506368,1.8672072297267437,0.9424442056195073,A,1367.4741659779102,Correct
7,8,154,B,81.72789987395338,54.456150777643,4.086394993697669,0.8553952161291067,B,933.7293750140816,Correct
7,8,155,B,35.24276883899484,20.22466975390716,1.762138441949742,0.3176883696007722,B,918.210125004407,Correct
7,8,156,A,38.833157066468075,58.02965889216191,1.9416578533234037,0.9115277503296875,A,1355.924875009805,Correct
7,8,157,A,66.330157920325,89.20476441506037,3.3165078960162497,1.4012251627578092,A,910.6265410082415,Correct
7,8,158,B,32.50247044522348,16.962306259801316,1.625123522261174,0.2664432836686599,B,1548.4487079665996,Correct
7,8,159,A,39.1563321742843,53.002675556642444,1.957816608714215,0.832564080746756,A,1217.3054580343887,Correct
7,8,160,A,53.797853686345924,67.77442579584621,2.689892684317296,1.064598190907485,A,769.1665000165813,Correct
7,8,161,B,63.540864611409766,51.56283877768421,3.1770432305704883,0.8099471775110382,B,750.6575829465874,Correct
7,8,162,A,39.101851654757255,57.43481036243642,1.9550925827378627,0.902183891474766,A,1181.479874998331,Correct
7,8,163,A,49.33309067083819,59.338081052859806,2.4666545335419094,0.9320803975689005,A,1351.448832952883,Correct
7,8,164,A,28.850990691677005,44.53382153937772,1.4425495345838502,0.6995356329219397,A,1352.734917018097,Correct
7,8,165,A,27.78008484689175,46.169966469789024,1.3890042423445874,0.7252361373898814,A,780.6487500201911,Correct
7,8,166,A,61.162289122598125,75.0368809678585,3.058114456129906,1.17867656998458,A,1653.1253330176696,Correct
7,8,167,B,71.17805788674805,41.648855976959034,3.558902894337402,0.6542186998381693,B,675.2197089954279,Correct
7,8,168,B,58.345852689004055,30.517475841618374,2.9172926344502024,0.4793673895506614,B,1064.5306670339778,Correct
7,8,169,A,18.38992381183919,33.95702113596609,0.9194961905919595,0.5333956406927219,A,522.7144579985179,Correct
7,8,170,A,34.11863546149733,47.22155904143727,1.7059317730748662,0.74175451487818,A,825.7337920367718,Correct
7,8,171,A,18.84671512180974,36.518775005454074,0.942335756090487,0.5736355763761654,A,542.8321659564972,Correct
7,8,172,A,35.437301930110735,59.49828891314586,1.7718650965055367,0.9345969367535105,A,1405.99470899906,Correct
7,8,173,A,55.96592552203643,77.8131501569827,2.798296276101821,1.2222861044292817,A,1287.8998329979368,Correct
7,8,174,B,75.39654801096228,59.86263580597245,3.769827400548114,0.9403200843628218,B,1973.0982499895617,Correct
7,8,175,B,46.167095843131264,22.017614873258594,2.3083547921565635,0.3458518856769928,B,690.9186250413768,Correct
7,8,176,A,33.23153362507927,44.55543411863272,1.6615766812539636,0.6998751225230029,B,1296.68120801216,Incorrect
7,8,177,A,61.065942213674475,81.23459573144437,3.0532971106837237,1.276030045836212,A,1422.769833006896,Correct
7,8,178,A,35.42320976241335,67.45847618528417,1.7711604881206677,1.0596352660302537,A,1407.671749999281,Correct
7,8,179,A,26.011289335773903,39.97495307656355,1.3005644667886953,0.6279250945646437,A,1193.9767499570735,Correct
7,8,180,B,33.421842346129964,11.792134772634462,1.671092117306498,0.18523041985924588,B,952.2823329898529,Correct
7,8,181,A,42.73494181716931,53.61261632693568,2.1367470908584654,0.8421450079621466,A,1437.7642080071382,Correct
7,8,182,A,33.37239003853812,44.9448718156131,1.6686195019269061,0.7059923955623252,A,686.5125409676693,Correct
7,8,183,B,56.0769440699169,44.191345948555366,2.803847203495845,0.6941560389211331,B,2655.9477919945493,Correct
7,8,184,A,37.83617235761422,54.36727768867896,1.8918086178807108,0.8539992009121505,A,1457.0628750370815,Correct
7,8,185,A,63.60111206732971,82.88457491908709,3.1800556033664855,1.3019478583085842,A,1251.7505420255475,Correct
7,8,186,A,59.170853099175204,81.4921966279073,2.95854265495876,1.2800764312556425,A,1457.2547920397483,Correct
7,8,187,A,24.662208141601646,43.01395248869285,1.2331104070800822,0.6756615857016893,A,1387.2202910133637,Correct
7,8,188,A,29.838465369801767,58.61699765780321,1.4919232684900885,0.9207536460862235,A,1501.040208968334,Correct
7,8,189,A,52.6649174718653,80.14506874133232,2.6332458735932653,1.258915795896093,A,1016.3626659777947,Correct
7,8,190,A,22.737921566809483,46.05883018259459,1.1368960783404742,0.7234904126728949,A,1254.402958031278,Correct
7,8,191,A,58.72511759298373,78.02445895962758,2.9362558796491864,1.2256053353394216,A,1277.3981670034118,Correct
7,8,192,B,64.07737188017191,47.495689310305536,3.203868594008595,0.7460605430721957,B,999.9948750482872,Correct
7,8,193,B,76.63598181138525,57.78066142138769,3.8317990905692625,0.9076165072049539,B,2259.4579170108773,Correct
7,8,194,A,35.410314826085,48.49059603270616,1.77051574130425,0.7616885013227002,A,856.0091669787653,Correct
7,8,195,B,50.48764607600155,42.01721204073591,2.5243823038000777,0.6600048233575027,A,1923.2331669772975,Incorrect
7,8,196,B,57.51778092974119,42.716594332644355,2.87588904648706,0.6709906947090544,B,1134.3087909626774,Correct
7,8,197,A,48.70721602139842,56.75248250673654,2.4353608010699213,0.8914659105807338,A,754.9804580048658,Correct
7,8,198,B,74.28992920028061,62.558620470170226,3.7144964600140304,0.9826685124389941,B,1093.2905829977244,Correct
7,8,199,A,28.9480280418934,48.8436068302743,1.44740140209467,0.7672335819640899,A,1592.0232920325361,Correct
7,8,200,A,37.53667393487487,63.69810459351849,1.8768336967437436,1.0005674871929597,A,1279.0588330244645,Correct
7,8,201,B,62.507929983178556,30.500137460407103,3.125396499158928,0.47909503889546906,B,955.8196250000037,Correct
7,8,202,B,70.89436483447429,61.97248366670178,3.5447182417237144,0.9734614970601188,B,1895.945166994352,Correct
7,8,203,A,67.25165270991567,89.73820523376901,3.3625826354957837,1.409604431543709,A,1022.1289999899454,Correct
7,8,204,A,49.74163883924638,74.34854195581934,2.4870819419623187,1.1678641660675728,A,751.4322909992188,Correct
7,8,205,B,69.67172120173007,60.61238376363782,3.483586060086503,0.9520970977420491,B,961.6534590022638,Correct
7,8,206,A,52.57693302128904,72.11496538826447,2.628846651064452,1.1327792273882695,A,1487.1205000090413,Correct
7,8,207,A,46.805332051025275,68.4748523252024,2.3402666025512637,1.075600465102509,A,2662.9975420073606,Correct
7,8,208,B,45.476029897067775,32.408159909664825,2.2738014948533887,0.5090661854428313,B,701.5795420156792,Correct
7,8,209,B,43.1331510131005,27.618905539166164,2.156657550655025,0.4338367537101744,B,745.5137080396526,Correct
7,8,210,B,88.6740610422112,66.58726856603975,4.43370305211056,1.0459503687484053,B,859.8890419816598,Correct
7,8,211,B,45.596376609605784,27.241745020498676,2.279818830480289,0.4279123301368249,B,968.2864579954185,Correct
7,8,212,B,64.81634432604125,47.53195826800662,3.2408172163020623,0.7466302545275311,B,1561.304625007324,Correct
7,8,213,B,55.78305677649178,41.508428104605905,2.7891528388245894,0.6520128639774501,B,1097.905125003308,Correct
7,8,214,B,86.13144788774002,67.08027220415434,4.306572394387001,1.0536944517868745,B,822.8737080353312,Correct
7,8,215,B,59.134742587367704,38.20222150734664,2.9567371293683853,0.6000790921914511,B,1348.4857500297949,Correct
7,8,216,B,79.52488064808665,64.72116596583996,3.9762440324043324,1.0166376976502427,B,1015.7094590249471,Correct
7,8,217,B,86.1448376242354,67.22147892684657,4.30724188121177,1.0559125218001113,B,673.4855829854496,Correct
7,8,218,B,52.4615166000713,39.89915232708806,2.623075830003565,0.6267344191761998,A,1744.4786670384929,Incorrect
7,8,219,B,52.68800348244438,38.46157611233475,2.6344001741222187,0.6041530247999776,B,1378.9509999915026,Correct
7,8,220,A,26.67518097289838,45.176825464500034,1.333759048644919,0.709635914958908,A,682.2738330229186,Correct
7,8,221,A,55.67129842535697,74.2183228652695,2.783564921267849,1.1658186893764302,A,934.7778749652207,Correct
7,8,222,A,47.687037591655624,60.734483219746096,2.384351879582781,0.9540150315136344,A,853.5667500109412,Correct
7,8,223,B,56.817100179052964,40.654362786808974,2.8408550089526483,0.6385972373370667,B,1132.039625023026,Correct
7,8,224,A,56.705656097822654,72.06919181391571,2.8352828048911327,1.1320602177637562,A,1979.0252089733258,Correct
7,8,225,A,30.338834965807493,47.404323472077586,1.5169417482903749,0.7446253718413657,A,1119.048208987806,Correct
7,8,226,A,30.58804828568936,49.94536239614719,1.529402414284468,0.7845399179230794,A,545.3325840062462,Correct
7,8,227,B,40.530324766721634,32.156001476481045,2.0265162383360815,0.505105290036677,A,1245.6612910027616,Incorrect
7,8,228,B,34.73538144158408,15.383128453366396,1.7367690720792042,0.24163761669161993,B,703.7762500112876,Correct
7,8,229,A,41.96307290765708,72.25442632798863,2.0981536453828538,1.13496987470677,A,1356.10487498343,Correct
7,8,230,A,23.545599023682097,51.00075008846271,1.177279951184105,0.8011179090274172,A,704.407833982259,Correct
7,8,231,B,47.70112060683961,36.28037406197102,2.38505603034198,0.5698907831128891,B,974.7228750493377,Correct
7,8,232,B,59.60551070772957,46.39573944767655,2.9802755353864785,0.7287825710334339,B,703.9150840137154,Correct
7,8,233,B,79.60128417064801,54.374641814452,3.9800642085324007,0.8541148763292938,B,596.4829999720678,Correct
7,8,234,A,58.81491166337924,78.44106401904837,2.940745583168962,1.2321493523100449,A,835.7699580374174,Correct
7,8,235,B,52.88547906419785,22.869942496696194,2.6442739532098924,0.3592402166782089,B,588.3216250222176,Correct
7,8,236,A,60.992336642264746,87.05656355844168,3.049616832113237,1.3674813026098664,A,738.764124980662,Correct
7,8,237,B,46.491471994784604,19.009453121494463,2.3245735997392303,0.2985997913762328,B,754.5040000113659,Correct
7,8,238,B,46.10824384749358,18.72553740106208,2.3054121923746793,0.29414005366848767,B,1269.786041986663,Correct
7,8,239,A,39.16786351387051,62.213621912587435,1.9583931756935256,0.9772492877689883,A,935.9481660067104,Correct
7,8,240,A,60.01008135042651,73.44528929004244,3.0005040675213257,1.1536759063718722,A,1586.6114160162397,Correct
7,8,241,A,50.937008519604404,66.69126910506374,2.54685042598022,1.0475840053952408,A,953.4925000043586,Correct
7,8,242,A,29.25086975814915,44.4676076043711,1.4625434879074575,0.6984955468630294,A,878.413875005208,Correct
7,8,243,B,83.12750812335685,66.12235185258483,4.156375406167842,1.0386474740907996,B,790.9994579968043,Correct
7,8,244,A,39.027118809319525,53.72317378621042,1.9513559404659762,0.8438816404714318,A,641.0207080189139,Correct
7,8,245,A,67.9830419610903,86.88979306843179,3.3991520980545147,1.3648616778786131,A,751.8992089899257,Correct
7,8,246,B,30.167701774435464,13.683873862007385,1.5083850887217733,0.21494578798765898,B,885.0004589767195,Correct
7,8,247,B,86.27570562023939,66.008067736896,4.3137852810119695,1.0368523033994494,B,662.5222499715164,Correct
7,8,248,A,42.625551943107745,66.48894885782377,2.1312775971553872,1.044405966383233,A,1020.8495000260882,Correct
7,8,249,B,59.73197852031585,28.995020298541668,2.986598926015793,0.4554527138029272,B,600.4060829873197,Correct
7,8,250,A,39.708664096700474,50.522003328561844,1.9854332048350238,0.7935977725082447,A,499.10179199650884,Correct
7,8,251,B,34.393492863496334,13.046390242354597,1.7196746431748167,0.20493221870623385,B,641.7317080195062,Correct
7,8,252,B,65.0656004922941,55.71658269905606,3.2532800246147047,0.8751940344524134,B,704.0609589894302,Correct
7,8,253,B,34.46321467485848,21.59021812200269,1.7231607337429238,0.3391383532074243,B,712.8661249880679,Correct
7,8,254,A,32.90708946569577,56.84860839318816,1.6453544732847885,0.8929758524742148,A,797.6196670206264,Correct
7,8,255,B,38.45243907510154,12.648375966896182,1.922621953755077,0.1986802250872137,B,572.8910000179894,Correct
7,8,256,A,29.708335646774252,53.36660014223124,1.4854167823387128,0.8382805947694885,A,714.8637499776669,Correct
7,8,257,A,45.12455272843027,53.50903138870119,2.2562276364215132,0.8405178995572465,A,1477.4522910011,Correct
7,8,258,A,38.95785428183228,65.48137869719119,1.9478927140916142,1.0285790913101351,A,1032.7058749971911,Correct
7,8,259,A,65.43780715693845,88.92092836719722,3.2718903578469223,1.3967666765438551,A,676.3908339780755,Correct
7,8,260,B,30.737396055486464,14.899551956236209,1.5368698027743233,0.2340416148374555,B,1150.8625409915112,Correct
7,8,261,B,76.57135131284733,49.0725179669055,3.8285675656423668,0.7708293096899174,B,983.961374964565,Correct
7,8,262,A,32.28210398409611,54.12731624510988,1.6141051992048057,0.8502298953708433,A,913.7883340008557,Correct
7,8,263,B,36.835239184812316,22.994799347828533,1.8417619592406158,0.36120146350954746,B,1179.5407920144498,Correct
7,8,264,B,32.522335902958744,15.533978946841899,1.6261167951479372,0.2440071707020851,B,1016.3379170116968,Correct
7,8,265,A,16.601443397789453,46.14557646597105,0.8300721698894726,0.7248530201058034,A,573.7759579787962,Correct
7,8,266,A,20.41365797874218,49.27820993137629,1.020682898937109,0.7740603115123367,A,625.3980420297012,Correct
7,8,267,B,83.35110269633346,64.1733446804397,4.167555134816673,1.008032541021775,B,660.8765830169432,Correct
7,8,268,A,21.26909911307071,38.295528084218944,1.0634549556535355,0.6015447484736192,A,596.984124975279,Correct
7,8,269,B,44.516671162608944,20.395312713689226,2.225833558130447,0.32036882294496294,B,542.9291669861414,Correct
7,8,270,B,75.81303668953932,57.274570994673155,3.790651834476966,0.8996668573718611,B,2531.900083005894,Correct
7,8,271,B,48.92712838503403,31.119213358258808,2.4463564192517016,0.4888194603589961,B,1359.6992079983465,Correct
7,8,272,B,50.35622936762024,36.88691988452419,2.5178114683810118,0.5794183826138823,B,1074.0302500198595,Correct
7,8,273,A,48.29991991418268,69.73629734169964,2.414995995709134,1.095415197086185,A,1030.6542499456555,Correct
7,8,274,A,31.373490223667105,43.97989848231038,1.568674511183355,0.690834629888256,A,1047.9548330185935,Correct
7,8,275,B,61.17672762291477,45.70656379282425,3.0588363811457384,0.7179570251618496,B,1328.7127090152353,Correct
7,8,276,B,71.22006113793698,50.57403480658176,3.561003056896849,0.7944150810537587,B,2474.1537499940023,Correct
7,8,277,B,30.40700087557315,13.957727306130998,1.5203500437786577,0.219247467828754,B,914.073041989468,Correct
7,8,278,A,58.12276266488706,83.37424548531673,2.906138133244353,1.3096395855763152,A,979.3556249933317,Correct
7,8,279,B,60.20696387774523,49.649310817094765,3.0103481938872614,0.779889550593906,B,644.3470829981379,Correct
7,8,280,B,54.881277636003155,29.563146591940622,2.7440638818001575,0.4643768207511939,B,761.3371659535915,Correct
7,8,281,B,54.183447893979576,45.10285737185069,2.709172394698979,0.7084740268765718,B,1989.948209025897,Correct
7,8,282,B,61.24485389597086,28.896360323778815,3.0622426947985435,0.45390296654333545,B,599.8169159865938,Correct
7,8,283,A,63.91780780271901,83.99066616312908,3.195890390135951,1.3193222989409956,A,731.3139999751002,Correct
7,8,284,A,39.37401383920459,50.11244402407552,1.9687006919602297,0.7871644299973269,A,1045.5360830528662,Correct
7,8,285,B,62.49565248584177,42.065933113381924,3.1247826242920884,0.6607701321770014,B,1401.5600829734467,Correct
7,8,286,B,48.74050622263361,39.89895566504745,2.4370253111316806,0.6267313300160897,A,1313.6845840490423,Incorrect
7,8,287,A,50.206270213854665,65.00481917659198,2.5103135106927335,1.0210933118655714,A,989.2573750112206,Correct
7,8,288,B,69.2214229485429,58.62946712251136,3.4610711474271447,0.9209495159798299,B,927.7470409870148,Correct
7,8,289,B,68.03457942764969,55.148189783802266,3.4017289713824845,0.8662657394178443,B,1087.8252920228988,Correct
7,8,290,A,26.297691334718472,48.524547300588715,1.3148845667359237,0.7622218065914996,A,549.1022079950199,Correct
7,8,291,A,29.626761837435346,62.442405360867745,1.4813380918717671,0.9808430097708901,A,825.6179999443702,Correct
7,8,292,B,58.5334217968299,38.64502385733196,2.926671089841495,0.6070346152399818,B,702.331000007689,Correct
7,8,293,A,13.607340550040266,34.71417922299712,0.6803670275020133,0.5452890521118359,A,541.732374986168,Correct
7,8,294,B,49.488487114457406,31.600627105548966,2.4744243557228702,0.49638148981811564,B,1577.1811659797095,Correct
7,8,295,B,48.77264663287987,24.3743714198539,2.4386323316439933,0.3828717309424102,B,621.4373339898884,Correct
7,8,296,B,44.486738347339625,20.83185215035833,2.224336917366981,0.3272259683811723,B,483.39058295823634,Correct
7,8,297,B,62.36828900001069,49.82353981734832,3.1184144500005346,0.7826263333301001,B,862.9188750055619,Correct
7,8,298,B,54.87751526063094,25.074361305141323,2.7438757630315473,0.3938671463484408,B,791.1564580281265,Correct
7,8,299,B,57.669130674440794,25.555448153772723,2.8834565337220397,0.40142404089543615,B,792.0597920310684,Correct
