subject,day,trial,cat,x,y,xt,yt,resp,rt,fb
6,306,0,A,34.32492754016856,64.49408560695127,1.7162463770084282,1.0130707277139468,A,1063.304600000265,Correct
6,306,1,B,81.55060411411313,59.956003720431305,4.077530205705656,0.9417867041335464,B,1006.4836999999898,Correct
6,306,2,B,57.82879146460634,32.38440825741181,2.891439573230317,0.5086930953616879,A,600.4120000006878,Incorrect
6,306,3,B,72.88176859416674,55.83927015862607,3.644088429708337,0.8771212045607771,B,985.2774999999383,Correct
6,306,4,A,52.85929664379157,66.2753788865674,2.6429648321895787,1.041051217119601,A,805.1627000004373,Correct
6,306,5,B,39.280541799172326,22.037928434700813,1.9640270899586165,0.3461709703539684,B,1052.6241000006848,Correct
6,306,6,A,58.685022862174264,81.95571011620419,2.934251143108713,1.2873572841040088,A,630.0430999999662,Correct
6,306,7,A,32.49173948168368,60.51767613608893,1.624586974084184,0.9506094338073167,A,1288.5144000001674,Correct
6,306,8,B,70.95904674353972,42.202037125471804,3.547952337176986,0.6629080489995296,B,493.8109999993685,Correct
6,306,9,A,59.63054686140729,74.5564271484306,2.9815273430703644,1.1711296190370608,B,1314.5268999996915,Incorrect
6,306,10,A,35.80796270888812,47.34202446084356,1.7903981354444058,0.743646781261272,A,1502.37720000041,Correct
6,306,11,A,42.01103301560208,58.0109704044178,2.1005516507801043,0.9112341922506695,A,1134.6759000007296,Correct
6,306,12,B,67.0423045276474,51.28705209528758,3.35211522638237,0.8056151304341622,B,805.9057999998913,Correct
6,306,13,A,36.1407377232107,44.07751495175346,1.8070368861605348,0.6923679858046146,A,847.2406000000774,Correct
6,306,14,B,58.247186481166885,49.98239611438586,2.9123593240583445,0.7851216422088481,B,707.1459000007962,Correct
6,306,15,A,19.841122412681482,45.756377111988854,0.9920561206340741,0.7187394909495418,A,696.6984999999113,Correct
6,306,16,B,85.28383871174957,56.086798639257424,4.264191935587479,0.8810093728423055,B,1745.2720999999656,Correct
6,306,17,B,42.10427603111387,17.256902793676495,2.1052138015556934,0.27107079520163624,B,685.1441999997405,Correct
6,306,18,B,81.414558910022,54.60271422444713,4.070727945501099,0.8576974293679301,B,622.8476000005685,Correct
6,306,19,A,54.070601819204164,75.4334999237011,2.703530090960208,1.184906645974328,A,818.1603000002724,Correct
6,306,20,B,66.58093207400444,49.92175656193464,3.3290466037002218,0.7841691183463595,B,552.2243000004892,Correct
6,306,21,B,33.54236113540263,13.735972750189312,1.6771180567701316,0.21576415540952165,B,1343.951200000447,Correct
6,306,22,A,54.7211437047139,82.87335300470389,2.7360571852356954,1.3017715848896567,A,619.0313999995851,Correct
6,306,23,B,35.854437757470194,22.742855565443964,1.7927218878735096,0.3572439398302624,B,1186.2357999998494,Correct
6,306,24,A,28.599644340394292,55.3729212933145,1.4299822170197145,0.8697958137144133,A,1533.5671000002549,Correct
6,306,25,A,26.856868342471444,38.40012100217956,1.3428434171235721,0.6031876901870322,A,1256.9002999998702,Correct
6,306,26,A,42.298926313292405,57.41760155333861,2.1149463156646204,0.9019135761335723,A,877.3146999992605,Correct
6,306,27,A,20.676886742001457,46.33959888235152,1.033844337100073,0.7279007170954664,A,595.9795999997368,Correct
6,306,28,A,35.95990388662087,54.28008451691757,1.7979951943310437,0.8526295737729066,A,802.0203000005495,Correct
6,306,29,B,73.22365225194264,55.459413351444276,3.6611826125971323,0.8711544277864852,B,568.9578000001347,Correct
6,306,30,B,36.3705315742595,20.00182122410772,1.8185265787129752,0.314187873080366,B,767.3397999997178,Correct
6,306,31,B,38.783431165492374,13.308265707627442,1.9391715582746187,0.20904574889551672,B,527.3372999999992,Correct
6,306,32,A,27.119033549073563,59.59304430868462,1.355951677453678,0.9360853510260733,A,642.1399000000747,Correct
6,306,33,B,55.80314801310482,38.65171389396865,2.7901574006552408,0.6071397020897322,B,850.4328999997597,Correct
6,306,34,A,59.36551276154093,73.6437660294597,2.968275638077046,1.1567935717041808,A,1186.171899999863,Correct
6,306,35,B,53.80861706549476,38.10654058662085,2.690430853274738,0.5985761398032469,B,779.5797999997376,Correct
6,306,36,A,61.31184043366066,86.73714623613135,3.0655920216830332,1.362463907043869,A,648.2506000002104,Correct
6,306,37,A,28.946892072156636,53.04122047886057,1.4473446036078317,0.8331695429691244,A,688.854299999548,Correct
6,306,38,B,52.63477077637653,31.633304703113026,2.6317385388188264,0.4968947883203367,B,891.3548999998966,Correct
6,306,39,B,31.103529165801472,15.700536156294536,1.5551764582900736,0.24662344523017918,B,1321.4232999998785,Correct
6,306,40,B,56.1300341128928,35.137189361570634,2.8065017056446404,0.5519336798305187,B,670.3952000007121,Correct
6,306,41,B,65.59480015147118,36.835556475482065,3.279740007573559,0.5786115680713318,B,536.3780000006955,Correct
6,306,42,B,50.948286243572085,32.989477210057245,2.547414312178604,0.5181974962444187,B,797.3170000004757,Correct
6,306,43,B,52.596437081998864,32.8399789215824,2.629821854099943,0.5158491826204347,B,475.7235999995828,Correct
6,306,44,B,56.91094423064532,34.39852851638638,2.8455472115322658,0.5403308224068921,B,506.3358999996126,Correct
6,306,45,B,63.007670898148646,42.55609867066128,3.1503835449074327,0.6684696347459591,B,544.4462000004933,Correct
6,306,46,B,47.316892674504174,30.141720273939733,2.365844633725209,0.4734650348958379,B,579.1903999997885,Correct
6,306,47,A,38.3677282397968,51.59526868964805,1.91838641198984,0.8104565853769488,A,1000.4751999995278,Correct
6,306,48,A,28.58953731940334,50.05256908303237,1.429476865970167,0.7862239166227505,A,638.5557000003246,Correct
6,306,49,B,53.06532820295641,39.06338265074992,2.65326641014782,0.6136061797998147,B,931.5655000000334,Correct
6,306,50,B,43.83913780045812,35.63274386826732,2.191956890022906,0.5597178318189767,B,734.8824000000604,Correct
6,306,51,B,48.04150935878828,28.669914728623475,2.4020754679394143,0.45034596745244665,B,929.9473999999464,Correct
6,306,52,B,54.17347952796269,36.999939605137556,2.708673976398135,0.5811936922338309,B,817.6233000003776,Correct
6,306,53,A,51.598414467678055,80.8463250560553,2.5799207233839025,1.269931104329179,A,618.7786999998934,Correct
6,306,54,A,47.13173343833216,77.2259011062875,2.356586671916608,1.2130616179118234,A,584.8960999992414,Correct
6,306,55,B,45.02290528759154,18.40935706766817,2.251145264379577,0.2891735046054883,B,574.7032999997828,Correct
6,306,56,B,50.59526649884999,28.74002231996105,2.529763324942499,0.4514472149219816,B,547.3887999996805,Correct
6,306,57,B,50.69649067279421,23.44155794699949,2.5348245336397106,0.3682191311749652,B,453.62980000027164,Correct
6,306,58,B,34.35325202541419,12.410476274190717,1.7176626012707095,0.1949433054527399,B,1039.560100000017,Correct
6,306,59,A,25.78640503344552,43.29084163585745,1.2893202516722762,0.6800109502546444,A,699.1692000001422,Correct
6,306,60,A,42.16878329647726,54.93782541585653,2.108439164823863,0.8629613436532675,A,938.0835000001753,Correct
6,306,61,A,61.81227406571371,75.84728209506196,3.0906137032856855,1.1914063211229964,A,862.2507000000041,Correct
6,306,62,A,63.61983044792032,84.9138711812963,3.180991522396016,1.3338239694551524,A,901.7199999998411,Correct
6,306,63,A,29.558638442137834,54.25775093289829,1.4779319221068916,0.8522787586554901,A,929.0646999997989,Correct
6,306,64,B,45.04794442676296,28.242667441151838,2.252397221338148,0.4436347827545113,B,947.0233000001826,Correct
6,306,65,A,29.79091108032109,39.083846732986565,1.4895455540160547,0.6139276288519002,A,696.2553000003027,Correct
6,306,66,B,62.6956767746699,29.87904963338479,3.134783838733495,0.46933901412243223,B,668.1453999999576,Correct
6,306,67,B,64.13905427455889,55.54767381221332,3.206952713727944,0.8725408198622574,B,619.84080000002,Correct
6,306,68,B,76.52893752498244,46.02103315108135,3.826446876249122,0.7228966982902476,B,942.3670999995011,Correct
6,306,69,B,51.875292076695985,20.427560270158477,2.5937646038347992,0.320875366377463,B,674.8143999993772,Correct
6,306,70,B,45.90315829381673,31.280476703490947,2.2951579146908365,0.4913525790623691,B,791.5033999997831,Correct
6,306,71,B,51.775324037801795,39.15570712576568,2.5887662018900897,0.6150564092620949,B,544.630700000198,Correct
6,306,72,B,82.22898435610183,55.13962499883452,4.111449217805092,0.8661312040901733,B,650.5701000005502,Correct
6,306,73,A,49.92578975841484,71.2304240547923,2.496289487920742,1.1188848846131059,A,764.5340999997643,Correct
6,306,74,B,81.20251187120955,54.57171443664753,4.060125593560477,0.8572104858398597,B,929.2451999999685,Correct
6,306,75,A,65.27474708533502,78.07548616720406,3.2637373542667514,1.226406868841699,A,956.568900000093,Correct
6,306,76,B,71.19254148910412,41.25756933726544,3.5596270744552054,0.648072383674623,B,655.9268000000884,Correct
6,306,77,A,20.762793844416755,47.129970349388344,1.038139692220838,0.740315843067716,A,517.7423999994062,Correct
6,306,78,B,61.32991958022606,30.429371819397083,3.066495979011303,0.47798345480585075,B,543.1257000000187,Correct
6,306,79,A,30.423351466060637,59.61608843529623,1.5211675733030319,0.9364473273204301,A,549.163700000463,Correct
6,306,80,A,32.47269512922966,53.710164504552715,1.6236347564614833,0.8436772911530104,A,603.8118000005852,Correct
6,306,81,B,32.86786840338933,10.808420596954548,1.6433934201694667,0.16977827372150509,B,780.9612999999445,Correct
6,306,82,B,31.966950400929502,12.316365838006941,1.598347520046475,0.19346502217803452,B,1206.3345999995363,Correct
6,306,83,A,18.41864726936184,42.15709776466698,0.920932363468092,0.6622021431707223,A,586.7607999998654,Correct
6,306,84,B,85.87725603335116,62.07918547056617,4.293862801667558,0.9751375650758446,B,612.1751999999105,Correct
6,306,85,A,65.25427342469516,80.34624543866899,3.2627136712347578,1.2620758720682246,A,585.7192000003124,Correct
6,306,86,A,35.36916279983551,60.955084232798505,1.7684581399917756,0.9574802241235341,A,616.3284000003841,Correct
6,306,87,A,21.42436085734276,44.85974570392828,1.071218042867138,0.7046552377268369,A,620.7943999997951,Correct
6,306,88,B,88.593700677712,65.21348332599902,4.429685033885599,1.024371000659795,B,1308.5450999997192,Correct
6,306,89,A,51.938440932425635,60.591464865514766,2.5969220466212817,0.9517685044587263,B,811.4777999999205,Incorrect
6,306,90,B,78.61344805037302,63.75966194102088,3.930672402518651,1.0015344277463996,B,544.693499999994,Correct
6,306,91,A,54.68580476959158,72.77382984382663,2.734290238479579,1.143128646054797,A,797.1141999996689,Correct
6,306,92,B,40.39418489541513,22.189537051667337,2.0197092447707563,0.34855243294038313,B,917.9709000000003,Correct
6,306,93,A,60.50220696991644,84.87282252602776,3.0251103484958217,1.3331791786859954,A,706.936499999756,Correct
6,306,94,A,34.333659434701104,66.44187163214482,1.7166829717350551,1.043666479051511,A,729.8860999999306,Correct
6,306,95,B,32.18984862392037,18.211928125432067,1.6094924311960184,0.2860722980328136,B,953.0606999996962,Correct
6,306,96,A,61.16466739177731,77.36858721287794,3.0582333695888657,1.2153029260329928,A,871.6942000000927,Correct
6,306,97,B,44.222314303543804,33.60894307306438,2.2111157151771903,0.5279280432662832,B,617.9480000000694,Correct
6,306,98,B,51.30019488738079,20.691633430924394,2.5650097443690396,0.3250234178868252,B,872.8279999995721,Correct
6,306,99,A,30.867092896748655,62.24205093325601,1.5433546448374327,0.9776958497813939,A,624.8705000007249,Correct
6,306,100,A,26.58435267365072,58.104975593397626,1.329217633682536,0.9127108223061612,A,731.3969999995606,Correct
6,306,101,B,48.561636564820994,21.66166186928491,2.4280818282410497,0.3402605889654581,B,621.5787000001001,Correct
6,306,102,B,31.173607241123907,10.708356075460085,1.5586803620561955,0.16820646389344515,B,753.455799999756,Correct
6,306,103,A,62.82114722417188,75.16320084410572,3.141057361208594,1.1806607979606831,A,1621.6354000007414,Correct
6,306,104,A,41.41146614299891,49.57268614191707,2.0705733071499455,0.778685933010796,A,1325.3650000006019,Correct
6,306,105,A,26.314939056348443,50.76069853183576,1.3157469528174222,0.7973471879935071,A,733.6358000002292,Correct
6,306,106,A,20.79482514103546,52.661334484886325,1.039741257051773,0.8272023077297685,A,634.9410000002536,Correct
6,306,107,A,48.58931491935972,74.98720967320419,2.429465745967986,1.1778963351126788,A,1040.1756999999634,Correct
6,306,108,B,70.3078748656394,54.33116696580764,3.51539374328197,0.8534319750037086,B,562.1508000003814,Correct
6,306,109,A,63.46293905940405,84.47074728526562,3.1731469529702023,1.3268633955731521,A,686.8590000003678,Correct
6,306,110,A,31.200796308355407,49.62034051152685,1.5600398154177701,0.7794344860981838,A,1250.9555000006003,Correct
6,306,111,B,74.77766979295018,55.84376560963888,3.7388834896475087,0.8771918189401592,B,1320.2541999999085,Correct
6,306,112,A,19.41083440635794,43.883468262334844,0.9705417203178969,0.6893199075349599,A,1038.095400000202,Correct
6,306,113,A,47.92054246388507,78.05968303425209,2.396027123194253,1.2261586338097707,A,1512.286199999835,Correct
6,306,114,A,41.8177995087825,65.43867596071286,2.0908899754391252,1.0279083182940925,A,520.8708000000115,Correct
6,306,115,B,49.00575740564504,39.60951558208457,2.4502878702822524,0.6221848158246366,B,560.8810999992784,Correct
6,306,116,B,66.23160735967956,49.0890591756426,3.311580367983978,0.7710891383891672,B,937.7462000002197,Correct
6,306,117,B,63.030973354661185,53.45854543902768,3.151548667733059,0.8397248681142275,B,870.1376999997592,Correct
6,306,118,B,64.32664095496142,47.82302366034666,3.216332047748071,0.7512022990189795,B,657.7716000001601,Correct
6,306,119,B,69.09033437334563,47.87068709105494,3.454516718667281,0.7519509944377696,B,556.6109999999753,Correct
6,306,120,B,59.85666033555674,33.715416947916495,2.992833016777837,0.5296005309814563,B,861.6595999992569,Correct
6,306,121,B,58.90763078049185,26.650940086764344,2.9453815390245928,0.418631987939203,B,691.2247999998726,Correct
6,306,122,B,59.79052326858969,31.14602589148258,2.9895261634294843,0.4892406306459958,B,794.1129999999248,Correct
6,306,123,B,41.98782238640706,17.069027800390334,2.099391119320353,0.2681196617081311,B,813.7391000000207,Correct
6,306,124,B,55.34384222062756,25.688543473841982,2.767192111031378,0.4035146972942199,B,1049.6094000000085,Correct
6,306,125,A,46.602348707623605,75.66379771994518,2.3301174353811804,1.1885241552984196,A,630.8463000004849,Correct
6,306,126,B,49.84044612466339,37.3269046693832,2.4920223062331694,0.586329647452904,B,1614.0654999999242,Correct
6,306,127,B,65.20006080315787,54.02792372977887,3.260003040157893,0.8486686413909148,B,837.8116000003502,Correct
6,306,128,A,23.63910513550059,51.297750587400756,1.1819552567750293,0.8057831819552986,A,934.1117999993003,Correct
6,306,129,B,66.52235661878537,37.62472012774014,3.326117830939268,0.5910077217334023,B,709.2792000003101,Correct
6,306,130,A,28.987540578755393,54.29449489779447,1.4493770289377697,0.852855931506398,A,574.4022999997469,Correct
6,306,131,A,56.81083178045631,73.20068098310455,2.8405415890228154,1.1498336080714566,A,867.4051999996664,Correct
6,306,132,B,59.11968778029938,35.70273123828658,2.9559843890149686,0.5608171908564598,B,583.0127999997785,Correct
6,306,133,A,25.29273518549597,43.7892469284252,1.2646367592747985,0.6878398822828502,A,613.0955999997241,Correct
6,306,134,A,61.9619109968798,83.81715290698102,3.09809554984399,1.3165967590869196,A,1865.7973000008496,Correct
6,306,135,A,33.673153677297094,55.134669893885416,1.6836576838648545,0.8660533694836439,A,891.7406999999002,Correct
6,306,136,B,63.40377983332919,36.1236976914116,3.1701889916664596,0.5674297164391863,B,767.0853999998144,Correct
6,306,137,A,37.05633308817501,54.61159135070796,1.8528166544087503,0.8578368709411601,A,994.6755000000849,Correct
6,306,138,A,27.33256358641385,55.98741929907119,1.3666281793206927,0.8794483258170672,A,613.4593000006134,Correct
6,306,139,B,45.29585706641857,22.73091055265604,2.2647928533209285,0.3570563080081547,B,556.0592000001634,Correct
6,306,140,A,54.68040553408359,74.2865466054647,2.7340202767041797,1.1668903453814183,A,828.4077999996953,Correct
6,306,141,A,28.648607054762984,39.88783765270894,1.432430352738149,0.6265566886866637,A,937.6413999998476,Correct
6,306,142,B,43.794639923973776,16.104138635970667,2.1897319961986885,0.252963218155785,B,793.6848999997892,Correct
6,306,143,B,32.388230950682654,15.149464850179388,1.6194115475341329,0.2379672373957018,B,1219.35029999986,Correct
6,306,144,B,66.56787807845609,46.01937905118122,3.3283939039228043,0.7228707157497746,B,922.5839000000633,Correct
6,306,145,A,26.123643728462667,38.55420407069626,1.3061821864231333,0.6056080213675054,A,986.5234000008059,Correct
6,306,146,B,76.77301549814729,51.70644342484191,3.8386507749073644,0.812202914033698,B,538.0205999999816,Correct
6,306,147,A,30.23325748312265,41.44967954636039,1.5116628741561327,0.6510900437824847,A,712.6711000000796,Correct
6,306,148,B,49.62740130638887,42.42973819741798,2.4813700653194433,0.6664847690737328,B,521.504599999389,Correct
6,306,149,B,59.143516676826614,33.484394480432115,2.957175833841331,0.5259716385481408,B,630.1867000001948,Correct
6,306,150,A,49.62357703669006,71.45076605792549,2.481178851834503,1.1223460087047086,A,730.0832999999329,Correct
6,306,151,A,23.619117513178875,42.34009008023858,1.1809558756589438,0.6650765797420379,A,760.7109000000492,Correct
6,306,152,B,64.79830752939355,50.33094997278935,3.239915376469678,0.7905967134135521,B,867.796399999861,Correct
6,306,153,B,66.08974618294928,54.91117796454178,3.304487309147464,0.8625427664668309,B,595.7765000002837,Correct
6,306,154,B,71.82353614329676,59.662000887992,3.5911768071648384,0.9371685184409169,B,540.6625999994503,Correct
6,306,155,A,33.18405981523208,56.02658358149127,1.659202990761604,0.8800635169267376,A,583.4265000003143,Correct
6,306,156,A,32.323696648554005,62.33482766721934,1.6161848324277002,0.9791531833106104,A,590.0529000000461,Correct
6,306,157,A,27.668723537797934,37.71897592893181,1.3834361768898966,0.5924882883963121,A,1329.933600000004,Correct
6,306,158,A,64.59675093205058,80.18007090357855,3.229837546602529,1.2594656085749554,A,970.7490000000689,Correct
6,306,159,B,55.49032565412145,28.011958936946563,2.774516282706072,0.44001082204485137,B,1631.4824000000954,Correct
6,306,160,A,33.627659984431304,55.49203694835195,1.6813829992215654,0.8716668780483793,A,1001.1753999997381,Correct
6,306,161,B,57.297508146214284,24.62626866732169,2.864875407310714,0.38682852365293163,B,557.0507000002181,Correct
6,306,162,A,31.768285210897155,63.54730552963783,1.5884142605448577,0.9981987410366813,A,708.8030000004437,Correct
6,306,163,B,46.305364894599705,19.81585921738258,2.3152682447299853,0.3112667887094935,B,532.7729000000545,Correct
6,306,164,A,47.371224186024946,66.28494324316533,2.3685612093012476,1.0412014536817231,A,652.285799999845,Correct
6,306,165,A,32.610242286736444,49.64979690684187,1.6305121143368222,0.7798971860737983,A,1092.5912000002427,Correct
6,306,166,A,25.643268090267142,54.76935351119191,1.2821634045133572,0.8603149931631143,A,796.8335999994451,Correct
6,306,167,B,47.077225793820524,38.61225812403449,2.3538612896910265,0.6065199323048979,B,581.963700000415,Correct
6,306,168,B,30.51032222248538,13.542857745402767,1.5255161111242692,0.21273071200784482,B,612.3074000006454,Correct
6,306,169,B,56.74008188866914,24.587476722662878,2.837004094433457,0.3862191812111387,B,1604.0904999999839,Correct
6,306,170,A,12.777719378846431,36.053802503187924,0.6388859689423215,0.5663318053899624,A,602.7165999994395,Correct
6,306,171,B,43.678561582215806,17.47236948811479,2.1839280791107907,0.2744553381233394,B,517.2577000003002,Correct
6,306,172,A,33.828383775192,46.62808137124515,1.6914191887596002,0.7324321894344543,A,1048.2665999998062,Correct
6,306,173,A,29.009064648346115,38.479961170202785,1.4504532324173058,0.6044418166136478,A,1313.6469999999463,Correct
6,306,174,A,25.855456798287065,44.45473342495261,1.2927728399143532,0.6982933197256187,A,674.5031999998901,Correct
6,306,175,A,49.73105438674744,68.93060130544879,2.486552719337372,1.0827593533436246,A,799.2003999997905,Correct
6,306,176,A,68.16489383696,86.89640742128992,3.408244691848,1.3649655758903498,A,758.41599999967,Correct
6,306,177,A,48.55841838738712,76.26245829241742,2.427920919369356,1.1979278935807829,A,962.57389999937,Correct
6,306,178,A,19.87040077296585,47.32669334975821,0.9935200386482925,0.7434059607314866,A,1370.6061000002592,Correct
6,306,179,A,20.28176536820316,39.97254611828552,1.0140882684101582,0.627887286152425,A,805.0910999991174,Correct
6,306,180,A,27.868787910966844,39.04833893228234,1.3934393955483422,0.6133698736227126,A,1027.4680000002263,Correct
6,306,181,B,33.89310631978355,15.878294669356386,1.6946553159891775,0.24941566942391996,B,901.1300000001938,Correct
6,306,182,B,67.66162692952183,46.42292586604737,3.3830813464760916,0.7292096142945901,B,653.4197999999378,Correct
6,306,183,A,39.31343912374482,61.90262687607239,1.9656719561872409,0.9723641891588956,A,1203.5045000002356,Correct
6,306,184,B,76.90652474152708,45.04828929308136,3.8453262370763537,0.7076168734996606,B,618.7000999998418,Correct
6,306,185,A,64.34999079647453,75.14581258096979,3.2174995398237263,1.1803876637620507,A,692.9182000003493,Correct
6,306,186,B,72.76629268108039,42.012047467638695,3.638314634054019,0.659923698432997,B,841.0642999997435,Correct
6,306,187,A,14.459330248813398,37.10415080192078,0.7229665124406699,0.5828306378850108,A,556.4272999999957,Correct
6,306,188,B,71.15014454053997,55.947371220112586,3.5575072270269983,0.8788192520638336,B,762.5060000000303,Correct
6,306,189,B,80.38445794150977,60.98664402287622,4.019222897075489,0.957975964146819,B,1287.4946000001728,Correct
6,306,190,A,37.507819717186855,48.29182825159658,1.875390985859343,0.7585662643181792,A,1120.3322000001208,Correct
6,306,191,B,76.46553508173048,60.230917568666776,3.823276754086524,0.9461050407634796,B,840.3785999998945,Correct
6,306,192,B,33.47052417914382,17.995473191086475,1.673526208957191,0.2826722318749467,B,858.0270000002201,Correct
6,306,193,A,60.43006865602919,85.22969549967237,3.02150343280146,1.3387849262473288,A,661.0680000003413,Correct
6,306,194,A,16.546418907703274,31.006994995936143,0.8273209453851637,0.48705673844564223,A,648.1495000007271,Correct
6,306,195,A,21.626300676510734,35.37131696021332,1.0813150338255368,0.5556113475500111,A,917.3682000000554,Correct
6,306,196,B,76.9405337186762,62.07261470876916,3.8470266859338103,0.9750343517908947,B,612.5655000005281,Correct
6,306,197,A,44.26124889940778,65.59165665253596,2.213062444970389,1.0303113333819554,A,2046.2548000004972,Correct
6,306,198,B,77.19239486607381,51.979963399422004,3.8596197433036905,0.8164993557474525,B,498.42329999955837,Correct
6,306,199,A,58.37770373949358,74.61815947927948,2.9188851869746792,1.17209930822248,A,681.2996999997267,Correct
6,306,200,B,38.71112831623714,14.192922550822544,1.9355564158118568,0.22294190609316505,B,630.5937999995876,Correct
6,306,201,B,59.873351421170774,36.09635788870117,2.993667571058539,0.5670002638224579,B,718.041600000106,Correct
6,306,202,A,57.67373737197882,75.85376870037285,2.8836868685989407,1.1915082124809537,A,600.2752000003966,Correct
6,306,203,A,14.923397573138093,33.25160686733169,0.7461698786569047,0.5223150192723257,A,556.9926000007399,Correct
6,306,204,B,53.60602968060058,40.09322151373332,2.680301484030029,0.6297828508314642,B,545.9403000004386,Correct
6,306,205,A,28.853063209212195,48.282515573945886,1.4426531604606097,0.7584199811197159,A,1136.6161999994802,Correct
6,306,206,B,70.0034241322755,41.92175068511933,3.500171206613775,0.6585053198899687,B,726.1271999996097,Correct
6,306,207,A,60.59398408145728,71.65638704183584,3.029699204072864,1.1255758955670918,A,1082.5720000002548,Correct
6,306,208,B,54.19605297287539,28.34844989538192,2.7098026486437696,0.44529640965995093,B,532.7868000003946,Correct
6,306,209,B,44.806318462529276,20.523262787791825,2.240315923126464,0.3223786580090979,B,588.8385999996899,Correct
6,306,210,B,65.79452127505948,57.08064530798606,3.289726063752974,0.8966206798086684,B,798.7892999999531,Correct
6,306,211,A,59.89741740695466,83.96164629958108,2.994870870347733,1.3188664559903427,A,588.5570000000371,Correct
6,306,212,A,68.53183137641334,88.1435668295632,3.4265915688206667,1.3845559100647835,A,578.0598000001191,Correct
6,306,213,B,63.094863043293195,53.04173654944252,3.15474315216466,0.8331776493868692,B,604.8680000003515,Correct
6,306,214,A,39.86018006860928,68.65788283379895,1.9930090034304642,1.0784755016084577,A,805.4697999996279,Correct
6,306,215,B,75.27043442570547,48.21806402865928,3.763521721285274,0.7574075786137913,B,633.8695000004009,Correct
6,306,216,A,49.73530976934651,80.8237347288536,2.4867654884673254,1.2695762562992834,A,626.7215999996552,Correct
6,306,217,A,31.129591084100905,48.863156109174255,1.5564795542050454,0.7675406613189654,A,1112.572199999704,Correct
6,306,218,A,54.07496464699809,80.680389438981,2.7037482323499047,1.267324593751331,A,663.9791999996305,Correct
6,306,219,A,47.073680506254185,74.5961318921383,2.353684025312709,1.1717532996927846,A,742.9425000000265,Correct
6,306,220,A,36.04936500725332,60.604977663062826,1.8024682503626661,0.9519807629862586,A,1151.44650000002,Correct
6,306,221,A,19.306798674104915,35.240352215776014,0.9653399337052457,0.5535541581549936,A,582.9530999999406,Correct
6,306,222,B,58.91934958261199,40.23816809525043,2.9459674791305996,0.6320596664097498,B,723.6763999999312,Correct
6,306,223,A,42.67414860954156,49.91746650685626,2.1337074304770782,0.784101730318771,A,615.8209000004717,Correct
6,306,224,A,55.29825421565759,75.28184818596289,2.76491271078288,1.1825245060484155,A,816.956300000129,Correct
6,306,225,A,25.859739054874385,49.21746924235816,1.2929869527437194,0.77310619900037,A,903.3056999996916,Correct
6,306,226,B,46.20228796293097,16.09430275922177,2.310114398146548,0.25280871656510523,B,678.9606000002095,Correct
6,306,227,A,16.254952376639398,36.616392525911934,0.8127476188319699,0.5751689488018257,A,559.8878999999215,Correct
6,306,228,B,54.757943929806565,47.414088115042304,2.7378971964903283,0.7447787544943799,B,1094.8203999996622,Correct
6,306,229,B,46.43620323500342,27.075913108721664,2.3218101617501707,0.4253074485579778,B,612.8896000000168,Correct
6,306,230,A,39.342263014421036,64.20510428461668,1.9671131507210518,1.0085314197175916,A,873.0612999997902,Correct
6,306,231,A,39.52003579898332,61.37475186149047,1.976001789949166,0.9640723478197747,A,741.4857000003394,Correct
6,306,232,A,33.65792140919327,61.81816585605779,1.6828960704596636,0.9710374785589326,A,997.7958999998009,Correct
6,306,233,A,44.75997377579189,59.55629763630312,2.2379986887895944,0.9355081356460853,A,780.981800000518,Correct
6,306,234,A,27.067804769897812,57.814154057465096,1.3533902384948906,0.9081426083022043,A,660.1581999993869,Correct
6,306,235,B,79.37882905693967,63.5694053775338,3.968941452846983,0.9985458846356584,B,691.0603000005722,Correct
6,306,236,A,12.694304489540507,37.20400680141157,0.6347152244770253,0.5843991722570965,A,597.0091999997749,Correct
6,306,237,B,81.7268386421108,67.81007401633804,4.08634193210554,1.0651581518455386,B,630.9642999995049,Correct
6,306,238,A,27.59308743482034,50.939148699331305,1.379654371741017,0.8001502766696865,A,688.6475000001155,Correct
6,306,239,B,54.98625718729461,46.439703594691494,2.7493128593647302,0.7294731582398515,B,635.4379000003973,Correct
6,306,240,A,32.13937044025832,62.35466369078019,1.606968522012916,0.9794647668400864,A,619.4541000004392,Correct
6,306,241,A,52.337604414846396,81.27492177761823,2.6168802207423196,1.2766634858882526,A,994.6034999993572,Correct
6,306,242,A,22.99092962481779,46.42348081447318,1.1495464812408895,0.7292183314040782,A,899.1868000002796,Correct
6,306,243,A,11.478993811417936,37.03059230896402,0.5739496905708968,0.5816751837796003,A,671.3558000001285,Correct
6,306,244,A,58.831586986281906,84.60097059433734,2.941579349314095,1.3289089385286814,A,654.5142000004489,Correct
6,306,245,B,33.678780014612,18.13839639157406,1.6839390007306003,0.28491726425834335,B,813.4633999998186,Correct
6,306,246,B,63.020946544503616,40.09576307566092,3.1510473272251804,0.6298227735928661,B,1100.1148000004832,Correct
6,306,247,B,43.97912106498825,17.40481793640846,2.1989560532494123,0.2733942408304434,B,540.9370999996099,Correct
6,306,248,A,36.01810081741739,47.405594000214705,1.8009050408708698,0.7446453292506744,B,504.512500000601,Incorrect
6,306,249,A,32.337550973058356,53.477934866250465,1.6168775486529177,0.8400294365248296,A,760.5386999994153,Correct
6,306,250,B,78.7305652950075,65.74258554571249,3.936528264750375,1.0326821188920445,B,1600.8447000003798,Correct
6,306,251,A,56.57472938012015,68.03259901592021,2.8287364690060075,1.0686535663651757,A,809.4153000001825,Correct
6,306,252,B,46.7050275904052,36.99420816101148,2.33525137952026,0.5811036629200262,B,2809.6843999992416,Correct
6,306,253,B,60.38341166126022,41.303030517923894,3.019170583063011,0.6487864862305237,B,580.2370000001247,Correct
6,306,254,B,42.77963725578609,21.427678609749357,2.1389818627893047,0.3365851885193587,B,1050.3449000007095,Correct
6,306,255,B,58.27790138523373,26.509476556187465,2.9138950692616867,0.4164098839971469,B,855.3230000006806,Correct
6,306,256,B,51.81773757661391,22.741894180275352,2.5908868788306956,0.3572288384273476,B,668.2728000005227,Correct
6,306,257,B,73.99361220548062,61.62394701298912,3.699680610274031,0.9679866961060665,A,809.5407000000705,Incorrect
6,306,258,A,55.0490164027387,74.38343035325933,2.752450820136935,1.1684121917330377,A,1492.0101999996405,Correct
6,306,259,B,32.881631244532514,10.342728540664979,1.6440815622266256,0.1624632000071329,B,554.1139000006297,Correct
6,306,260,A,37.795219281038925,54.95438628988294,1.8897609640519462,0.8632214812541594,A,682.7282000003834,Correct
6,306,261,A,21.553092518822087,52.34056044582402,1.0776546259411044,0.8221636009068662,A,835.8154000006834,Correct
6,306,262,B,58.325087537852205,33.04813179937212,2.9162543768926104,0.5191188403788735,B,1329.0784000000713,Correct
6,306,263,B,88.82521034918962,68.46194912185237,4.44126051745948,1.0753977820582479,B,1333.7858999993841,Correct
6,306,264,B,39.3287179937829,17.428296680863244,1.9664358996891451,0.2737630440859167,B,804.7002000002976,Correct
6,306,265,A,58.230563488311276,82.47617106890948,2.911528174415564,1.2955326656315054,A,677.2680000003675,Correct
6,306,266,B,63.960293711692536,40.49241608348132,3.1980146855846265,0.6360533844698304,B,657.1674999995594,Correct
6,306,267,B,76.17057442410214,55.23646923074633,3.808528721205107,0.8676524297277565,B,851.3647999998284,Correct
6,306,268,B,52.35182939650305,26.7487502348446,2.617591469825152,0.4201683861524803,B,603.9405000001352,Correct
6,306,269,A,26.190781831621365,51.94927995925117,1.3095390915810683,0.8160173813963147,A,584.9411999997756,Correct
6,306,270,A,53.802648624194326,77.59797362885864,2.6901324312097166,1.218906119429384,A,603.427100000772,Correct
6,306,271,A,16.011256419919363,44.2075037528742,0.8005628209959681,0.6944098451178641,A,549.9345999996876,Correct
6,306,272,A,43.05267147920292,53.07741502069861,2.1526335739601463,0.8337380855028165,A,1478.195599999708,Correct
6,306,273,B,37.43137847497856,22.547755429086934,1.8715689237489277,0.3541793140547944,A,1445.9819000003336,Incorrect
6,306,274,B,42.35927840514186,18.881102687303212,2.117963920257093,0.29658366747053133,B,921.2904000005437,Correct
6,306,275,B,86.25858991186311,58.92930481691997,4.312929495593155,0.925659355469947,B,769.583799999964,Correct
6,306,276,A,61.80874650054116,74.12909711885419,3.090437325027058,1.164417134629183,A,886.054100000365,Correct
6,306,277,A,46.214534528756744,53.54902935091589,2.3107267264378373,0.8411461860785079,A,2066.4638999996896,Correct
6,306,278,A,25.90571065346205,39.1672679415037,1.2952855326731025,0.6152380061310552,A,704.0145000000848,Correct
6,306,279,B,36.26527028775314,13.973271951346899,1.813263514387657,0.21949164254481868,B,936.5748000000167,Correct
6,306,280,B,50.751571022220325,40.29791622469217,2.5375785511110163,0.6329981878323493,B,1223.2249999997293,Correct
6,306,281,A,50.5412418201467,62.25753465847565,2.527062091007335,0.9779390675683951,A,906.5602000000581,Correct
6,306,282,B,75.89824795421053,45.334363187400214,3.794912397710527,0.7121105117235403,B,971.1515999997573,Correct
6,306,283,B,48.52587991124024,30.86703386599399,2.4262939955620118,0.4848582341575703,B,642.2952000002624,Correct
6,306,284,B,78.19153552445161,47.123744917580446,3.909576776222581,0.7402180542135504,B,616.0908000001655,Correct
6,306,285,A,56.34130218132162,77.92253227082517,2.817065109066081,1.2240042746556898,A,867.7080000006754,Correct
6,306,286,A,24.411318015489954,40.19156344280209,1.2205659007744978,0.6313276022409758,A,583.3293000005142,Correct
6,306,287,B,70.09174388724172,41.451660238524774,3.504587194362086,0.6511211564222479,B,1064.1647000002195,Correct
6,306,288,A,65.51389406974106,79.83506958198213,3.275694703487053,1.254046340487925,A,612.8602999997383,Correct
6,306,289,B,83.85612714986416,59.32802997750133,4.192806357493208,0.931922515646366,B,706.1414999998306,Correct
6,306,290,A,35.52622629064456,59.49203203205206,1.776311314532228,0.934498653895117,A,553.0535999996573,Correct
6,306,291,B,72.05416999062882,59.49207001399387,3.602708499531441,0.9344992505140638,B,858.9818999998897,Correct
6,306,292,A,14.62178745347726,32.0048783899412,0.731089372673863,0.5027314541443699,A,715.8493999995699,Correct
6,306,293,B,68.31560005085448,46.44067588888237,3.415780002542724,0.7294884310012874,B,1022.6094000008743,Correct
6,306,294,B,78.7901624184073,49.245805852226795,3.9395081209203653,0.7735513094273248,B,704.023700000107,Correct
6,306,295,A,30.90415042033691,54.70061567098259,1.5452075210168457,0.859235261693988,A,622.0697999997356,Correct
6,306,296,A,55.67586715961865,77.91944125809525,2.783793357980932,1.2239557211412673,A,853.0069999997067,Correct
6,306,297,A,54.086742169399656,67.61029763604743,2.704337108469983,1.0620200718021298,A,955.0974000003407,Correct
6,306,298,B,73.59434935555048,59.583644575758754,3.679717467777524,0.9359377003665451,B,1229.3313999998645,Correct
6,306,299,B,64.5932319688826,31.90037624220023,3.2296615984441304,0.501089938246233,B,572.8051999994932,Correct
6,306,300,B,81.89877824954104,55.34405890169171,4.094938912477051,0.8693424443269774,B,589.907100000346,Correct
6,306,301,A,57.13646514550018,71.19685140401438,2.856823257275009,1.1183575266478785,A,609.4806999999491,Correct
6,306,302,A,44.753655954686145,54.50176217748166,2.237682797734307,0.8561116783223721,B,2795.751599999676,Incorrect
6,306,303,B,87.14183761808347,68.03399962534816,4.357091880904173,1.0686755670866228,B,1376.1924000000363,Correct
6,306,304,B,73.47179741553994,63.330979456033276,3.673589870776997,0.9948006990186014,B,625.8416999999099,Correct
6,306,305,B,35.104472570987625,23.120528365884677,1.7552236285493814,0.3631764103068887,B,760.4586000006748,Correct
6,306,306,B,78.50177942707305,60.80346449857814,3.9250889713536528,0.9550985869077043,B,952.5231999996322,Correct
6,306,307,A,32.094306804578295,51.266683588233555,1.604715340228915,0.8052951826735347,A,961.3521000001128,Correct
6,306,308,A,23.420642284723414,35.05233114151593,1.1710321142361706,0.5506007300269159,A,667.3266999996486,Correct
6,306,309,B,69.71435978670489,54.26616173532924,3.4857179893352446,0.8524108752311296,B,660.441300000457,Correct
6,306,310,B,51.13816569287603,23.16341415324979,2.556908284643802,0.3638500586795368,B,637.5658999995721,Correct
6,306,311,A,41.81932276673483,61.610607789310585,2.0909661383367415,0.9677771640705012,A,678.146299999753,Correct
6,306,312,B,56.70976650050483,27.300603063797162,2.835488325025241,0.4288368701189808,B,733.300899999449,Correct
6,306,313,A,66.18656160605215,88.82332394691966,3.3093280803026075,1.3952335098953457,A,630.4184000000532,Correct
6,306,314,B,70.19336273487845,45.143357748656214,3.5096681367439224,0.7091102053077711,B,733.3144000003813,Correct
6,306,315,A,63.025459772102764,85.6445805021285,3.151272988605138,1.3453019246263327,A,917.6271999995151,Correct
6,306,316,B,87.5553089104483,68.65626619425294,4.377765445522415,1.0784501074938515,B,751.5797000005477,Correct
6,306,317,A,54.728850459990454,79.40042656961317,2.7364425229995226,1.247218984014963,A,680.6932999998025,Correct
6,306,318,A,61.792494389381766,84.66569070568781,3.089624719469088,1.3299255596604722,A,2930.0978000001123,Correct
6,306,319,A,32.53440705854431,52.25538691036082,1.6267203529272154,0.820825698140409,A,1196.0944999991625,Correct
6,306,320,A,68.19922130618097,81.35759983460682,3.4099610653090484,1.2779621897704947,A,1594.9878999999783,Correct
6,306,321,A,41.549412361979996,73.66690793616883,2.077470618099,1.157157083924718,A,1288.2390000004307,Correct
6,306,322,B,36.399366292855845,20.712544419714153,1.8199683146427923,0.3253518869306312,B,848.5009000005448,Correct
6,306,323,B,80.64558181682028,60.68742203194863,4.032279090841014,0.9532757961043657,B,581.2207000008129,Correct
6,306,324,B,49.544734315963446,38.6765385389367,2.4772367157981723,0.6075296467010302,B,1017.9645999996865,Correct
6,306,325,B,69.87921460487107,48.1136252222625,3.4939607302435536,0.7557670576791621,B,855.1724999997532,Correct
6,306,326,B,84.0927838055098,66.98962813286693,4.20463919027549,1.0522706180446342,B,1059.9078000004738,Correct
6,306,327,B,61.33396963915724,39.627476079832824,3.0666984819578618,0.6224669386635403,B,693.0481999997937,Correct
6,306,328,A,24.260470511547965,49.52184219225737,1.2130235255773982,0.7778872781171439,A,579.6811000000162,Correct
6,306,329,A,49.97054237808526,61.65801589728325,2.498527118904263,0.9685218488891386,A,1472.091100000398,Correct
6,306,330,B,78.501780143134,59.605262401032284,3.9250890071567,0.9362772723718747,B,1247.3110999999335,Correct
6,306,331,A,28.619075085849566,56.790987398466406,1.4309537542924784,0.8920707440056628,A,917.9256999996142,Correct
6,306,332,B,71.50446411004461,39.14943156492458,3.5752232055022306,0.6149578329829172,B,1016.4385999996739,Correct
6,306,333,A,49.93737677274241,77.81145293389157,2.4968688386371207,1.2222594445113086,A,1082.4046999996426,Correct
6,306,334,B,55.62509894625869,34.1939273447515,2.7812549473129344,0.5371169547182723,B,842.1160999996573,Correct
6,306,335,B,59.681366144921185,27.711236723076027,2.9840683072460594,0.4352870885555167,B,582.566200000656,Correct
6,306,336,A,32.514634369315786,61.54346072692789,1.6257317184657893,0.966722420481043,A,549.4761999998445,Correct
6,306,337,B,50.803481311160084,40.64205233441872,2.5401740655580043,0.6384038652031089,B,1299.550900000213,Correct
6,306,338,B,41.04046731506298,25.08055182358627,2.0520233657531493,0.3939643867847836,B,1519.9985999997807,Correct
6,306,339,B,35.33687801908599,11.87936616556662,1.7668439009542993,0.1866006473752362,B,729.1401000002224,Correct
6,306,340,B,74.64529253566761,42.25923672105779,3.7322646267833806,0.6638065381459358,B,494.37070000021777,Correct
6,306,341,B,40.28881421922995,30.5347042271972,2.0144407109614972,0.4796380123984996,B,481.99920000024576,Correct
6,306,342,B,80.99949096750092,58.716676228582145,4.0499745483750464,0.9223193934146207,B,518.4292999992977,Correct
6,306,343,B,67.83491137265655,36.725419520464925,3.3917455686328277,0.5768815408274791,B,509.5869999995557,Correct
6,306,344,A,48.578230241895604,57.95368201768998,2.42891151209478,0.9103343083762687,A,1054.1851999996652,Correct
6,306,345,B,79.10151190497777,60.702450524838966,3.9550755952488883,0.95351186311866,B,700.5269000001135,Correct
6,306,346,A,32.37907931309749,42.568552683118554,1.6189539656548746,0.6686652619161767,A,1457.2474000005968,Correct
6,306,347,B,71.32971010150457,59.42346701559802,3.566485505075229,0.9334216371351907,B,607.3034999999436,Correct
6,306,348,B,39.63711910413011,20.093620249722267,1.9818559552065054,0.3156298488027529,B,1709.967499999948,Correct
6,306,349,A,26.728241665330952,50.116489386821414,1.3364120832665476,0.7872279744067451,A,977.8304000001299,Correct
6,306,350,B,74.38982258216362,63.49123824478632,3.7194911291081807,0.9973180381857001,B,513.8634999993883,Correct
6,306,351,B,65.97313504541755,41.285001499711164,3.298656752270878,0.6485032870746809,B,601.347199999509,Correct
6,306,352,A,55.012270822476125,64.44753170419438,2.750613541123806,1.0123394607194618,A,715.8288000000539,Correct
6,306,353,B,54.374777655605655,44.99774616428889,2.7187388827802828,0.7068229438891414,B,558.6130000001504,Correct
6,306,354,A,34.011615253780036,50.40848510565391,1.7005807626890017,0.7918146324325641,A,575.742099999843,Correct
6,306,355,A,21.647698536051116,42.80588012427631,1.0823849268025558,0.6723931926443589,A,604.1803999996773,Correct
6,306,356,A,17.958063281534553,36.01233003151586,0.8979031640767277,0.5656803573283066,A,852.1915000001172,Correct
6,306,357,A,60.04839770184086,86.37238325037674,3.002419885092043,1.3567342234621282,A,728.8720999995348,Correct
6,306,358,B,72.7994223900363,41.32486713462376,3.6399711195018147,0.6491294950035414,B,724.5198999999047,Correct
6,306,359,B,33.782539538558325,20.008727342476902,1.6891269769279162,0.31429635413403334,A,812.5326999997924,Incorrect
6,306,360,B,68.64634514552074,36.22483454944022,3.432317257276037,0.5690183704901355,B,828.5330000007889,Correct
6,306,361,A,42.85818193388027,66.09955735707267,2.1429090966940136,1.0382894189925833,A,767.006300000503,Correct
6,306,362,B,51.91253482862275,44.97621874464745,2.595626741431138,0.7064847919721597,B,1311.6194000003816,Correct
6,306,363,A,48.92370218877073,68.78828464096601,2.4461851094385367,1.080523848405512,A,1338.3801999998468,Correct
6,306,364,B,77.14194910543154,46.23241962468675,3.857097455271577,0.7262171492529823,B,472.20350000043254,Correct
6,306,365,A,32.52014060241962,59.79778065986566,1.626007030120981,0.9393013421100389,A,568.506300000081,Correct
6,306,366,B,53.42569467829243,22.874503896547797,2.6712847339146215,0.35931186697952827,B,559.4230000006064,Correct
6,306,367,A,47.36723673775177,67.37187300161926,2.3683618368875883,1.058274906402358,A,548.0956999999762,Correct
6,306,368,A,45.17183506400262,71.63380618012403,2.2585917532001307,1.1252211962207639,A,1031.423899999936,Correct
6,306,369,A,63.16727821680443,82.15476163218756,3.158363910840221,1.2904839780055053,A,599.4497000001502,Correct
6,306,370,A,55.17154314621176,71.83392460411436,2.7585771573105884,1.1283646490740438,A,580.4257999998299,Correct
6,306,371,B,60.42048994906484,46.5841656248995,3.021024497453242,0.7317423625039723,B,593.1313000000955,Correct
6,306,372,B,74.08835810557339,44.51142464674387,3.704417905278669,0.6991838233551309,B,609.9815000006856,Correct
6,306,373,A,49.64424098570877,57.87478395872303,2.4822120492854385,0.9090949805641033,A,727.2485000003144,Correct
6,306,374,B,65.5303060208864,55.03804341723602,3.2765153010443204,0.8645355643377237,B,763.1356000001688,Correct
6,306,375,B,43.985199486821685,14.570399621643901,2.199259974341084,0.22887130205611989,B,554.8707999996623,Correct
6,306,376,B,60.097493634224804,52.29461068608143,3.0048746817112404,0.8214418237686584,B,908.8368000002447,Correct
6,306,377,B,74.42113790934309,44.78048050958584,3.7210568954671546,0.703410142965679,B,681.2247999996544,Correct
6,306,378,A,57.6327617139755,68.5170703558139,2.8816380856987744,1.0762636243765997,B,2083.4893000001102,Incorrect
6,306,379,A,24.280610791224053,43.19033339772356,1.2140305395612025,0.6784321705419113,A,638.235600000371,Correct
6,306,380,B,79.70726256780803,61.30622868966934,3.9853631283904014,0.962995988353805,B,536.2230000000636,Correct
6,306,381,B,40.934346962476766,26.29829982614597,2.0467173481238383,0.4130927276786096,B,599.6867000003476,Correct
6,306,382,B,71.83079159039313,41.272444386926715,3.5915395795196563,0.6483060404083113,B,541.7515999997704,Correct
6,306,383,B,60.63963653709179,34.2201645491582,3.0319818268545897,0.5375290877613463,B,847.4163999999291,Correct
6,306,384,B,73.29204821699888,61.46022325959191,3.6646024108499438,0.9654149294016123,B,1004.4004000001223,Correct
6,306,385,B,43.81087446643624,25.862469918760617,2.190543723321812,0.4062467275023269,B,1094.3624999999884,Correct
6,306,386,B,56.64915257507937,47.371260063916914,2.8324576287539687,0.7441060130404646,B,625.4055999997945,Correct
6,306,387,B,70.64034191509288,56.698672448895955,3.532017095754644,0.8906206641687276,B,612.4718999999459,Correct
6,306,388,A,33.99417431703223,47.06696655267653,1.6997087158516115,0.7393261817432255,A,731.3741999996637,Correct
6,306,389,A,33.516457453445064,43.207703698216065,1.6758228726722533,0.6787050225840006,A,791.0087000000203,Correct
6,306,390,B,51.76309171204076,33.535367825721075,2.5881545856020383,0.5267723259835843,B,663.5292999999365,Correct
6,306,391,A,64.27474528461539,87.58546559362264,3.2137372642307698,1.3757892763508326,A,1156.2564000005295,Correct
6,306,392,A,57.62606318312055,78.088257055371,2.8813031591560274,1.2266074734839243,A,922.9125000001659,Correct
6,306,393,A,57.20766716353124,77.69034580340889,2.8603833581765623,1.2203570981541998,A,571.4441999998598,Correct
6,306,394,B,80.80295679805461,67.25198404738869,4.040147839902731,1.0563916951130714,B,534.2719000000216,Correct
6,306,395,A,34.66044247117151,44.39518695144139,1.7330221235585754,0.6973579659069686,B,1537.0275999994192,Incorrect
6,306,396,B,67.51875246062333,36.98122741700642,3.3759376230311666,0.5808997618700041,B,614.8259000001417,Correct
6,306,397,B,63.59848016275799,42.95806771694027,3.179924008137899,0.6747837497597621,B,1340.3644999998505,Correct
6,306,398,B,32.101066344079285,19.57677206939403,1.6050533172039645,0.3075112165710507,B,868.9146999995501,Correct
6,306,399,A,33.04628688007752,52.114587163195,1.6523143440038757,0.8186140208837916,A,1787.3055000000022,Correct
6,306,400,A,25.73093459696254,39.73359088839369,1.286546729848127,0.6241337861785997,A,1034.748000000036,Correct
6,306,401,A,38.108914863985085,60.139854479274184,1.9054457431992544,0.9446746251002349,A,1038.4108999996897,Correct
6,306,402,A,20.186881334757906,39.99854246330619,1.0093440667378955,0.6282956357851106,A,1059.0944000005038,Correct
6,306,403,A,55.09798376380654,66.84613554221639,2.7548991881903273,1.050016641701473,A,1113.1711999996696,Correct
6,306,404,A,49.49407598381983,66.27306341448643,2.474703799190992,1.0410148457692052,A,592.9030000006605,Correct
6,306,405,B,49.69518093569409,18.572974911776797,2.4847590467847045,0.2917436076907276,B,452.5154000002658,Correct
6,306,406,A,39.21282321967489,68.13107536237271,1.9606411609837442,1.0702004291980134,A,524.7933000000558,Correct
6,306,407,A,16.95859146617211,33.19639147859741,0.8479295733086054,0.5214476979742623,A,931.729500000074,Correct
6,306,408,B,44.69158170471735,27.094578608839797,2.2345790852358673,0.4256006455482113,B,611.753499999395,Correct
6,306,409,A,36.173145765412116,63.011930656595766,1.808657288270606,0.9897890921963537,A,765.1400999993712,Correct
6,306,410,B,58.39304378181747,33.24617757294876,2.9196521890908738,0.5222297361155879,B,684.3440000002374,Correct
6,306,411,B,64.7682835190829,54.11058534165559,3.238414175954145,0.8499670869539439,B,1597.4407999992764,Correct
6,306,412,B,64.20504744712018,51.47431524646014,3.2102523723560092,0.8085566531342212,B,566.8504000004759,Correct
6,306,413,B,78.36760577257361,54.54083785561562,3.9183802886286805,0.8567254776391705,B,635.5497000004107,Correct
6,306,414,B,73.10299716794187,50.481369120230255,3.655149858397093,0.79295949185635,B,559.988400000293,Correct
6,306,415,B,67.89880171602456,39.836482790714996,3.394940085801228,0.6257500084008322,B,633.3789000000252,Correct
6,306,416,B,48.30872056489329,26.11815906672521,2.4154360282446645,0.4102630832465678,B,848.0308999996851,Correct
6,306,417,B,72.40203134971789,40.46269435331397,3.6201015674858947,0.6355865166241018,B,747.6181000001816,Correct
6,306,418,B,52.13981226697978,37.69345139546224,2.606990613348989,0.5920873499621405,B,1226.0352000002968,Correct
6,306,419,B,46.72823990542574,33.906612367466536,2.3364119952712867,0.5326038216087484,B,997.3387000000002,Correct
6,306,420,B,70.75283018789607,46.89508993966336,3.537641509394803,0.7366263502193952,B,597.8893999999855,Correct
6,306,421,B,34.22879387215462,12.704582592396271,1.711439693607731,0.19956311669598448,B,923.6864000004061,Correct
6,306,422,B,36.72381454467941,14.248652914676189,1.8361907272339706,0.22381731660148757,B,531.4364000005298,Correct
6,306,423,B,36.33231938348297,13.775335581386724,1.8166159691741484,0.21638246531609306,B,496.9871000002968,Correct
6,306,424,B,67.56042389844588,43.449276062095535,3.378021194922294,0.682499632402371,B,777.8196999997817,Correct
6,306,425,B,45.93479489687634,37.674275771198054,2.296739744843817,0.5917861399605587,B,626.6595999995843,Correct
6,306,426,A,53.10786088644788,67.81953513536932,2.6553930443223943,1.0653067667557556,A,826.407300000028,Correct
6,306,427,A,55.502041482936434,72.50748076748101,2.7751020741468215,1.138944844547108,A,634.1328999997131,Correct
6,306,428,B,61.55450353696626,31.660849969354608,3.077725176848313,0.49732746835066527,B,481.3356000004205,Correct
6,306,429,A,37.67016655604232,49.86540930819542,1.8835083278021159,0.783284017754374,B,1051.297799999702,Incorrect
6,306,430,B,38.98754244861918,18.84179353401559,1.949377122430959,0.2959662007345952,B,552.2955000005823,Correct
6,306,431,B,43.51424018455317,28.33801039689165,2.175712009227658,0.44513242640112993,B,578.4868000000642,Correct
6,306,432,A,16.98430997199432,37.9503627495322,0.849215498599716,0.5961229040749905,A,972.9677999994237,Correct
6,306,433,A,58.061885546002486,86.10216705180464,2.9030942773001245,1.352489677340553,A,937.4294000008376,Correct
6,306,434,B,58.3616128082078,39.21063922261522,2.9180806404103903,0.6159192806216388,B,658.013999999639,Correct
6,306,435,A,58.57122082379089,84.93284420309936,2.9285610411895444,1.3341219969847171,A,716.7532000003121,Correct
6,306,436,B,41.6745272190593,14.12069659979927,2.0837263609529653,0.22180738350749885,B,862.9651000001104,Correct
6,306,437,A,30.580476884855756,49.99041384624836,1.5290238442427877,0.7852475844464365,A,701.8926999999167,Correct
6,306,438,A,28.89737556275798,44.867850216837496,1.444868778137899,0.7047825431179194,A,866.8638999997711,Correct
6,306,439,A,46.80704933117641,72.87198854594534,2.3403524665588207,1.1446705193421072,A,1798.2135000002017,Correct
6,306,440,A,69.34100752693607,85.47241645497377,3.4670503763468035,1.3425975780975645,A,593.0029999999533,Correct
6,306,441,B,76.72590046924147,60.481553752603084,3.8362950234620734,0.9500420247343703,B,1574.24329999958,Correct
6,306,442,B,80.76470454982744,67.59665635666417,4.038235227491373,1.0618057950866497,B,1554.69069999981,Correct
6,306,443,A,27.204691420197648,38.12035220227358,1.3602345710098824,0.5987930921545909,A,510.861599999771,Correct
6,306,444,A,25.079822678016747,43.94378900170089,1.2539911339008372,0.6902674234932173,A,732.6538999996046,Correct
6,306,445,A,15.888443843680296,36.817860479909896,0.7944221921840148,0.5783336000228946,A,614.6115999999893,Correct
6,306,446,B,40.481131495738595,29.38415147724328,2.02405657478693,0.46156517206438574,B,821.5306000001874,Correct
6,306,447,B,72.43761854163067,59.23091891871957,3.6218809270815338,0.9303970987021103,B,666.7802000001757,Correct
6,306,448,B,49.93536284760698,40.00249092463498,2.496768142380349,0.628357658070628,B,884.1858000005232,Correct
6,306,449,B,87.06562827322298,63.25901800152488,4.353281413661149,0.9936703311344751,B,670.9663999999975,Correct
6,306,450,A,31.776385564844276,52.74321458520684,1.5888192782422137,0.8284884773379793,A,1299.6635999998034,Correct
6,306,451,A,14.564102419423179,38.04179739778352,0.728205120971159,0.59755915617114,A,502.1965999994791,Correct
6,306,452,B,42.60580365046346,21.67363796707404,2.130290182523173,0.3404487090696231,B,585.7648999999583,Correct
6,306,453,B,48.68635641350835,18.6541907600764,2.4343178206754175,0.2930193432525931,B,575.0347000002876,Correct
6,306,454,B,81.53247700924818,64.08445737912854,4.076623850462409,1.006636302557792,B,1063.2963999996718,Correct
6,306,455,A,24.80553511190223,44.10305832569886,1.2402767555951115,0.6927692201842884,A,554.3919000001551,Correct
6,306,456,A,38.261090927982565,46.931629195435534,1.9130545463991282,0.7372003075069027,A,818.6623999999938,Correct
6,306,457,A,44.90514367291324,77.03218709219585,2.2452571836456623,1.2100187652939849,A,692.6152000005459,Correct
6,306,458,B,45.611248060252656,31.394937801598665,2.280562403012633,0.4931505297870543,B,855.9414000001198,Correct
6,306,459,A,49.23434119733155,62.30155793003257,2.4617170598665776,0.9786305835009462,A,1421.4840999993612,Correct
6,306,460,A,33.52615195313838,64.77439560849392,1.6763075976569188,1.0174738269218173,A,656.2666999998328,Correct
6,306,461,A,37.06372374392125,51.33349299292738,1.8531861871960627,0.8063446223484189,A,1044.4017999998323,Correct
6,306,462,A,35.312730454157716,65.10439657627688,1.7656365227078856,1.0226574700021396,A,639.4887999995262,Correct
6,306,463,B,69.71869476710793,48.50380445921,3.4859347383553967,0.76189597880105,B,643.4066000001621,Correct
6,306,464,A,46.18863098954444,64.96422603715067,2.309431549477222,1.0204556763222965,A,577.6961999999912,Correct
6,306,465,A,43.944182820547105,60.516119460093755,2.197209141027355,0.9505849815979642,A,746.3618000001588,Correct
6,306,466,A,47.32154004952801,77.74938436572774,2.3660770024764006,1.221284473722497,A,815.7958000001599,Correct
6,306,467,A,40.89765638877828,73.37778100122279,2.044882819438914,1.1526154886508109,A,614.9834999996528,Correct
6,306,468,A,31.704986939056454,44.78604659776673,1.5852493469528226,0.7034975748743706,A,1336.9418999991467,Correct
6,306,469,B,78.25863763863413,59.43606925483354,3.9129318819317063,0.9336195926461961,B,559.0155999998387,Correct
6,306,470,B,81.81365107830186,52.93010011232693,4.090682553915093,0.8314240683332927,B,543.6305000002903,Correct
6,306,471,A,44.69487149317464,54.643778603746625,2.234743574658732,0.8583424671295876,A,2045.427600000039,Correct
6,306,472,A,57.73363904803635,86.11226732812429,2.8866819524018177,1.352648332109978,A,1150.2583999999842,Correct
6,306,473,B,68.18974505217004,39.47337262817824,3.409487252608502,0.6200462873054858,B,543.3964000003471,Correct
6,306,474,B,87.04703474076499,60.094885212132375,4.352351737038249,0.9439682495037849,B,1518.5794000008173,Correct
6,306,475,B,70.40257723537103,40.201830542705,3.5201288617685513,0.6314888774691189,B,1494.5805999996082,Correct
6,306,476,B,66.62113897635658,48.113284111766426,3.331056948817829,0.7557616995280196,B,497.3818999997093,Correct
6,306,477,A,38.34694284984184,51.025814413021926,1.9173471424920918,0.8015116185169293,A,643.5879000000568,Correct
6,306,478,B,53.825821426549666,29.575085809525632,2.6912910713274836,0.4645643615424673,B,547.3205999996935,Correct
6,306,479,A,15.711686529125359,39.47742150716192,0.785584326456268,0.620109886947838,A,711.5063000001101,Correct
6,306,480,A,33.03015132622295,52.34326931579609,1.6515075663111474,0.822206151736885,A,942.4125000005006,Correct
6,306,481,A,41.1873265673922,70.72959983520263,2.05936632836961,1.1110179561680922,A,679.2583999995259,Correct
6,306,482,A,32.41215991063895,42.839887862650016,1.6206079955319472,0.6729273849495592,A,586.0511999999289,Correct
6,306,483,B,39.2469890308402,18.771303237234005,1.96234945154201,0.2948589417420033,B,656.958499999746,Correct
6,306,484,B,85.57685456090668,66.59439309250985,4.278842728045334,1.046062280548499,B,717.8956999996444,Correct
6,306,485,A,15.798829065436948,39.137456341809795,0.7899414532718474,0.6147697266181046,A,561.2512999996397,Correct
6,306,486,A,47.616442512617276,68.42397286640883,2.3808221256308637,1.0748012524326866,A,620.8601999996972,Correct
6,306,487,B,67.70835487266646,43.7730918277448,3.3854177436333233,0.6875861185547723,B,536.1720000000787,Correct
6,306,488,A,43.8742498672652,69.46841266908027,2.19371249336326,1.0912072744886334,A,722.4243999999089,Correct
6,306,489,A,12.827670361487545,34.58606035272787,0.6413835180743773,0.5432765656037154,A,610.168899999735,Correct
6,306,490,B,47.44476594227852,31.518526601836996,2.372238297113926,0.4950918581215279,B,682.7324000005319,Correct
6,306,491,A,29.860576706207098,62.84422427189065,1.493028835310355,0.9871547664656052,A,676.6714000004868,Correct
6,306,492,B,39.69719684872581,30.047134714453385,1.9848598424362904,0.47197928840174797,B,736.5569000003234,Correct
6,306,493,A,18.432138024374755,45.789313455349586,0.9216069012187377,0.7192568538212326,A,724.9759999995149,Correct
6,306,494,A,56.75671103007285,66.59640376362286,2.8378355515036424,1.046093864096486,B,2770.22930000021,Incorrect
6,306,495,A,47.260871811199806,65.03079177774086,2.3630435905599905,1.021501288530391,B,1384.8917999994228,Incorrect
6,306,496,A,15.374378650842601,42.5837548758451,0.7687189325421301,0.6689040574011174,A,503.5371000003579,Correct
6,306,497,B,38.460925487656134,16.83605890877935,1.9230462743828067,0.264460194916131,B,602.8727000002618,Correct
6,306,498,B,58.819670024106884,47.21204962935268,2.940983501205344,0.7416051413824554,B,2707.40509999996,Correct
6,306,499,A,34.43851004969807,58.42741108712964,1.7219255024849034,0.9177756271979866,A,902.5111999999353,Correct
6,306,500,A,30.803008246888275,61.20961325878148,1.5401504123444139,0.9614783567143015,A,540.5751000007513,Correct
6,306,501,B,44.49224096060179,19.63666277447964,2.2246120480300897,0.308451977566627,B,562.9285000004529,Correct
6,306,502,A,55.25658024772494,68.1998259301867,2.762829012386247,1.0712803605918861,A,610.6614000000263,Correct
6,306,503,A,50.708646807812215,57.64219464283896,2.535432340390611,0.905441476133679,A,572.087399999873,Correct
6,306,504,B,83.03117058943478,64.97508465042165,4.151558529471739,1.020626243020698,B,1727.956599999743,Correct
6,306,505,A,48.088161485120565,69.10707774276777,2.404408074256028,1.0855314387386896,A,1300.1266000001124,Correct
6,306,506,B,51.2461801617123,32.9827896053087,2.562309008085615,0.5180924475946781,B,578.7330000002839,Correct
6,306,507,A,39.583849011948054,49.888666066092554,1.9791924505974026,0.7836493340531538,A,794.2155000000639,Correct
6,306,508,A,47.103316969096,72.76212342658886,2.3551658484548,1.1429447620828266,A,707.3299000003317,Correct
6,306,509,A,32.17406799798309,43.69484495437216,1.6087033998991545,0.686357019542003,A,1448.2953000006091,Correct
6,306,510,B,81.09866347958354,56.35812107661475,4.054933173979177,0.885271295722085,B,1087.2411000000284,Correct
6,306,511,B,72.88108123996548,49.85077932357752,3.644054061998274,0.7830542104933855,B,649.2088999993939,Correct
6,306,512,B,45.48742649261615,38.359104242396974,2.2743713246308075,0.6025434004309971,B,1101.3450000000375,Correct
6,306,513,A,34.54962349341681,44.758401404956146,1.7274811746708405,0.7030633252011665,A,1261.9222000002992,Correct
6,306,514,B,48.06352842969843,29.62122647169584,2.4031764214849214,0.4652891373689958,B,597.3846999995658,Correct
6,306,515,B,69.02196365519102,41.162306926399566,3.451098182759551,0.6465760052239257,B,452.83870000002935,Correct
6,306,516,A,47.14779091679031,76.65221841003049,2.3573895458395158,1.2040502311915604,A,519.8588000002928,Correct
6,306,517,A,22.325967938799003,34.231677623432056,1.1162983969399503,0.5377099347091413,A,1678.2554999999775,Correct
6,306,518,A,42.5368851019569,61.288404195808255,2.126844255097845,0.9627160018589653,A,870.2659999999014,Correct
6,306,519,B,79.6311951349808,60.67188766858926,3.9815597567490397,0.953031782895326,B,633.6020999997345,Correct
6,306,520,A,49.285300342186666,56.88758770265909,2.464265017109333,0.8935881380355943,A,1057.3415000008026,Correct
6,306,521,A,26.911799400686164,42.46747625747453,1.3455899700343081,0.6670775571349047,A,644.9600000005375,Correct
6,306,522,A,65.25308116900592,76.57205916675473,3.262654058450296,1.202791092742598,A,1190.0966000002882,Correct
6,306,523,A,50.23609893739371,64.4800201771085,2.5118049468696855,1.0128497884586285,A,635.3251999998974,Correct
6,306,524,A,21.09490799306122,41.3227378063481,1.054745399653061,0.6490960475932019,A,1246.4037999998254,Correct
6,306,525,B,62.224826094231794,35.57745884357033,3.11124130471159,0.5588494166817688,B,1631.806499999584,Correct
6,306,526,B,51.04710206668903,30.82982788069795,2.5523551033344516,0.4842738039071923,B,1307.4001999993925,Correct
6,306,527,B,31.339653643570553,17.753412242660648,1.5669826821785275,0.2788699473884689,B,602.0086999997147,Correct
6,306,528,B,81.84835593209809,53.02284357072135,4.092417796604905,0.8328808791710949,B,1829.0944999998828,Correct
6,306,529,A,63.86478217700703,78.81691821479585,3.1932391088503516,1.2380532562109507,A,656.6698999995424,Correct
6,306,530,A,60.51575790760255,76.6548909057315,3.0257878953801276,1.2040922106558658,A,549.3882999999187,Correct
6,306,531,A,53.037706733629115,78.68653300097094,2.6518853366814557,1.2360051700615056,A,472.9981000000407,Correct
6,306,532,A,59.39836657091193,83.70172669040751,2.969918328545597,1.314783648316825,A,478.80720000011934,Correct
6,306,533,B,68.7539222294073,45.00667255213302,3.437696111470365,0.7069631592615124,B,471.6801000004125,Correct
6,306,534,A,52.16773504799734,59.19774613966001,2.6083867523998667,0.9298760219071471,B,582.5977000004059,Incorrect
6,306,535,A,56.22626544349332,81.25268363732313,2.811313272174666,1.2763141699973497,A,732.9409000003579,Correct
6,306,536,B,40.73245946219489,24.08200553878347,2.0366229731097447,0.3782792584217543,B,822.5919999995313,Correct
6,306,537,A,51.26932905441669,65.23710743579767,2.563466452720834,1.02474208730875,A,1604.9683000001096,Correct
6,306,538,B,46.18736909669515,21.0924284439324,2.3093684548347575,0.33131909122913206,B,523.5799999991286,Correct
6,306,539,A,41.448829919856735,67.03315788681383,2.0724414959928366,1.052954381820695,A,645.8283000001757,Correct
6,306,540,A,54.58801672648666,63.91269465231861,2.729400836324333,1.003938259954259,B,910.7143999999607,Incorrect
6,306,541,A,14.684562567794007,35.15287355497908,0.7342281283897003,0.552180046564466,A,1025.4487000001973,Correct
6,306,542,A,49.307030990344686,57.535887753241234,2.4653515495172345,0.903771611416748,A,1010.8745999996245,Correct
6,306,543,A,38.370554798942,64.90667794177415,1.9185277399471001,1.0195517129539817,A,747.9848000002676,Correct
6,306,544,B,77.39913726904456,56.950620203287556,3.869956863452228,0.8945782502401532,B,898.0865000003178,Correct
6,306,545,A,39.922582145463394,58.5192603145926,1.9961291072731697,0.9192183914891642,A,987.7393999995547,Correct
6,306,546,B,70.06024403031239,45.78375484320459,3.5030122015156193,0.7191695393458383,B,690.3746999996656,Correct
6,306,547,B,59.291902314160325,44.76908776292932,2.964595115708016,0.7032311861196773,B,631.9335999996838,Correct
6,306,548,B,86.0873586103064,60.985004991398654,4.30436793051532,0.9579502183005745,B,1277.9979999995703,Correct
6,306,549,A,52.42696828382497,70.19291264086574,2.621348414191248,1.1025876934330696,A,927.3948000000019,Correct
