subject,day,trial,cat,x,y,xt,yt,resp,rt,fb
8,508,0,B,85.64716617796071,66.3305676518436,4.2823583088980355,1.041918120217363,B,909.9898000004032,Correct
8,508,1,B,56.034283098430365,23.52135131757967,2.8017141549215183,0.36947252250906437,B,707.8846999993402,Correct
8,508,2,A,42.250343951745585,73.69096575185613,2.112517197587279,1.1575349832098414,A,410.4755999996996,Correct
8,508,3,B,33.17085143001748,16.432870297977473,1.658542571500874,0.2581269230275997,B,694.6255000002566,Correct
8,508,4,B,75.92121365009994,46.76087726798414,3.796060682504997,0.7345181425025646,B,549.5616999996855,Correct
8,508,5,A,57.014128939996574,81.95682872062389,2.850706446999829,1.2873748551011448,A,450.80529999904684,Correct
8,508,6,A,46.6749474846669,73.02900214105861,2.3337473742333454,1.147136883126715,A,403.1418999984453,Correct
8,508,7,A,15.6521076902918,35.31764401671185,0.7826053845145899,0.5547682549250074,A,679.2657999994844,Correct
8,508,8,B,77.28441218388552,61.24086653444381,3.8642206091942763,0.9619692820204084,B,867.1357999992324,Correct
8,508,9,A,49.30899430751269,62.494817406569545,2.4654497153756347,0.981666296259572,A,812.8213999989384,Correct
8,508,10,A,13.309490889075612,39.14872351168761,0.6654745444537806,0.6149467109086791,A,437.9698000011558,Correct
8,508,11,A,42.969405227201925,69.79177495137714,2.1484702613600963,1.0962866373411928,A,498.3724000012444,Correct
8,508,12,B,81.64465741390424,52.56277347427982,4.082232870695212,0.8256541149955098,B,459.7817000012583,Correct
8,508,13,A,57.53103810703318,81.1186358193213,2.876551905351659,1.2742085517960282,A,855.1331999988179,Correct
8,508,14,A,48.94807562831652,76.18457034672541,2.4474037814158263,1.1967044325908367,A,583.1299000001309,Correct
8,508,15,B,82.86407153082206,68.3975999101613,4.143203576541103,1.0743869870046832,B,700.6916000009369,Correct
8,508,16,A,54.36115781018524,83.99463671363944,2.718057890509262,1.3193846682025658,A,427.62969999967027,Correct
8,508,17,A,27.190456869196517,46.676075280163545,1.3595228434598257,0.7331860759928296,A,1331.867599999896,Correct
8,508,18,A,39.60270572522305,57.490828715460836,1.9801352862611525,0.9030638257064044,A,846.1064999992232,Correct
8,508,19,B,53.4189854774997,41.16740760495947,2.670949273874985,0.6466561264953863,B,1019.080699999904,Correct
8,508,20,A,15.507580871505056,42.13761543779826,0.7753790435752528,0.6618961154958943,A,561.4596000013989,Correct
8,508,21,A,33.154678578994314,46.561873129770625,1.6577339289497157,0.7313921928093369,A,835.6999999996333,Correct
8,508,22,B,70.35236288683743,46.41294413827474,3.5176181443418715,0.7290528216813866,B,461.6645999994944,Correct
8,508,23,A,13.874213418096378,35.969221633644466,0.6937106709048189,0.5650032121980025,A,442.3757000004116,Correct
8,508,24,B,78.88855594751969,48.740180528709644,3.944427797375985,0.7656089654181726,B,980.0402999990183,Correct
8,508,25,A,19.65535133920828,50.5562010163582,0.982767566960414,0.7941349485319987,A,453.70159999947646,Correct
8,508,26,A,44.393405840987924,66.25517195002269,2.219670292049396,1.0407338073025991,A,857.5543000006292,Correct
8,508,27,B,73.25987385534974,47.295218499497686,3.6629936927674867,0.7429115549397299,B,588.3358999999473,Correct
8,508,28,A,36.06821434817623,49.71414211895146,1.8034107174088114,0.7809079183020841,A,802.7145999985805,Correct
8,508,29,A,60.50681784195551,83.08896444671913,3.0253408920977756,1.3051584015009816,A,683.2877999986522,Correct
8,508,30,B,74.38684225550337,51.541717949466076,3.7193421127751685,0.8096154123171989,B,440.301399999953,Correct
8,508,31,B,51.36481264375816,21.191671234562882,2.568240632187908,0.33287799333896445,B,466.7494000004808,Correct
8,508,32,B,65.13420522660724,41.475461057423686,3.2567102613303622,0.6514950188112592,B,454.4010999998136,Correct
8,508,33,B,66.98368286694793,47.70103428999936,3.3491841433473963,0.749286094470484,B,422.1285000003263,Correct
8,508,34,A,68.69246529941316,82.79183275311212,3.4346232649706576,1.3004910677720594,A,445.31910000114294,Correct
8,508,35,B,49.403352157235176,27.75293227315801,2.470167607861759,0.4359420407246413,B,529.7570999991876,Correct
8,508,36,B,78.82323329960889,56.91415474414,3.941161664980444,0.8940054521473145,B,889.7452999990492,Correct
8,508,37,B,53.90937217291787,36.4587096165344,2.6954686086458937,0.5726920714533401,B,525.6310000004305,Correct
8,508,38,B,58.15805219665055,33.90515311846226,2.9079026098325276,0.5325808997789905,B,538.3768000010605,Correct
8,508,39,B,81.00665766016306,67.33188036020798,4.050332883008153,1.0576467034600812,B,912.9922000010993,Correct
8,508,40,B,65.14222922724473,41.58121318405343,3.2571114613622365,0.6531561693318666,B,509.99770000089484,Correct
8,508,41,B,83.75917752624905,60.932065224559,4.187958876312453,0.9571186423876432,B,505.01639999856707,Correct
8,508,42,B,51.07954661916371,40.83842517200753,2.553977330958185,0.6414884825227768,B,503.6759000013262,Correct
8,508,43,A,54.33688719971475,80.96186780986383,2.7168443599857373,1.2717460456618808,A,436.0708000003797,Correct
8,508,44,B,46.260914896106904,36.188851468321005,2.313045744805345,0.5684531495736473,B,1194.7202999999718,Correct
8,508,45,B,33.14590261365621,17.435875696894612,1.6572951306828105,0.27388209499134464,B,433.9378000004217,Correct
8,508,46,B,38.331948507971276,24.231390664180118,1.9165974253985638,0.38062579448426276,B,424.8468000005232,Correct
8,508,47,B,60.0242233076319,48.23079452507004,3.001211165381595,0.7576075487837943,B,585.4106999995565,Correct
8,508,48,A,38.63720960952869,55.84479150709992,1.9318604804764345,0.877207933699794,A,763.0525999993552,Correct
8,508,49,B,82.94340058930523,65.16965165529146,4.147170029465261,1.0236824943863478,B,522.5410999992164,Correct
8,508,50,A,58.19705474863398,76.48239602318847,2.909852737431699,1.2013826673769705,A,468.48469999895315,Correct
8,508,51,B,53.600656576529914,41.62016355823239,2.6800328288264956,0.6537680003787425,B,1157.054600000265,Correct
8,508,52,B,59.790527538733386,51.40027297614134,2.989526376936669,0.8073935998717781,B,939.6634000004269,Correct
8,508,53,B,37.75639677772931,22.304521552634593,1.8878198388864655,0.3503586052579602,B,681.2463000005664,Correct
8,508,54,A,25.234870047183456,42.911959604700286,1.2617435023591728,0.6740594852263418,A,719.8494999993272,Correct
8,508,55,B,65.98748782934362,44.22328453798404,3.299374391467181,0.6946577291107088,B,636.0320000003412,Correct
8,508,56,B,60.15521400100388,35.395122497955754,3.007760700050194,0.5559852840624431,B,475.49590000016906,Correct
8,508,57,A,16.43371933682438,30.84737601718406,0.8216859668412191,0.484549449390537,A,537.5776999990194,Correct
8,508,58,A,29.4709447750228,54.091943972465394,1.4735472387511401,0.8496742690114399,A,446.8698000000586,Correct
8,508,59,B,45.81601270153788,16.881689872136363,2.290800635076894,0.26517696441242405,B,511.69130000016594,Correct
8,508,60,A,23.768152435726964,46.35797739249202,1.1884076217863482,0.7281894060576732,A,503.410299999814,Correct
8,508,61,A,36.89466851434523,51.039451606975305,1.8447334257172614,0.8017258310586269,A,486.869200000001,Correct
8,508,62,A,35.19500674580733,50.88939914359521,1.759750337290367,0.7993688124755871,A,528.304700001172,Correct
8,508,63,A,53.230291479149386,82.73497060375271,2.6615145739574695,1.299597879218585,A,538.5404999997263,Correct
8,508,64,A,17.121240305897143,34.33559175762835,0.8560620152948571,0.5393422141121174,A,608.8595000001078,Correct
8,508,65,A,39.932795503580195,57.87660876810571,1.9966397751790097,0.9091236446028574,A,601.4317999997729,Correct
8,508,66,B,64.08432494997103,35.45589093070313,3.2042162474985516,0.5569398323718896,B,575.2432999997836,Correct
8,508,67,A,49.65565836814609,78.38279480960432,2.4827829184073043,1.2312340617084454,A,417.4898999990546,Correct
8,508,68,A,45.45054110170568,60.646242572169946,2.272527055085284,0.9526289506627682,A,775.0013000004401,Correct
8,508,69,B,51.896571743104474,43.1572680210495,2.5948285871552237,0.6779127808196741,B,1471.5708999992785,Correct
8,508,70,A,23.372053990612038,54.143795098027354,1.168602699530602,0.8504887445871689,A,406.23969999978726,Correct
8,508,71,A,27.53765051386548,37.249652717432056,1.376882525693274,0.5851161766292781,A,3853.6958000004233,Correct
8,508,72,B,66.0651932561721,37.564546749260074,3.303259662808605,0.590062520514529,B,605.4949000008492,Correct
8,508,73,A,34.923590531046926,48.28466893223308,1.7461795265523463,0.7584538059925939,A,1193.644700000732,Correct
8,508,74,B,60.593466178544105,32.050638438712014,3.029673308927205,0.5034502513096015,B,587.2730999999476,Correct
8,508,75,B,74.96971167506535,47.81823558528383,3.7484855837532676,0.7511270881117684,B,452.41150000038033,Correct
8,508,76,A,37.75962595864948,56.32557954491955,1.887981297932474,0.884760134537534,A,496.0191999998642,Correct
8,508,77,B,54.08193627875104,21.898293122272865,2.704096813937552,0.34397758399544165,B,544.5385999992141,Correct
8,508,78,B,39.534603081228624,14.410345904680522,1.9767301540614313,0.22635718414916045,B,492.72840000048745,Correct
8,508,79,B,73.06709140523532,40.63020123520678,3.653354570261766,0.6382177085720028,B,474.5457000008173,Correct
8,508,80,B,45.30264559214665,26.416760302791985,2.2651322796073328,0.41495350049446883,B,437.59959999988496,Correct
8,508,81,A,31.00397058629151,48.80180283346618,1.5501985293145752,0.7665769263177746,A,510.18910000129836,Correct
8,508,82,B,83.28194949280665,68.65210410033501,4.164097474640332,1.078384729475471,B,891.1657000007835,Correct
8,508,83,B,64.1914448598368,32.61979143260244,3.20957224299184,0.5123904856314755,B,445.60979999914707,Correct
8,508,84,A,48.80574919411158,62.43966091701712,2.4402874597055786,0.9807999001476936,A,1322.0499999988533,Correct
8,508,85,B,37.779795999276544,24.93290448312772,1.888989799963827,0.3916451477842503,B,616.447700000208,Correct
8,508,86,B,74.0493451304068,55.2132567055251,3.70246725652034,0.8672878082342251,B,679.0414999995846,Correct
8,508,87,A,56.95750070166012,85.27028725899389,2.8478750350830064,1.3394225401117328,A,490.38649999965855,Correct
8,508,88,B,61.235266305621195,54.1707538971458,3.0617633152810595,0.8509122124134696,B,732.3802000009891,Correct
8,508,89,B,35.26924243753547,12.961071761229459,1.7634621218767734,0.20359203913864296,B,521.0756000014953,Correct
8,508,90,B,76.12266883667465,59.904246497037754,3.8061334418337323,0.9409737035696295,B,558.5979999996198,Correct
8,508,91,A,51.01494209779607,62.29304111357048,2.550747104889804,0.9784968016607999,A,4257.910399999673,Correct
8,508,92,B,53.530162654686706,30.32003036730348,2.676508132734335,0.4762659232927003,B,639.4858000003296,Correct
8,508,93,B,65.68504678535594,32.962109933791545,3.284252339267797,0.5177676120740933,B,517.3095000009198,Correct
8,508,94,B,70.96506308940764,43.611773934288514,3.5482531544703817,0.6850521430098983,B,445.0262999998813,Correct
8,508,95,A,43.7394970672014,55.45727934875167,2.18697485336007,0.8711209069505759,A,1431.2245000000985,Correct
8,508,96,A,53.393644595338856,82.07994530650183,2.6696822297669427,1.2893087659097908,A,523.9559000001464,Correct
8,508,97,A,41.332609380482886,61.91120428734377,2.0666304690241444,0.9724989228200805,A,464.6730000004027,Correct
8,508,98,A,28.562829709533247,57.00493313431916,1.4281414854766623,0.8954313957657722,A,467.1704000011232,Correct
8,508,99,A,62.89414702454749,74.19003465473747,3.144707351227374,1.165374339204477,A,2599.3040000012115,Correct
8,508,100,B,57.371457526099476,46.21892079295949,2.8685728763049734,0.7260051101000504,B,873.3019000010245,Correct
8,508,101,A,26.650466962163726,58.28142634318361,1.3325233481081864,0.9154825042024014,A,436.8816999995033,Correct
8,508,102,B,56.965175604030705,30.612064447394495,2.8482587802015353,0.48085318389575915,B,538.4400000002643,Correct
8,508,103,B,71.87455494211832,55.93925709206043,3.593727747105916,0.8786917956384389,B,470.03120000044873,Correct
8,508,104,B,81.73775414398051,60.744211982558824,4.0868877071990255,0.9541678505625394,B,455.3898999984085,Correct
8,508,105,A,46.43646366334775,61.451529384802534,2.3218231831673877,0.9652783663357648,A,825.4094000003533,Correct
8,508,106,A,29.27603060106143,53.26977058124194,1.4638015300530713,0.8367595995822169,A,509.22799999898416,Correct
8,508,107,A,68.8119307515089,85.76814358987703,3.440596537575445,1.3472428490699608,A,547.3031000001356,Correct
8,508,108,B,48.7941816894053,21.022777060658623,2.4397090844702647,0.33022500985910574,B,479.78519999924174,Correct
8,508,109,A,46.85768520486661,60.30538714234155,2.3428842602433306,0.9472748060913428,A,741.8624000001728,Correct
8,508,110,A,37.069260311457306,44.90992999902772,1.8534630155728653,0.7054435307908867,A,1208.6125999994692,Correct
8,508,111,A,35.77486016512469,55.46547384980747,1.7887430082562346,0.8712496258721597,A,716.4758999988408,Correct
8,508,112,B,51.076365497258266,19.845723066109116,2.5538182748629135,0.31173588894832954,B,561.4946999994572,Correct
8,508,113,B,84.78318986560623,56.67757368316204,4.239159493280312,0.8902892455315802,B,579.4404000007489,Correct
8,508,114,A,25.42102711618181,40.30173979482369,1.2710513558090906,0.6330582483315276,A,653.1415000008565,Correct
8,508,115,B,53.6910192482698,43.64736788614821,2.68455096241349,0.6856112514982714,B,3307.2121999994124,Correct
8,508,116,B,67.90339784194195,37.12745845917682,3.3951698920970976,0.5831967537090507,B,518.2674000006955,Correct
8,508,117,A,21.331645388642702,39.880192199609496,1.066582269432135,0.6264365941902109,A,454.5662000000448,Correct
8,508,118,A,51.059307174613785,65.32080598894335,2.5529653587306895,1.0260568211071428,A,482.1326000001136,Correct
8,508,119,B,42.93209394606092,20.602988116767182,2.146604697303046,0.3236309805481679,B,649.6155999993789,Correct
8,508,120,B,42.29102765338363,34.28860748653537,2.1145513826691813,0.5386041869076175,B,449.61719999992056,Correct
8,508,121,B,41.40556407400152,19.22249488601953,2.070278203700076,0.3019462435879316,B,516.1559999996825,Correct
8,508,122,B,63.49100053912033,48.819134530704964,3.1745500269560165,0.7668491719813725,B,856.0280000001512,Correct
8,508,123,A,30.069447627796063,49.353496147594086,1.5034723813898032,0.7752429046312688,A,661.3096000000951,Correct
8,508,124,B,56.60715120431873,30.461607896190493,2.8303575602159365,0.47848981791602446,B,470.40799999922456,Correct
8,508,125,B,72.33428558810007,50.680787980797405,3.616714279405004,0.796091955993075,B,455.5325000001176,Correct
8,508,126,A,31.378674852685872,42.17457995671221,1.5689337426342937,0.6624767528012121,A,895.5421000009665,Correct
8,508,127,B,37.45773544969951,25.346664848585657,1.8728867724849756,0.3981444804065967,B,578.5742000007303,Correct
8,508,128,A,60.42168517515975,72.95622373489793,3.021084258757987,1.1459936825960433,A,511.29199999923003,Correct
8,508,129,A,45.18847866527615,60.32600354405036,2.2594239332638075,0.9475986477721022,A,501.99609999981476,Correct
8,508,130,A,67.71501186323175,80.32948109608992,3.3857505931615877,1.2618125383907812,A,640.419399998791,Correct
8,508,131,A,29.78004979412917,53.15821898129288,1.4890024897064587,0.8350073511477362,A,623.0716000009124,Correct
8,508,132,B,64.2771921204872,54.529244480847794,3.21385960602436,0.856543369334166,B,1065.8574999997654,Correct
8,508,133,A,41.387625828442616,70.0916427088564,2.069381291422131,1.1009969490609193,A,484.35500000050524,Correct
8,508,134,B,61.43806366866394,38.90570060274755,3.0719031834331973,0.6111293159817784,B,553.332200001023,Correct
8,508,135,A,35.23323661705412,45.421317503031176,1.7616618308527057,0.7134763869194611,A,541.4868000007118,Correct
8,508,136,A,15.321098997526374,40.070970598307895,0.7660549498763187,0.6294333342692834,A,485.77800000020943,Correct
8,508,137,A,46.39507230125665,54.213522938744134,2.319753615062832,0.8515840269479016,A,585.1107999988017,Correct
8,508,138,A,55.5740249255211,84.92876192828781,2.778701246276055,1.3340578727619277,A,516.7166999999608,Correct
8,508,139,B,54.8854123875619,39.30729309051357,2.7442706193780952,0.6174375160282912,B,506.80479999937234,Correct
8,508,140,B,65.50782455129162,51.66788559788456,3.275391227564581,0.81159724910416,B,527.7979999991658,Correct
8,508,141,A,30.684405791713402,45.593440853706824,1.53422028958567,0.7161800941894305,A,613.3408000005147,Correct
8,508,142,B,84.91612747481597,67.77365384926264,4.245806373740798,1.0645860651989056,B,1446.4001999986067,Correct
8,508,143,A,20.67973758402558,32.67368578837204,1.0339868792012792,0.5132370561922541,A,998.4739999999874,Correct
8,508,144,A,33.409128659741626,55.42676363196375,1.6704564329870812,0.8706415671921762,A,653.9151999986643,Correct
8,508,145,A,39.01042913149217,67.45432472350905,1.9505214565746085,1.0595700550211817,A,464.4183999989764,Correct
8,508,146,B,59.65963827976533,33.62744457333659,2.9829819139882665,0.5282186641529609,B,486.80529999910505,Correct
8,508,147,B,59.640641791577615,33.99739528409773,2.982032089578881,0.5340298363285485,B,492.8659000015614,Correct
8,508,148,A,56.03125040576778,74.16889966771451,2.801562520288389,1.165042351604652,A,444.3467999990389,Correct
8,508,149,B,43.77153776982636,26.612378344509352,2.1885768884913177,0.4180262615083134,B,529.0100000001985,Correct
8,508,150,A,28.1388239208611,51.19215750067946,1.4069411960430551,0.8041245296277308,A,532.0723000004364,Correct
8,508,151,B,62.59296203743666,30.21487563715095,3.129648101871833,0.4746141566540132,B,520.8029999994324,Correct
8,508,152,B,54.13040874525982,31.420576530044926,2.706520437262991,0.49355326199172506,B,425.37389999961306,Correct
8,508,153,B,52.202304937403795,40.618126044184,2.61011524687019,0.6380280319149635,B,572.989600001165,Correct
8,508,154,B,67.45721441879705,55.06329287183157,3.3728607209398525,0.8649321818430463,B,951.7305999997916,Correct
8,508,155,A,45.29275977927062,53.15999210096115,2.264637988963531,0.8350352032463549,A,2638.943500000096,Correct
8,508,156,A,55.10981597722244,72.68146226115567,2.7554907988611217,1.1416777394590523,A,545.4434000002948,Correct
8,508,157,A,26.42117130455091,55.35922926976318,1.3210585652275455,0.8695807399114053,A,502.17350000093575,Correct
8,508,158,B,80.76855605918497,52.4876030810916,4.038427802959249,0.8244733412204719,B,632.1064000003389,Correct
8,508,159,B,74.91847841120827,50.99796819338047,3.7459239205604136,0.80107421112165,B,482.33540000001085,Correct
8,508,160,B,57.1684641759165,24.745281595143005,2.858423208795825,0.38869797435155984,B,485.3956000006292,Correct
8,508,161,B,68.7332628357244,59.70882544771743,3.4366631417862203,0.9379040369051219,B,969.8173000015231,Correct
8,508,162,B,56.111462008682004,24.55831466218705,2.8055731004341005,0.3857611046363667,B,503.0712999996467,Correct
8,508,163,A,46.81895842102617,70.68714494696364,2.3409479210513084,1.1103510763430893,A,527.3833999999624,Correct
8,508,164,A,56.49701187277179,84.72961331823754,2.8248505936385895,1.3309296537103947,A,564.0626999993401,Correct
8,508,165,B,58.11235737681362,31.118300754955122,2.905617868840681,0.4888051252198236,B,748.3492000010301,Correct
8,508,166,B,45.26489564657655,36.05058592818191,2.2632447823288273,0.5662812795479193,B,471.6775000015332,Correct
8,508,167,A,23.905078306843006,34.98497186225961,1.1952539153421504,0.5495426529426021,A,551.9962999987911,Correct
8,508,168,A,49.14138204374696,74.5908107534932,2.4570691021873476,1.171669715442404,A,503.4728999999061,Correct
8,508,169,B,53.67263716279735,39.79581538092617,2.6836318581398677,0.6251112062216667,B,961.1079999995127,Correct
8,508,170,A,54.55317099409156,78.72055374164583,2.7276585497045778,1.236539566606375,A,789.550399998916,Correct
8,508,171,A,64.93568796778891,78.9885849218192,3.2467843983894453,1.2407497905392035,A,615.7930999997916,Correct
8,508,172,A,12.279104940390834,30.162351085133036,0.6139552470195417,0.4737891029202503,A,580.4834999999002,Correct
8,508,173,A,57.442804244962026,77.4103932406267,2.8721402122481017,1.2159596135812492,A,592.3516999991989,Correct
8,508,174,A,33.91747226419467,66.92677839631544,1.6958736132097334,1.0512833766914833,A,445.91719999880297,Correct
8,508,175,A,44.23126161758461,52.24797275255008,2.2115630808792304,0.820709236821855,A,1060.328199999276,Correct
8,508,176,A,54.78277624705939,69.70419015253215,2.739138812352969,1.0949108585381049,A,509.1136999999435,Correct
8,508,177,A,53.166228728190646,64.00394768108166,2.658311436409532,1.005371659178158,A,637.95029999892,Correct
8,508,178,B,70.36057812390871,44.72768146242055,3.5180289061954353,0.7025807774722239,B,541.6872999994666,Correct
8,508,179,A,10.124297903251097,32.76280451330845,0.5062148951625549,0.5146369298500418,A,669.1326000000117,Correct
8,508,180,A,47.09214356845535,77.44144426300576,2.3546071784227673,1.2164473619002116,A,530.6978999997227,Correct
8,508,181,B,48.62506057625539,20.635032834723138,2.43125302881277,0.32413433780075185,B,545.8948000014061,Correct
8,508,182,A,39.3070293314702,65.89667895211247,1.96535146657351,1.0351026124596083,A,522.7477000007639,Correct
8,508,183,A,36.610359538837805,45.97781947042701,1.8305179769418902,0.7222178993818562,A,930.9816000004503,Correct
8,508,184,A,30.512803073946813,57.41221797104114,1.5256401536973407,0.9018290110205935,A,446.62109999990207,Correct
8,508,185,A,41.38241717341121,53.43105980241782,2.0691208586705607,0.8392931247439637,A,557.8213999997388,Correct
8,508,186,A,17.14308203252818,47.8269259340836,0.857154101626409,0.7512635957915009,A,468.7296000010974,Correct
8,508,187,B,77.88668806956622,63.34149133749216,3.894334403478311,0.9949658192664345,B,583.7945999992371,Correct
8,508,188,A,28.73520925921907,41.62723628804224,1.4367604629609534,0.6538790985587998,A,902.9688000009628,Correct
8,508,189,A,44.82919776581941,56.813127349452245,2.2414598882909704,0.8924185175425027,A,512.8960000001825,Correct
8,508,190,B,42.72382476425745,17.579739305636288,2.1361912382128723,0.2761418992730535,B,560.3945000002568,Correct
8,508,191,B,77.08193380883924,53.39961566504664,3.854096690441962,0.8387992013891449,B,495.5563000003167,Correct
8,508,192,A,21.668865308491203,45.76358966826557,1.0834432654245603,0.7188527855186044,A,483.46499999934167,Correct
8,508,193,B,58.009844556365884,25.246988961946766,2.9004922278182943,0.39657877524057283,B,655.6287000003067,Correct
8,508,194,A,52.45075524959367,76.59709278966743,2.6225377624796833,1.2031843199717744,A,459.78050000121584,Correct
8,508,195,B,41.77447071435028,15.766750548584682,2.0887235357175142,0.24766353847208233,B,493.72000000039407,Correct
8,508,196,B,32.587829123813336,10.553445097089373,1.6293914561906666,0.16577312793539598,B,516.9205999991391,Correct
8,508,197,A,40.105644516418565,58.081047732365654,2.0052822258209284,0.9123349643439902,A,559.9832999996579,Correct
8,508,198,A,64.2544207861144,89.32560518259596,3.2127210393057197,1.4031233250955293,A,553.5911999995733,Correct
8,508,199,B,53.73047435850207,22.862442328005457,2.6865237179251036,0.3591224043039114,B,601.6378000003897,Correct
8,508,200,A,46.04673220766953,72.92752021366066,2.302336610383476,1.1455428087387873,A,449.40110000061395,Correct
8,508,201,A,50.14870551133727,68.86731957246371,2.507435275566863,1.081765326206363,A,472.0363999986148,Correct
8,508,202,B,84.44280604046898,69.15141233301658,4.222140302023449,1.0862278448538174,B,794.2178000012063,Correct
8,508,203,A,36.4199036685423,55.24229305156457,1.820995183427115,0.8677439100912486,A,587.0778999997128,Correct
8,508,204,B,63.95614318407428,47.619961476955794,3.197807159203714,0.7480126057011665,A,2008.0717000000732,Incorrect
8,508,205,B,52.44001336378838,25.07694286651558,2.622000668189419,0.39390769741968157,B,572.7712000007159,Correct
8,508,206,B,59.81043704026161,36.28809476969342,2.9905218520130807,0.5700120597061952,B,525.0872999986314,Correct
8,508,207,A,34.212597717293804,45.42758223344852,1.7106298858646902,0.7135747930747403,A,747.9824999991251,Correct
8,508,208,B,70.5820663131583,59.84675890357643,3.5291033156579146,0.9400706905631763,B,572.0104000010906,Correct
8,508,209,A,49.08296690077373,72.45482137288944,2.4541483450386865,1.138117672711151,A,503.3696000009513,Correct
8,508,210,A,37.234102747473166,65.03421045564338,1.8617051373736584,1.0215549889973088,A,446.2502999995195,Correct
8,508,211,B,75.0154256258017,63.70972015826925,3.750771281290085,1.0007499440574013,B,574.0103999996791,Correct
8,508,212,A,41.70826707779774,72.78734728668684,2.085413353889887,1.1433409775507217,A,454.5970000017405,Correct
8,508,213,B,72.41728033023969,39.463603988422825,3.6208640165119848,0.6198928418710301,B,569.33250000111,Correct
8,508,214,B,68.92588054342721,36.40584515938046,3.4462940271713602,0.5718616785021859,B,436.10869999974966,Correct
8,508,215,B,51.51328382401331,35.28100772218964,2.5756641912006653,0.5541927733563787,B,484.1446000009455,Correct
8,508,216,B,51.27060690575355,20.194332522596575,2.5635303452876776,0.3172118334856942,B,475.33280000061495,Correct
8,508,217,A,41.54177375931438,48.342121474626,2.077088687965719,0.7593562684181521,A,954.2231000013999,Correct
8,508,218,B,33.50534330938369,16.927685500389927,1.6752671654691846,0.26589946205151727,B,643.3612000000721,Correct
8,508,219,B,57.39188648718669,43.49517727963434,2.8695943243593343,0.6832206470414246,B,425.7348000010097,Correct
8,508,220,B,72.13609063598554,46.72334707139648,3.6068045317992765,0.7339286195531268,B,492.78210000011313,Correct
8,508,221,A,22.4705263467383,37.816649053087815,1.123526317336915,0.5940225342428204,A,535.0051999994321,Correct
8,508,222,B,53.462189957712404,39.0148821864411,2.6731094978856205,0.6128443362879732,B,774.7497000000294,Correct
8,508,223,B,42.24765049983273,18.873207362893574,2.1123825249916366,0.29645964800471625,B,580.262399998901,Correct
8,508,224,A,42.959498430761336,74.34028492268516,2.147974921538067,1.1677344648943988,A,477.1264999999403,Correct
8,508,225,B,58.60487001660235,28.38973797439032,2.9302435008301178,0.4459449612884191,B,479.6189000007871,Correct
8,508,226,B,69.11746911516113,44.299193330090084,3.4558734557580566,0.695850101628825,B,530.3743000004033,Correct
8,508,227,A,22.467250914918097,52.02435035790982,1.1233625457459049,0.8171965844609551,A,457.88419999917096,Correct
8,508,228,A,51.0239567112623,78.33558335003212,2.5511978355631153,1.230492465835659,A,628.0998999991425,Correct
8,508,229,B,62.9442977887453,53.051023480185954,3.147214889437265,0.8333235281538591,A,2226.9603999993706,Incorrect
8,508,230,B,75.23980566005616,55.563601416926005,3.7619902830028082,0.8727910100920308,B,475.03150000011374,Correct
8,508,231,B,78.00569424081164,46.67951613234389,3.9002847120405817,0.733240124772489,B,498.5075999993569,Correct
8,508,232,B,58.52385389582598,49.4085745561474,2.926192694791299,0.7761080742496814,B,531.8843999993987,Correct
8,508,233,A,11.519006551989609,37.65343365371946,0.5759503275994804,0.5914587527447787,A,450.8087999984127,Correct
8,508,234,A,17.208747541729267,45.09444412309689,0.8604373770864633,0.7083418718741831,A,595.6210000003921,Correct
8,508,235,A,43.514141812046276,65.9337134440476,2.1757070906023137,1.0356843488985725,A,475.36330000002636,Correct
8,508,236,A,54.641354665176586,67.75827774383495,2.732067733258829,1.0643445378996432,A,379.083100000571,Correct
8,508,237,A,25.166670951415604,43.66913679818399,1.2583335475707802,0.6859531967689126,A,552.6234000008117,Correct
8,508,238,B,76.73879374159847,50.821332101946226,3.8369396870799233,0.798299617885607,B,882.6099999987491,Correct
8,508,239,B,87.08846647879504,59.72610299719815,4.354423323939752,0.9381754320177251,B,490.9053999999742,Correct
8,508,240,A,46.219669714692635,69.21880486166543,2.310983485734632,1.0872864442183678,A,532.8349999999773,Correct
8,508,241,B,58.911931461449505,37.60291062415231,2.945596573072475,0.5906651388521524,B,615.0444000013522,Correct
8,508,242,A,56.07139637653739,68.49653142394416,2.80356981882687,1.075940999589227,A,521.010300000853,Correct
8,508,243,B,49.01648875705798,27.582240710408378,2.4508244378528987,0.4332608239268214,B,638.8234000005468,Correct
8,508,244,A,63.54742714476339,83.8261069710299,3.1773713572381697,1.3167374091960984,A,463.0901000000449,Correct
8,508,245,A,61.38147307617788,86.479363231955,3.069073653808894,1.3584146610831658,A,569.3350000001374,Correct
8,508,246,A,32.912241810548856,45.78066359709968,1.645612090527443,0.7191209821655703,A,848.2533999995212,Correct
8,508,247,A,33.73483218776389,55.732903086169344,1.6867416093881946,0.8754503944937077,A,641.073900000265,Correct
8,508,248,B,72.16955080264182,54.862128893847405,3.608477540132091,0.8617723054660366,B,588.72700000029,Correct
8,508,249,B,70.78120315273456,40.87759818375933,3.539060157636728,0.6421038107524689,B,440.82089999938034,Correct
8,508,250,A,48.73986137670476,72.05080312994616,2.436993068835238,1.1317713689914166,A,451.61369999914314,Correct
8,508,251,B,33.51108812038517,21.848292105155434,1.6755544060192584,0.34319216985520096,B,612.736600000062,Correct
8,508,252,B,33.734685113787044,21.867411367991238,1.686734255689352,0.343492494533536,B,409.2010999993363,Correct
8,508,253,B,45.65191120464701,25.8593861042687,2.2825955602323504,0.4061982870575627,B,513.7402000000293,Correct
8,508,254,A,57.938600089807835,81.60619801420418,2.896930004490392,1.2818671608440892,A,475.4059999995661,Correct
8,508,255,B,66.4121866300121,38.243871820531005,3.3206093315006053,0.6007333337810495,B,653.3761999999115,Correct
8,508,256,B,83.01961734474386,55.15669992996262,4.150980867237194,0.8663994164811363,B,602.3776000001817,Correct
8,508,257,A,31.7177495719574,53.672091669809106,1.5858874785978698,0.843079244463351,A,491.79259999982605,Correct
8,508,258,A,49.86521166951856,75.97542578122736,2.493260583475928,1.1934191974383022,A,508.33160000001953,Correct
8,508,259,B,77.97492827657616,65.10916005616886,3.8987464138288086,1.0227322945693105,B,609.2897999988054,Correct
8,508,260,A,28.06377215275694,53.55906533807647,1.403188607637847,0.8413038309961839,A,522.4266999994143,Correct
8,508,261,B,48.89580123835943,37.70081627070794,2.444790061917972,0.592203037151973,B,526.0367999999289,Correct
8,508,262,A,18.71280751215379,40.03620919447387,0.9356403756076895,0.6288873034147162,A,492.12230000011914,Correct
8,508,263,B,54.48484475419192,35.46085356577601,2.724242237709596,0.5570177852613267,B,783.4637999985716,Correct
8,508,264,A,17.338480401510036,36.16116474642796,0.8669240200755018,0.5680182475631415,A,444.3935999988753,Correct
8,508,265,A,54.34825023964939,63.44499142278103,2.7174125119824692,0.9965915948043816,A,1001.9271000001027,Correct
8,508,266,B,53.07093702068714,36.91552716100964,2.653546851034357,0.5798677446621118,B,575.1856000006228,Correct
8,508,267,B,63.83622891835412,46.374047648396825,3.191811445917706,0.7284418370471326,B,557.5889000010648,Correct
8,508,268,A,61.03782984908025,73.10575060913585,3.0518914924540126,1.1483424452441438,A,468.51389999937965,Correct
8,508,269,B,51.76874034524232,28.51123938761655,2.5884370172621165,0.44785350102438054,B,556.2336000002688,Correct
8,508,270,A,43.948345564728086,55.985501422053936,2.1974172782364043,0.8794181998753279,A,489.4880000010744,Correct
8,508,271,B,59.99715739937932,32.43200312324845,2.9998578699689658,0.5094407137659928,B,616.3916999994399,Correct
8,508,272,B,79.97892749079833,67.00479597444172,3.9989463745399165,1.0525088739429453,B,1131.7443999996613,Correct
8,508,273,B,73.9595791780516,47.47627019833256,3.69797895890258,0.7457555083746279,B,477.70959999979823,Correct
8,508,274,A,38.78601325558697,69.66887046358303,1.9393006627793485,1.0943560581614569,A,477.3979000001418,Correct
8,508,275,A,24.923417004016983,56.60260055435117,1.246170850200849,0.8891115703781358,A,489.0458999998373,Correct
8,508,276,A,21.774935966675827,35.913513248603124,1.0887467983337913,0.5641281469320565,A,506.659500000751,Correct
8,508,277,A,48.97284252815557,66.46069606570498,2.4486421264077785,1.0439621725624142,A,421.1912000009761,Correct
8,508,278,A,67.07224888110787,81.39532229498471,3.353612444055393,1.2785547327924873,A,540.0992999984737,Correct
8,508,279,B,36.35806516629958,22.146506092649194,1.817903258314979,0.34787650421674154,B,1350.9035000006406,Correct
8,508,280,B,49.5972758334001,18.772083571630446,2.4798637916700046,0.29487119920603927,B,448.2836999995925,Correct
8,508,281,B,66.82525339108169,33.707125131385226,3.341262669554084,0.5294702834319586,B,511.2177999999403,Correct
8,508,282,A,24.053939735324317,41.116672399757206,1.2026969867662158,0.6458591797556772,A,544.3336999996973,Correct
8,508,283,A,65.44189949377846,78.38522419300469,3.2720949746889234,1.2312722223736623,A,768.8942000004317,Correct
8,508,284,B,59.84345842318285,49.98682515318537,2.9921729211591424,0.7851912133876231,B,1280.3310999988753,Correct
8,508,285,B,89.04141122984078,63.123829151360084,4.452070561492039,0.9915467896418502,B,493.6209000006784,Correct
8,508,286,B,74.99459630113522,46.243695927638086,3.749729815056761,0.7263942770055402,B,451.41029999831517,Correct
8,508,287,B,71.96258595296119,51.768573556029686,3.5981292976480597,0.8131788518522285,B,519.27969999997,Correct
8,508,288,B,73.2627728386497,46.37053099693101,3.663138641932485,0.7283865976150813,B,545.8027999993647,Correct
8,508,289,A,49.2974123992498,71.95387867010483,2.46487061996249,1.1302488831364632,A,1264.7291000012046,Correct
8,508,290,B,69.38798065273679,50.78772054723058,3.4693990326368396,0.7977716488187547,B,1649.047500000961,Correct
8,508,291,B,44.22311276583383,31.775255788821813,2.2111556382916917,0.4991245507604957,B,500.08619999971415,Correct
8,508,292,A,55.54828052270723,81.06101914999327,2.7774140261353613,1.273303511270602,A,506.4266999997926,Correct
8,508,293,B,52.60626654186938,44.01932808766209,2.630313327093469,0.6914539886807902,B,776.4774000006582,Correct
8,508,294,A,35.929609669043366,46.69589814129981,1.7964804834521684,0.7334974527674238,A,1504.5561999995698,Correct
8,508,295,A,52.79520250594089,74.45517856174084,2.6397601252970446,1.1695392099564066,A,536.8443999996089,Correct
8,508,296,A,59.05921434379019,81.61135694022653,2.9529607171895096,1.28194819706455,A,653.2720999985031,Correct
8,508,297,A,18.007469420672177,32.782629846769055,0.9003734710336089,0.5149483454598157,A,514.5448000002943,Correct
8,508,298,B,33.09183783249074,16.070379900487424,1.654591891624537,0.2524329371788418,B,739.3556999995781,Correct
8,508,299,B,50.12737316348645,43.308640598882725,2.5063686581743227,0.6802905357120532,A,2253.0585000004066,Incorrect
8,508,300,A,52.28472537894733,77.24121969429754,2.614236268947366,1.2133022417296022,A,502.7324000002409,Correct
8,508,301,B,42.75526567345939,20.883733277300948,2.1377632836729696,0.32804091521748674,B,522.8697999991709,Correct
8,508,302,A,52.7521577730529,66.3950290347682,2.637607888652645,1.042930677252544,A,587.1829999996407,Correct
8,508,303,B,45.22358782798855,30.203366877144102,2.261179391399428,0.474433377474566,B,727.0639999987907,Correct
8,508,304,A,48.48340257653835,77.20664501242922,2.4241701288269177,1.2127591438968135,A,529.5536000012362,Correct
8,508,305,B,74.53902663367,49.8350980132312,3.7269513316835003,0.7828078890464722,B,636.0555999999633,Correct
8,508,306,B,57.1106146281675,39.31208236727351,2.8555307314083747,0.6175127458117166,B,836.0726999999315,Correct
8,508,307,A,24.702150282165313,36.57173437212086,1.2351075141082657,0.5744674601624611,A,1648.2166000005236,Correct
8,508,308,A,56.91453301416422,73.22348660836147,2.8457266507082113,1.1501918379952951,A,508.380400000533,Correct
8,508,309,A,31.88161608338604,60.9033154470536,1.594080804169302,0.9566670419386268,A,505.33720000021276,Correct
8,508,310,B,47.87738308044986,38.992965900576,2.393869154022493,0.6125000760746343,B,695.9783999991487,Correct
8,508,311,A,18.84807076627348,43.8525549405942,0.942403538313674,0.6888343222125677,A,440.30410000050324,Correct
8,508,312,A,27.548881699411226,41.00893976086917,1.3774440849705614,0.6441669194212647,A,613.8055999999779,Correct
8,508,313,B,54.99823223121651,35.388967360943525,2.7499116115608255,0.5558885993963457,B,568.3008999985759,Correct
8,508,314,A,55.91408252638895,79.50964453708274,2.7957041263194475,1.248934575836175,A,1472.6291000006313,Correct
8,508,315,A,35.40834990271111,51.9435624167772,1.7704174951355554,0.8159275704491507,A,642.8515000006882,Correct
8,508,316,A,65.72630976914434,81.92503682123315,3.286315488457217,1.2868754691132969,A,1762.3221999983798,Correct
8,508,317,A,46.836979897983085,72.73097399339457,2.3418489948991543,1.1424554679303933,A,943.2992999991257,Correct
8,508,318,A,36.64385131725967,57.53473112300098,1.8321925658629834,0.9037534431114196,A,503.6068000008527,Correct
8,508,319,A,49.82123293896261,73.72982056965162,2.491061646948131,1.158145313260556,A,553.8297000002785,Correct
8,508,320,A,32.69458821084675,43.942723885046796,1.6347294105423376,0.6902506926799387,A,1641.2690999986808,Correct
8,508,321,A,19.59445182441174,37.12384029504862,0.9797225912205869,0.5831399197198275,A,522.7078999996593,Correct
8,508,322,B,54.33092707578757,38.49820397872885,2.716546353789379,0.6047283739798794,B,936.1947999987024,Correct
8,508,323,B,38.8896278297185,26.034845806247326,1.9444813914859251,0.40895440161124824,B,550.0666999996611,Correct
8,508,324,B,53.371265776051175,45.746265820792445,2.668563288802559,0.718580663158837,B,825.931599998512,Correct
8,508,325,B,69.55359685561208,41.746441650742085,3.4776798427806046,0.6557515720174314,B,500.42409999878146,Correct
8,508,326,A,19.34538944640348,39.77136713540229,0.9672694723201741,0.6247271740790119,A,464.5676000000094,Correct
8,508,327,A,58.13744258617792,81.54004379069063,2.906872129308896,1.2808280127311187,A,491.0765000004176,Correct
8,508,328,A,21.767104991192728,46.52868579948749,1.0883552495596363,0.7308708874442881,A,457.45720000013534,Correct
8,508,329,B,79.65128583936624,63.490547067210315,3.9825642919683117,0.9973071811937245,B,697.7261000010913,Correct
8,508,330,A,45.80832472278519,73.26424201414817,2.2904162361392593,1.1508320224123625,A,481.9664000006014,Correct
8,508,331,A,60.676233887026726,76.02637023657788,3.0338116943513365,1.1942194310716536,A,419.9515000000247,Correct
8,508,332,B,46.838128260311315,31.058761006555436,2.341906413015566,0.48786987703897844,B,584.9624999991647,Correct
8,508,333,A,38.44205112290133,66.47542534233631,1.9221025561450664,1.0441935394987025,A,517.0850000013161,Correct
8,508,334,A,49.60880209682161,63.26182385215887,2.480440104841081,0.9937144053331692,A,475.7697000004555,Correct
8,508,335,A,67.25696723162869,85.37575039940614,3.362848361581434,1.3410791512474511,A,882.6702999995177,Correct
8,508,336,B,32.4803841932238,20.04331694315354,1.62401920966119,0.3148396863109149,B,639.6576999995887,Correct
8,508,337,B,64.03973195818092,30.832867664538707,3.2019865979090465,0.4843215527201054,B,512.9958000015904,Correct
8,508,338,A,11.763776341214143,33.30575145102591,0.5881888170607071,0.523165520404153,A,493.7408999994659,Correct
8,508,339,B,74.86093655857309,56.22327559105782,3.743046827928654,0.8831531477881079,B,8923.000899998442,Correct
8,508,340,B,60.92621808070976,53.54464891679932,3.046310904035488,0.841077378380307,B,557.8107999990607,Correct
8,508,341,A,35.719767502643705,59.55498845283628,1.7859883751321854,0.935487571040277,A,573.2814000002691,Correct
8,508,342,A,20.649105363494566,48.13074727104119,1.0324552681747283,0.7560360101924499,A,429.0323000004719,Correct
8,508,343,B,59.68851376732656,26.89730838736309,2.984425688366328,0.4225019321553951,B,546.5930999998818,Correct
8,508,344,A,39.487173345920766,54.48080359582081,1.9743586672960385,0.8557824616914952,A,652.7707000004739,Correct
8,508,345,A,28.175598232918155,41.762312382414834,1.4087799116459079,0.6560008688875824,A,943.5696000000462,Correct
8,508,346,A,18.493031726848805,41.58210118751705,0.9246515863424404,0.6531701180576548,A,447.2998999990523,Correct
8,508,347,A,36.94143426616375,70.02641911858808,1.8470717133081878,1.0999724193007807,A,405.13579999969807,Correct
8,508,348,A,29.824374963320196,49.62880519590445,1.4912187481660097,0.779567449049462,A,482.8830000005837,Correct
8,508,349,B,41.652066036851394,20.278439355177984,2.08260330184257,0.3185329805224665,B,639.0363999998954,Correct
8,508,350,B,39.551854197949794,17.422525437905502,1.97759270989749,0.2736723896135261,B,543.9304000010452,Correct
8,508,351,B,51.015817450515485,32.45512424646192,2.5507908725257744,0.5098038995201436,B,470.0024999983725,Correct
8,508,352,B,63.504984484239536,48.489867753925964,3.175249224211977,0.761677061546372,B,807.6889999993,Correct
8,508,353,A,35.943243713618585,66.33034879039614,1.7971621856809292,1.0419146823497858,A,508.9387000007264,Correct
8,508,354,B,47.47537490140012,38.057249867370984,2.3737687450700062,0.5978018829958192,B,509.7544000000198,Correct
8,508,355,A,19.296703833049655,39.773218426257316,0.9648351916524828,0.6247562540877608,A,444.1205999992235,Correct
8,508,356,A,22.62765687687798,44.19297074883153,1.131382843843899,0.6941815612241887,A,506.76129999919794,Correct
8,508,357,B,41.54448937119907,21.795665238938035,2.0772244685599532,0.34236550897375073,B,668.4852999987925,Correct
8,508,358,A,23.373064451666405,45.853117690392025,1.1686532225833204,0.7202590884016188,A,512.890599999082,Correct
8,508,359,B,46.93317694807426,27.889969584362582,2.346658847403713,0.43809461777538133,B,658.8287000013224,Correct
8,508,360,A,25.441764398753715,56.73654863631316,1.2720882199376857,0.8912156219294071,A,494.99660000037693,Correct
8,508,361,A,31.439505317972944,49.99432812384445,1.571975265898647,0.7853090697751366,A,946.6138000007049,Correct
8,508,362,A,35.05051667646927,44.753957308692044,1.7525258338234635,0.7029935175002908,A,1479.5553000003565,Correct
8,508,363,B,42.60734042125907,22.618956678460602,2.1303670210629533,0.355297740664588,B,516.8216999991273,Correct
8,508,364,B,83.14333067701065,65.35850074986573,4.157166533850533,1.0266489290271057,B,473.2787999982975,Correct
8,508,365,B,37.46826593559591,15.038941764069396,1.8734132967797956,0.2362311448188257,B,525.6656000001385,Correct
8,508,366,B,53.93544786669493,23.263214342057125,2.6967723933347463,0.3654177163794569,B,473.8677999994252,Correct
8,508,367,A,33.292589471215834,50.22170015028885,1.6646294735607916,0.7888806212146844,A,523.5040000006848,Correct
8,508,368,B,80.5521973885071,64.36731476402657,4.027609869425355,1.0110794159698384,B,528.2384999991336,Correct
8,508,369,A,56.93620056326205,69.86437200585576,2.8468100281631026,1.0974269892063042,A,1032.5367999994342,Correct
8,508,370,B,83.46449379688347,62.25851824087691,4.173224689844173,0.9779545176446252,B,844.4013999996969,Correct
8,508,371,B,84.35806886189039,65.86608539506538,4.217903443094519,1.0346220499892769,B,554.1924000008294,Correct
8,508,372,B,41.22072500513931,13.91406107981507,2.0610362502569655,0.21856156034973345,B,507.86470000093686,Correct
8,508,373,A,27.916613533422787,47.16072510503757,1.3958306766711395,0.7407989376397689,A,884.713900000861,Correct
8,508,374,A,33.798664254172515,56.41032429948584,1.6899332127086257,0.8860913020294124,A,475.35640000023704,Correct
8,508,375,B,53.05184687069949,27.89601877363529,2.6525923435349745,0.43818963821827794,B,495.2425999999832,Correct
8,508,376,A,41.48222071407482,58.87487096132515,2.074111035703741,0.9248043104657306,A,537.7122000008967,Correct
8,508,377,B,59.28664669301313,48.780380518844055,2.9643323346506567,0.7662404253865758,B,639.0289999999368,Correct
8,508,378,A,59.05151576746754,82.12301703684957,2.9525757883733768,1.2899853350679802,A,408.4101999997074,Correct
8,508,379,A,29.8092836912241,39.60995784883629,1.490464184561205,0.6221917629345272,A,1156.2913999987359,Correct
8,508,380,B,84.40838677652509,67.91191206700202,4.220419338826255,1.066757820204648,B,588.8744999992923,Correct
8,508,381,B,42.179615543762424,13.813937571566218,2.1089807771881213,0.2169888239599023,B,676.8798000011884,Correct
8,508,382,B,79.460710940954,61.384293333234766,3.9730355470477003,0.9642222249074562,B,946.9754999990982,Correct
8,508,383,A,33.099801355971515,47.92653901708472,1.6549900677985758,0.7528283144402897,A,879.9478000000818,Correct
8,508,384,B,47.2532983243846,25.21450197913909,2.3626649162192304,0.3960684709079433,B,709.4821999999112,Correct
8,508,385,A,23.697537718904808,46.629526621966534,1.1848768859452405,0.7324548913796987,A,539.8392000006424,Correct
8,508,386,B,69.85753884404856,50.447182887491216,3.4928769422024284,0.7924224957682158,B,709.7993999996106,Correct
8,508,387,A,38.8269202904267,52.687841316404494,1.941346014521335,0.8276186760656057,A,473.3896999987337,Correct
8,508,388,B,74.87586231032593,63.585192830283304,3.7437931155162967,0.998793873363542,B,3378.2179999998334,Correct
8,508,389,A,49.30761535353464,63.80240945185818,2.465380767676732,1.0022059040764282,A,569.7232000002259,Correct
8,508,390,A,68.62797915352664,84.84261947217671,3.431398957676332,1.3327047502255231,A,675.5957000004855,Correct
8,508,391,A,35.49336212518892,59.00041357045533,1.7746681062594463,0.92677632915851,A,754.3105999993713,Correct
8,508,392,B,46.047303623702945,27.457953292532885,2.302365181185147,0.43130852173216494,B,893.0818000008003,Correct
8,508,393,B,45.235868599889315,23.66924816353838,2.2617934299944658,0.37179568073282937,B,637.362800000119,Correct
8,508,394,A,21.934931427117178,33.749393593226664,1.0967465713558588,0.5301342348779566,A,506.6127999998571,Correct
8,508,395,A,40.224492772951294,55.05295653214701,2.0112246386475645,0.8647698189989564,A,655.2859999992506,Correct
8,508,396,B,88.50372707796977,67.07139377043055,4.425186353898488,1.053554989676064,B,487.0663000001514,Correct
8,508,397,A,28.59722791723556,38.81042368399778,1.429861395861778,0.6096327096417736,A,1106.4186999992671,Correct
8,508,398,A,54.1256735466186,75.53444346747239,2.70628367733093,1.1864922634520239,A,583.9222000013251,Correct
8,508,399,B,54.640556337918404,22.31596628344301,2.7320278168959202,0.3505383786691105,B,606.2963000003947,Correct
8,508,400,A,41.740868866540026,49.6048377366158,2.0870434433270013,0.7791909690793297,A,512.5306000009004,Correct
8,508,401,A,44.81304065649973,66.36912994861358,2.2406520328249866,1.0425238553585539,A,608.8232000001881,Correct
8,508,402,B,62.279710507383946,45.120714947399804,3.1139855253691975,0.708754533017352,A,2654.5962000000145,Incorrect
8,508,403,A,14.032266117876233,33.1392478722673,0.7016133058938117,0.5205500883050307,A,475.02589999930933,Correct
8,508,404,A,54.25278816835075,72.08320773373254,2.712639408417538,1.1322803793174054,A,876.9969000004494,Correct
8,508,405,A,62.8069967587155,81.31254831981654,3.140349837935775,1.2772545222310037,A,772.227200000998,Correct
8,508,406,A,23.151475581949256,50.49954128356396,1.1575737790974627,0.793244939530495,A,449.48330000079295,Correct
8,508,407,B,68.12810042720112,35.67447244236899,3.406405021360056,0.5603733027281896,B,730.2968999993027,Correct
8,508,408,B,53.05700272993584,25.824166805610794,2.6528501364967916,0.4056450636079214,B,563.6933999994653,Correct
8,508,409,B,69.42488602080941,50.60670905794345,3.4712443010404708,0.7949283269939558,B,640.6950000000506,Correct
8,508,410,B,79.3914570186554,54.963692722066476,3.96957285093277,0.8633676663490543,B,544.9771000003238,Correct
8,508,411,B,60.49077425356086,31.76693931908649,3.024538712678043,0.49899391595937426,B,546.4135000001988,Correct
8,508,412,A,67.46552579209208,81.83803091513082,3.373276289604604,1.2855087835361467,A,489.2937000004167,Correct
8,508,413,B,63.7380542743118,36.806613562886824,3.18690271371559,0.5781569338634185,B,513.5957000002236,Correct
8,508,414,A,27.714691181223753,40.04198473370599,1.3857345590611876,0.6289780253728269,A,577.320399999735,Correct
8,508,415,A,29.62111994123906,44.19945669916297,1.4810559970619528,0.6942834422937527,A,572.0946000001277,Correct
8,508,416,A,49.08456642477465,60.91703262977133,2.4542283212387326,0.9568825109408965,A,1010.2064999991853,Correct
8,508,417,B,51.29064633751403,44.59647055181821,2.5645323168757015,0.700519721308128,A,549.7777999989921,Incorrect
8,508,418,A,18.503640674643083,33.90199344674134,0.9251820337321541,0.5325312677716596,A,483.90160000053584,Correct
8,508,419,B,56.499823494748775,41.866595524127604,2.8249911747374385,0.6576389446470731,B,1698.266400000648,Correct
8,508,420,A,53.584218446747585,68.14445576210119,2.6792109223373792,1.0704106080254587,A,521.1560999996436,Correct
8,508,421,B,46.187385042860164,17.201473885025823,2.3093692521430085,0.27020011994056903,B,617.709800000739,Correct
8,508,422,B,47.62248365744002,28.704821889646794,2.3811241828720013,0.4508942878555893,B,502.1802999999636,Correct
8,508,423,B,73.64324608772924,58.91784201927274,3.682162304386462,0.9254792982655562,B,467.43460000107007,Correct
8,508,424,B,53.59261413992343,46.02586680678556,2.679630706996171,0.7229726251764992,A,1999.5665999995254,Incorrect
8,508,425,B,36.816891157453604,11.570522465661675,1.8408445578726802,0.18174934188159186,B,712.7165000001696,Correct
8,508,426,A,44.94888737882244,56.4785957692176,2.247444368941122,0.887163707768208,A,601.8152000015107,Correct
8,508,427,A,49.5388038668135,64.87898793302628,2.4769401933406754,1.0191167593136812,A,553.0221999997593,Correct
8,508,428,A,44.28847967941916,62.8353154676771,2.214423983970958,0.9870148272962574,A,512.1992999993381,Correct
8,508,429,A,14.504753360180185,42.6531781727287,0.7252376680090094,0.6699945559985051,A,514.1738999991503,Correct
8,508,430,B,47.45977100294718,38.57181386385139,2.372988550147359,0.6058846353515422,B,1613.467999999557,Correct
8,508,431,B,76.87059299161791,53.90462560175209,3.8435296495808955,0.8467318789248632,B,496.8200999992405,Correct
8,508,432,B,69.43501994564548,45.103368757377574,3.4717509972822738,0.7084820597016439,B,489.9224000000686,Correct
8,508,433,A,53.47445581077333,68.39411563706672,2.6737227905386662,1.074332256170898,A,474.5091000004322,Correct
8,508,434,A,24.67587667172124,45.89584829474559,1.233793833586062,0.720930299165222,A,441.973599999983,Correct
8,508,435,B,41.018777181413896,19.7506369347057,2.050938859070695,0.3102422794889533,B,1790.9555999995064,Correct
8,508,436,B,56.23398080415375,25.139935436135723,2.8116990402076874,0.39489718238942845,B,2925.876100000096,Correct
8,508,437,B,88.71273279065055,64.51086533315927,4.435636639532527,1.0133343030368682,B,771.6763999997056,Correct
8,508,438,A,36.38914970572151,53.209803880324834,1.8194574852860754,0.8358176448469108,A,767.3064999999042,Correct
8,508,439,B,64.83727497930437,43.61427915364636,3.2418637489652182,0.6850914949035493,B,913.5210999993433,Correct
8,508,440,A,27.928529213644595,59.38801932927117,1.3964264606822296,0.9328648261804346,A,468.27180000036606,Correct
8,508,441,A,28.112848126829583,50.306255936318244,1.4056424063414792,0.7902088203957266,A,385.24040000083914,Correct
8,508,442,A,57.23704313003269,65.82947651907021,2.8618521565016346,1.0340469991098638,A,1200.4526000000624,Correct
8,508,443,B,61.727968873842144,51.146325120342944,3.086398443692107,0.8034045962809224,B,1142.0053000001644,Correct
8,508,444,B,50.44097009149687,29.13277533993525,2.5220485045748435,0.45761656493311237,B,674.4478000000527,Correct
8,508,445,B,61.38042145910973,32.99989713788157,3.0690210729554868,0.5183611720879379,B,529.0796000008413,Correct
8,508,446,A,61.75587223778365,72.89540885034042,3.0877936118891824,1.1450384046232691,A,595.5959999992047,Correct
8,508,447,A,47.432161431250634,55.146611969532394,2.3716080715625316,0.8662409551692497,A,765.8070999987103,Correct
8,508,448,B,39.566337628922795,20.118071434361624,1.9783168814461396,0.31601392711292575,B,632.0180000002438,Correct
8,508,449,A,44.649323333357486,55.608086932771286,2.2324661666678742,0.8734897869408842,A,755.6279000000359,Correct
8,508,450,A,18.15375647173897,34.14444003601713,0.9076878235869486,0.5363396098904432,A,575.7455000002665,Correct
8,508,451,B,58.30279007108652,39.98924571303364,2.915139503554326,0.6281496027733181,B,888.8671999993676,Correct
8,508,452,B,45.10184496294682,32.73160091987952,2.2550922481473408,0.514146784950632,B,682.05190000117,Correct
8,508,453,B,79.85821938582484,55.67753136581021,3.992910969291242,0.8745806175442231,B,592.9199000001972,Correct
8,508,454,A,60.88911023882406,76.77445937552612,3.044455511941203,1.2059703877874046,A,623.5710000000836,Correct
8,508,455,B,50.74666151765622,37.102015830613254,2.537333075882811,0.582797101834134,B,752.4420999998256,Correct
8,508,456,B,75.19737196498352,58.69939774703849,3.759868598249176,0.9220479836612068,B,815.8894999996846,Correct
8,508,457,A,47.2825270010861,56.49767848901053,2.364126350054305,0.8874634584297678,A,1234.383600000001,Correct
8,508,458,B,56.40030606758775,28.262761231767705,2.820015303379387,0.44395041527941914,B,676.0758000000351,Correct
8,508,459,A,42.329645031666416,62.05047891974097,2.116482251583321,0.9746866436299328,A,564.9085000004561,Correct
8,508,460,B,57.15727327606231,33.54721185350317,2.8578636638031156,0.5269583715369299,B,1433.048000000781,Correct
8,508,461,B,35.68981480290698,22.717481250143546,1.7844907401453491,0.35684536101757414,B,556.1546000008093,Correct
8,508,462,A,27.236613901834232,47.26007675234038,1.3618306950917116,0.7423595496662116,A,2162.7532000002248,Correct
8,508,463,B,70.9082644025209,40.03544747907284,3.545413220126045,0.6288753384171762,B,899.6212999991258,Correct
8,508,464,B,61.25232663697638,40.51831229601811,3.062616331848819,0.6364601612251374,B,680.6161999993492,Correct
8,508,465,B,45.109019457026385,19.883706707551234,2.2554509728513192,0.31233253459288524,B,563.6732999992091,Correct
8,508,466,A,53.74841302659692,65.63877519384107,2.6874206513298464,1.0310514696980153,A,642.0316999992792,Correct
8,508,467,A,52.00705618348416,78.57086100080735,2.6003528091742076,1.234188198531806,A,607.8347000002395,Correct
8,508,468,B,53.161311390524396,36.632813121667745,2.6580655695262196,0.5754268829167959,B,1126.467699999921,Correct
8,508,469,A,39.74184047307538,71.97692588122997,1.9870920236537688,1.1306109078822455,A,473.7786999994569,Correct
8,508,470,B,81.12722911929409,66.44960663809064,4.056361455964704,1.0437879802407855,B,606.7806000010023,Correct
8,508,471,B,86.22207412072751,63.99488775689658,4.311103706036375,1.0052293462218485,B,586.0854000002291,Correct
8,508,472,B,71.04233155035578,49.53322268412704,3.5521165775177894,0.778066042465404,B,766.5003999991313,Correct
8,508,473,B,32.59250329946205,11.913308926871618,1.6296251649731028,0.1871338190230279,B,881.296100000327,Correct
8,508,474,A,58.645965005986284,83.02055477298883,2.932298250299314,1.3040838248588535,A,1230.5338999995001,Correct
8,508,475,B,44.6720283391784,24.450114799202964,2.2336014169589196,0.3840615051630155,B,643.8357999995787,Correct
8,508,476,A,25.44758710161546,50.46255152900972,1.272379355080773,0.7926639058246666,A,481.32540000005974,Correct
8,508,477,B,70.03608008878336,42.882749072341355,3.501804004439168,0.6736006472570105,B,582.6484999997774,Correct
8,508,478,B,63.82438071439273,51.787003910663195,3.191219035719637,0.8134683551858269,B,702.90660000137,Correct
8,508,479,A,59.52908993536035,71.1281174109862,2.9764544967680178,1.1172778556101326,A,1836.4465000013297,Correct
8,508,480,B,68.381536238668,50.09695597666831,3.4190768119334,0.7869211443175623,B,584.6217999987857,Correct
8,508,481,A,34.678949697293106,60.91421806620308,1.7339474848646552,0.9568382998797511,A,517.8988000006939,Correct
8,508,482,B,46.67456584399284,25.150620090847138,2.333728292199642,0.39506501655316617,B,494.41250000018044,Correct
8,508,483,B,33.15578884862141,17.471281251988298,1.6577894424310704,0.27443824415023754,B,416.946100000132,Correct
8,508,484,A,39.75721165214127,68.79640684535057,1.9878605826070637,1.0806514316936395,A,1012.2573000007833,Correct
8,508,485,A,52.62176453814945,78.3402842768939,2.631088226907473,1.2305663078221292,A,561.8052999998326,Correct
8,508,486,A,34.87265784126186,43.22885528263885,1.743632892063093,0.6790372708951726,A,776.1743999999453,Correct
8,508,487,B,49.605475312455305,38.47609095883671,2.480273765622765,0.6043810234756702,A,496.4471000002959,Incorrect
8,508,488,A,47.815372331062235,78.60410083627129,2.3907686165531117,1.234710328646306,A,456.4752000005683,Correct
8,508,489,A,23.432238704703813,45.002825785587746,1.1716119352351908,0.7069027343939188,A,566.5673999992578,Correct
8,508,490,A,18.842428214233617,49.53754774192338,0.9421214107116809,0.7781339803144007,A,436.3900999996986,Correct
8,508,491,A,45.25862323395321,70.61342604342794,2.2629311616976606,1.109193102514197,A,474.73530000024766,Correct
8,508,492,B,59.2135887742026,30.472714184722253,2.96067943871013,0.4786642750883246,B,823.4370999998646,Correct
8,508,493,B,69.07389941687539,36.54740509517435,3.45369497084377,0.5740852967738495,B,832.5500000009924,Correct
8,508,494,B,73.366062610411,53.286524616310345,3.6683031305205502,0.8370227713496612,B,664.564299999256,Correct
8,508,495,A,26.053450697776807,54.764226787290085,1.3026725348888402,0.8602344627723794,A,661.5628999988985,Correct
8,508,496,A,39.84472046531014,49.52005412775718,1.992236023265507,0.7778591912656542,A,1379.381699998703,Correct
8,508,497,B,68.18292111151055,43.84325670827437,3.4091460555755275,0.6886882659208309,B,947.1236999997927,Correct
8,508,498,B,56.197447505586716,36.60558015469921,2.809872375279336,0.5749991084719768,B,1082.0275000005495,Correct
8,508,499,B,80.57335884707324,59.15524698586364,4.028667942353661,0.9292084467603948,B,664.4004999998288,Correct
8,508,500,B,41.358877671653296,15.28262504406532,2.067943883582665,0.240058912830015,B,599.5823000012024,Correct
8,508,501,B,59.85634898303476,28.1370788719208,2.992817449151738,0.4419762013875148,B,499.47050000082527,Correct
8,508,502,B,57.786275411472175,34.841725107193454,2.8893137705736085,0.5472925381757701,B,536.1763000000792,Correct
8,508,503,B,62.511554972292394,33.15569937053942,3.1255777486146195,0.5208085078355918,B,566.4977000014915,Correct
8,508,504,A,26.66559673904966,42.141848416729935,1.333279836952483,0.6619626069734671,A,532.3244999999588,Correct
8,508,505,B,42.5309353361703,13.923918270629436,2.126546766808515,0.21871639674097068,B,517.4669999996695,Correct
8,508,506,A,18.208530446851103,39.64451370229075,0.9104265223425552,0.6227345650112825,A,640.5281999996078,Correct
8,508,507,A,34.64512271173934,42.88286324042018,1.732256135586967,0.6736024406049991,A,1206.0447000003478,Correct
8,508,508,B,84.52142789463483,57.957435110630776,4.226071394731742,0.910393261822324,B,712.558799999897,Correct
8,508,509,B,38.47137490718483,29.02824520415532,1.9235687453592416,0.4559746093998875,B,542.8895000004559,Correct
8,508,510,B,53.13887210562919,42.71773129646323,2.6569436052814592,0.6710085540949583,B,745.395500000086,Correct
8,508,511,A,46.15086478157911,58.94435983966161,2.3075432390789556,0.9258958392141708,A,807.2511999998824,Correct
8,508,512,A,15.78482266464174,33.15078668882613,0.789241133232087,0.5207313396116924,A,502.71320000138076,Correct
8,508,513,A,21.05415600115673,47.31034278564596,1.0527078000578365,0.743149126671001,A,991.5318000003026,Correct
8,508,514,A,32.86861759110488,60.72853666174012,1.643430879555244,0.9539216231989058,A,763.1383999996615,Correct
8,508,515,B,76.6802480065271,48.7185886022796,3.8340124003263547,0.7652698002309251,B,931.7016000004514,Correct
8,508,516,A,36.133810154110215,63.00300255739779,1.8066905077055109,0.9896488499420992,A,778.3667000003334,Correct
8,508,517,B,59.43755940708742,46.71933625767291,2.9718779703543707,0.7338656178384823,B,860.5941000005259,Correct
8,508,518,A,41.938116334387736,60.28929326126213,2.096905816719387,0.9470220039985088,A,551.0709999998653,Correct
8,508,519,A,60.86524570987831,78.93987611325815,3.0432622854939155,1.2399846743635008,A,590.005399999427,Correct
8,508,520,B,35.152109112349365,14.24292613862545,1.7576054556174683,0.22372736061363874,B,714.7084999996878,Correct
8,508,521,A,26.934401067821824,51.05443280704346,1.3467200533910912,0.8019611551990073,A,602.9953999986901,Correct
8,508,522,B,50.34300416316561,27.68685938902383,2.5171502081582804,0.4349041702876542,B,502.29439999930037,Correct
8,508,523,A,24.830134194027,48.10232668689716,1.24150670970135,0.7555895807006618,A,561.9353000001865,Correct
8,508,524,B,73.47198290734939,62.052876294703154,3.6735991453674695,0.9747243015077783,B,768.5283999999228,Correct
8,508,525,A,20.049369597772916,49.727842242354,1.0024684798886456,0.7811231193372574,A,940.1503000008233,Correct
8,508,526,A,16.60324549226949,31.11475223198755,0.8301622746134746,0.48874938515139355,A,511.76370000030147,Correct
8,508,527,B,55.32486079876786,23.35118886478541,2.7662430399383933,0.36679961695098817,B,584.6089999995456,Correct
8,508,528,B,57.02129548963224,39.76311789567755,2.8510647744816118,0.6245975953244272,B,580.4540000008274,Correct
8,508,529,A,26.131346656739005,40.202497655958524,1.3065673328369503,0.631499356459601,A,2071.8284000013227,Correct
8,508,530,A,25.960944582322774,43.69424394287908,1.298047229116139,0.6863475788755463,A,476.80080000100133,Correct
8,508,531,A,44.393315742788005,65.74119754387596,2.2196657871394,1.0326603162101802,A,1162.34379999878,Correct
8,508,532,B,72.86786147839983,59.6535217412383,3.6433930739199916,0.9370353283151663,B,458.9020999992499,Correct
8,508,533,A,18.369342710773104,34.026265031776795,0.9184671355386552,0.5344833212646463,A,796.5736000005563,Correct
8,508,534,A,34.81851913698149,59.66064618184434,1.7409259568490745,0.9371472387665105,A,741.1435000012716,Correct
8,508,535,A,49.55120413211731,76.41724566652671,2.4775602066058657,1.200359287967634,A,532.8924000004918,Correct
8,508,536,A,42.19958720403713,70.29985450310826,2.1099793602018564,1.1042675322769813,A,489.0646999992896,Correct
8,508,537,B,46.33547762881773,28.312840286619796,2.3167738814408865,0.44473705523352947,B,586.4415999985795,Correct
8,508,538,B,79.41771892475784,57.468420521975204,3.9708859462378916,0.9027118386262312,B,676.9356000004336,Correct
8,508,539,B,70.15212531560624,48.36922690532882,3.507606265780312,0.7597820395279941,B,457.67329999944195,Correct
8,508,540,B,66.18774607482399,42.08748424471458,3.3093873037411994,0.6611086565563574,B,529.6865000000253,Correct
8,508,541,A,42.79831950199055,52.2644606834944,2.139915975099527,0.8209682286354929,A,468.96989999913785,Correct
8,508,542,B,44.79419424661577,29.06972926206651,2.2397097123307885,0.4566262394577619,B,583.7536999988515,Correct
8,508,543,B,59.892770355807436,27.42581391222826,2.9946385177903716,0.43080367752688525,B,624.6026999997412,Correct
8,508,544,A,62.98391322452362,84.4416854840171,3.149195661226181,1.3264068938666398,A,549.9086999989231,Correct
8,508,545,B,56.28199573708851,49.1023998331004,2.8140997868544253,0.7712986929464845,B,1101.9064000010985,Correct
8,508,546,B,74.05005778066912,59.84623424116675,3.702502889033456,0.940062449185317,B,945.7681000003504,Correct
8,508,547,B,61.85381536206201,43.07241832860964,3.0926907681031004,0.676579964967532,B,654.2111999988265,Correct
8,508,548,A,21.41135509146171,53.15317437001905,1.0705677545730856,0.8349281105791457,A,552.1527999990212,Correct
8,508,549,A,64.561123450558,89.51000817287557,3.2280561725279,1.4060199204933412,A,694.8066999993898,Correct
