subject,day,trial,cat,x,y,xt,yt,resp,rt,fb
16,316,0,B,48.82846314657833,26.080644064363483,2.4414231573289165,0.4096737989674728,A,5508.735299999898,Incorrect
16,316,1,B,38.94189197030325,24.915527840057848,1.9470945985151626,0.3913721961131886,B,1330.0517000000127,Correct
16,316,2,A,61.036320171190965,81.83563155686504,3.051816008559548,1.285471094504641,A,544.9509000000035,Correct
16,316,3,B,47.839226226516644,28.225254197877646,2.391961311325832,0.4433612561687844,B,1081.527000000051,Correct
16,316,4,B,71.725334785045,60.37244103902563,3.5862667392522503,0.9483280862374293,B,1440.1682000000164,Correct
16,316,5,B,59.636304814095915,38.147463516165196,2.9818152407047958,0.5992189556773462,B,980.5901000001995,Correct
16,316,6,A,33.081730676425884,63.746325541928066,1.6540865338212942,1.001324940079323,A,930.9540000001562,Correct
16,316,7,B,52.082850335309274,37.436758331828145,2.6041425167654637,0.588055224747439,B,1226.1469000000034,Correct
16,316,8,B,64.645726895109,37.343939272398856,3.2322863447554493,0.5865972263713581,B,855.6538999998793,Correct
16,316,9,B,67.68424757892464,54.97943141163381,3.3842123789462324,0.8636148891066635,A,1402.470600000015,Incorrect
16,316,10,B,48.395321615361865,37.67101333725884,2.419766080768093,0.5917348937680775,A,993.6615000001439,Incorrect
16,316,11,A,17.654814056679296,47.445049522753294,0.8827407028339649,0.7452650951494284,A,895.4693000000589,Correct
16,316,12,B,62.830696523123976,39.8443232164815,3.1415348261561986,0.6258731655207777,B,1599.2178000001331,Correct
16,316,13,B,71.42444535682765,42.498792518980956,3.571222267841382,0.6675694718203372,B,679.221699999971,Correct
16,316,14,B,69.46474495414816,37.526854815826866,3.473237247707408,0.5894704570086621,B,534.9470999999539,Correct
16,316,15,A,46.82995042889312,64.46259092535556,2.341497521444656,1.0125760104123052,A,630.1498999998785,Correct
16,316,16,B,59.658629250161944,26.904586498200572,2.9829314625080974,0.4226162564530903,B,1700.8100000000468,Correct
16,316,17,A,27.44305959485663,49.684870186413484,1.3721529797428316,0.7804481158609957,A,1402.35749999988,Correct
16,316,18,A,35.84616774479876,61.57707867834604,1.7923083872399383,0.9672504900270631,A,1154.9254999999903,Correct
16,316,19,B,63.229399904743666,42.24992697550477,3.161469995237183,0.663660301004755,B,3608.7428999999247,Correct
16,316,20,B,46.61981272354621,34.59417626359743,2.3309906361773103,0.5434040500335405,B,1217.5885000001472,Correct
16,316,21,A,50.558758562411384,81.07069917604683,2.5279379281205694,1.2734555647642838,A,575.9742000000188,Correct
16,316,22,A,31.75892850269987,47.53153420392141,1.5879464251349935,0.7466235933444574,A,1962.7106000000367,Correct
16,316,23,B,83.09589033794028,61.55296107353693,4.154794516897014,0.9668716515766106,B,4051.875099999961,Correct
16,316,24,A,18.461055966892168,48.55531221720676,0.9230527983446083,0.7627050607716774,A,663.7347999999292,Correct
16,316,25,B,56.023149993761045,27.14536896796102,2.801157499688052,0.4263984586436534,B,1423.199600000089,Correct
16,316,26,A,57.536139758058546,81.02365011620327,2.8768069879029277,1.27271651986047,A,2095.8064999999806,Correct
16,316,27,A,67.25980493582804,89.71398532816674,3.362990246791402,1.4092239861561555,A,1213.5964999999942,Correct
16,316,28,A,44.47665330548581,76.35836006152186,2.2238326652742906,1.1994343150472067,A,993.7961000000541,Correct
16,316,29,A,37.199080398396184,70.33898964957432,1.859954019919809,1.1048822657201558,A,1512.4132000000827,Correct
16,316,30,A,54.57000171806204,70.02506270200554,2.728500085903102,1.099951112758926,A,2034.9436999999853,Correct
16,316,31,A,52.779997247167074,76.14932578216343,2.638999862358354,1.1961508122653024,A,653.7135999999464,Correct
16,316,32,A,61.08227637415329,77.21428190157405,3.0541138187076644,1.2128791038709819,A,621.7128000000685,Correct
16,316,33,A,28.02636696511275,53.8902017821929,1.4013183482556375,0.8465053100970438,A,1466.9917999999598,Correct
16,316,34,A,33.6771600643622,62.58546577274251,1.6838580032181099,0.9830901974657165,A,1246.3344000000234,Correct
16,316,35,B,34.6774592583339,11.022146474267995,1.733872962916695,0.17313547195175488,B,766.3520999999491,Correct
16,316,36,A,31.04399517050047,49.49589539167613,1.5521997585250236,0.777479706726693,B,1278.090900000052,Incorrect
16,316,37,B,72.8883664670891,58.539015376690514,3.644418323354455,0.9195287032789543,B,644.9806000000535,Correct
16,316,38,B,64.6597481051338,35.12971734598858,3.23298740525669,0.5518163096842184,B,709.0028999998594,Correct
16,316,39,B,75.7274810666419,54.28548311274379,3.7863740533320946,0.8527143747178434,B,603.6460000000261,Correct
16,316,40,A,65.98476573177051,84.5199028317326,3.2992382865885252,1.3276355290914712,A,490.53249999997206,Correct
16,316,41,A,46.968073846134104,55.93852526118025,2.348403692306705,0.8786803000658548,A,581.0619999999744,Correct
16,316,42,A,47.1204382872426,68.79348956701635,2.3560219143621297,1.0806056071927232,A,429.3427000000065,Correct
16,316,43,A,64.4745664756448,88.1693994833752,3.22372832378224,1.3849616884419762,A,677.388800000017,Correct
16,316,44,B,58.814559843646705,42.096882979928836,2.9407279921823353,0.6612562915438681,B,959.3076999999539,Correct
16,316,45,A,60.81976717033618,76.49133214388641,3.0409883585168087,1.2015230356326516,A,545.8135000001221,Correct
16,316,46,B,82.75171714467632,67.12564142547188,4.137585857233816,1.054407109848826,B,566.5126000001237,Correct
16,316,47,B,45.09055878869708,33.28206135095733,2.254527939434854,0.5227933971824616,B,4103.074200000037,Correct
16,316,48,B,49.31959497768625,36.23813389545225,2.4659797488843127,0.5692272761287802,B,965.7596000001831,Correct
16,316,49,A,57.223106986976035,69.7307931557699,2.861155349348802,1.0953287375357805,A,619.589299999916,Correct
16,316,50,A,16.8284138075879,32.17964620266145,0.841420690379395,0.5054767005269996,A,647.7276999999049,Correct
16,316,51,A,46.32572728546839,58.04551741516128,2.3162863642734193,0.9117768554264454,A,772.1676999999545,Correct
16,316,52,A,35.06820644046911,64.82513957383358,1.7534103220234556,1.0182709112654427,A,694.663300000002,Correct
16,316,53,A,14.980773024474328,33.50797045333567,0.7490386512237164,0.526341969064516,A,1525.5478999999923,Correct
16,316,54,B,72.5790748214928,42.03822815332822,3.6289537410746395,0.6603349436821377,B,1625.1927000000705,Correct
16,316,55,B,57.48929549404579,44.20606876442854,2.8744647747022896,0.6943873043720696,B,1558.145199999899,Correct
16,316,56,B,62.9427983484788,46.15070980113069,3.14713991742394,0.7249336543459333,B,605.8974000000035,Correct
16,316,57,B,46.00972051098762,34.75827866410098,2.300486025549381,0.5459817645128324,B,1726.198199999999,Correct
16,316,58,B,46.55769923963687,22.228477138851996,2.327884961981843,0.34916410239953044,B,1926.7697000000226,Correct
16,316,59,B,56.49266716286859,39.34458242156886,2.8246333581434295,0.6180232554707942,B,4587.188500000138,Correct
16,316,60,A,16.46233540917918,32.91720358521154,0.8231167704589589,0.5170622248001008,A,708.8831999999456,Correct
16,316,61,B,56.31675153072041,45.27415531733628,2.8158375765360204,0.7111647687121347,A,1056.523999999854,Incorrect
16,316,62,A,29.345717811683635,42.11355275246399,1.467285890584182,0.6615181397185352,B,2666.4601999998467,Incorrect
16,316,63,B,78.44023175381353,66.29712601624023,3.9220115876906765,1.0413928202336853,B,1304.560600000059,Correct
16,316,64,A,20.607606135591066,52.080961461961586,1.0303803067795534,0.8180858296039584,A,611.5993000000799,Correct
16,316,65,A,24.83246783813815,38.24073785441333,1.2416233919069075,0.6006841055563901,A,763.8959999999315,Correct
16,316,66,A,38.863686413901846,63.1380244581986,1.9431843206950925,0.9917697690002469,A,665.4696000000513,Correct
16,316,67,A,55.852114797371144,77.7358786332214,2.792605739868557,1.2210723261723808,A,574.6953999998823,Correct
16,316,68,B,68.16381094808948,53.08313707126815,3.4081905474044736,0.83382796726298,B,1509.8553000000265,Correct
16,316,69,B,76.56590149056375,47.168526882577474,3.8282950745281874,0.7409214876747904,B,695.0133000000278,Correct
16,316,70,B,63.651931195917896,40.75209826175175,3.1825965597958947,0.6401324625874434,B,1501.1036999999305,Correct
16,316,71,B,83.67743937602893,66.9093810400197,4.183871968801446,1.0510100996578304,B,503.60790000013367,Correct
16,316,72,B,45.86923507486373,36.80460385904154,2.2934617537431863,0.5781253655092372,B,4620.0405000001865,Correct
16,316,73,B,58.2918951106924,47.892998886305634,2.9145947555346203,0.7523014672980096,B,2109.1526999998678,Correct
16,316,74,B,66.28076193177381,34.616269402334424,3.3140380965886904,0.5437510882452948,B,1018.4321000001546,Correct
16,316,75,B,84.35250721787651,69.36567347130453,4.217625360893825,1.0895934509437937,B,1699.2932000000565,Correct
16,316,76,A,32.541888554367,57.7582271266492,1.6270944277183501,0.9072641101272592,A,1451.578100000006,Correct
16,316,77,B,49.02723377523475,30.01279471666131,2.4513616887617373,0.47143987697780865,B,1073.9340999998603,Correct
16,316,78,A,42.97921899921657,67.96335006240321,2.148960949960829,1.0675658063469866,A,538.2478999999876,Correct
16,316,79,A,51.639615437990244,61.79634190970492,2.581980771899512,0.9706946688112601,A,619.1320999998879,Correct
16,316,80,B,60.50555115844485,37.197734596806356,3.0252775579222426,0.5843006486975487,B,3589.8769999998876,Correct
16,316,81,A,16.040785708963135,31.639486310189426,0.8020392854481568,0.4969918887772296,A,534.2040000000452,Correct
16,316,82,B,44.64089133868192,26.037387150696162,2.232044566934096,0.40899432095650173,B,772.5004000001263,Correct
16,316,83,A,30.358032420308618,60.30003150828704,1.517901621015431,0.9471906799883382,A,844.2790999999943,Correct
16,316,84,B,70.81181276011814,46.631254337105204,3.540590638005907,0.7324820302656344,B,1344.1431000001103,Correct
16,316,85,A,45.86784277847102,66.93966126355981,2.293392138923551,1.0514857402969437,B,1516.5916999999354,Incorrect
16,316,86,A,56.332518289310855,70.48673333540128,2.816625914465543,1.1072030181101973,A,519.9157000001833,Correct
16,316,87,B,54.526578802714155,44.25001823713029,2.7263289401357076,0.6950776610749144,B,1571.7589000000771,Correct
16,316,88,B,61.157760168076535,37.314891249225994,3.057888008403827,0.5861409410903521,B,1119.3958000001203,Correct
16,316,89,B,37.1313350849657,16.694348195852967,1.856566754248285,0.26223420824280846,B,605.4492000002938,Correct
16,316,90,B,54.99977954695892,24.500656027668263,2.749988977347946,0.38485540492326553,B,566.6337000002386,Correct
16,316,91,B,54.270479243355716,45.11816187577086,2.713523962167786,0.7087144294619842,A,2815.747800000281,Incorrect
16,316,92,A,30.143790778774118,50.79412485323502,1.507189538938706,0.7978722474222293,A,823.7589000000298,Correct
16,316,93,B,82.15261080076634,51.27464120955343,4.1076305400383175,0.8054201806969276,B,547.8997999998683,Correct
16,316,94,B,89.00200782264831,68.80464467998887,4.450100391132415,1.0807808312975453,B,554.8383000000285,Correct
16,316,95,A,62.169988329915995,72.03406597739037,3.1084994164957997,1.1315084624138603,A,606.7207000000963,Correct
16,316,96,B,74.19086009299886,52.914749490109,3.7095430046499427,0.8311829413233535,B,1674.5734000000994,Correct
16,316,97,A,33.60141770970771,64.22293106404759,1.6800708854853854,1.0088114421140781,A,605.0712999999632,Correct
16,316,98,A,28.524226489058012,50.89261430733935,1.4262113244529007,0.7994193161495805,A,1082.3233999999502,Correct
16,316,99,B,49.460382167247474,27.733836032827362,2.4730191083623736,0.4356420776829716,B,1030.5100999999013,Correct
16,316,100,A,42.44531067144413,68.74243174306686,2.1222655335722065,1.079803592769583,A,957.4164999999084,Correct
16,316,101,B,40.1001640919261,31.30519113490123,2.0050082045963054,0.4917407924431501,A,2884.892300000047,Incorrect
16,316,102,B,39.63087684684362,19.967983595669235,1.981543842342181,0.31365635285577986,B,596.0987999997087,Correct
16,316,103,B,70.65818938611312,56.48349519154809,3.532909469305656,0.8872406677142094,B,648.7867000000733,Correct
16,316,104,A,35.81692241674481,62.23910213601509,1.7908461208372404,0.9776495301826489,A,681.9119000001592,Correct
16,316,105,B,67.14056431725919,49.99962941979156,3.3570282158629596,0.7853923423371463,B,1379.0470999997524,Correct
16,316,106,A,58.52762214189232,85.77071347233236,2.926381107094616,1.347283216689172,A,646.9167000000198,Correct
16,316,107,A,35.39709711752685,63.743798718259285,1.7698548558763423,1.0012852488259492,A,1200.057900000047,Correct
16,316,108,B,43.06346985817216,21.145033668390056,2.1531734929086084,0.3321454121626151,B,707.3740999999245,Correct
16,316,109,A,35.53672637483999,67.48264008168653,1.7768363187419995,1.0600148316273525,A,1245.336099999804,Correct
16,316,110,A,37.92160451098145,48.42417848038997,1.8960802255490727,0.7606452168505704,A,2809.779299999718,Correct
16,316,111,A,39.07613003093389,64.41859131224484,1.9538065015466943,1.0118848661057585,A,878.7364999998317,Correct
16,316,112,A,60.50612495847412,78.30545934152201,3.025306247923706,1.2300192790164988,B,1652.0112999996854,Incorrect
16,316,113,A,50.5586627976516,59.64625752872776,2.52793313988258,0.93692122233188,A,666.094200000316,Correct
16,316,114,B,51.70373358445135,40.86970452122013,2.5851866792225673,0.6419798173912535,B,906.9337999999334,Correct
16,316,115,A,43.013472964908026,61.60437962400282,2.150673648245401,0.9676793322786199,A,1428.8877000003595,Correct
16,316,116,A,35.24019139667657,67.01985756190373,1.7620095698338287,1.0527454608055555,A,566.5468000001965,Correct
16,316,117,B,33.534075400358276,13.86255559234528,1.676703770017914,0.21775251404446017,B,569.9014000001625,Correct
16,316,118,B,59.40879542930055,31.403114398706172,2.9704397714650277,0.49327896747407585,B,996.1327999999412,Correct
16,316,119,B,74.40433204402969,60.114256490105554,3.720216602201484,0.9442725328266407,B,570.7596000002013,Correct
16,316,120,A,52.19715749358769,80.48772462607283,2.6098578746793843,1.2642982219471433,A,476.6908000001422,Correct
16,316,121,A,59.38029030703231,83.40023754548848,2.969014515351615,1.3100478679027512,A,652.7317000000039,Correct
16,316,122,A,27.19569180758965,56.89082465250026,1.3597845903794825,0.8936389839247996,A,589.5566999997754,Correct
16,316,123,A,41.486125009512406,51.87141193722441,2.0743062504756207,0.8147942333665706,A,579.3808000003082,Correct
16,316,124,B,42.95370400900107,30.67943901889086,2.1476852004500535,0.4819115011900179,B,2136.6554999999607,Correct
16,316,125,A,49.04031649458783,68.17793110132361,2.4520158247293917,1.0709364374243466,A,570.3312999999071,Correct
16,316,126,A,33.79799983337905,67.16789843728324,1.6898999916689526,1.055070881438172,A,619.4325999999819,Correct
16,316,127,B,54.22834829988031,40.891111792529784,2.711417414994015,0.6423160820226527,B,1357.9430999998294,Correct
16,316,128,B,81.182393265569,66.78014692695307,4.05911966327845,1.0489800949568138,B,1178.911799999696,Correct
16,316,129,A,22.249762466336954,33.49798752270493,1.1124881233168478,0.5261851575568619,A,1323.4701999999743,Correct
16,316,130,A,63.07841216381071,80.37510452769116,3.1539206081905355,1.2625291895785313,A,1195.228600000064,Correct
16,316,131,B,87.70626400257548,60.04644861960364,4.385313200128774,0.9432074092875188,B,456.217899999956,Correct
16,316,132,B,67.07840673634936,42.759472826069896,3.3539203368174686,0.6716642285087678,B,1302.27560000003,Correct
16,316,133,B,77.83483885451341,46.81319078534575,3.8917419427256705,0.7353398813116983,B,543.4363999997913,Correct
16,316,134,A,50.648604428977606,61.4816197704652,2.5324302214488803,0.9657510250084723,A,654.6174000000065,Correct
16,316,135,A,66.3647805371781,81.69766000332231,3.318239026858905,1.2833038424095702,A,1981.533600000148,Correct
16,316,136,B,73.76158236244751,53.86695384521711,3.6880791181223755,0.8461401323569727,B,1432.589299999563,Correct
16,316,137,B,43.82465307442429,34.993917995973554,2.191232653721215,0.5496831784823709,B,733.3056000002216,Correct
16,316,138,A,59.68161474414234,86.8603730987389,2.9840807372071168,1.3643995500753332,A,766.6936000000533,Correct
16,316,139,B,81.30760070861203,58.96008912693841,4.065380035430602,0.9261429142809458,B,744.9518000003081,Correct
16,316,140,B,37.974449409193554,21.72127583271643,1.8987224704596775,0.3411970029132973,B,834.6197000000757,Correct
16,316,141,A,36.61519439567879,68.68265309130129,1.8307597197839396,1.078864591903442,A,539.4326999999066,Correct
16,316,142,B,87.40416070329204,61.96746629977797,4.370208035164602,0.9733826844447778,B,759.3085000003157,Correct
16,316,143,B,62.62363896569989,54.39354794529174,3.1311819482849943,0.8544118531380636,B,1623.0486999997993,Correct
16,316,144,A,46.68774008874975,76.48625496061791,2.3343870044374877,1.2014432834243653,A,483.47069999999803,Correct
16,316,145,A,58.155613780102854,71.48188075698346,2.9077806890051425,1.1228347572546042,A,732.8723999999056,Correct
16,316,146,A,25.716494436099815,51.45341030852984,1.2858247218049907,0.8082282791370934,A,551.941799999895,Correct
16,316,147,A,12.815700738119787,40.3999490671943,0.6407850369059893,0.6346009159744972,A,612.9273999999896,Correct
16,316,148,A,34.577573838372324,62.28158906650065,1.7288786919186163,0.9783169133260842,A,664.527100000214,Correct
16,316,149,B,81.16667512836628,50.594259026820154,4.058333756418314,0.7947327623623863,B,576.8290000000889,Correct
16,316,150,B,53.460237885450965,34.32006703606863,2.6730118942725483,0.539098352356112,B,2612.704399999984,Correct
16,316,151,B,69.02976007592962,52.112616396305754,3.451488003796481,0.8185830641498858,B,1695.4858999997668,Correct
16,316,152,B,55.64061054498858,38.50773816981077,2.782030527249429,0.604878136703184,B,2323.5930000000735,Correct
16,316,153,A,46.99801591776581,67.97880497805264,2.3499007958882907,1.0678085715943173,A,704.8776000001453,Correct
16,316,154,B,35.22461856396957,18.789497179764115,1.7612309281984784,0.29514473152296544,B,994.8740000004364,Correct
16,316,155,B,81.13351155749059,56.89948823684851,4.05667557787453,0.8937750711895106,B,863.8478000002578,Correct
16,316,156,B,44.73233157816338,26.793912012169887,2.236616578908169,0.42087778569182116,A,564.5926999995936,Incorrect
16,316,157,A,38.16686327884031,57.321967205573706,1.9083431639420154,0.9004113553117269,A,1282.885300000089,Correct
16,316,158,B,66.74027874208639,38.53995807915678,3.3370139371043193,0.6053842458556876,B,702.817800000048,Correct
16,316,159,A,51.91181321771245,74.80351996816447,2.5955906608856223,1.1750109439732146,A,755.2266999996391,Correct
16,316,160,A,26.257097305950566,52.12088545700187,1.3128548652975283,0.8187129542515608,A,1018.685000000005,Correct
16,316,161,A,47.896404617088734,76.88716442455029,2.3948202308544366,1.2077407545575884,A,1468.622399999731,Correct
16,316,162,A,64.68562498750637,83.51204540308507,3.2342812493753184,1.3118041416229465,A,1023.9784000000327,Correct
16,316,163,A,64.73011507602315,75.96046887185659,3.2365057538011577,1.1931842548553044,A,3178.1998999999814,Correct
16,316,164,B,84.94931896546598,57.9210140763195,4.247465948273299,0.9098211615531817,B,806.359600000178,Correct
16,316,165,B,54.69003092487595,28.79923566832337,2.7345015462437976,0.45237733602302915,B,710.9378000000106,Correct
16,316,166,B,65.81337928580454,54.82482920585008,3.2906689642902274,0.8611864033370688,A,1811.3547000002654,Incorrect
16,316,167,B,41.23257419143118,28.346433877071952,2.061628709571559,0.44526474211839034,B,853.037200000017,Correct
16,316,168,B,62.98835695555263,40.46395381255329,3.1494178477776313,0.6356063001635707,B,1533.8968999999452,Correct
16,316,169,B,33.18465304323034,17.94320107064629,1.6592326521615173,0.28185114332713446,B,1381.3650000001871,Correct
16,316,170,A,10.376467039393525,33.84157796745485,0.5188233519696762,0.5315822636422118,A,989.9390000000494,Correct
16,316,171,A,28.35862317882765,60.25381034383814,1.4179311589413826,0.946464639634973,A,749.1178999998738,Correct
16,316,172,B,45.981646683340294,22.83971029646057,2.299082334167015,0.35876533038739844,B,1294.7918999998365,Correct
16,316,173,A,20.660660245496548,47.2813626885571,1.0330330122748272,0.7426939083704277,A,1156.0291000000689,Correct
16,316,174,A,15.907000472438394,33.69463178645907,0.7953500236219198,0.5292740384287646,A,774.5632999999543,Correct
16,316,175,A,41.66869525974293,51.71184022353567,2.083434762987147,0.8122876867493442,A,1145.321800000147,Correct
16,316,176,B,49.36932824964369,22.126277931859963,2.4684664124821842,0.34755876101008615,B,3353.3355999998093,Correct
16,316,177,A,20.210237369475745,41.731478504692774,1.0105118684737873,0.655516531468916,A,740.1362000000518,Correct
16,316,178,A,32.43603298843986,52.42312909266722,1.6218016494219933,0.8234605861785634,A,896.8515000001389,Correct
16,316,179,B,61.88116923647705,36.21881929218363,3.0940584618238525,0.5689238830501019,B,685.2894999997261,Correct
16,316,180,B,61.495048231315046,52.10562127369543,3.0747524115657523,0.818473185020868,B,511.4966999999524,Correct
16,316,181,B,72.16729669956457,43.8265416611173,3.6083648349782287,0.6884257065740654,B,1551.2603000001945,Correct
16,316,182,A,54.5094468245843,64.74977193307583,2.725472341229215,1.0170870391328282,A,2680.8931000000484,Correct
16,316,183,A,17.128845828536043,35.7802817891433,0.8564422914268022,0.5620353520607263,A,1728.6802999997235,Correct
16,316,184,B,59.74505544647374,49.42310686466034,2.9872527723236875,0.7763363472180009,B,2515.6991999997445,Correct
16,316,185,B,78.48941662148003,61.35927941840887,3.9244708310740015,0.9638293072521834,B,1125.679499999933,Correct
16,316,186,B,55.184606103841155,35.31237420611044,2.759230305192058,0.5546854769336513,B,1456.2101999999868,Correct
16,316,187,B,45.850117353820686,19.151017410933328,2.2925058676910344,0.3008234780347918,B,1159.6446000003198,Correct
16,316,188,B,57.954004195798035,31.312979639118034,2.8977002097899014,0.49186313398129994,B,680.2351999999701,Correct
16,316,189,A,34.907767729605666,58.04595970997486,1.7453883864802833,0.9117838029771306,A,1044.6492000000944,Correct
16,316,190,B,83.60130728477039,60.37520446102684,4.180065364238519,0.948371493968718,B,569.6320000001833,Correct
16,316,191,B,76.25952228457108,63.7989314752607,3.8129761142285536,1.0021512721477883,B,1502.899399999933,Correct
16,316,192,A,38.052514869159374,46.610174305260486,1.9026257434579688,0.7321509058997304,A,698.7949999997909,Correct
16,316,193,B,37.99906296887819,24.590858247537575,1.8999531484439098,0.3862722980796601,B,675.0780000002123,Correct
16,316,194,A,40.76621840596649,57.744409114624986,2.0383109202983247,0.9070470573019468,A,619.6628999996392,Correct
16,316,195,B,66.34837199057894,54.469075595326004,3.317418599528947,0.8555982386905162,A,2446.428399999604,Incorrect
16,316,196,A,50.50150663105673,77.42792717993004,2.525075331552836,1.216235036055768,A,988.4865999997601,Correct
16,316,197,A,62.38705319335794,85.68415862510838,3.119352659667897,1.345923616328315,B,553.769199999806,Incorrect
16,316,198,B,79.16104585431003,51.9162410896674,3.9580522927155015,0.8154984080464782,B,520.6813999998303,Correct
16,316,199,B,75.71517809215929,50.012181226134075,3.785758904607965,0.785589505650121,B,1641.2645999998858,Correct
16,316,200,B,68.57161256287935,39.817912798996915,3.4285806281439677,0.6254583116530386,B,1468.0304000003161,Correct
16,316,201,B,59.383151692643,28.998275815622744,2.9691575846321494,0.4555038513456549,B,874.66859999995,Correct
16,316,202,B,65.03227672425596,44.18059873746893,3.251613836212798,0.6939872221241543,B,476.3441000000057,Correct
16,316,203,B,76.18388055992195,58.20952791017922,3.809194027996097,0.9143531262577452,B,521.0399000002326,Correct
16,316,204,A,19.53028796096405,43.93278574107093,0.9765143980482024,0.6900945846794143,A,540.9334000000854,Correct
16,316,205,B,79.33144701936475,63.00376528692426,3.9665723509682373,0.9896608308694845,B,941.7945000000145,Correct
16,316,206,B,65.55908081360498,32.689695406174046,3.2779540406802488,0.5134885346806219,B,814.3354999997428,Correct
16,316,207,B,68.70399939552941,37.560361726722725,3.4351999697764706,0.5899967823342367,B,569.959899999958,Correct
16,316,208,B,68.62569147891344,44.89395143671679,3.431284573945672,0.705192540121032,B,671.5128000000732,Correct
16,316,209,B,72.20206724915225,51.32024559948772,3.610103362457613,0.8061365327788725,B,1333.2737999999154,Correct
16,316,210,A,34.21134674744756,43.08802663071706,1.7105673373723778,0.6768251396037104,A,1145.7251000001634,Correct
16,316,211,B,70.20693294182114,41.24649184642397,3.510346647091057,0.6478983788553843,B,570.5990999999813,Correct
16,316,212,A,37.97155374451399,50.27255497021967,1.8985776872256994,0.7896794468581558,A,608.4149999996953,Correct
16,316,213,A,31.905450838681816,45.855812502235715,1.5952725419340907,0.7203014184070735,B,567.2844000000623,Incorrect
16,316,214,A,41.35839635122333,69.82578459598388,2.067919817561166,1.0968208595894315,A,642.6265999998577,Correct
16,316,215,B,51.11746265422806,26.663232692317315,2.5558731327114033,0.41882507973569644,B,591.6152999998303,Correct
16,316,216,A,22.99226801738082,44.93772636716234,1.149613400869041,0.7058801551205277,A,554.366299999856,Correct
16,316,217,B,81.02734091454072,57.30678450533733,4.051367045727036,0.9001728660141057,B,541.4362000001347,Correct
16,316,218,A,46.474136611637164,68.52281446625982,2.323706830581858,1.0763538526524912,A,657.8589000000648,Correct
16,316,219,B,65.42668509954052,49.45607509763904,3.271334254977026,0.7768542110106396,A,1055.946799999674,Incorrect
16,316,220,B,44.54497553866732,29.870658303706364,2.2272487769333664,0.46920720342407435,B,734.3284999997195,Correct
16,316,221,B,43.003724594414834,15.068245454258644,2.1501862297207417,0.23669144610793375,B,430.069900000035,Correct
16,316,222,B,73.95497865067989,54.51964184171308,3.6977489325339947,0.8563925314313625,B,429.80179999995016,Correct
16,316,223,A,25.80602660155069,49.718083706761526,1.2903013300775346,0.7809698326186221,A,641.4040999998178,Correct
16,316,224,A,31.494500105536225,46.653361991502905,1.5747250052768111,0.7328292964888541,A,1145.9592999999586,Correct
16,316,225,B,47.832907843342646,27.352152490789123,2.391645392167132,0.4296466066246543,A,544.3156999999701,Incorrect
16,316,226,B,37.051179973854644,12.387411896196252,1.852558998692732,0.1945810110504048,B,582.9859999998916,Correct
16,316,227,A,51.487609748858766,59.406104759258056,2.5743804874429386,0.9331489114503538,A,715.1260000000548,Correct
16,316,228,A,59.83731215165665,87.44200816054746,2.9918656075828323,1.3735358522615733,A,652.2650000001704,Correct
16,316,229,A,44.78554451775938,62.455931590101095,2.2392772258879687,0.9810554792828415,A,856.6769999997632,Correct
16,316,230,B,77.59430911150527,59.20372665951564,3.8797154555752633,0.9299699636933626,B,486.47200000004887,Correct
16,316,231,A,55.63928727866196,65.32431588878859,2.7819643639330978,1.0261119544849862,A,1980.3093000000445,Correct
16,316,232,A,49.420631594977834,69.33704155725147,2.4710315797488915,1.089143701889557,A,1317.148300000099,Correct
16,316,233,B,34.539765278709446,11.415650322528798,1.7269882639354721,0.1793166159460321,B,655.6694999999308,Correct
16,316,234,A,46.779675281228606,59.1138145871818,2.3389837640614304,0.9285576281637974,A,1072.2326000000066,Correct
16,316,235,A,37.10973334373861,53.08592029233716,1.8554866671869306,0.8338716859972988,A,759.9618999997801,Correct
16,316,236,B,37.62861473857217,17.724981479603887,1.8814307369286083,0.27842335800669354,B,1311.7177999997693,Correct
16,316,237,A,26.503903213158722,51.65801810909428,1.325195160657936,0.8114422509526954,A,855.9942000001683,Correct
16,316,238,A,53.642549755069325,76.03069424056999,2.6821274877534664,1.1942873523675324,A,537.6604000002771,Correct
16,316,239,A,32.37327073456622,60.171778702598445,1.618663536728311,0.9451760896275703,A,533.8385999998536,Correct
16,316,240,B,36.8841970264688,23.205976477745466,1.84420985132344,0.36451862610931346,B,590.1063999999678,Correct
16,316,241,A,25.19421363029327,50.60691475558825,1.2597106815146635,0.7949315580850047,A,528.876400000172,Correct
16,316,242,B,85.96685409024741,58.089405359571415,4.29834270451237,0.9124662456451456,B,561.1917999999605,Correct
16,316,243,B,55.01454604653978,44.920814155567236,2.7507273023269887,0.7056144987220121,A,800.0840999998218,Incorrect
16,316,244,B,83.21065928251564,59.996616183018,4.160532964125782,0.9424246432040793,A,595.9473000002617,Incorrect
16,316,245,A,37.52602845675477,67.0880891684913,1.8763014228377386,1.0538172403755461,A,880.1626999998007,Correct
16,316,246,A,27.589806960767227,50.610187962853786,1.3794903480383613,0.7949829735045002,A,973.6589999997705,Correct
16,316,247,B,53.33369750102176,42.72081007129471,2.666684875051088,0.6710569153769215,B,1113.825000000361,Correct
16,316,248,B,48.59432030829532,25.549470114618636,2.4297160154147663,0.4013301380759893,B,1578.4153999998125,Correct
16,316,249,B,67.60381861410707,46.87851149724041,3.3801909307053535,0.7363659366547757,B,3270.836099999997,Correct
16,316,250,B,71.49178484346949,45.26441892193041,3.574589242173474,0.711011829770737,B,2646.3032000001476,Correct
16,316,251,B,52.9109458843843,30.998328679012353,2.645547294219215,0.486920608257735,A,2137.677900000199,Incorrect
16,316,252,B,71.11303709304981,61.62477167777256,3.5556518546524902,0.967999649910193,A,568.2755000002544,Incorrect
16,316,253,A,37.91541418421352,67.89134491426813,1.895770709210676,1.0664347521249775,A,752.8618999999708,Correct
16,316,254,A,61.15959867026438,69.91318435907638,3.057979933513219,1.098193731857716,A,781.5676999998686,Correct
16,316,255,B,35.281672870071844,14.507048232755935,1.7640836435035923,0.22787618076649419,B,753.9952000001904,Correct
16,316,256,A,54.441638994286656,79.15300451835311,2.7220819497143327,1.243332487522089,A,722.8653000001941,Correct
16,316,257,B,81.21905267568478,50.39730451106715,4.060952633784239,0.7916390080634815,B,723.6883999999009,Correct
16,316,258,B,57.96023427642466,28.709444233840557,2.898011713821233,0.4509668954683967,B,806.1797999998817,Correct
16,316,259,A,23.488290603262495,55.255225202647296,1.1744145301631248,0.8679470478454316,A,1681.5071000000898,Correct
16,316,260,A,49.59599812722432,57.08685734665894,2.479799906361216,0.8967182582839612,A,1094.2288999999619,Correct
16,316,261,A,46.24759759786766,65.02609697241068,2.312379879893383,1.0214275427007147,A,561.012699999992,Correct
16,316,262,B,75.58487606286221,48.84062121982035,3.779243803143111,0.7671866841047469,B,1618.9355999999862,Correct
16,316,263,B,49.78446211767226,34.14034238407322,2.489223105883613,0.5362752441242233,B,1566.5570999999545,Correct
16,316,264,A,50.332587133272696,81.00604518031716,2.5166293566636346,1.2724399821742363,A,678.5538999997698,Correct
16,316,265,A,50.95938511206536,76.71166595340905,2.5479692556032685,1.2049840310193205,A,596.3963999997759,Correct
16,316,266,A,19.63753752983753,35.367121136587976,0.9818768764918765,0.5555454397066254,A,716.4204999999129,Correct
16,316,267,B,57.71941667759431,26.07584438860176,2.885970833879716,0.4095984058369096,B,593.9565000003313,Correct
16,316,268,B,48.95610553030551,29.457881123930953,2.4478052765152754,0.4627233146463146,B,563.6083999997936,Correct
16,316,269,A,59.53817830065718,70.47564189945435,2.976908915032859,1.1070287942417538,A,1630.1220999998804,Correct
16,316,270,B,87.13710940006844,65.87306986436144,4.356855470003421,1.0347317617764256,B,618.8124000000244,Correct
16,316,271,A,59.22151593107351,81.7932068796753,2.9610757965536756,1.2848046892336902,A,681.1938000000737,Correct
16,316,272,B,69.35276950115939,60.779972879056075,3.4676384750579694,0.954729581411147,B,1002.3158000003605,Correct
16,316,273,A,48.87348728796228,65.42295510221322,2.443674364398114,1.0276613756262398,A,618.333999999777,Correct
16,316,274,B,37.89609503806162,14.34100340362286,1.8948047519030808,0.22526795468963898,B,976.1407999999392,Correct
16,316,275,A,17.614570503848096,43.233697697504354,0.8807285251924049,0.6791133353700082,A,630.7993999998871,Correct
16,316,276,A,32.351206103661625,52.205646205574084,1.6175603051830814,0.8200443729766971,A,885.1134999999886,Correct
16,316,277,A,32.816332408829126,55.67160573639801,1.6408166204414563,0.8744875379750768,A,751.6147000001183,Correct
16,316,278,A,47.09073576543746,56.00340505955153,2.3545367882718726,0.8796994295555027,A,1068.3336000001873,Correct
16,316,279,A,24.785497523477883,55.30365677144441,1.239274876173894,0.8687078091491058,A,690.657299999657,Correct
16,316,280,A,33.9594469220837,43.25357495078848,1.6979723461041851,0.679425566534463,A,1138.4486000001743,Correct
16,316,281,A,26.499842281818363,41.42129149833853,1.3249921140909182,0.6506441253669084,A,658.4453999998914,Correct
16,316,282,A,38.618097861156144,61.83987883352921,1.9309048930578072,0.9713785452114916,A,1818.4831999997186,Correct
16,316,283,B,80.70815086776962,63.007627686699536,4.035407543388481,0.9897215013032806,B,1029.8084999999446,Correct
16,316,284,A,20.169165113495254,51.39962241440576,1.0084582556747628,0.8073833808719321,A,1494.944999999916,Correct
16,316,285,A,47.22747813020195,59.637019092307895,2.3613739065100976,0.9367761053119436,A,1576.327200000378,Correct
16,316,286,B,70.4095533863152,51.28011974204421,3.5204776693157602,0.8055062372840549,B,888.3304999999382,Correct
16,316,287,A,41.62161440458999,68.98771402537072,2.0810807202294996,1.083656477850291,A,2253.3462000001236,Correct
16,316,288,B,52.237565678791036,28.36015702650991,2.611878283939552,0.44548030484568246,B,647.0322000000124,Correct
16,316,289,A,53.7617901245261,69.98803705005093,2.688089506226305,1.0993695151780511,B,963.7437000001228,Incorrect
16,316,290,B,52.41331613716974,32.80630895439909,2.620665806858487,0.5153202960126861,B,786.6469000000507,Correct
16,316,291,B,56.008402917330194,39.721387778976535,2.8004201458665094,0.6239421001841203,B,1839.115600000241,Correct
16,316,292,A,27.888308436185383,47.50978301081861,1.3944154218092693,0.7462819264021645,A,605.69919999989,Correct
16,316,293,B,81.32667422007337,58.36893854720384,4.066333711003669,0.9168571426886484,B,654.0184999998928,Correct
16,316,294,A,51.137294143180476,58.031318436146215,2.556864707159024,0.9115538183856343,A,628.3735000001798,Correct
16,316,295,A,53.729380633038055,71.96446065056068,2.6864690316519027,1.130415104496766,A,610.7459999998355,Correct
16,316,296,A,24.550770888729424,56.68273635002217,1.2275385444364713,0.8903703405129838,A,623.4319999998661,Correct
16,316,297,B,47.81145208612082,34.50127275727128,2.3905726043060413,0.5419447251687056,B,2120.2997999998843,Correct
16,316,298,A,61.012527522727886,72.9239173128982,3.0506263761363943,1.1454862145059523,B,869.549300000017,Incorrect
16,316,299,B,42.633565926045236,34.66808343493557,2.131678296302262,0.5445649811661579,B,4050.8186000001842,Correct
16,316,300,B,80.23093443092095,61.547214302276615,4.011546721546048,0.9667813815047442,B,849.2203999999219,Correct
16,316,301,A,60.839675378773634,82.15571751136736,3.0419837689386817,1.2904989929205501,A,645.0709999999162,Correct
16,316,302,A,31.472969707241525,44.356729313379965,1.5736484853620762,0.6967538747409276,A,3665.495999999621,Correct
16,316,303,B,85.22072099351523,58.37503077751002,4.261036049675761,0.9169528392185178,B,629.4622000000345,Correct
16,316,304,B,47.56169556338973,34.62528668809781,2.3780847781694865,0.5438927314388426,B,3598.7795999999435,Correct
16,316,305,B,43.06635550799122,32.43278398202547,2.153317775399561,0.5094529794669798,B,1709.1703999999481,Correct
16,316,306,A,38.23143892710826,54.374931989201386,1.9115719463554128,0.8541194343835986,A,673.6055000001215,Correct
16,316,307,B,69.60489982473766,42.14807566180445,3.480244991236883,0.6620604243103579,B,678.5757000002377,Correct
16,316,308,B,51.36103549119609,43.86475416935449,2.568051774559805,0.6890259472498316,B,1057.0841000003384,Correct
16,316,309,B,40.06497449539765,17.946968568698,2.0032487247698825,0.2819103230481428,B,1501.7932999999175,Correct
16,316,310,A,38.77094012797781,58.30259967702954,1.9385470063988905,0.9158150941527133,A,1232.8387000002294,Correct
16,316,311,B,39.71260136129996,27.0399573116717,1.985630068064998,0.4247426562186471,B,977.9804999998305,Correct
16,316,312,A,52.80482234091593,64.42168812073908,2.640241117045797,1.0119335106598335,B,632.0720000003348,Incorrect
16,316,313,A,38.20685358741681,45.890922971733886,1.9103426793708405,0.7208529323722713,A,808.6118999999599,Correct
16,316,314,B,74.51333802910021,59.855301485548075,3.7256669014550106,0.9402048771270005,B,692.2488999998677,Correct
16,316,315,B,83.0612397024694,56.93567452147798,4.153061985123469,0.8943434840192738,B,736.9462999999996,Correct
16,316,316,B,81.97505852523759,56.22250829350908,4.09875292626188,0.8831410951063968,B,666.057599999931,Correct
16,316,317,A,65.50494135462459,82.07401105940016,3.2752470677312293,1.2892155509742949,A,691.9960999998693,Correct
16,316,318,B,78.14523275575203,47.07772002989277,3.9072616377876015,0.7394950969683408,B,1559.6153999999842,Correct
16,316,319,B,56.76563655945443,25.679422657430123,2.8382818279727213,0.40337142784504876,B,736.7592000000514,Correct
16,316,320,A,63.910031846854125,80.88661922902065,3.195501592342706,1.270564043718031,A,710.5348999998569,Correct
16,316,321,B,55.38880979797687,42.47394364428041,2.769440489898843,0.6671791466092911,B,689.0566000001854,Correct
16,316,322,B,76.04825550991903,51.686304772235104,3.802412775495952,0.8118865768182844,B,765.4752999997072,Correct
16,316,323,B,52.70257427138398,26.42480814163462,2.635128713569199,0.4150799156513954,B,658.1916000000092,Correct
16,316,324,A,68.33827710683155,86.85165797971928,3.416913855341578,1.3642626533058972,A,561.9173999998566,Correct
16,316,325,A,44.7964900702318,53.999382106111305,2.2398245035115902,0.848220310614737,A,673.1134000001475,Correct
16,316,326,B,35.78539986639643,18.808396413936716,1.7892699933198215,0.29544159999914094,B,838.09089999977,Correct
16,316,327,A,33.27511991804683,43.25933430066226,1.6637559959023418,0.6795160341907275,A,1161.4337999999407,Correct
16,316,328,B,75.61918544384032,59.47914301681822,3.7809592721920158,0.9342961937172638,B,1101.055400000405,Correct
16,316,329,B,46.403989601605524,29.958843527683307,2.320199480080276,0.4705924136830801,B,826.3074000001325,Correct
16,316,330,B,70.5379226368454,59.08492961741269,3.52689613184227,0.9281039041196686,B,1178.8355999997293,Correct
16,316,331,A,29.953498429847002,44.78271041424111,1.4976749214923502,0.7034451702260949,A,470.20770000017365,Correct
16,316,332,B,47.537001228726524,19.93375988323694,2.3768500614363264,0.31311876803800054,B,678.2044999999925,Correct
16,316,333,B,67.28263618592567,37.249225341316624,3.3641318092962833,0.5851094634209554,B,720.1598999999987,Correct
16,316,334,A,26.92573164950049,53.785525077751544,1.3462865824750248,0.8448610522686693,A,505.5542999998579,Correct
16,316,335,A,63.790372345678506,88.2962321646562,3.1895186172839254,1.3869539715407138,A,991.8981999999232,Correct
16,316,336,A,43.040071839321165,53.60222112031066,2.1520035919660585,0.8419817204383181,A,662.8453999996964,Correct
16,316,337,B,74.93774787658678,49.74887903490644,3.7468873938293394,0.7814535645019467,B,604.9299000001156,Correct
16,316,338,B,78.32749620953632,55.96167194503685,3.916374810476816,0.879043887325649,B,706.4367000002676,Correct
16,316,339,B,78.19824838993394,50.3786212280114,3.909912419496697,0.7913455317395169,B,540.1138000001993,Correct
16,316,340,A,28.102037631686272,51.508306609624086,1.4051018815843137,0.8090905882182281,A,598.331700000017,Correct
16,316,341,A,24.264772656249292,46.664947780218725,1.2132386328124647,0.7330112856324325,A,756.1522999999397,Correct
16,316,342,A,62.548818540968355,88.59185527112888,3.1274409270484176,1.3915976084383435,A,659.8897999997462,Correct
16,316,343,B,32.631163154318216,13.525379582294743,1.6315581577159108,0.21245616566375272,B,508.46050000018295,Correct
16,316,344,A,21.140380186126205,34.748686910188795,1.0570190093063103,0.5458310975947046,B,1004.1990999998234,Incorrect
16,316,345,A,36.273581364797856,62.07263172709855,1.8136790682398927,0.9750346191141875,A,649.7466999999233,Correct
16,316,346,B,39.924743884489835,27.722158169225096,1.9962371942244916,0.43545864223045916,B,1339.951800000108,Correct
16,316,347,A,44.98927311741034,75.50544845747804,2.249463655870517,1.1860368109000787,A,495.58429999979126,Correct
16,316,348,B,38.39713735359174,25.951037793419808,1.919856867679587,0.4076379484241937,B,605.1412000001619,Correct
16,316,349,B,79.51452731025744,66.24344138285491,3.975726365512872,1.0405495439844152,B,701.0977999998431,Correct
16,316,350,A,53.098856262301574,71.66751298338043,2.6549428131150785,1.1257506614481954,A,811.9919000000664,Correct
16,316,351,B,74.7720723269248,61.965617417142525,3.7386036163462397,0.9733536422642535,B,1271.9113000002835,Correct
16,316,352,A,19.182376699810543,44.698397434238714,0.9591188349905272,0.702120785033206,A,506.9727000000057,Correct
16,316,353,A,56.66384775487079,72.09602918963364,2.8331923877435394,1.1324817782757415,A,570.1723000001948,Correct
16,316,354,A,17.12199765734094,44.09495594471651,0.8560998828670471,0.6926419482814349,A,526.582800000142,Correct
16,316,355,B,86.90709313191896,69.13380769000932,4.345354656595948,1.085951311768114,B,598.0671000002076,Correct
16,316,356,A,36.44201268058618,47.318416599227696,1.8221006340293089,0.7432759498381754,A,989.7814999999355,Correct
16,316,357,A,21.406753730086926,41.29607365020408,1.0703376865043464,0.6486772080079207,A,798.6299999997755,Correct
16,316,358,A,44.56495230833266,66.96142727979327,2.228247615416633,1.0518276400804285,A,811.0483999998905,Correct
16,316,359,A,47.88539334545204,59.89100110447356,2.3942696672726016,0.9407656454297615,A,819.0927999999076,Correct
16,316,360,B,80.1257661996123,55.53133642679698,4.006288309980615,0.8722841928122435,B,566.6892999997799,Correct
16,316,361,B,49.15635290532419,41.418628202785534,2.4578176452662093,0.6506022904181903,A,1028.243300000213,Incorrect
16,316,362,A,44.80742855244885,68.74547895177797,2.2403714276224425,1.079851458212087,A,589.6166000002268,Correct
16,316,363,B,43.95520760758059,31.49054705440607,2.1977603803790293,0.4946523564182291,B,576.8244000000777,Correct
16,316,364,B,74.92867858428114,63.65970474332761,3.7464339292140574,0.9999643037566666,A,988.277399999788,Incorrect
16,316,365,A,21.054207563175293,43.23227002327704,1.0527103781587648,0.6790909095156868,A,529.2719999997644,Correct
16,316,366,A,61.10076066637177,86.93264128705721,3.055038033318589,1.3655347361228785,A,620.3418000000056,Correct
16,316,367,B,55.39347874268178,43.181155914455985,2.769673937134089,0.6782880109718519,A,1433.579699999882,Incorrect
16,316,368,A,54.62990182294999,62.390629612586714,2.7314950911474996,0.9800297182187211,A,794.9888000002829,Correct
16,316,369,B,69.94399440746224,37.1501396099397,3.497199720373112,0.5835530283921087,B,1335.4006999998091,Correct
16,316,370,B,69.83624024709741,43.151152331857475,3.4918120123548704,0.6778167157984875,B,812.105099999826,Correct
16,316,371,B,62.45177012313833,32.84698376040838,3.1225885061569163,0.515959214371411,B,719.9702999996589,Correct
16,316,372,A,60.85991550164192,71.54850973897243,3.042995775082096,1.1238813628562678,A,634.7787999998218,Correct
16,316,373,A,33.65977741200752,42.52118167548147,1.682988870600376,0.6679211598682476,A,1187.9054000000906,Correct
16,316,374,A,63.73842119549104,81.99885427409227,3.186921059774552,1.2880349909513413,A,481.9938999999067,Correct
16,316,375,A,42.677757400000395,62.424084579459674,2.1338878700000197,0.9805552276094921,A,500.76179999996384,Correct
16,316,376,B,33.993799854927644,22.35766033247907,1.6996899927463824,0.3511933072598609,B,691.9791000000259,Correct
16,316,377,A,39.60851449555701,65.54380504220924,1.9804257247778505,1.0295596820446309,A,527.005200000076,Correct
16,316,378,A,47.31070857367859,57.1018866338806,2.3655354286839296,0.8969543377755825,A,610.0550000001022,Correct
16,316,379,A,52.75515362022581,73.76094505626594,2.6377576810112906,1.1586342155530271,A,516.5549000003011,Correct
16,316,380,B,82.572150789507,65.70075399387987,4.12860753947535,1.0320250304124163,B,599.3456000001061,Correct
16,316,381,A,43.064517125627894,55.24175543925658,2.1532258562813946,0.8677354652968623,A,618.3742999996866,Correct
16,316,382,A,61.764536230492766,78.78586874281802,3.0882268115246383,1.2375655322456338,A,528.7556000002951,Correct
16,316,383,A,43.40544765177028,67.2915155298224,2.170272382588514,1.0570126541870677,A,576.4908999999534,Correct
16,316,384,B,54.88089042499897,44.321235322711686,2.7440445212499482,0.6961963364392775,B,2503.951700000016,Correct
16,316,385,A,13.596935906679768,34.137582252798964,0.6798467953339883,0.5362318880835526,A,577.8925999998137,Correct
16,316,386,B,44.154418940472006,32.75339451558642,2.2077209470236,0.5144891179514727,A,798.8953000003676,Incorrect
16,316,387,A,35.14661547353495,55.696565488505385,1.7573307736767476,0.8748796048443566,A,509.22350000018923,Correct
16,316,388,A,16.149032261758013,32.64593534270712,0.8074516130879006,0.5128011532110804,A,525.544600000103,Correct
16,316,389,A,29.123398458641997,55.27840453975729,1.4561699229321,0.8683111480213308,A,646.6591000003064,Correct
16,316,390,B,60.06974729212758,47.3608199647852,3.003487364606379,0.7439420203467899,B,541.307400000278,Correct
16,316,391,A,21.707344160281632,51.43276611286537,1.0853672080140817,0.8079040008698997,A,601.9851999999446,Correct
16,316,392,A,52.46950833969859,61.15443038850342,2.6234754169849293,0.9606115462149537,A,624.9249000002237,Correct
16,316,393,A,50.71133686661409,81.79208758542566,2.5355668433307046,1.284787107400731,A,507.9760999997234,Correct
16,316,394,B,74.00658613859088,56.9399234565914,3.700329306929544,0.8944102261359634,B,574.1909999997006,Correct
16,316,395,B,51.26085156543372,22.083630427663888,2.563042578271686,0.3468888555807044,B,597.6261999999224,Correct
16,316,396,A,25.631529594905803,45.05226060287585,1.2815764797452902,0.7076792546880382,A,516.5497000002688,Correct
16,316,397,B,73.35508566651984,41.09421961091447,3.667754283325992,0.6455064921732726,B,548.0129000002307,Correct
16,316,398,A,43.4913729489518,71.10886004364662,2.17456864744759,1.116975361591325,A,336.7526000001817,Correct
16,316,399,A,38.58409628316399,61.419825466261386,1.9292048141581994,0.9647803623478703,A,636.3576000003377,Correct
16,316,400,A,34.44664207305825,56.020755415577874,1.7223321036529127,0.8799719683106504,A,522.4130000001423,Correct
16,316,401,A,22.98461303989108,54.97041630024922,1.149230651994554,0.8634732800681778,A,624.5309999999336,Correct
16,316,402,B,45.551083926250264,35.80577386858794,2.277554196312513,0.5624357807082663,B,1200.2359000002798,Correct
16,316,403,B,42.49640693273662,26.648615655627232,2.124820346636831,0.41859547586028234,B,1102.3283999998057,Correct
16,316,404,B,62.053277627847436,51.674933148705,3.1026638813923717,0.8117079517735765,A,1502.6671000000533,Incorrect
16,316,405,B,52.3572876614669,22.61070277499394,2.617864383073345,0.3551680886521165,B,673.9497999997184,Correct
16,316,406,B,60.62590281973255,32.42470381214799,3.0312951409866273,0.5093260564553453,B,550.6859000001896,Correct
16,316,407,B,57.7997422969206,47.13865326498064,2.88998711484603,0.7404522339868985,A,659.6506000000772,Incorrect
16,316,408,A,69.55887807596417,84.4758433367733,3.4779439037982085,1.3269434441630463,A,562.2805999996672,Correct
16,316,409,A,46.65300905719374,62.14212242078815,2.332650452859687,0.976126176378128,A,692.5160000000687,Correct
16,316,410,A,42.628736607046456,59.08434289577853,2.131436830352323,0.9280946879177907,A,1380.8028999997077,Correct
16,316,411,B,59.301225923137025,47.69734548868708,2.9650612961568514,0.7492281509149679,A,1415.3182999998535,Incorrect
16,316,412,A,39.558104654399564,67.53218380517495,1.9779052327199782,1.0607930626160662,A,610.3385999999773,Correct
16,316,413,A,48.25186040405971,78.75092366237435,2.4125930202029853,1.237016616205629,A,596.0098000000471,Correct
16,316,414,B,64.73800867196817,41.09704349922748,3.2369004335984086,0.6455508497071663,B,940.3138999996372,Correct
16,316,415,A,55.354232118752975,63.720760696573834,2.7677116059376488,1.0009233684275478,A,691.2552000003416,Correct
16,316,416,A,19.737816143044704,45.59347092871359,0.9868908071522352,0.7161805666065323,A,615.6679999999142,Correct
16,316,417,B,64.76578902145862,54.12564654724505,3.2382894510729305,0.8502036678181139,A,1395.8341999996264,Incorrect
16,316,418,A,31.21459166356097,50.940736928490125,1.5607295831780486,0.8001752245149742,A,564.9561000000176,Correct
16,316,419,B,64.31562993023365,32.69689582068514,3.2157814965116827,0.5136016385272762,B,529.1028000001461,Correct
16,316,420,B,38.20836050703406,27.559994195360282,1.910418025351703,0.432911376485606,B,1236.42480000035,Correct
16,316,421,A,30.66353688096668,52.25782643504615,1.5331768440483342,0.8208640181045574,A,757.3055999996541,Correct
16,316,422,A,29.490138518183308,42.54424945785537,1.4745069259091652,0.6682835077464498,A,592.6062999997157,Correct
16,316,423,A,19.024137194592157,45.875389314320465,0.9512068597296078,0.7206089302522044,A,602.2808000002442,Correct
16,316,424,A,31.26373710641436,60.35337812122544,1.5631868553207182,0.9480286466248441,A,1222.9836999999861,Correct
16,316,425,A,55.49530092890602,78.74730995062524,2.7747650464453013,1.2369598521542133,A,701.6240000002654,Correct
16,316,426,B,48.02415093144519,18.500927700069905,2.4012075465722598,0.2906118927356776,B,533.9231000002655,Correct
16,316,427,A,29.902697590134466,53.97318778281155,1.4951348795067232,0.8478088511465156,A,873.5265999998774,Correct
16,316,428,A,22.02956926398387,37.16105137694308,1.1014784631991936,0.5837244300273863,A,463.5990000001584,Correct
16,316,429,B,62.03813525377055,53.04794707805962,3.101906762688527,0.833275204142261,A,1212.5788000003013,Incorrect
16,316,430,A,42.57260977747746,49.85267516767019,2.1286304888738727,0.7830839903427549,A,605.4558999999244,Correct
16,316,431,A,34.15787118261605,67.4364916777485,1.7078935591308024,1.0592899341934197,A,639.0986000001249,Correct
16,316,432,B,41.960658070547204,16.23195908261434,2.09803290352736,0.25497101703655667,B,522.4354000001767,Correct
16,316,433,B,60.987353042670925,41.38912003456238,3.0493676521335464,0.6501387771956366,B,648.2574000001478,Correct
16,316,434,B,71.58909537050361,38.44873924370799,3.579454768525181,0.603951383739113,B,584.799600000224,Correct
16,316,435,A,30.48247266217738,58.765961997353244,1.5241236331088688,0.9230935724601096,A,649.4084000000839,Correct
16,316,436,A,62.788634540798284,86.35761016182627,3.139431727039914,1.3565021683298235,A,564.1629000001558,Correct
16,316,437,B,62.38695723541085,44.84731877806635,3.119347861770542,0.7044600360318641,B,894.6417999995901,Correct
16,316,438,B,57.9326146555958,44.053845880964126,2.8966307327797898,0.6919961929100694,A,1160.854599999766,Incorrect
16,316,439,A,35.94392558580154,53.107782675791434,1.7971962792900769,0.8342150995135482,A,579.109199999948,Correct
16,316,440,A,26.735154766676242,59.61611266703876,1.336757738333812,0.9364477079517519,A,560.3489000000081,Correct
16,316,441,B,70.57919413934722,52.523201873158115,3.5289597069673615,0.8250325257386361,B,619.1788000000997,Correct
16,316,442,A,50.3520363418008,71.38140432959413,2.5176018170900396,1.1212564772238778,A,689.7828000001027,Correct
16,316,443,B,78.65656018692478,56.92685177666553,3.9328280093462387,0.8942048966678374,B,697.5191999999879,Correct
16,316,444,B,45.608453431738894,26.417845366531104,2.280422671586945,0.4149705446358263,B,787.2385000000577,Correct
16,316,445,A,33.124676876739684,50.460881305657814,1.6562338438369841,0.7926376700176057,A,793.5649000000922,Correct
16,316,446,A,53.20960545779957,74.44569595239224,2.6604802728899783,1.1693902574770743,A,656.4776999998685,Correct
16,316,447,B,68.3804750188837,54.98217752327968,3.419023750944185,0.8636580249275264,B,549.4525999997677,Correct
16,316,448,B,42.509594900739586,28.873118124123515,2.125479745036979,0.4535378789248837,B,1276.9254999998338,Correct
16,316,449,B,76.78911129748937,56.619223434893456,3.8394555648744686,0.8893726819751018,B,505.91149999991103,Correct
16,316,450,B,74.38019837392348,54.29788543372246,3.7190099186961736,0.8529091899202137,B,580.1331000002392,Correct
16,316,451,A,29.9455614367118,42.59874540527971,1.4972780718355898,0.6691395280868435,A,872.2775000001093,Correct
16,316,452,B,66.18128104360481,56.8576089676718,3.309064052180241,0.8931172331675945,A,1055.1829000000907,Incorrect
16,316,453,B,55.602100899807645,26.110806314306387,2.7801050449903824,0.4101475864816547,B,832.5813999999809,Correct
16,316,454,B,46.42810745132339,25.053116864804572,2.32140537256617,0.393533439459983,B,1971.35470000012,Correct
16,316,455,B,78.59682632831868,47.828848804220215,3.929841316415934,0.7512938001649759,B,548.5257999998794,Correct
16,316,456,B,66.77522226567064,55.23712073802097,3.338761113283532,0.8676626635800955,A,675.7004000000961,Incorrect
16,316,457,B,58.83502717543917,30.508104678732032,2.941751358771959,0.4792201876682647,B,1913.4932000001754,Correct
16,316,458,A,52.99328058850912,66.18235339270618,2.6496640294254563,1.0395899760790461,A,683.1726000000344,Correct
16,316,459,B,40.34782534757464,29.11932560201043,2.0173912673787324,0.45740529694382576,B,2578.8919000001442,Correct
16,316,460,A,33.10934596524149,56.564850816145956,1.6554672982620744,0.8885185988770338,A,624.1958000000523,Correct
16,316,461,B,68.87013112256497,59.77666592510485,3.443506556128249,0.9389696726320036,B,655.1097999999911,Correct
16,316,462,A,35.43618872768418,68.53532981821118,1.771809436384209,1.0765504433412287,A,645.4479999997602,Correct
16,316,463,A,50.71062203357056,76.09717258837014,2.535531101678528,1.1953315918128913,A,560.7869000000392,Correct
16,316,464,A,20.668899092515872,49.94940164977649,1.0334449546257936,0.7846033663707186,A,600.7953999996971,Correct
16,316,465,A,35.194934192651,50.719802710595275,1.7597467096325499,0.7967047979356491,A,611.0239999998157,Correct
16,316,466,B,51.71080928756443,41.25533503451974,2.585540464378221,0.6480372873291641,A,2368.0249999997613,Incorrect
16,316,467,A,15.775234299268245,35.809814447882914,0.7887617149634123,0.5624992499794129,A,539.0580000002956,Correct
16,316,468,A,45.26692230098431,68.69930567382549,2.2633461150492153,1.0791261700580488,A,560.3271999998469,Correct
16,316,469,A,33.546153936949906,46.11128241130773,1.6773076968474954,0.7243143303548429,A,705.4385000001275,Correct
16,316,470,A,50.284751257097774,62.7376900268131,2.514237562854889,0.9854813304571483,A,615.2511999998751,Correct
16,316,471,B,56.76924427626556,49.51350695871114,2.838462213813278,0.7777563485747702,B,770.3292000001056,Correct
16,316,472,B,70.0484234839127,51.80714872814596,3.502421174195635,0.8137847892388858,B,976.3975999999275,Correct
16,316,473,A,37.51664451592314,60.564393321896446,1.8758322257961568,0.951343265645963,A,844.8341999996956,Correct
16,316,474,A,57.2385235941726,80.32131584784356,2.86192617970863,1.261684278971254,A,770.0991000001522,Correct
16,316,475,A,24.85446779632503,54.30978944778797,1.2427233898162513,0.8530961777358956,A,532.3258000003079,Correct
16,316,476,A,51.56335663164782,75.58361501164245,2.578167831582391,1.1872646482616758,A,516.3324000000102,Correct
16,316,477,A,17.422719274468143,32.787512355061665,0.8711359637234071,0.5150250397207314,A,530.4086000001007,Correct
16,316,478,A,46.63864822773064,78.1304982258912,2.331932411386532,1.2272709962388508,A,1353.8684000000103,Correct
16,316,479,A,34.26661553248791,46.64408520650115,1.7133307766243957,0.7326835770908019,A,1386.174199999914,Correct
16,316,480,B,43.347957206917094,17.64837008354492,2.167397860345855,0.277219949011493,B,516.6818000002422,Correct
16,316,481,B,41.013798633197716,14.451565335284556,2.050689931659886,0.2270046574510144,B,559.179000000313,Correct
16,316,482,A,19.84612797995816,45.23876354332205,0.9923063989979078,0.7106088360259316,A,715.32950000028,Correct
16,316,483,B,65.33030218068424,44.76819356575612,3.2665151090342124,0.7032171401033264,B,553.4076999997524,Correct
16,316,484,A,53.78273990160642,70.77928762548875,2.689136995080321,1.1117984501527722,A,713.1580000000213,Correct
16,316,485,A,40.11622227878907,60.041815469469185,2.005811113939453,0.9431346319353919,A,2877.8505000000223,Correct
16,316,486,A,29.24586814091125,40.26719914328477,1.4622934070455624,0.6325156850459032,A,898.0239000002257,Correct
16,316,487,B,58.38953708182017,48.51803694677881,2.9194768540910085,0.7621195421929924,B,560.935900000004,Correct
16,316,488,B,44.73166117912042,16.09513192211114,2.236583058956021,0.25282174102531463,B,761.7774999998801,Correct
16,316,489,B,73.17818020099503,48.823344042874176,3.6589090100497517,0.7669152948439025,B,642.6590999999462,Correct
16,316,490,A,54.59860467809052,62.84984914802555,2.729930233904526,0.987243121813319,A,615.339600000425,Correct
16,316,491,B,55.9454189415731,43.49437462000424,2.7972709470786548,0.6832080388934383,B,1968.500700000277,Correct
16,316,492,A,22.182916169564226,39.92815696157629,1.1091458084782113,0.6271900229093412,B,715.2305999998134,Incorrect
16,316,493,B,44.01790668328703,22.786808069461035,2.200895334164352,0.3579343441488971,B,761.0476999998355,Correct
16,316,494,A,23.38020054620008,34.59134645506997,1.1690100273100041,0.5433595995051357,A,1205.4803999999422,Correct
16,316,495,B,58.590393468000016,27.46601154630488,2.9295196734000006,0.4314351004864192,B,1242.472600000383,Correct
16,316,496,A,61.471875329554564,84.72908987060057,3.073593766477728,1.3309214314141409,A,657.9403000000639,Correct
16,316,497,A,30.368149698343373,47.028117532108574,1.5184074849171685,0.7387159427551483,A,803.0370999999832,Correct
16,316,498,B,43.57773955674878,34.18400990247838,2.178886977837439,0.536961171899334,B,2473.9776999999776,Correct
16,316,499,B,69.82580855506498,36.84887772276538,3.4912904277532495,0.5788208177343415,B,660.7475999999224,Correct
16,316,500,B,80.37749556818851,61.66105304890026,4.018874778409425,0.9685695563551778,B,993.7411000000793,Correct
16,316,501,A,42.153213454220506,67.19600797160066,2.1076606727110256,1.055512424970709,A,570.0514999998632,Correct
16,316,502,A,50.43571248284032,64.66625369817643,2.5217856241420162,1.0157751377668243,A,544.1169000000627,Correct
16,316,503,B,39.91824709244758,15.3677896894947,1.9959123546223791,0.24139667595214756,B,581.3533999998981,Correct
16,316,504,A,38.71262206739483,53.028906754842,1.9356311033697415,0.832976119444549,A,794.3428999997195,Correct
16,316,505,B,53.9408720262339,45.35600110399326,2.697043601311695,0.7124503993225788,A,579.7542999998768,Incorrect
16,316,506,A,10.97095817021642,33.328092243666674,0.548547908510821,0.5235164487543309,A,531.5027999999984,Correct
16,316,507,A,36.382043965273034,63.421662798358646,1.8191021982636517,0.996225149628863,A,590.2672000001985,Correct
16,316,508,B,50.11689613300478,28.844117681541555,2.5058448066502392,0.45308234103805195,B,1974.8419000002286,Correct
16,316,509,A,21.58720948700057,50.182938786757,1.0793604743500285,0.7882717591401104,A,788.638600000013,Correct
16,316,510,B,57.13582115172018,46.65135463864712,2.8567910575860087,0.7327977650639295,A,1101.4949000000342,Incorrect
16,316,511,B,56.619305631584055,49.70988259681481,2.8309652815792026,0.7808410098848224,A,915.2997000001051,Incorrect
16,316,512,A,46.7622902498861,71.76252611394926,2.338114512494305,1.1272431242131433,A,481.6952000001038,Correct
16,316,513,A,22.15819205280444,48.57507300499566,1.107909602640222,0.7630154625004112,A,642.5177999999505,Correct
16,316,514,A,12.948314948455618,40.78706583916751,0.6474157474227809,0.6406817320090593,A,802.5504000002002,Correct
16,316,515,A,50.86353760567442,68.613150914408,2.5431768802837214,1.0777728542617597,A,492.20740000009755,Correct
16,316,516,A,41.17265265906849,56.31641113670158,2.0586326329534246,0.8846161175180206,A,523.9270000001852,Correct
16,316,517,A,33.95670367657968,52.09162240621781,1.697835183828984,0.8182532913247367,A,1093.9092999997229,Correct
16,316,518,B,43.424554425066276,17.710067427175563,2.171227721253314,0.2781890886189732,B,546.0607999998501,Correct
16,316,519,B,44.63451054565884,21.10990317294419,2.2317255272829417,0.3315935836305667,B,503.0275000003712,Correct
16,316,520,B,57.800758923291546,37.654467817830145,2.8900379461645773,0.5914749973566422,B,662.2137999997904,Correct
16,316,521,A,44.53490213233775,75.29856694207058,2.2267451066168875,1.182787123655241,A,615.624100000332,Correct
16,316,522,B,61.64581148028703,30.36156210343801,3.0822905740143516,0.47691830227835563,B,534.833300000173,Correct
16,316,523,A,30.214171975226748,42.54439493453645,1.5107085987613373,0.6682857928888126,A,1283.239400000184,Correct
16,316,524,A,64.84084931962384,84.42223883322082,3.242042465981192,1.3261014265902473,A,641.3391999999476,Correct
16,316,525,B,79.29566508701198,64.36559348805169,3.964783254350599,1.011052378230051,B,589.2094999999244,Correct
16,316,526,A,40.700068571757186,63.069275013189035,2.035003428587859,0.9906898552433449,A,660.1313000001028,Correct
16,316,527,B,69.18974048152465,39.56020311019548,3.4594870240762328,0.6214102173275511,B,498.4764000000723,Correct
16,316,528,B,76.75085109674748,59.75696756526388,3.8375425548373743,0.9386602515191826,B,696.5949999998884,Correct
16,316,529,A,37.68043199478709,55.879171815093734,1.8840215997393546,0.8777479783149015,A,829.5691000002989,Correct
16,316,530,A,52.60361731809351,77.9940675898568,2.6301808659046753,1.2251279488193996,A,710.6555000000299,Correct
16,316,531,B,74.33582979950802,52.99400421891816,3.716791489975401,0.8324278716922988,B,561.4515000002029,Correct
16,316,532,B,59.30807735027338,51.08536073243554,2.965403867513669,0.80244696991502,A,769.7374000003947,Incorrect
16,316,533,A,42.41970209617476,60.40040106557057,2.1209851048087383,0.948767281307368,A,557.8670999998394,Correct
16,316,534,B,36.805661735793834,21.395301933503756,1.8402830867896915,0.33607661687815443,B,782.7391000000716,Correct
16,316,535,B,47.37736013453201,28.00366164278581,2.3688680067266006,0.43988048845295086,B,662.7547000002778,Correct
16,316,536,A,69.247766259031,88.78109922751256,3.46238831295155,1.3945702455538995,A,496.4374000001044,Correct
16,316,537,B,79.56335394227389,53.090924420069726,3.978167697113695,0.83395029065191,B,669.1116000001784,Correct
16,316,538,B,84.37699927863423,62.00546239338779,4.218849963931712,0.9739795256875262,B,810.1028000000952,Correct
16,316,539,B,38.13088406755798,22.93502635944597,1.906544203377899,0.3602625516036186,B,777.8628000000936,Correct
16,316,540,B,87.08350634466976,59.63048264233476,4.354175317233488,0.9366734309958629,B,780.6261999999151,Correct
16,316,541,B,58.07411909772216,48.55411946685962,2.903705954886108,0.7626863250930367,B,1912.220900000193,Correct
16,316,542,A,27.293383601099233,42.44833700964419,1.3646691800549615,0.6667769185330096,A,495.6889999998566,Correct
16,316,543,B,43.2120092754886,19.934374878243748,2.1606004637744296,0.31312842835697746,B,673.6847000001944,Correct
16,316,544,A,30.78150826208621,52.403284247936085,1.5390754131043105,0.8231488640864686,A,567.9952000000412,Correct
16,316,545,B,66.71132366890235,34.30849052911333,3.335566183445118,0.5389165090100871,B,622.6520000000164,Correct
16,316,546,B,86.77235670726557,58.825389017327225,4.338617835363278,0.9240270499069846,B,542.3738999998022,Correct
16,316,547,B,79.78352616258903,66.75749439846275,3.989176308129452,1.048624269871362,B,748.4749000000193,Correct
16,316,548,A,28.732950722994715,39.47735594377471,1.4366475361497357,0.62010885708056,A,665.4469000000063,Correct
16,316,549,B,61.228395937565224,40.231787752811556,3.061419796878261,0.631959444225083,B,811.4307000000736,Correct
