subject,day,trial,cat,x,y,xt,yt,resp,rt,fb
2,502,0,B,60.78529992636545,27.953802159927342,3.0392649963182725,0.43909729752765114,B,389.8504999999659,Correct
2,502,1,B,74.3843513196988,41.75554728097062,3.71921756598494,0.6558946029225927,B,430.4457000000639,Correct
2,502,2,A,12.314483082493627,36.67313400618396,0.6157241541246813,0.5760602418897077,A,541.6514999999436,Correct
2,502,3,A,41.7506264219808,52.541694594986275,2.08753132109904,0.8253230087338371,B,342.18329999998787,Incorrect
2,502,4,B,57.481725072872905,28.372979647887497,2.8740862536436453,0.44568172211128043,B,424.1399999998521,Correct
2,502,5,B,35.46451614594635,18.60634438365662,1.7732258072973173,0.29226777412928673,B,376.44440000008217,Correct
2,502,6,A,37.52177478516383,55.48356274125113,1.8760887392581913,0.8715337655145146,B,622.4990999999136,Incorrect
2,502,7,B,58.14791902185202,49.31039902500815,2.9073959510926013,0.7745659366127347,B,451.51289999989785,Correct
2,502,8,B,60.02752373577307,50.794876006630616,3.0013761867886535,0.7978840465121758,B,656.7992000000231,Correct
2,502,9,A,54.94506002071527,69.96697615470944,2.747253001035763,1.099038691407637,A,1002.729699999918,Correct
2,502,10,A,19.17768773229443,50.18495180502061,0.9588843866147215,0.7883033795570529,A,571.5493000000151,Correct
2,502,11,B,77.92800850580775,65.74049072682743,3.896400425290387,1.032649213553945,B,584.0058999999655,Correct
2,502,12,A,60.60519078341392,83.68084590831828,3.030259539170696,1.3144556537587608,A,798.9234000001488,Correct
2,502,13,B,78.73612880399062,47.94553083065113,3.936806440199531,0.7531266371501826,B,507.6163999999608,Correct
2,502,14,A,44.74936307923246,61.50318325916941,2.2374681539616232,0.9660897434969667,A,646.1555000000772,Correct
2,502,15,B,87.42610597215797,65.85701070335088,4.371305298607899,1.0344795050651574,B,729.203200000029,Correct
2,502,16,B,44.80491645448333,23.48538806471967,2.240245822724167,0.36890761305414366,B,825.201300000117,Correct
2,502,17,A,40.60097730172523,59.85712106240606,2.0300488650862616,0.9402334589734488,A,783.8618999999198,Correct
2,502,18,B,63.812413775880025,40.71166090046789,3.190620688794001,0.6394972740017437,B,530.9232000001884,Correct
2,502,19,A,44.782950999635915,67.3536689575708,2.2391475499817957,1.0579889579471167,A,637.9689000000326,Correct
2,502,20,B,46.17173598455712,22.04139552504701,2.308586799227856,0.3462254312817732,B,423.3429000000797,Correct
2,502,21,A,29.961439920810445,62.17564439155223,1.4980719960405222,0.9766527382635597,A,645.1609999999164,Correct
2,502,22,B,34.30878344821157,12.210235328638564,1.7154391724105784,0.19179792803526735,B,624.4968999999401,Correct
2,502,23,B,69.71894689982553,37.70406439395204,3.4859473449912763,0.5922540585525812,B,695.4154000000017,Correct
2,502,24,A,27.31085785337075,45.461640667292926,1.3655428926685373,0.7141097817025323,A,470.3574000000117,Correct
2,502,25,B,48.79054537049709,28.71870173400108,2.4395272685248544,0.4511123119408712,B,564.7076000000197,Correct
2,502,26,A,24.090783906238748,45.867303272717024,1.2045391953119375,0.7204819150077144,A,467.90359999999964,Correct
2,502,27,A,26.554949998365927,36.725324305111045,1.3277474999182965,0.5768800451881977,A,608.0254000000878,Correct
2,502,28,B,50.334349044864055,29.319521416740017,2.5167174522432028,0.46054996544799526,B,507.8946999999516,Correct
2,502,29,B,60.22535582709405,28.258251061310787,3.011267791354703,0.4438795696875497,B,423.50869999995666,Correct
2,502,30,B,70.18321823850266,56.59079635587604,3.5091609119251332,0.888926150462081,B,496.92110000000866,Correct
2,502,31,A,57.25748025973642,81.88927641907719,2.8628740129868206,1.286313746029784,A,967.2826000000896,Correct
2,502,32,A,56.22685483633093,75.7187503725136,2.811342741816546,1.1893873495464407,A,625.774999999976,Correct
2,502,33,B,39.32316993355272,17.878126330638256,1.966158496677636,0.280828951701417,B,448.14359999986664,Correct
2,502,34,A,45.730593577881336,54.115694789228286,2.286529678894067,0.850047345968735,B,517.4231000000873,Incorrect
2,502,35,A,39.20949890854581,68.48105454756737,1.9604749454272905,1.0756978893835978,A,485.70250000011583,Correct
2,502,36,B,75.20309107426505,58.572009138998816,3.760154553713252,0.9200469680853646,B,453.75019999983124,Correct
2,502,37,A,30.85766574966761,43.70353666555696,1.5428832874833804,0.6864935486220296,A,606.0297999999875,Correct
2,502,38,B,63.60201214852363,54.2784732557235,3.1801006074261813,0.8526042641412549,B,2564.635400000043,Correct
2,502,39,B,68.23253425938748,56.48328196132418,3.411626712969374,0.8872373183016847,B,1640.8051999999316,Correct
2,502,40,A,44.13345946112219,62.66876854828456,2.2066729730561097,0.9843987144040494,A,1959.777000000031,Correct
2,502,41,A,43.06256518011558,64.78055265649833,2.1531282590057788,1.0175705416057095,B,495.47610000013265,Incorrect
2,502,42,A,62.13250548990959,75.69657166232562,3.1066252744954794,1.1890389671814776,B,811.3771999999244,Incorrect
2,502,43,B,49.81387330172388,30.060192868028672,2.490693665086194,0.47218440539845585,B,508.49879999987024,Correct
2,502,44,B,73.92948972195737,48.31054254168739,3.696474486097868,0.7588602276995113,B,586.5898000001835,Correct
2,502,45,B,82.21562939949389,54.03352502803898,4.110781469974694,0.8487566263782375,B,426.36659999993753,Correct
2,502,46,A,36.07859224184119,68.13918746016829,1.8039296120920596,1.0703278537322123,A,467.72519999990436,Correct
2,502,47,A,62.11493199900419,77.21923121947587,3.10574659995021,1.212956847574785,A,697.5496000000021,Correct
2,502,48,A,24.312017995661584,49.71435811398978,1.2156008997830794,0.7809113111442121,A,1051.5040000000226,Correct
2,502,49,B,46.00179944865987,21.83298744059353,2.3000899724329935,0.3429517647464343,B,521.3027999998303,Correct
2,502,50,B,79.00183906646983,57.26540658400559,3.9500919533234913,0.8995229031457227,B,519.3671000001814,Correct
2,502,51,A,34.926885721946945,44.0856590187157,1.7463442860973473,0.6924959125093093,B,467.55430000007436,Incorrect
2,502,52,B,63.90676614370781,50.22047177504612,3.195338307185391,0.7888613259414922,B,411.55490000005557,Correct
2,502,53,B,61.197789379910574,29.829790093742872,3.0598894689955283,0.4685652470831409,B,378.19760000002134,Correct
2,502,54,B,36.75442713510219,18.825274887487712,1.8377213567551096,0.2957067264416991,B,388.68170000000646,Correct
2,502,55,A,50.442802489738924,68.88694639159282,2.5221401244869464,1.0820736235603094,A,802.2135000001072,Correct
2,502,56,B,83.24140562133933,64.85052761292471,4.162070281066966,1.0186697056509313,B,361.1336999999821,Correct
2,502,57,A,31.384998435653234,49.605685027293966,1.5692499217826616,0.7792042782901796,A,629.58720000006,Correct
2,502,58,A,20.855182998429466,42.08424072872907,1.0427591499214734,0.661057707526398,A,410.54689999987204,Correct
2,502,59,B,58.76690898171989,33.94094986661621,2.938345449085994,0.5331431937841047,B,439.0175000000909,Correct
2,502,60,A,60.9528043807876,72.36582016511385,3.04764021903938,1.136719645008609,B,534.7355999999763,Incorrect
2,502,61,A,54.2409069475241,63.980188447768384,2.7120453473762054,1.0049984500139986,A,884.5698000000084,Correct
2,502,62,B,69.31478887968284,42.30417108741639,3.465739443984142,0.6645123655221653,B,379.1825000000699,Correct
2,502,63,A,53.28423664683383,77.09814415536485,2.664211832341692,1.2110548164195054,A,715.4881000001296,Correct
2,502,64,B,46.18426041519491,17.150465554335433,2.3092130207597457,0.269398882955725,B,369.31220000019493,Correct
2,502,65,A,12.379693948426038,39.44708328226815,0.6189846974213019,0.6196333352255918,A,392.2328999999536,Correct
2,502,66,A,49.88373024633374,73.76555090718456,2.4941865123166873,1.1587065640900747,A,570.1703999998244,Correct
2,502,67,B,50.89826893298953,35.21628437311038,2.5449134466494767,0.5531761013664631,B,337.33550000010837,Correct
2,502,68,B,71.44270355691222,51.107284608260954,3.572135177845611,0.8027913493511766,B,605.7557999999972,Correct
2,502,69,A,26.17987146066165,42.72715838712462,1.3089935730330824,0.6711566344887911,A,453.7957000000006,Correct
2,502,70,B,67.70340060600556,43.10474949878345,3.3851700303002783,0.6770878218010321,B,455.20910000004733,Correct
2,502,71,B,49.33449557426567,25.245158419914045,2.4667247787132833,0.39655002115356236,B,587.0477000000847,Correct
2,502,72,A,25.624681283993745,57.16446161402269,1.281234064199687,0.897937263265147,A,533.8243999999577,Correct
2,502,73,A,51.875727014033906,60.927411752423325,2.5937863507016954,0.9570455458182677,B,491.9601999999941,Incorrect
2,502,74,A,65.48808119262907,88.39494988061762,3.274404059631453,1.3885046257969313,A,469.6255999999721,Correct
2,502,75,A,65.05677290201112,81.4615921716094,3.2528386451005558,1.2795956975802794,A,470.1930999999604,Correct
2,502,76,B,40.68435989360368,21.317577299944503,2.034217994680184,0.334855721189191,B,386.6464000000178,Correct
2,502,77,A,30.71231040563694,53.45086681873482,1.5356155202818471,0.8396042526287187,A,355.7379999999739,Correct
2,502,78,B,83.71038663603238,62.757058511735266,4.185519331801618,0.9857855699068616,B,581.9764000000305,Correct
2,502,79,A,62.592484875772826,84.9202337500722,3.129624243788641,1.333923912451774,A,649.5910999999523,Correct
2,502,80,B,53.08811974991526,23.42195217086796,2.6544059874957626,0.3679111643636515,B,1134.8100999998678,Correct
2,502,81,B,69.6338056241662,46.761632138454026,3.48169028120831,0.7345299999801777,B,444.340099999863,Correct
2,502,82,A,26.411481609463145,58.13591838478976,1.3205740804731574,0.9131968705367566,A,507.55019999996875,Correct
2,502,83,B,75.2367420996604,48.98857386876664,3.7618371049830204,0.7695107188797911,B,541.7817000000014,Correct
2,502,84,A,58.908509997452384,70.46103591891944,2.945425499872619,1.1067993640360192,A,827.8445000000829,Correct
2,502,85,A,57.16669383035466,82.40140584528132,2.8583346915177335,1.294358256245034,A,616.8390000000272,Correct
2,502,86,A,26.750668551160327,49.35002179809991,1.3375334275580164,0.7751883296770341,B,437.8399999998237,Incorrect
2,502,87,B,36.5411529254996,13.370532403076712,1.8270576462749801,0.2100238318604504,B,569.1633999999794,Correct
2,502,88,A,38.23718191501277,50.03385052609193,1.9118590957506385,0.785929886217901,A,939.3575999999939,Correct
2,502,89,A,19.5761144040316,34.76653419947816,0.97880572020158,0.5461114421592945,A,692.4909000001662,Correct
2,502,90,B,40.03886141071875,23.08794479315927,2.001943070535938,0.3626645887433794,B,600.6653000001734,Correct
2,502,91,A,44.58415272873681,53.65489680673074,2.2292076364368403,0.8428091481857188,A,585.7718000002023,Correct
2,502,92,B,53.9602994384841,36.711933807796015,2.698014971924205,0.5766697077482336,B,382.76709999991,Correct
2,502,93,B,56.87237285590505,27.249110094486653,2.843618642795253,0.4280280204484937,B,402.07509999981994,Correct
2,502,94,A,37.41442862099795,68.4020262320861,1.8707214310498979,1.0744565155068901,A,537.0183999998517,Correct
2,502,95,B,57.70340136410524,27.517841557383893,2.885170068205262,0.43224924439662576,B,442.3839000000953,Correct
2,502,96,B,80.00049796678653,58.34898688801531,4.000024898339326,0.9165437427589803,B,741.4751000001161,Correct
2,502,97,A,39.935158414007525,65.6977675010324,1.9967579207003763,1.0319781186924684,A,506.7300000000614,Correct
2,502,98,A,15.998517886489555,39.20291573759839,0.7999258943244777,0.6157979604026939,B,336.24410000015814,Incorrect
2,502,99,B,73.91198206891794,47.72757226420506,3.695599103445897,0.749702951994513,B,799.7133999999733,Correct
2,502,100,B,45.56037573431354,33.26841372482711,2.278018786715677,0.5225790207725135,B,462.3563000000104,Correct
2,502,101,B,88.91307254859494,65.3772216955643,4.4456536274297465,1.0269429969544803,A,621.5679000001728,Incorrect
2,502,102,A,45.40318865848757,69.9086796719016,2.2701594329243786,1.098122972397041,A,517.0077000000219,Correct
2,502,103,A,42.967808818070615,56.628475668832166,2.1483904409035306,0.8895180157259575,A,645.6336999999621,Correct
2,502,104,B,54.501458797714136,31.986382859210796,2.7250729398857065,0.5024409270270356,B,382.4922000001152,Correct
2,502,105,B,46.5500316876814,22.718081306432953,2.32750158438407,0.3568547866797269,B,727.2987000001194,Correct
2,502,106,A,38.36114571867514,50.815229833707846,1.918057285933757,0.7982037636802671,A,547.7157999998781,Correct
2,502,107,A,30.306195079158012,42.23774321710522,1.5153097539579006,0.6634689189753493,B,495.2903000000788,Incorrect
2,502,108,A,28.159051409560877,50.965887319246505,1.407952570478044,0.8005702859291501,A,558.7714999999207,Correct
2,502,109,B,49.92533929393505,23.489497911854205,2.4962669646967526,0.36897217038196983,B,623.3534999998938,Correct
2,502,110,B,66.29847509276972,41.06941497257112,3.3149237546384858,0.6451168618253004,A,557.1689000000788,Incorrect
2,502,111,B,50.89720178854005,39.31657902793857,2.5448600894270026,0.6175833791922717,B,447.6372999999967,Correct
2,502,112,A,62.44073828022401,74.59594300896791,3.1220369140112005,1.1717503327228824,A,515.8174000000599,Correct
2,502,113,A,39.858215386768876,65.61907716192316,1.9929107693384438,1.0307420537361978,B,991.9918000000507,Incorrect
2,502,114,B,39.319748763283776,18.123970160325037,1.9659874381641886,0.28469065754778883,B,428.94730000011805,Correct
2,502,115,B,40.60829507349219,29.051635315603104,2.0304147536746093,0.4563420204113425,B,416.8372999999974,Correct
2,502,116,A,46.68243756009274,66.39442145631948,2.334121878004637,1.0429211334325892,A,474.5023000000401,Correct
2,502,117,B,71.81722057974932,40.937662213222865,3.590861028987466,0.643047294321007,B,1693.2666000000154,Correct
2,502,118,B,74.27291108143137,41.344801761979795,3.713645554071569,0.6494426273978103,B,907.9111999999441,Correct
2,502,119,A,54.32987951656411,69.27619875928868,2.7164939758282056,1.0881879854540382,A,731.433799999877,Correct
2,502,120,A,31.814180360364553,54.29390435490784,1.5907090180182277,0.8528466552804266,A,589.3552,Correct
2,502,121,B,73.7169233491122,48.959655999831014,3.68584616745561,0.7690564780567627,B,615.8591999999317,Correct
2,502,122,B,68.06480021524021,58.15258001875617,3.4032400107620107,0.9134585908710849,B,541.0961999998563,Correct
2,502,123,B,49.55803256656472,22.99082902615617,2.477901628328236,0.36113909784255593,B,528.4220999999434,Correct
2,502,124,B,56.929631433724744,28.650071863808382,2.846481571686237,0.45003427646080024,B,441.86179999996966,Correct
2,502,125,B,49.06953236759791,36.36182828227191,2.4534766183798955,0.5711702630133949,B,439.6368000000166,Correct
2,502,126,A,31.199029536233976,41.470872333760795,1.5599514768116987,0.6514229393085156,B,1491.5020000000823,Incorrect
2,502,127,A,49.973088362968376,63.69547561833261,2.4986544181484187,1.0005261913473076,A,597.4727000000257,Correct
2,502,128,B,81.08038578342641,50.28092622448498,4.054019289171321,0.7898109422126619,B,547.555500000044,Correct
2,502,129,A,39.23725061063551,54.1151778941169,1.9618625305317756,0.8500392265993122,B,1112.528999999995,Incorrect
2,502,130,A,32.08353053750616,40.501040207527495,1.6041765268753079,0.6361888518935661,B,1868.4339000001273,Incorrect
2,502,131,B,41.01793890662351,19.321520536764346,2.0508969453311754,0.303501734872416,B,402.22970000013447,Correct
2,502,132,A,21.2473226463259,38.221429032322135,1.062366132316295,0.6003808032882343,A,1383.7905999998839,Correct
2,502,133,B,54.27939647358019,46.803808667445374,2.7139698236790095,0.7351925073483433,B,1508.7641000000076,Correct
2,502,134,B,75.35447480808615,58.86378995955363,3.7677237404043074,0.9246302504969315,A,1194.0271000003122,Incorrect
2,502,135,B,56.057444946877375,40.140164761560925,2.8028722473438688,0.6305202336440184,B,1947.9716999999255,Correct
2,502,136,A,10.621567067278043,34.22896276129122,0.5310783533639022,0.5376672897543555,A,1093.106099999659,Correct
2,502,137,B,46.174206378721024,28.339095050950576,2.308710318936051,0.445149464107246,B,625.5378000000746,Correct
2,502,138,A,20.225556686347737,48.67760295711631,1.011277834317387,0.7646259992221869,A,764.5910999999614,Correct
2,502,139,B,64.69399281349352,31.897314991547148,3.2346996406746764,0.5010418522334205,B,925.1631000001908,Correct
2,502,140,A,45.48156887257378,76.65121242343905,2.274078443628689,1.204034429191134,A,519.9516000002404,Correct
2,502,141,B,83.70176753676265,67.15467387588411,4.185088376838133,1.0548631505134796,A,919.6905999997398,Incorrect
2,502,142,B,66.60395854626826,42.99956735503442,3.330197927313413,0.6754356245505782,B,4490.453800000068,Correct
2,502,143,A,42.052849057508006,67.5933170953336,2.1026424528754,1.061753342092327,A,862.909099999797,Correct
2,502,144,B,88.36293453909624,67.66493862970124,4.418146726954813,1.062878370523368,B,694.9411999999029,Correct
2,502,145,A,67.83148348691691,82.5970807267825,3.3915741743458456,1.297431910096115,B,816.6065000000344,Incorrect
2,502,146,B,42.57789861734396,18.147693480458567,2.1288949308671983,0.2850633025890401,B,709.2687999997906,Correct
2,502,147,A,53.837234131736224,81.33267394905687,2.6918617065868116,1.2775706548758552,A,725.3153000001475,Correct
2,502,148,A,46.72217650425967,71.34014486655236,2.3361088252129836,1.1206083750939626,A,753.2274000000143,Correct
2,502,149,A,42.526502924862264,64.98618563458416,2.126325146243113,1.0208006168721606,A,955.6902999997874,Correct
2,502,150,B,37.54392340271607,14.90462137601834,1.8771961701358035,0.23412124509718307,B,367.3389999999017,Correct
2,502,151,A,52.51055710495292,77.74155837744169,2.625527855247646,1.2211615433859642,A,415.6372000002193,Correct
2,502,152,B,73.13256393173825,48.17203738407799,3.656628196586912,0.7566845937713613,B,457.56729999993695,Correct
2,502,153,B,78.24463034281744,55.589846908252525,3.9122315171408726,0.8732032733057371,B,663.1267000002481,Correct
2,502,154,A,25.41117587679193,41.02781371424153,1.2705587938395966,0.6444633907875589,A,444.59569999980886,Correct
2,502,155,B,75.82435483477715,48.156744361205455,3.791217741738858,0.7564443715298238,B,510.8608999998978,Correct
2,502,156,A,52.6852135945946,65.82407177299567,2.6342606797297297,1.0339621015570524,B,445.2071999999134,Incorrect
2,502,157,A,10.857332301020872,33.270164440583656,0.5428666150510436,0.5226065209513099,A,577.0850999997492,Correct
2,502,158,A,13.730747818617406,32.257681007336785,0.6865373909308703,0.5067024683724612,A,564.9379999999837,Correct
2,502,159,B,72.09861433842326,62.816793400195984,3.604930716921163,0.9867238833406174,B,517.5388000002386,Correct
2,502,160,A,44.851411296668374,69.13995257671678,2.242570564833419,1.0860478354228005,A,470.9566999999879,Correct
2,502,161,A,64.57028498004468,78.28461333522564,3.2285142490022336,1.229691830715312,B,434.5339999999851,Incorrect
2,502,162,A,28.43006254070198,40.47017943448403,1.4215031270350988,0.6357040920041789,B,861.3269000002219,Incorrect
2,502,163,A,42.8188330981948,68.7199485891878,2.14094165490974,1.0794504282143034,A,419.15679999965505,Correct
2,502,164,A,65.1953181367304,82.9270582009919,3.2597659068365203,1.302615184140247,B,442.31700000000274,Incorrect
2,502,165,A,48.149796015648846,65.88116370416374,2.4074898007824426,1.0348588995147365,A,923.1958000000304,Correct
2,502,166,B,34.05815004436707,10.344040866514352,1.7029075022183533,0.16248381397337044,B,558.7898000003406,Correct
2,502,167,A,47.47938795945552,66.30794731709324,2.3739693979727763,1.0415628008299957,B,404.9174000001585,Incorrect
2,502,168,A,45.879143804423485,66.19626768106919,2.293957190221174,1.0398085412095521,B,383.1017000002248,Incorrect
2,502,169,A,17.265915932092305,42.70237450058101,0.8632957966046152,0.670767330109327,A,513.577400000031,Correct
2,502,170,A,58.98027527244322,85.8237737842674,2.9490137636221614,1.3481166861200338,A,1190.010600000278,Correct
2,502,171,A,65.47981974332697,88.19957667723315,3.2739909871663486,1.3854357106946267,A,1320.7932000000255,Correct
2,502,172,A,55.014408867854335,76.80824757092415,2.7507204433927166,1.206501131519607,A,1830.3229999996802,Correct
2,502,173,B,44.001558199828786,30.06139477953075,2.2000779099914394,0.4722032849801819,B,1011.6155000000617,Correct
2,502,174,A,62.08389812072147,84.64860493810629,3.1041949060360734,1.329657177050897,A,424.060400000144,Correct
2,502,175,B,46.01366332964342,24.65406980172652,2.300683166482171,0.38726522285097015,B,583.2345999997415,Correct
2,502,176,A,46.86130496185294,70.30303477372199,2.343065248092647,1.104317487850964,A,873.1759000002057,Correct
2,502,177,A,57.07733784898567,83.67017528110358,2.8538668924492834,1.3142880399384265,A,591.5382999996837,Correct
2,502,178,A,11.180547625719637,31.33916898888943,0.5590273812859818,0.4922745153255204,A,618.3341999999357,Correct
2,502,179,B,78.7739723624344,63.635349037962385,3.93869861812172,0.9995817252314245,B,570.331900000383,Correct
2,502,180,A,22.31193487542166,45.814446547176644,1.115596743771083,0.7196516435044621,B,1830.7506000001013,Incorrect
2,502,181,B,67.10709508924538,43.666961485657886,3.355354754462269,0.6859190270396563,B,1047.0627999998214,Correct
2,502,182,B,88.31610882208301,66.98375509679666,4.415805441104151,1.052178364609771,B,3109.1533000003437,Correct
2,502,183,B,39.420798504189364,21.467321983584473,1.9710399252094681,0.33720790517937826,B,478.8300000000163,Correct
2,502,184,B,43.593159349153595,23.405213598638397,2.17965796745768,0.3676482354859116,B,438.8760999995611,Correct
2,502,185,B,75.26325923266249,58.5138431125163,3.7631629616331246,0.9191332982779344,B,528.2507999995687,Correct
2,502,186,B,36.418035727415514,20.635312644394325,1.8209017863707757,0.3241387330407889,B,533.7696999999935,Correct
2,502,187,A,68.57956079857891,81.99751196713837,3.4289780399289453,1.2880139060430151,A,530.2104000002146,Correct
2,502,188,A,13.720814601937978,35.12241627580845,0.6860407300968988,0.5517016247420119,A,600.5686999997124,Correct
2,502,189,A,19.89003105593886,42.084876228703166,0.994501552796943,0.6610676899366479,A,459.08159999999043,Correct
2,502,190,A,52.053117723899405,72.98744690067639,2.6026558861949702,1.1464841349372004,B,450.84600000018327,Incorrect
2,502,191,A,52.47507324228724,74.27123233066507,2.623753662114362,1.1666497893153907,A,523.0971999999383,Correct
2,502,192,B,84.76514739624022,63.24382281975457,4.238257369812011,0.9934316457773774,B,1404.788699999699,Correct
2,502,193,A,31.053247993525336,57.798768528181,1.552662399676267,0.9079009329733518,A,898.0626000002303,Correct
2,502,194,A,69.82676644666584,85.65971049553235,3.491338322333292,1.3455395860069645,A,630.7647999997243,Correct
2,502,195,B,46.758033917847655,29.61806659460785,2.337901695892383,0.4652395021357663,B,532.596100000319,Correct
2,502,196,B,61.156598464320155,31.155969003058836,3.0578299232160076,0.48939681667740476,B,448.9984000001641,Correct
2,502,197,B,50.398829361175764,27.521443125885728,2.519941468058788,0.43230581770235954,B,400.1868000000286,Correct
2,502,198,B,50.85726620364233,25.428975449420534,2.5428633101821165,0.39943741230107377,B,2637.7235999998447,Correct
2,502,199,B,53.680799927597214,38.28154570193387,2.6840399963798607,0.6013251137262869,B,1882.16999999986,Correct
2,502,200,A,56.21241670092756,76.67443335339667,2.8106208350463784,1.204399182705956,A,2609.08819999986,Correct
2,502,201,B,41.892302131182205,23.45107658877668,2.09461510655911,0.3683686496503621,B,1524.9570999999378,Correct
2,502,202,A,29.569227427632395,58.814237923969166,1.4784613713816197,0.9238518889421187,A,1526.922900000045,Correct
2,502,203,A,38.20698906477121,68.23145763668795,1.9103494532385605,1.0717772302757103,A,2242.8061000000525,Correct
2,502,204,A,49.051523574791425,71.51915600196773,2.4525761787395712,1.1234202754336209,A,782.1506999998746,Correct
2,502,205,A,20.301769265094727,52.08228811170092,1.0150884632547363,0.818106668569333,A,441.21640000003026,Correct
2,502,206,A,49.71215467459699,62.670331615825276,2.4856077337298497,0.9844232670115644,A,549.3446999998923,Correct
2,502,207,B,49.41856434448766,19.813215613332996,2.470928217224383,0.31122526307418763,B,432.95130000024074,Correct
2,502,208,B,58.08867104124713,35.163930965960894,2.9044335520623563,0.5523537359700069,B,492.8383000001304,Correct
2,502,209,B,83.74456828702235,61.976543686550045,4.187228414351117,0.9735252717027624,A,557.9590000002099,Incorrect
2,502,210,B,43.12833523103711,27.906161235249396,2.1564167615518555,0.43834895563275883,B,557.4182000000292,Correct
2,502,211,B,80.24034401173475,67.17106658828713,4.012017200586738,1.055120646637768,A,433.60119999988456,Incorrect
2,502,212,B,82.2033822616093,63.566123761937526,4.110169113080465,0.9984943371384125,A,484.37509999985195,Incorrect
2,502,213,A,23.527242547432696,37.96093316081141,1.1763621273716347,0.5962889437070914,A,492.67539999982546,Correct
2,502,214,B,81.909615727141,54.36534594886943,4.09548078635705,0.853968857214179,B,441.91440000031434,Correct
2,502,215,B,62.74756682125518,48.83356372650506,3.137378341062759,0.7670758252589867,B,646.0602999995899,Correct
2,502,216,B,55.479272950809815,46.16528016362753,2.7739636475404903,0.7251625250648343,B,768.6017999999422,Correct
2,502,217,B,63.825047921495624,54.8266561269829,3.1912523960747814,0.8612151005471164,A,590.1180999999269,Incorrect
2,502,218,B,87.11515419939438,69.10283952729857,4.355757709969719,1.0854648650057779,B,758.121299999857,Correct
2,502,219,A,46.657114684128594,78.56672752428635,2.3328557342064298,1.2341232700344449,A,427.9708999997638,Correct
2,502,220,A,49.38449045962602,67.4235885917221,2.469224522981301,1.0590872529920736,B,561.7345999999088,Incorrect
2,502,221,B,54.23250574261311,45.53373639799783,2.711625287130655,0.7152422587922206,B,430.45570000003863,Correct
2,502,222,A,21.247123853749475,42.85416405174608,1.0623561926874736,0.6731516348034865,B,903.2944000000498,Incorrect
2,502,223,B,60.31810935887082,34.097992665308745,3.0159054679435413,0.535610016297463,B,480.14729999977135,Correct
2,502,224,A,44.254364496476875,52.28796984401508,2.2127182248238437,0.8213375096654122,B,534.2442000001029,Incorrect
2,502,225,A,42.05745803400651,56.090208465106436,2.1028729017003256,0.8810629342614921,B,490.089700000226,Incorrect
2,502,226,B,85.20039931602311,65.42106271520102,4.260019965801155,1.0276316500805633,A,406.8245999997089,Incorrect
2,502,227,A,48.13725023432606,76.38484811981627,2.4068625117163034,1.1998503884939344,A,433.3246999999574,Correct
2,502,228,B,78.71438780996576,60.931105640717185,3.9357193904982877,0.9571035692799035,A,405.21080000007714,Incorrect
2,502,229,B,73.04871928274736,47.89070863924712,3.652435964137368,0.7522654921813401,B,1201.3555999997152,Correct
2,502,230,A,49.730045705673234,75.17749824414376,2.486502285283662,1.180885380995308,A,565.2387999998609,Correct
2,502,231,A,61.34649664399712,77.02713654980562,3.0673248321998563,1.209939431559636,B,515.5659000001833,Incorrect
2,502,232,A,36.33951735042168,46.090787988978626,1.816975867521084,0.7239924047216996,B,702.3741999996673,Incorrect
2,502,233,B,47.610694499199965,19.54171732281242,2.380534724959998,0.3069605778993795,B,474.25250000014785,Correct
2,502,234,B,80.02250849238015,57.48869582737464,4.0011254246190076,0.903030322378692,A,1228.1921000003422,Incorrect
2,502,235,B,77.4730072769037,66.1164171239864,3.8736503638451847,1.0385542515919701,B,550.1769000002241,Correct
2,502,236,A,43.91127669432539,72.63868600221441,2.1955638347162694,1.1410058115548627,A,555.9576000000561,Correct
2,502,237,B,46.973404262523516,39.249644855626784,2.3486702131261756,0.6165319796722276,B,405.876299999818,Correct
2,502,238,B,67.41461726978721,49.08017824874811,3.3707308634893605,0.7709496371157231,B,1143.6029000001326,Correct
2,502,239,B,59.54813633031167,38.81320406422408,2.977406816515584,0.6096763837522393,B,639.6107999999003,Correct
2,502,240,B,74.91463579264486,57.13086116614868,3.745731789632243,0.8974094686641555,B,901.6732999998567,Correct
2,502,241,A,62.00036727428909,78.32569556669596,3.1000183637144545,1.230337148898213,A,862.0206000000508,Correct
2,502,242,B,75.63356147952094,52.73649263068097,3.781678073976047,0.828382889123198,B,904.5028000000457,Correct
2,502,243,B,60.12034798397695,51.51078848709102,3.0060173991988473,0.8091295734583143,B,681.3688000002003,Correct
2,502,244,A,36.049508925466675,57.191485412066996,1.802475446273334,0.8983617520921874,B,1934.6207999997205,Incorrect
2,502,245,B,51.50952124142951,34.62740593436821,2.5754760620714756,0.5439260204814139,B,1319.171600000118,Correct
2,502,246,A,58.20475217499762,74.58961891443589,2.910237608749881,1.1716509940782702,A,773.514299999988,Correct
2,502,247,B,55.57846342060957,35.38919426851921,2.7789231710304785,0.55589216365221,B,388.1645999999819,Correct
2,502,248,B,68.54461013038475,39.21605148677095,3.4272305065192374,0.6160042962681935,B,596.7506999995749,Correct
2,502,249,B,78.39191939596667,62.21132052273716,3.9195959697983334,0.9772131376217549,B,836.4887000002454,Correct
2,502,250,B,44.1892672321287,20.033231656888926,2.209463361606435,0.31468126700472365,B,430.72570000003907,Correct
2,502,251,A,14.573079733627214,33.921197137817146,0.7286539866813606,0.5328329186456874,A,555.977299999995,Correct
2,502,252,A,53.976962370718965,80.68384620052474,2.6988481185359485,1.2673788924346865,A,468.2513999996445,Correct
2,502,253,B,39.945912324949035,15.06076273981024,1.9972956162474518,0.23657390790423366,B,408.429999999953,Correct
2,502,254,A,23.086998088263087,45.451706810055214,1.1543499044131544,0.7139537410379332,B,339.45419999963633,Incorrect
2,502,255,A,23.805469970387662,37.22794824826169,1.190273498519383,0.5847752436247997,B,451.20390000010957,Incorrect
2,502,256,A,22.140716584873022,52.6538451633573,1.107035829243651,0.8270846657422889,A,443.80709999995815,Correct
2,502,257,A,40.03739970464,67.97206790554293,2.001869985232,1.0677027459068011,B,111.94010000008348,Incorrect
2,502,258,A,67.3780869699005,80.47301565384245,3.3689043484950245,1.2640671739516394,B,508.0563000001348,Incorrect
2,502,259,B,80.04565979640454,62.21904751818376,4.002282989820227,0.9773345129824016,A,1073.0725999997048,Incorrect
2,502,260,B,73.45243439975832,46.63115745932174,3.672621719987916,0.7324805085129703,B,481.91959999985556,Correct
2,502,261,A,50.660485454167414,61.78339470070898,2.5330242727083707,0.9704912945279295,A,1190.092999999706,Correct
2,502,262,B,52.133118673460565,40.6075136948982,2.6066559336730286,0.6378613335221955,B,452.1879999997509,Correct
2,502,263,B,43.274007818951326,22.13829134512862,2.1637003909475663,0.34774746726443284,B,917.2982000000047,Correct
2,502,264,B,75.73237540877369,52.68874008011807,3.7866187704386847,0.8276327938130053,B,386.5517999997792,Correct
2,502,265,A,30.70532782629115,48.203507605904164,1.5352663913145574,0.7571789268598411,A,2370.8455000000868,Correct
2,502,266,B,37.819695334591536,25.426390189735983,1.8909847667295767,0.3993968031369107,B,490.33650000001217,Correct
2,502,267,B,39.39776470806706,12.517910191607598,1.969888235403353,0.19663087348125616,B,767.0275999998921,Correct
2,502,268,A,32.00427692076114,41.05117576907877,1.600213846038057,0.6448303610868058,B,872.2031999996034,Incorrect
2,502,269,A,23.72018066409559,48.422690633218025,1.1860090332047795,0.7606218458018452,A,844.8570000000473,Correct
2,502,270,A,29.429132052592248,39.34743082386906,1.4714566026296123,0.6180679980694981,A,698.1110000001536,Correct
2,502,271,A,37.930649369859196,58.709712870109904,1.8965324684929599,0.9222100132355171,B,482.7018999999382,Incorrect
2,502,272,A,48.673864553912075,66.51157628319966,2.4336932276956036,1.044761397149886,A,1518.5878000002049,Correct
2,502,273,A,41.21954856999063,59.02181714427338,2.0609774284995312,0.9271125357098468,A,1207.1060999996917,Correct
2,502,274,B,34.81407312491777,18.98055592388111,1.7407036562458884,0.29814587525757563,B,626.4882999998918,Correct
2,502,275,A,39.61931936949699,54.23855214329472,1.9809659684748495,0.8519771847736081,A,1638.9032000001862,Correct
2,502,276,B,50.16464144761035,28.73519362096449,2.508232072380517,0.4513713658955117,B,512.5468999999612,Correct
2,502,277,B,67.48224433183499,57.985807479716705,3.374112216591749,0.9108389339537502,A,1027.8837999999269,Incorrect
2,502,278,B,76.51716903843597,53.4436899588068,3.825858451921798,0.8394915187765902,B,415.2106999999887,Correct
2,502,279,B,75.70844839309639,44.45470617464878,3.7854224196548194,0.6982928916788471,B,296.05240000000776,Correct
2,502,280,A,46.804972516050384,71.81156318978283,2.340248625802519,1.1280133967991048,A,1133.060199999818,Correct
2,502,281,B,84.64323202582074,64.30514425694747,4.232161601291037,1.0101028439282902,B,853.3330999998725,Correct
2,502,282,B,79.73092669840979,50.882828171400675,3.9865463349204897,0.7992655958857205,B,460.2798000000803,Correct
2,502,283,A,50.71172960652929,77.16718305995339,2.5355864803264643,1.2121392769968413,A,713.8181999998778,Correct
2,502,284,A,45.37663364299338,58.68391671053552,2.2688316821496692,0.9218048081084684,B,793.2920000002923,Incorrect
2,502,285,A,53.43281919811422,76.54795934948456,2.6716409599057105,1.2024125336981542,A,448.752599999807,Correct
2,502,286,A,23.45067196822774,51.97759522087394,1.172533598411387,0.8164621564858076,A,1680.4925000001276,Correct
2,502,287,A,46.91678944913737,72.0055332797114,2.345839472456868,1.1310602718467835,A,529.906199999914,Correct
2,502,288,A,29.818204792622417,62.97259125563323,1.490910239631121,0.9891711503310512,A,390.62379999995755,Correct
2,502,289,B,61.10652222177806,42.27328959083823,3.055326111088903,0.6640272801082564,B,368.53049999990617,Correct
2,502,290,A,56.06254268321552,75.5445634798782,2.803127134160776,1.1866512282351658,A,508.142399999997,Correct
2,502,291,A,35.195539192503375,62.89538598396287,1.7597769596251687,0.987958412759561,A,543.1955000003654,Correct
2,502,292,B,70.14429082445676,55.89189719953531,3.5072145412228384,0.8779478681862803,B,339.92810000017926,Correct
2,502,293,A,31.78348045380842,40.236589251165086,1.589174022690421,0.6320348659848514,B,507.9301000000669,Incorrect
2,502,294,A,54.412350280822785,71.74124764276937,2.7206175140411393,1.1269088827694513,A,587.356500000169,Correct
2,502,295,B,45.17110111617363,20.7252888534683,2.2585550558086815,0.32555207602791214,B,410.84970000019894,Correct
2,502,296,B,36.611041552649,20.629820558762617,1.83055207763245,0.3240524635614216,B,2116.7891000000054,Correct
2,502,297,B,35.762865487682056,20.534353070270463,1.7881432743841028,0.3225528637589035,B,867.4498000000312,Correct
2,502,298,B,66.47941058533544,40.80791967148356,3.3239705292667723,0.6410093032410757,B,1147.4727999998322,Correct
2,502,299,A,27.779963480855635,39.648096459371054,1.3889981740427817,0.6227908428278979,A,963.204499999847,Correct
2,502,300,B,48.03767556397016,34.89509975546135,2.401883778198508,0.5481309451902019,B,758.5392000000866,Correct
2,502,301,A,14.776239150594886,33.16363039133475,0.7388119575297444,0.5209330880189222,A,420.63299999972514,Correct
2,502,302,A,26.55842666133894,40.92351445465542,1.3279213330669473,0.6428250618491059,A,399.1126999999324,Correct
2,502,303,B,70.20957420913874,43.97470628788248,3.510478710456937,0.6907530710889025,B,333.2013000003826,Correct
2,502,304,A,44.33462558352629,53.977209298794506,2.2167312791763147,0.8478720209718574,A,802.1922000002633,Correct
2,502,305,A,33.99572181965737,45.99771420547582,1.6997860909828686,0.7225304051492284,A,625.9501999998065,Correct
2,502,306,A,50.41268515244169,80.65531535382743,2.5206342576220844,1.2669307309427615,A,896.888200000376,Correct
2,502,307,B,58.717362952057556,28.18774017634978,2.9358681476028776,0.4427719872965916,B,1018.2449999997516,Correct
2,502,308,B,55.30002113020898,22.94646008930754,2.765001056510449,0.36044215221229975,B,1133.8462000003346,Correct
2,502,309,A,21.65015263929354,53.82441512844954,1.082507631964677,0.845471935756522,A,914.8787999997694,Correct
2,502,310,B,50.267489726882225,43.1510456675881,2.513374486344111,0.6778150403200622,B,1227.6855000000069,Correct
2,502,311,A,27.315447417781662,53.69232589567511,1.365772370889083,0.8433970829400097,A,455.58210000035615,Correct
2,502,312,A,46.11763404403132,75.5687238556461,2.305881702201566,1.1870307385302679,A,775.608899999952,Correct
2,502,313,A,33.75613091062428,62.644541527358854,1.687806545531214,0.9840181572492566,A,870.2303000000029,Correct
2,502,314,B,73.4531254836435,45.12365070920351,3.672656274182175,0.708800647855928,B,828.8849999999002,Correct
2,502,315,B,51.07683395709101,32.34945870192294,2.553841697854551,0.5081441090278377,B,389.42779999979393,Correct
2,502,316,A,55.88078914720424,73.48116158800589,2.794039457360212,1.1542393871106191,A,448.2111000002078,Correct
2,502,317,B,49.82295799032174,32.43444197677507,2.491147899516087,0.5094790231876047,B,366.035600000032,Correct
2,502,318,B,74.47342004821267,61.52870059523019,3.723671002410634,0.9664905688745055,B,530.1595999999336,Correct
2,502,319,B,76.7904800353314,50.94147212966628,3.8395240017665695,0.800186773028044,B,1204.9329999999827,Correct
2,502,320,A,61.276184054592974,71.96035185553437,3.063809202729649,1.130350563695417,B,477.2802999996202,Incorrect
2,502,321,B,44.42812857555197,27.084859178626843,2.2214064287775988,0.4254479730954408,B,462.6341999996839,Correct
2,502,322,A,51.858088268444995,66.36504990863344,2.59290441342225,1.0424597662404138,A,542.960100000073,Correct
2,502,323,B,63.04208439626983,33.44848005155697,3.1521042198134914,0.5254074960185806,B,376.62060000002384,Correct
2,502,324,A,39.77538971690864,50.959836399277066,1.9887694858454321,0.8004752383005328,B,420.49009999982445,Incorrect
2,502,325,B,48.051298196801966,28.396428016844382,2.4025649098400983,0.44605004822954847,B,1103.5243999999693,Correct
2,502,326,A,50.53017688339824,75.45819919533845,2.526508844169912,1.1852946212259527,A,500.53719999959867,Correct
2,502,327,A,56.21907493426562,74.33308836130638,2.810953746713281,1.1676214215726055,A,401.5361000001576,Correct
2,502,328,A,36.971942225582836,48.115315385082894,1.8485971112791417,0.7557936066946618,B,430.5050000002666,Incorrect
2,502,329,B,69.23223139728651,38.732438002397835,3.4616115698643255,0.6084077134197758,B,1986.9352999999137,Correct
2,502,330,A,35.71130451129934,48.63162019832357,1.785565225564967,0.7639037037361116,A,1983.1139999996594,Correct
2,502,331,B,61.59331128704154,34.34563703892218,3.079665564352077,0.539500005021697,B,1350.2721999998357,Correct
2,502,332,A,49.8818748502262,69.29178382154672,2.49409374251131,1.0884327950395163,A,520.5274999998437,Correct
2,502,333,B,75.93118867307402,54.58787257009109,3.7965594336537007,0.8574642972064699,B,449.9252999999044,Correct
2,502,334,B,46.33029318125113,23.141248701403114,2.3165146590625567,0.3635018845761118,B,487.178600000334,Correct
2,502,335,B,72.25591197136833,48.02817987125169,3.612795598568417,0.7544248852440673,B,1441.1318999996183,Correct
2,502,336,A,42.23193054950334,66.63380810793635,2.111596527475167,1.046681410163024,A,1383.208399999603,Correct
2,502,337,A,22.517874199969867,41.54339457508726,1.1258937099984934,0.652562116011381,A,1496.63529999998,Correct
2,502,338,B,81.65256876407094,61.31659849894503,4.082628438203546,0.9631588769370032,B,1407.0027999996455,Correct
2,502,339,B,51.67566013912527,38.16919423715179,2.5837830069562635,0.5995603010443896,B,1276.8030000002,Correct
2,502,340,B,59.37235570993832,36.49500297765602,2.968617785496916,0.5732621662367088,B,344.1574000003129,Correct
2,502,341,A,28.555416969403957,39.774518473425935,1.4277708484701979,0.6247766751809322,B,736.9664000002558,Incorrect
2,502,342,B,67.36195131950954,47.1907523447236,3.3680975659754773,0.7412706044177949,B,950.2137999998013,Correct
2,502,343,B,64.77190084754793,39.35132856159586,3.2385950423773964,0.6181292235905388,B,426.3573000002907,Correct
2,502,344,B,51.313074152255076,33.59907310622557,2.565653707612754,0.5277730061897232,B,387.22399999960544,Correct
2,502,345,B,82.3299483970573,58.6291715515185,4.116497419852865,0.9209448731615311,B,841.6187000002537,Correct
2,502,346,A,51.556274003276044,59.69191599886904,2.577813700163802,0.9376384239037301,B,436.67439999990165,Incorrect
2,502,347,A,20.7666490816049,44.965551339840765,1.038332454080245,0.7063172287692921,A,443.5572000002139,Correct
2,502,348,B,57.55420643975958,26.104236943649905,2.877710321987979,0.41004439504868906,B,895.42849999998,Correct
2,502,349,A,19.194998731826004,48.478449815430565,0.9597499365913003,0.7614977089878906,A,503.2011000002967,Correct
2,502,350,A,44.07999507373029,52.250943255712635,2.2039997536865146,0.8207558973764199,B,662.3859000001175,Incorrect
2,502,351,B,62.50283298543678,42.48645025502849,3.125141649271839,0.6673755999915285,B,458.5207000000082,Correct
2,502,352,B,70.73836503710386,38.5170241958304,3.5369182518551927,0.6050240012588055,B,524.1863999999623,Correct
2,502,353,A,64.36165699095218,79.65856835556487,3.218082849547609,1.2512738657066147,A,1369.4651000000704,Correct
2,502,354,A,31.355437215375098,59.97539450724695,1.567771860768755,0.9420912939005832,A,3138.0810000000565,Correct
2,502,355,A,43.585053164358314,53.86399742407671,2.1792526582179157,0.8460936930022946,B,817.5939000002472,Incorrect
2,502,356,A,43.576893028433375,68.33618719383185,2.178844651421669,1.0734223183123952,B,2047.5914000003286,Incorrect
2,502,357,A,20.94771403656046,36.7593564812674,1.0473857018280228,0.5774146213611902,A,1396.566299999904,Correct
2,502,358,B,55.173114684181215,23.317058004902954,2.7586557342090607,0.3662634906576509,B,1574.0076000001864,Correct
2,502,359,A,47.98014651675503,59.80842570703565,2.3990073258377516,0.9394685541199707,A,681.347199999891,Correct
2,502,360,A,67.46946716895067,80.7797271852252,3.373473358447534,1.268884987420456,A,890.9870999996201,Correct
2,502,361,B,75.98778080438069,45.23504394477823,3.7993890402190345,0.7105504087086337,A,1799.4211999998697,Incorrect
2,502,362,A,27.04242006832117,42.84953620654528,1.3521210034160587,0.6730789407810626,B,545.6568000004154,Incorrect
2,502,363,B,37.56744955300555,13.828469952379464,1.8783724776502777,0.2172170980639126,B,331.3322999997581,Correct
2,502,364,A,11.301179072223242,33.896477884924735,0.5650589536111621,0.5324446295292422,A,471.7625000002954,Correct
2,502,365,A,44.97732559080464,57.735702903780414,2.248866279540232,0.9069103004617972,B,363.6287999997876,Incorrect
2,502,366,B,51.13363048695146,42.3414458278969,2.556681524347573,0.6650978757764554,B,2496.384300000045,Correct
2,502,367,A,19.004467238965702,43.26908984775745,0.9502233619482852,0.6796692739661575,A,842.3057999998491,Correct
2,502,368,B,61.573966331428274,50.40006811567819,3.0786983165714137,0.7916824186631988,B,503.8590000003751,Correct
2,502,369,A,46.460451304961545,66.16828227861548,2.323022565248077,1.0393689475357704,A,792.7080999997997,Correct
2,502,370,B,38.28162844432043,25.147816458994686,1.9140814222160216,0.39502097720701096,B,1153.5706999998183,Correct
2,502,371,B,44.22270340600173,32.62693757694838,2.2111351703000865,0.512502737004369,B,1132.3323000001437,Correct
2,502,372,B,64.39171783880448,53.20857375868036,3.2195858919402243,0.8357983221413042,B,2247.3727999999937,Correct
2,502,373,B,46.23718502730014,37.44217684752205,2.311859251365007,0.5881403385929255,B,2500.899599999684,Correct
2,502,374,A,47.800464211883174,71.46801944561973,2.390023210594159,1.122617024284857,A,1662.046299999929,Correct
2,502,375,B,55.76286953621291,43.2921064312839,2.7881434768106454,0.6800308176147446,B,992.5238999999237,Correct
2,502,376,B,61.01934779515346,49.60932176626495,3.050967389757673,0.7792614040523509,B,1395.3316000001905,Correct
2,502,377,B,55.42917812873188,29.926405384551256,2.771458906436594,0.4700828765222812,B,769.9549000003572,Correct
2,502,378,A,54.31183464639694,74.61565030706478,2.715591732319847,1.1720598942374985,A,1916.769800000111,Correct
2,502,379,B,77.0904309574585,51.37689693972781,3.8545215478729244,0.8070264099504441,B,872.357700000066,Correct
2,502,380,B,58.57793897568067,47.06213635319609,2.9288969487840335,0.7392503091472098,A,1034.314699999868,Incorrect
2,502,381,B,51.600439014530636,44.52549527606981,2.580021950726532,0.6994048442837397,B,1136.6775999999845,Correct
2,502,382,B,66.6065211321957,54.50080850543489,3.3303260566097843,0.8560966980768918,B,1959.8888999998962,Correct
2,502,383,A,43.87425658443331,57.2367099376465,2.1937128292216657,0.8990721372788006,B,886.2739999999576,Incorrect
2,502,384,A,47.64242635303842,73.5590477654344,2.382121317651921,1.155462820324747,A,536.7541000000529,Correct
2,502,385,B,40.12049232235603,29.130636740793214,2.0060246161178013,0.45758297189634434,B,389.41920000024766,Correct
2,502,386,A,27.31715511746996,46.920904692186994,1.365857755873498,0.7370318474038076,A,570.1772999996138,Correct
2,502,387,B,63.94310407939942,35.11355279489681,3.1971552039699707,0.5515623975094258,B,530.4555000002438,Correct
2,502,388,B,67.93111414457076,41.125624735967655,3.3965557072285377,0.6459998027240332,B,398.3235999999124,Correct
2,502,389,B,59.31683862815886,35.94969301497595,2.965841931407943,0.5646964573732838,B,906.7514999997002,Correct
2,502,390,B,60.249746609822274,39.88392754560252,3.0124873304911137,0.6264952688678623,B,2711.196600000221,Correct
2,502,391,B,62.00149502898533,39.767340200079936,3.1000747514492666,0.6246639191268859,B,1591.2131999998564,Correct
2,502,392,B,37.90068247911525,28.7217936084106,1.8950341239557622,0.4511608789905251,B,1305.2032000000509,Correct
2,502,393,B,49.46258957600721,20.69482452336667,2.473129478800361,0.3250735434496931,B,978.8394000001972,Correct
2,502,394,A,60.65607798695164,76.53140670401307,3.032803899347582,1.2021525253511005,A,738.8676000000487,Correct
2,502,395,A,54.1399245487137,64.43638544756914,2.706996227435685,1.012164375729817,B,797.9178000000502,Incorrect
2,502,396,A,16.0213131443406,38.28620208947713,0.8010656572170299,0.6013982560907777,A,466.35120000019015,Correct
2,502,397,B,72.25912447627418,53.35061857272916,3.612956223813709,0.8380295568627855,B,701.1438999998063,Correct
2,502,398,A,52.81919671837783,63.14362194747212,2.6409598359188915,0.9918576941561481,B,332.8540000002249,Incorrect
2,502,399,B,66.14641485709821,56.82261708565001,3.3073207428549103,0.8925675819701197,A,939.2149000000245,Incorrect
2,502,400,A,37.931299256388456,50.34835898320015,1.8965649628194228,0.7908701735096162,B,1099.2403000000195,Incorrect
2,502,401,A,31.1480536623718,42.44893485955015,1.55740268311859,0.6667863095373723,B,752.2520999996232,Incorrect
2,502,402,B,53.64674310927535,26.242499991644323,2.6823371554637676,0.41221622592790014,B,319.1391999998814,Correct
2,502,403,A,13.700870224556478,42.299051348557114,0.6850435112278239,0.6644319448522222,A,517.5211999999192,Correct
2,502,404,B,57.64725732515917,31.850931525957265,2.8823628662579583,0.5003132624596944,B,449.6816000000763,Correct
2,502,405,A,51.51547738398735,74.0850258675452,2.575773869199368,1.1637248650324488,A,785.4106999998294,Correct
2,502,406,B,38.57488526298034,13.444178536145976,1.9287442631490168,0.21118066261352883,B,322.2851999998966,Correct
2,502,407,B,54.82293312859437,41.0419418379968,2.7411466564297187,0.6446853148365517,B,341.03619999996226,Correct
2,502,408,B,72.54425844651745,62.48075329153521,3.6272129223258727,0.9814453776572165,B,445.8849999996346,Correct
2,502,409,A,13.373219808785908,33.74885219735707,0.6686609904392954,0.5301257306515236,A,434.84350000017,Correct
2,502,410,B,35.7055201397079,18.418804064194997,1.7852760069853952,0.28932189767992417,B,1073.4930999997232,Correct
2,502,411,A,34.747699056754996,52.14543795037473,1.7373849528377496,0.8190986239155982,B,993.5748999996576,Incorrect
2,502,412,B,44.4228802001271,19.355465415813875,2.221144010006355,0.3040349397856609,B,590.5024000003323,Correct
2,502,413,B,66.62576494952965,44.425537113109435,3.3312882474764827,0.6978347051316266,B,747.758800000156,Correct
2,502,414,B,72.659334440149,61.94869007293225,3.63296672200745,0.9730877481631744,B,762.9661000000851,Correct
2,502,415,A,38.87596769340735,53.61239064325337,1.9437983846703673,0.8421414629311547,A,2655.9329000001526,Correct
2,502,416,A,50.81408305945683,61.40712154309253,2.5407041529728414,0.964580809589375,A,1545.6285000000207,Correct
2,502,417,A,43.404406905733,68.55214145764488,2.17022034528665,1.0768145199559271,A,791.9888000001265,Correct
2,502,418,A,34.042759878107056,44.29312177183847,1.702137993905353,0.6957547298148293,A,3299.859899999774,Correct
2,502,419,A,45.4841446743944,64.41531236158805,2.27420723371972,1.011833360469284,A,2290.799099999731,Correct
2,502,420,A,22.799950166568895,36.68342135096627,1.1399975083284446,0.576221835123673,A,2937.746999999945,Correct
2,502,421,B,43.83035464664646,30.917501817162453,2.1915177323323234,0.4856509828807332,B,1555.3964000000633,Correct
2,502,422,B,65.19817390837139,38.27376229701147,3.259908695418569,0.6012028522876662,B,3466.0407000001214,Correct
2,502,423,A,39.75408486558442,60.028129663872875,1.987704243279221,0.9429196558037928,A,1127.906400000029,Correct
2,502,424,A,60.857902952155406,77.68404100784096,3.04289514760777,1.220258062657007,A,3962.101900000107,Correct
2,502,425,A,51.051088150044016,64.99231129478852,2.552554407502201,1.0208968385176427,A,5834.949800000231,Correct
2,502,426,B,54.36962465534233,38.630865002061135,2.7184812327671164,0.6068122084614715,B,533.4708000000319,Correct
2,502,427,B,71.38247031718885,61.722044327164895,3.5691235158594425,0.969527605113824,B,611.0000999997283,Correct
2,502,428,A,39.73862143486554,67.63943343743247,1.986931071743277,1.0624777359000683,A,904.2979999999261,Correct
2,502,429,A,20.61813850100654,49.76805399710633,1.030906925050327,0.781754764103847,A,503.1754000001456,Correct
2,502,430,B,41.090409539876546,33.048530684671846,2.0545204769938272,0.5191251060545096,B,1494.6734000000106,Correct
2,502,431,B,48.586083852752544,22.25659198833697,2.4293041926376273,0.3496057294225244,B,1079.507299999932,Correct
2,502,432,B,69.875016177519,53.65876317550848,3.49375080887595,0.8428698809644599,B,4673.721399999977,Correct
2,502,433,A,18.060646059929624,32.779237563307674,0.9030323029964812,0.51489505959581,A,1384.9624999998014,Correct
2,502,434,B,45.0898386912601,20.363228538399678,2.254491934563005,0.31986484589803227,B,3015.3148000003966,Correct
2,502,435,B,47.63993879250291,27.065513546638577,2.3819969396251452,0.4251440926187739,B,5202.930100000231,Correct
2,502,436,B,75.94036455906877,51.63023225827072,3.7970182279534384,0.8110057918285903,B,410.99039999971865,Correct
2,502,437,B,83.04415203546132,53.19143019500268,4.152207601773066,0.8355290316727737,B,4523.5646000001,Correct
2,502,438,A,37.19758123314119,55.76654653161939,1.8598790616570597,0.8759788644990442,A,4913.353900000402,Correct
2,502,439,B,49.35174529537948,24.721807061121787,2.4675872647689743,0.3883292372334224,B,3702.3682000003646,Correct
2,502,440,A,39.48295512287138,50.39045648064479,1.974147756143569,0.7915314394531492,A,4294.10340000004,Correct
2,502,441,A,41.75637251791165,68.91463217593636,2.0878186258955824,1.0825085108438222,A,1754.5881999999438,Correct
2,502,442,A,34.32600355763054,55.26399161438112,1.7163001778815272,0.8680847503189382,A,546.8603999997868,Correct
2,502,443,B,69.70737756965048,58.06873012356779,3.485368878482524,0.9121414797974444,B,348.02189999982147,Correct
2,502,444,A,41.929698618249425,55.6474856936759,2.0964849309124713,0.8741086612299764,A,479.05530000025465,Correct
2,502,445,A,47.816993404384306,56.55809747645318,2.3908496702192155,0.8884125176652036,B,482.09780000024693,Incorrect
2,502,446,B,37.10132285903629,24.453186552005306,1.8550661429518143,0.3841097561432029,B,411.4940999997998,Correct
2,502,447,A,25.288039814120282,38.12145529058468,1.264401990706014,0.5988104194252628,A,1117.4348999998074,Correct
2,502,448,A,43.00521769272751,60.919814787928445,2.1502608846363755,0.9569262129790342,A,2144.2337999997108,Correct
2,502,449,B,84.91345109134564,64.87406234567821,4.245672554567282,1.0190393883685445,B,1034.7544000001108,Correct
2,502,450,A,22.5825099561578,37.81430576997706,1.12912549780789,0.5939857260377903,A,547.2875000000386,Correct
2,502,451,A,52.11906451287239,69.97960591954826,2.6059532256436193,1.099237079289808,B,421.27110000001267,Incorrect
2,502,452,A,32.47455539065987,52.66696075110406,1.6237277695329937,0.8272906849128522,A,478.93569999996544,Correct
2,502,453,B,48.07789335127128,33.152952196168016,2.403894667563564,0.5207653553214752,B,511.76200000008976,Correct
2,502,454,A,12.884969635145229,39.008185779776696,0.6442484817572613,0.6127391493780615,A,443.63609999982145,Correct
2,502,455,A,65.46156948285832,88.31670001995715,3.273078474142916,1.3872754798599547,A,1625.725599999896,Correct
2,502,456,A,43.245516397001296,74.85785983993367,2.162275819850065,1.1758645126829501,A,1771.146999999928,Correct
2,502,457,B,43.27783824568432,20.920269187861432,2.163891912284216,0.3286148199585319,B,1648.9741999998841,Correct
2,502,458,A,61.39388400387928,76.3422846992505,3.069694200193964,1.1991818038471291,A,1675.4444000002877,Correct
2,502,459,B,83.74838277221266,59.17923969313182,4.187419138610633,0.929585323324862,B,524.3166999998721,Correct
2,502,460,A,29.785947912665648,45.54359991807322,1.4892973956332825,0.7153971946032578,A,624.47659999998,Correct
2,502,461,A,55.079170463215334,80.39931569029565,2.753958523160767,1.262909497631397,A,411.4936000000853,Correct
2,502,462,B,82.23006316368357,56.55534909842588,4.1115031581841786,0.8883693462441044,B,471.6859000000113,Correct
2,502,463,B,51.47134881998976,21.62491100017537,2.573567440999488,0.33968330766342025,B,713.8576000002104,Correct
2,502,464,A,10.800565935542345,30.95780696859297,0.5400282967771173,0.4862840947189129,A,632.2602999998708,Correct
2,502,465,B,74.31506642218469,53.180272146070365,3.7157533211092346,0.8353537614500028,B,2871.149399999922,Correct
2,502,466,A,35.17312070185375,63.96227699346501,1.7586560350926874,1.0047170975477255,A,3519.1969000002246,Correct
2,502,467,B,65.3584691050508,34.21645150639984,3.2679234552525402,0.5374707634220858,B,1266.8189999999413,Correct
2,502,468,A,47.00447414406512,54.866271236663756,2.350223707203256,0.8618373732348391,A,624.6248000002197,Correct
2,502,469,B,53.64616942644127,23.38074352185101,2.6823084713220635,0.3672638604185714,B,333.3420999997543,Correct
2,502,470,A,17.798543463915315,47.12908373579001,0.8899271731957658,0.7403019161738805,A,817.2154999997474,Correct
2,502,471,B,34.485505342255365,11.302001300276991,1.7242752671127681,0.17753142127906243,B,339.43009999984497,Correct
2,502,472,B,80.71564939306143,66.91116506428435,4.035782469653071,1.0510381230454489,B,410.5808999997862,Correct
2,502,473,A,20.296283161531377,46.49903611328882,1.0148141580765688,0.7304051512625732,A,408.142300000236,Correct
2,502,474,B,65.08719422344447,40.389577285620106,3.254359711172224,0.6344379964105065,B,382.79659999989235,Correct
2,502,475,B,68.32080532976661,44.03785475634029,3.4160402664883303,0.6917450049118649,B,381.15120000020397,Correct
2,502,476,A,20.33013006103875,40.25651756114883,1.0165065030519376,0.6323478991460684,A,379.4759000002159,Correct
2,502,477,A,38.85672127620069,67.82250236629476,1.9428360638100344,1.0653533759101397,A,436.90069999956904,Correct
2,502,478,B,50.58047811343498,43.64201079220345,2.529023905671749,0.6855271024633641,B,938.435500000196,Correct
2,502,479,B,56.97927751261365,40.64972691383971,2.848963875630682,0.6385244172147506,B,665.8975000000282,Correct
2,502,480,A,51.450775405909496,78.81902120837805,2.5725387702954747,1.2380862899568927,A,3699.583000000075,Correct
2,502,481,B,32.92580315731439,12.984823492440281,1.6462901578657196,0.20396513046005274,B,496.8682000003355,Correct
2,502,482,B,40.71682588873484,24.001921928886105,2.0358412944367417,0.37702130801912176,B,397.3078000003625,Correct
2,502,483,B,61.84802669619491,50.28868323758929,3.092401334809745,0.7899327890895733,A,360.90999999987616,Incorrect
2,502,484,A,64.52518472887813,76.2860528607072,3.2262592364439064,1.198298516192802,A,3338.02280000009,Correct
2,502,485,A,52.96981438301399,70.73457267650528,2.6484907191506992,1.1110960693766114,A,1260.242500000004,Correct
2,502,486,A,33.676105715460466,47.14624951919808,1.6838052857730232,0.7405715556691199,A,343.04340000016964,Correct
2,502,487,B,48.57085891139917,27.583907574024195,2.4285429455699585,0.4332870069592713,B,458.6322999998629,Correct
2,502,488,B,56.24134324484713,38.59838429460634,2.8120671622423568,0.6063020027018547,B,484.8720999998477,Correct
2,502,489,A,35.454410183412,60.79358445338762,1.7727205091706,0.9549433915207661,A,391.89440000018294,Correct
2,502,490,A,18.185097528410697,39.65154540721693,0.9092548764205348,0.622845018773974,A,4120.734399999947,Correct
2,502,491,A,44.612948018553524,53.98337942424766,2.230647400927676,0.8479689410758341,A,798.8562999998976,Correct
2,502,492,B,43.341621601611976,24.571550673025655,2.1670810800805986,0.38596901540843365,B,4305.658199999925,Correct
2,502,493,B,67.85041864613547,56.84300802512822,3.3925209323067738,0.8928878820984423,B,611.3319999999476,Correct
2,502,494,B,71.27765796390965,44.116891808712815,3.563882898195482,0.6929865160273394,B,371.06809999977486,Correct
2,502,495,A,15.679808329366033,44.39498401188422,0.7839904164683017,0.6973547781398589,A,368.61729999964155,Correct
2,502,496,A,44.460435165250054,55.456372288521585,2.2230217582625027,0.8711066588817998,A,319.2271999996592,Correct
2,502,497,B,79.92916750072574,56.827521118719474,3.996458375036287,0.8926446143414395,B,498.5680999998294,Correct
2,502,498,A,17.106481286221456,34.75356817583456,0.8553240643110728,0.5459077723361694,A,855.2353999998559,Correct
2,502,499,A,50.20279282558449,77.39718097181935,2.5101396412792245,1.215752075748137,B,786.0415999998622,Incorrect
2,502,500,B,58.02967894813581,42.41537429396683,2.9014839474067906,0.6662591414059377,B,2212.833699999919,Correct
2,502,501,B,38.757899216989344,26.71666036533223,1.9378949608494673,0.41966431966090667,B,400.15749999975014,Correct
2,502,502,B,45.88500856590566,31.007383828489154,2.2942504282952827,0.4870628462131024,B,602.6452999999492,Correct
2,502,503,A,53.769088092313595,83.14488721345435,2.6884544046156797,1.3060368342667004,A,709.9901999999929,Correct
2,502,504,A,46.18047358548632,67.79055311332421,2.3090236792743157,1.0648515182180402,A,411.49429999995846,Correct
2,502,505,A,20.95617112354683,51.115683022831575,1.0478085561773414,0.802923271338761,A,575.1380000001518,Correct
2,502,506,A,23.567878730499192,47.25326307278051,1.1783939365249596,0.7422525206379655,A,641.3540000003195,Correct
2,502,507,A,46.007004812700075,59.55506066235082,2.300350240635004,0.9354887053046791,B,396.1245999998937,Incorrect
2,502,508,A,52.22735446556086,62.68673181576818,2.611367723278043,0.9846808807498543,B,515.316299999995,Incorrect
2,502,509,B,33.26674472791172,21.70247471585045,1.663337236395586,0.34090167566017,B,506.52080000008937,Correct
2,502,510,A,38.71554810034747,63.35092710881578,1.9357774050173733,0.9951140360157907,B,823.5022999997454,Incorrect
2,502,511,A,43.839500376054396,53.34164950687347,2.1919750188027196,0.8378886711057766,B,646.6912999999295,Incorrect
2,502,512,B,65.4007943621895,33.65014778536905,3.270039718109475,0.5285752853736312,B,388.50719999982175,Correct
2,502,513,B,75.47666849953787,63.09850867232423,3.7738334249768934,0.9911490564872283,B,582.1773000002395,Correct
2,502,514,A,22.301534435772716,37.26492263590375,1.1150767217886357,0.5853560359477361,A,416.38319999992746,Correct
2,502,515,B,88.47437865867659,66.33716509455749,4.423718932933829,1.0420217526051754,B,722.6169000000482,Correct
2,502,516,A,36.25092591515794,68.62896291405463,1.8125462957578973,1.0780212285714017,A,429.93360000036773,Correct
2,502,517,A,54.956933792982184,65.53371282720833,2.747846689649109,1.0294011539021046,B,411.74640000008367,Incorrect
2,502,518,B,68.82685937431455,49.839756734782796,3.4413429687157278,0.7828810680734801,B,452.0010999999613,Correct
2,502,519,A,36.818743142757256,49.71585270149144,1.8409371571378628,0.7809347880697888,A,447.64149999991787,Correct
2,502,520,A,43.7742728510604,74.92214500590192,2.18871364255302,1.1768743017086534,A,548.6175000000912,Correct
2,502,521,B,46.5314131338547,20.963408599109346,2.326570656692735,0.32929245224581505,B,356.9196999997075,Correct
2,502,522,A,13.733600766366134,34.47227463940426,0.6866800383183067,0.5414892237984108,A,404.6325999997862,Correct
2,502,523,B,45.96278527951214,34.86751071977075,2.298139263975607,0.5476975776309757,B,406.57629999986966,Correct
2,502,524,B,83.90059694696052,68.8103494808089,4.195029847348025,1.0808704420992772,A,710.0898000003326,Incorrect
2,502,525,B,68.7727755244312,41.05360794016011,3.43863877622156,0.6448685655408131,B,402.4974000003567,Correct
2,502,526,A,59.369617120035095,72.69089696089287,2.968480856001755,1.1418259393759684,A,655.7889999999134,Correct
2,502,527,B,32.365518702424744,13.956110866897355,1.618275935121237,0.21922207686064704,B,419.1071999998712,Correct
2,502,528,A,33.253394161990336,64.27742521906305,1.662669708099517,1.0096674342993788,A,453.0383000001166,Correct
2,502,529,A,31.738114834883717,62.71313495557953,1.586905741744186,0.9850956203001695,A,562.0370000001458,Correct
2,502,530,B,52.39842331072964,29.432718539664865,2.619921165536482,0.46232806169693624,B,582.4488999996902,Correct
2,502,531,B,66.81562967570864,40.08278456543186,3.340781483785432,0.6296189076309153,B,961.5253000001758,Correct
2,502,532,B,86.5548648522713,62.23809300456196,4.327743242613565,0.9776336787828508,B,676.2807000000066,Correct
2,502,533,B,58.42031036869382,39.39536101310699,2.9210155184346913,0.6188208837214734,B,436.29310000005717,Correct
2,502,534,A,34.75448557592946,44.40092436622576,1.737724278796473,0.6974480890076543,B,464.7162000001117,Incorrect
2,502,535,B,64.03670325119926,50.22089543684878,3.201835162559963,0.7888679808055264,B,481.03249999985565,Correct
2,502,536,A,25.817820202525624,55.48759381798186,1.2908910101262814,0.8715970855197313,A,436.6300000001502,Correct
2,502,537,B,33.806876793124516,11.948646254459838,1.6903438396562256,0.18768889646677114,B,2031.94429999985,Correct
2,502,538,A,48.771279792338404,60.42666169765344,2.4385639896169202,0.9491797823515188,B,433.10299999984636,Incorrect
2,502,539,B,41.751626448920206,28.11602886790043,2.0875813224460105,0.44164554869757267,B,413.22589999981574,Correct
2,502,540,A,48.41126948683962,76.08939146818308,2.420563474341981,1.1952093662628094,A,570.7805000001827,Correct
2,502,541,A,39.22198572933072,59.96518807167453,1.961099286466536,0.941930971585515,A,446.08049999988,Correct
2,502,542,A,37.93115712562772,60.21195887655845,1.896557856281386,0.9458072383242339,B,488.86799999991126,Incorrect
2,502,543,A,42.957260014165655,50.26771342217741,2.147863000708283,0.7896033959993479,A,595.952600000146,Correct
2,502,544,B,52.79924657796808,43.44002720084683,2.6399623288984038,0.682354351629606,B,349.0327999998044,Correct
2,502,545,B,37.30966899756761,14.4215175209394,1.8654834498783806,0.22653266748699852,B,321.4712999997573,Correct
2,502,546,B,71.58304433229875,55.504735310049895,3.5791522166149377,0.8718663434474938,B,983.8512000001174,Correct
2,502,547,B,42.99661972446893,33.17327217737481,2.1498309862234466,0.521084540839877,B,415.8729000000676,Correct
2,502,548,A,22.620691239588606,41.2077322354494,1.1310345619794304,0.6472895443099157,A,439.6193000002313,Correct
2,502,549,A,44.97860547899385,54.07632144930562,2.2489302739496924,0.8494288709914934,A,811.5093999999772,Correct
