subject,day,trial,cat,x,y,xt,yt,resp,rt,fb
4,304,0,B,66.01255881357135,40.54797913974959,3.300627940678567,0.6369261669167475,B,1300.275400000828,Correct
4,304,1,B,47.64719210431448,31.110473441685087,2.382359605215724,0.4886821740704912,B,1378.3217999989574,Correct
4,304,2,A,69.84906342224276,86.24187019822287,3.492453171112138,1.3546841292329075,A,477.69510000034643,Correct
4,304,3,B,46.11995623179188,33.22910318520459,2.3059978115895943,0.5219615322600798,A,748.3021999996708,Incorrect
4,304,4,A,57.552573883126655,75.45035790294452,2.877628694156333,1.1851714504930555,A,970.9148000001733,Correct
4,304,5,A,63.483043112370645,73.55881689693574,3.1741521556185326,1.1554591938508503,A,724.8793999988266,Correct
4,304,6,A,17.418161159385964,31.676207787979646,0.8709080579692982,0.49756870840150325,A,701.7433000000892,Correct
4,304,7,B,68.16204049772169,53.848326897473456,3.4081020248860847,0.8458475409460212,B,1359.1099999994185,Correct
4,304,8,B,81.07528507767339,60.52076214756519,4.053764253883669,0.9506579087622302,B,731.0127999990073,Correct
4,304,9,A,28.887390313988554,45.95361789263324,1.4443695156994278,0.7218377418868452,A,471.1569999999483,Correct
4,304,10,B,47.86032042808426,40.41763410060763,2.393016021404213,0.6348787118297462,B,806.1114000011003,Correct
4,304,11,B,46.328166012607326,27.723072139849698,2.316408300630366,0.4354729988474583,B,598.3646000004228,Correct
4,304,12,A,37.53179153854693,59.309360674548785,1.8765895769273468,0.9316292589213491,A,1520.3146000003471,Correct
4,304,13,A,53.58672988536175,72.42650468963232,2.6793364942680875,1.137672875290678,A,658.5674999987532,Correct
4,304,14,A,51.32361965909911,81.72103271185706,2.5661809829549553,1.2836709800567065,A,505.1832999997714,Correct
4,304,15,A,50.30307024145378,72.80574355973714,2.515153512072689,1.143629945532063,A,509.6312999994552,Correct
4,304,16,A,56.71140564577719,65.41523311998293,2.8355702822888595,1.0275400790130103,A,596.2871000010637,Correct
4,304,17,A,26.04237604513588,36.647240589472915,1.302118802256794,0.5756535090511289,A,719.6320000002743,Correct
4,304,18,A,53.67718639845515,75.2497253831475,2.6838593199227576,1.1820199222417278,A,1145.311500000389,Correct
4,304,19,A,60.61685226867318,70.19149440144596,3.030842613433659,1.1025654157803586,A,577.0422000005055,Correct
4,304,20,A,62.806319843860436,75.31111215895861,3.1403159921930217,1.1829841834613064,A,529.3190000011236,Correct
4,304,21,B,34.247040449973326,12.513518051489765,1.7123520224986664,0.19656188190561757,B,1213.219699999172,Correct
4,304,22,A,18.38775617893025,39.702420259099256,0.9193878089465124,0.6236441590786039,A,655.9956999990391,Correct
4,304,23,A,25.97357678552285,44.60256782739035,1.2986788392761426,0.70061549708885,A,486.0377000004519,Correct
4,304,24,A,42.57819703511651,73.73996808627226,2.1289098517558256,1.1583047100788937,A,517.8250999997545,Correct
4,304,25,B,66.19895374633852,38.554528872170515,3.3099476873169262,0.6056131233371324,B,490.5061999997997,Correct
4,304,26,B,59.2535462599516,41.3164275566105,2.96267731299758,0.6489969264221122,B,374.093599999469,Correct
4,304,27,A,13.625300845054216,41.41169655026631,0.6812650422527108,0.6504934082750322,A,481.14299999906507,Correct
4,304,28,B,33.971638747668266,18.339431416516675,1.6985819373834132,0.28807511504571315,B,543.8210000011168,Correct
4,304,29,B,67.2537861752618,55.684895200312845,3.3626893087630894,0.8746962883861018,B,1806.720900000073,Correct
4,304,30,B,37.042710120420324,17.317425397290368,1.8521355060210163,0.2720214820360836,B,463.2681000002776,Correct
4,304,31,B,55.99761780836649,31.664428928803403,2.7998808904183243,0.4973836865142245,B,363.7198000014905,Correct
4,304,32,A,42.87624232288866,54.11616066196756,2.143812116144433,0.8500546638806112,A,1066.6321999997308,Correct
4,304,33,B,49.24005827998832,27.732327797880863,2.4620029139994157,0.4356183863838326,B,366.5098000001308,Correct
4,304,34,A,39.8474165669292,67.39457526080585,1.99237082834646,1.0586315126557604,A,870.2666999997746,Correct
4,304,35,A,57.40795413204067,74.18881892335145,2.870397706602034,1.1653552425405218,A,866.9480000007752,Correct
4,304,36,A,18.90727492979859,46.62871709875258,0.9453637464899295,0.7324421754187895,A,461.46199999930104,Correct
4,304,37,A,37.40789127315888,69.57108338352909,1.8703945636579442,1.0928200222998894,A,511.4233000003878,Correct
4,304,38,A,58.9899147883962,86.69733843727548,2.94949573941981,1.3618386076016633,A,478.07339999963006,Correct
4,304,39,A,43.07921743618384,60.39029221443699,2.153960871809192,0.9486084918450806,A,856.826799999908,Correct
4,304,40,B,67.80249171176315,43.402567501903405,3.3901245855881577,0.6817659360545741,B,499.05779999971855,Correct
4,304,41,B,66.0597508932447,53.30007048042849,3.302987544662235,0.8372355492856618,B,420.1976000003924,Correct
4,304,42,B,72.54768332480081,52.9859017616193,3.6273841662400406,0.8323005985906684,B,462.93429999968794,Correct
4,304,43,A,64.81229927797446,88.70236094888315,3.2406149638987234,1.3933334275654075,A,484.21830000006594,Correct
4,304,44,B,38.522953365469974,18.240215518082884,1.9261476682734986,0.28651663535751865,B,391.27539999935834,Correct
4,304,45,A,26.483700142995822,40.43407104436939,1.324185007149791,0.6351369027385932,A,533.8928000001033,Correct
4,304,46,B,37.78742235685681,12.869829518815475,1.8893711178428405,0.20215880934631877,B,415.553999999247,Correct
4,304,47,B,37.774010885796265,13.602135409296139,1.8887005442898133,0.21366184337489172,B,302.50879999948665,Correct
4,304,48,B,77.77563240396195,49.99943277564698,3.888781620198097,0.7853892534581464,B,542.4982999993517,Correct
4,304,49,B,55.49654780574831,39.107963741349046,2.7748273902874154,0.6143064579333908,B,369.3014000000403,Correct
4,304,50,B,53.46511704552925,28.88332262792249,2.6732558522764625,0.4536981708957256,B,367.59410000013304,Correct
4,304,51,B,85.23012363022113,65.1416027536579,4.261506181511056,1.0232419032697817,B,651.5239000000292,Correct
4,304,52,A,65.55957325009086,79.67288462051448,3.2779786625045433,1.2514987450705777,A,521.8917000001966,Correct
4,304,53,B,61.721438345243115,29.716419649698967,3.0860719172621556,0.46678442831242817,B,318.04100000044855,Correct
4,304,54,B,53.409376998063046,42.09463945412627,2.6704688499031524,0.6612210503229707,B,498.7442000001465,Correct
4,304,55,A,31.53821583538862,48.91737399355351,1.5769107917694312,0.7683923138552605,A,606.6395999987435,Correct
4,304,56,A,22.729899956194362,45.381315577975315,1.136494997809718,0.7128480381500364,A,543.7502000004315,Correct
4,304,57,B,44.061120536909065,16.192311860069164,2.2030560268454535,0.25434823992114086,B,354.245999998966,Correct
4,304,58,B,66.96509174518626,50.575639693495944,3.348254587259313,0.794440290558456,B,554.2492000004131,Correct
4,304,59,A,11.829723549234302,31.01357058620495,0.5914861774617151,0.4871600275760498,A,491.9260000006034,Correct
4,304,60,A,54.75772129452613,69.83335508290482,2.7378860647263066,1.096939776519906,B,439.7939000009501,Incorrect
4,304,61,A,55.33589696267302,67.18857102658276,2.766794848133651,1.0553956057115423,B,1294.4238000000041,Incorrect
4,304,62,A,49.35032142188118,56.529611847489754,2.467516071094059,0.8879650664517817,B,1779.4154999992315,Incorrect
4,304,63,B,47.60442299065739,37.14993508254458,2.3802211495328693,0.5835498156832989,B,561.5348999999696,Correct
4,304,64,A,39.33842488569003,68.88566434030679,1.9669212442845014,1.082053485145801,A,768.3901000000333,Correct
4,304,65,B,89.36047496542078,63.98111370619972,4.468023748271039,1.0050129839394513,B,503.5914000000048,Correct
4,304,66,A,24.43437235913467,39.6419099498613,1.2217186179567334,0.622693665363762,A,525.7130000009056,Correct
4,304,67,A,32.74352865671943,56.24954145089654,1.6371764328359715,0.8835657309496555,A,576.7728999999235,Correct
4,304,68,B,73.74215070040994,56.81356946396848,3.6871075350204965,0.8924254622610838,B,476.89859999991313,Correct
4,304,69,A,43.94506077097874,57.27367154465295,2.197253038548937,0.8996527288439823,A,1119.9636999990616,Correct
4,304,70,B,41.61147447598209,19.813170825687134,2.080573723799105,0.31122455955149153,B,418.7646999998833,Correct
4,304,71,B,68.34399078110161,51.89960727453013,3.4171995390550807,0.8152371246892962,B,650.1991000004637,Correct
4,304,72,B,85.89247168536338,68.52531218424994,4.294623584268169,1.0763930867149338,B,508.7148000002344,Correct
4,304,73,B,40.23790954927128,20.410196997664265,2.011895477463564,0.3206026247309125,B,511.1930000002758,Correct
4,304,74,A,65.13272877800046,76.5340070736971,3.256636438900023,1.2021933718625804,A,1014.3664000006538,Correct
4,304,75,A,44.29279624560662,53.18610555208939,2.2146398122803306,0.8354453923774767,B,959.8129000005429,Incorrect
4,304,76,A,39.47743920005467,56.73244428855849,1.9738719600027335,0.8911511509856377,A,802.2727999996278,Correct
4,304,77,B,66.52549358276453,47.61607037962521,3.3262746791382263,0.7479514844872256,B,498.85379999977886,Correct
4,304,78,A,29.656021779163478,57.79482658962854,1.482801088958174,0.9078390131473653,A,690.3411999992386,Correct
4,304,79,A,65.73188369726284,81.55799110253895,3.286594184863142,1.2811099284463905,A,744.7085000003426,Correct
4,304,80,B,61.85315546228511,42.836456887002186,3.0926577731142557,0.6728734913101099,B,494.5212000002357,Correct
4,304,81,B,77.37964642476157,45.38082387524828,3.8689823212380787,0.7128403145016615,B,459.48930000122346,Correct
4,304,82,A,13.752561442002818,33.651682868932284,0.6876280721001409,0.5285993984098557,A,535.6524999988324,Correct
4,304,83,A,10.023776388446127,32.933515754618725,0.5011888194223063,0.5173184557579695,A,478.2537000010052,Correct
4,304,84,B,65.38815912848462,38.25135049119875,3.269407956424231,0.6008508084651915,B,544.747500000085,Correct
4,304,85,A,66.23539058119547,78.21977575353527,3.3117695290597737,1.228673364363737,A,652.1146999984921,Correct
4,304,86,B,32.65145454831679,10.271191332172801,1.6325727274158397,0.16133949616384616,B,553.3666999999696,Correct
4,304,87,A,32.6273047317623,48.28369764015923,1.631365236588115,0.7584385489723753,A,758.6458999994647,Correct
4,304,88,B,71.21358297132376,40.55126971625757,3.560679148566188,0.6369778551716653,B,511.45849999920756,Correct
4,304,89,A,38.061712453258366,57.888530937478514,1.9030856226629183,0.9093109176014398,A,870.91909999981,Correct
4,304,90,A,36.817141983746886,68.18234693899684,1.8408570991873443,1.071005801240315,A,803.9089999983844,Correct
4,304,91,A,36.81619974022171,47.59507196634959,1.8408099870110857,0.747621642182807,A,1190.6705000001239,Correct
4,304,92,A,49.963428969798365,79.02706790397505,2.4981714484899182,1.2413542798093489,A,554.5562999996037,Correct
4,304,93,A,36.33154237744885,64.80635859616363,1.8165771188724422,1.017975900358067,A,758.7495999996463,Correct
4,304,94,A,60.238783924078504,70.12795645783177,3.0119391962039255,1.101567364095946,A,3103.2839999988937,Correct
4,304,95,A,27.427605115993288,39.14247484340197,1.3713802557996644,0.6148485570567747,B,707.2131999993871,Incorrect
4,304,96,B,42.668481470107054,28.746903986066275,2.1334240735053527,0.4515553118803848,B,638.5131999995792,Correct
4,304,97,B,74.18660281242252,55.097979656255134,3.709330140621126,0.865477040578655,B,650.6422000002203,Correct
4,304,98,A,47.36446169048824,67.90024349497514,2.368223084524412,1.0665745307038603,B,930.3890000010142,Incorrect
4,304,99,B,66.92985226040196,42.20945252361344,3.346492613020098,0.6630245298011557,B,506.1547999994218,Correct
4,304,100,B,63.292708180340945,54.62859762342283,3.1646354090170474,0.85810400484829,B,618.1417999996484,Correct
4,304,101,A,41.35388234741886,57.68192413618142,2.0676941173709427,0.9060655455557566,A,498.1993000001239,Correct
4,304,102,B,70.01850888343887,56.5676550767688,3.5009254441719433,0.8885626480998912,B,2223.996700000498,Correct
4,304,103,A,34.844662897816704,66.23832097236163,1.7422331448908353,1.0404691127644703,A,882.4693000005936,Correct
4,304,104,B,55.5757215283878,48.68928734076821,2.77878607641939,0.7648095370913995,B,1705.6795000007696,Correct
4,304,105,B,37.71406923909127,16.37274549067769,1.8857034619545636,0.25718248476304223,B,507.3546000003262,Correct
4,304,106,A,29.93980551998392,62.30680816413616,1.496990275999196,0.9787130539853935,A,536.0923999996885,Correct
4,304,107,B,64.69069612150498,54.098498571070195,3.2345348060752492,0.8497772284055602,B,661.0407000007399,Correct
4,304,108,B,33.695034104097566,11.188330256452637,1.6847517052048784,0.17574588069804004,B,491.7021000001114,Correct
4,304,109,B,35.86401510422061,17.58334284294196,1.7932007552110307,0.27619850350468567,B,524.5297000001301,Correct
4,304,110,A,49.97347750512378,61.63578176777808,2.498673875256189,0.9681725959995767,B,1111.0327999995206,Incorrect
4,304,111,A,22.979302927721484,35.5981617223652,1.1489651463860742,0.5591746167414194,A,692.0367000002443,Correct
4,304,112,A,39.918700045806425,51.91008134752484,1.995935002290321,0.815401651043163,A,804.6076000009634,Correct
4,304,113,A,41.00331922936869,72.3651335073137,2.0501659614684344,1.1367088590131065,A,476.31260000162,Correct
4,304,114,A,44.41961609257606,60.15088128726452,2.220980804628803,0.9448478337951098,A,868.5786999994889,Correct
4,304,115,A,61.700367264936325,71.95071201650657,3.085018363246816,1.1301991414580594,B,767.6754000003712,Incorrect
4,304,116,B,46.057292359142316,20.65240708837208,2.3028646179571157,0.32440725193887743,B,529.8990000010235,Correct
4,304,117,A,12.494749496264841,39.90780605503063,0.6247374748132422,0.6268703516168526,A,478.6008999999467,Correct
4,304,118,B,41.57630557763401,22.865761659345537,2.0788152788817005,0.3591745442386755,B,689.365899999757,Correct
4,304,119,A,36.05795110049263,47.733136787710215,1.8028975550246316,0.7497903593253354,A,1142.888899999889,Correct
4,304,120,B,30.167725165867523,14.293058475685442,1.5083862582933762,0.22451483752271353,B,457.12490000005346,Correct
4,304,121,A,69.39754051214354,87.3109835990418,3.469877025607177,1.3714777232622433,A,761.4448999993328,Correct
4,304,122,A,58.05831382479532,73.89149586604228,2.902915691239766,1.1606849028775952,A,763.9940999997634,Correct
4,304,123,A,50.55803097052389,59.73537980721336,2.527901548526194,0.9383211518086879,A,572.5024999992456,Correct
4,304,124,B,64.91207362875592,48.570856656567166,3.245603681437796,0.7629492322541715,B,1336.9375000002037,Correct
4,304,125,A,40.43544466329336,66.86503204199698,2.021772233164668,1.0503134672259193,A,514.8723000002065,Correct
4,304,126,B,62.26871375602696,54.66574261816567,3.1134356878013483,0.8586874770612988,B,2645.395200001076,Correct
4,304,127,B,76.16655358567598,65.34724613966426,3.808327679283799,1.0264721420234661,B,890.6230999982654,Correct
4,304,128,B,54.49078789517692,44.503344279705075,2.724539394758846,0.6990568972464941,B,559.0778999994654,Correct
4,304,129,A,32.66572573628979,46.57619365342756,1.6332862868144895,0.7316171390689178,A,1015.3717000011966,Correct
4,304,130,A,41.326758900422824,72.251444067567,2.066337945021141,1.1349230294696115,A,768.7768999985565,Correct
4,304,131,A,44.02979457346722,62.986012260282415,2.2014897286733612,0.9893819669790994,A,460.9269000011409,Correct
4,304,132,B,43.334217134016626,17.856088243189458,2.1667108567008313,0.2804827782332754,B,590.0452999994741,Correct
4,304,133,A,49.80633491949023,74.14683605040332,2.490316745974512,1.1646957771143696,A,553.0906000003597,Correct
4,304,134,A,22.007053891668544,33.49627285366357,1.1003526945834272,0.5261582235985435,B,929.9432000007073,Incorrect
4,304,135,A,60.99284339859106,80.35772167886189,3.049642169929553,1.2622561404276287,A,718.9223999994283,Correct
4,304,136,A,67.19113575651436,83.20413965483252,3.359556787825718,1.306967569439405,A,792.2906999992847,Correct
4,304,137,B,83.84979917107935,64.46295015658491,4.192489958553967,1.012581653203261,B,721.9869000000472,Correct
4,304,138,A,28.222047185552427,42.96813769503497,1.4111023592776213,0.6749419286057826,A,779.3548999998166,Correct
4,304,139,A,45.80554915177361,56.3460741343775,2.290277457588681,0.8850820627959312,A,1894.4484000003285,Correct
4,304,140,A,53.24817249996846,79.29580132626538,2.662408624998423,1.2455755345355555,A,663.8547000002291,Correct
4,304,141,A,32.83889445817883,54.313197973689775,1.6419447229089414,0.8531497187355591,A,575.8729000008316,Correct
4,304,142,B,44.081723083025715,31.550699564518766,2.2040861541512857,0.4955972298375541,B,1273.2670000004873,Correct
4,304,143,B,50.824177789340574,25.291260314741116,2.5412088894670286,0.3972741880240888,B,501.37979999999516,Correct
4,304,144,B,61.98691400332559,32.26177438672334,3.0993457001662796,0.506766767025507,B,876.0594999985187,Correct
4,304,145,A,49.48608610480305,73.32667491317243,2.4743043052401528,1.1518127160969474,A,627.5216999983968,Correct
4,304,146,B,71.4092049352715,41.543393447417984,3.5704602467635755,0.6525620982979934,B,830.5679999994027,Correct
4,304,147,B,71.61853050963158,55.31856162763327,3.580926525481579,0.8689419340826346,B,761.0576999995828,Correct
4,304,148,B,89.24376986604331,64.42361262709801,4.462188493302166,1.0119637407350288,B,869.2163999985496,Correct
4,304,149,B,39.02722889560654,21.53036605940297,1.951361444780327,0.33819819920659694,B,810.759699999835,Correct
4,304,150,B,80.46038160203655,67.90426049546562,4.023019080101827,1.066637629600012,B,684.6977000004699,Correct
4,304,151,B,86.59120912725233,63.79508124253771,4.329560456362617,1.0020907928336023,B,502.06470000011905,Correct
4,304,152,B,51.27348419021476,25.53893316229583,2.563674209510738,0.4011646240159466,B,574.3702999989182,Correct
4,304,153,A,48.115012541513565,68.06797390987475,2.4057506270756783,1.0692092339000212,A,1760.574699999779,Correct
4,304,154,B,72.40173842636685,49.51252540300017,3.620086921318342,0.7777409303337167,B,645.8554000000731,Correct
4,304,155,A,48.22815963910025,59.53802945595614,2.4114079819550125,0.9352211797402226,B,658.5470999998506,Incorrect
4,304,156,B,42.67230860744807,25.574318651471597,2.1336154303724038,0.4017204579801379,B,592.649899999742,Correct
4,304,157,A,10.908497281327865,33.88366301520587,0.5454248640663932,0.5322433340264147,A,517.1262999992905,Correct
4,304,158,B,59.54741609798587,31.830090349105035,2.977370804899293,0.49998589001923877,B,531.4373000001069,Correct
4,304,159,A,59.12492607014059,86.45262723129349,2.9562463035070294,1.3579946929668427,A,533.3848000009311,Correct
4,304,160,A,60.78078064359855,85.9067704865018,3.039039032179927,1.3494203952700925,A,636.8720000009489,Correct
4,304,161,B,69.32790777299581,56.491761208710294,3.4663953886497905,0.8873705100081656,A,2655.102499998975,Incorrect
4,304,162,A,13.123331233785535,39.23093576191185,0.6561665616892768,0.6162380979153769,A,545.0382000017271,Correct
4,304,163,B,83.91920581390742,56.51689208994989,4.195960290695371,0.8877652649675684,B,527.3956999990332,Correct
4,304,164,B,52.261047884691465,21.756470104941638,2.6130523942345736,0.341749833248653,B,513.9294000000518,Correct
4,304,165,A,38.42177309559931,52.204801354959756,1.9210886547799657,0.8200311020942803,A,941.2503000003198,Correct
4,304,166,A,40.834856402770185,69.3551104170717,2.0417428201385093,1.0894275268759068,A,774.0866999993159,Correct
4,304,167,A,54.09029630821668,83.60668365612705,2.704514815410834,1.3132907158254727,A,476.1780999997427,Correct
4,304,168,B,65.2297285063098,55.41423206690828,3.26148642531549,0.8704447218285949,B,672.5848000005499,Correct
4,304,169,B,45.61694923694922,26.758723169797847,2.280847461847461,0.4203250406483994,B,549.8370000004797,Correct
4,304,170,B,79.52599010465588,48.844479067993575,3.976299505232794,0.7672472830421454,B,527.5332000001072,Correct
4,304,171,B,47.818363082562264,28.86840622614617,2.390918154128113,0.45346386460453325,B,403.9591000000655,Correct
4,304,172,B,65.05036944675103,39.2650503006634,3.2525184723375515,0.616773967836989,B,360.6528000000253,Correct
4,304,173,B,37.38034026478767,12.095030864935474,1.8690170132393833,0.1899883005511154,B,373.64789999992354,Correct
4,304,174,A,42.819631135360304,57.701401609526,2.1409815567680153,0.9063714969916058,A,583.8442999993276,Correct
4,304,175,B,74.40204979965634,50.369998603727325,3.720102489982817,0.7912100878739895,B,530.0603999985469,Correct
4,304,176,B,82.5044332279399,52.2899169299995,4.125221661396995,0.8213680944205347,B,400.70999999989,Correct
4,304,177,A,60.37385118786913,69.48772102036145,3.018692559393456,1.0915105693613227,A,1193.5673999996652,Correct
4,304,178,B,40.15102907096835,20.535470148045412,2.0075514535484174,0.3225704107755598,B,520.2193000004627,Correct
4,304,179,B,65.61441613072209,56.29613564489887,3.280720806536104,0.8842976308375438,B,422.00839999895834,Correct
4,304,180,B,76.62249696193912,53.930854312705364,3.831124848096956,0.8471438785530829,B,428.33190000055765,Correct
4,304,181,A,30.215677931663848,46.647426408962154,1.5107838965831923,0.73273606057633,A,910.6123000001389,Correct
4,304,182,A,56.77802407923171,76.68319735452121,2.8389012039615857,1.2045368473137006,A,660.9351999995852,Correct
4,304,183,B,53.47190029309485,44.48965223184486,2.6735950146547425,0.6988418230616428,B,481.65549999976065,Correct
4,304,184,B,52.18671502155912,35.029077894254385,2.609335751077956,0.5502354688730711,B,382.4119000000792,Correct
4,304,185,B,84.61802157788962,59.8267446129641,4.230901078894481,0.9397563068214038,B,747.9091999994125,Correct
4,304,186,B,56.89409984166916,37.180854775695146,2.844704992083458,0.5840355010875642,B,413.31870000067283,Correct
4,304,187,B,52.14558308284075,27.69961037241827,2.607279154142038,0.4351044622664444,B,332.48210000056133,Correct
4,304,188,A,28.339679443954406,39.70953778410356,1.4169839721977204,0.6237559608999302,A,563.1042999993952,Correct
4,304,189,A,61.23825486733814,81.64918506708752,3.061912743366907,1.282542399891778,A,560.6596999987232,Correct
4,304,190,B,75.32178008343298,51.789977568416134,3.7660890041716493,0.8135150652925816,B,628.0010999998922,Correct
4,304,191,A,43.507477727820735,50.79291660221783,2.175373886391037,0.797853268259633,A,749.3797000006452,Correct
4,304,192,B,85.04842266619349,63.94112187302578,4.252421133309674,1.004384793692937,B,538.3763999998337,Correct
4,304,193,B,49.162052787324356,35.02199921923873,2.4581026393662175,0.5501242773059393,B,444.0217000010307,Correct
4,304,194,B,87.39377030035178,61.84714117440467,4.369688515017589,0.9714926217952027,B,439.0782999998919,Correct
4,304,195,A,32.43609577587878,51.222615608644816,1.621804788793939,0.804602964468862,A,578.1447999997908,Correct
4,304,196,B,40.66002807163261,16.40989044546556,2.0330014035816304,0.2577659563484397,B,583.8991000000533,Correct
4,304,197,B,32.95019710796391,14.491355382733062,1.6475098553981953,0.22762967805476542,B,385.61830000071495,Correct
4,304,198,B,79.66205113424003,58.40686768479934,3.9831025567120015,0.9174529321887833,B,466.98730000025535,Correct
4,304,199,A,14.858750048271137,34.42100260264944,0.7429375024135568,0.5406838445283931,A,557.494199998473,Correct
4,304,200,A,25.974775072674916,51.60327620947207,1.2987387536337456,0.810582367204212,A,588.4286000000429,Correct
4,304,201,A,28.710780787517287,53.9706138438338,1.4355390393758642,0.8477684198075993,A,530.5050000006304,Correct
4,304,202,A,53.15652269438409,67.09224897504473,2.6578261347192047,1.053882582464089,A,634.2595000005531,Correct
4,304,203,A,16.29495235034776,44.5769139192259,0.814747617517388,0.7002125264417235,A,558.966299999156,Correct
4,304,204,A,51.22893826953029,82.00605936970594,2.5614469134765145,1.288148168328583,A,502.3779999992257,Correct
4,304,205,B,64.00707417362146,48.05312469906213,3.2003537086810727,0.7548167176830392,B,1627.9338000003918,Correct
4,304,206,A,19.300828381387916,49.121079103863906,0.9650414190693958,0.7715921062455097,A,506.28800000049523,Correct
4,304,207,B,86.8974333380431,62.6622477387849,4.344871666902155,0.9842962857679513,B,597.3417000004702,Correct
4,304,208,A,14.648104947644178,35.05014477802873,0.732405247382209,0.5505663867095685,A,516.0363000013604,Correct
4,304,209,B,50.658172597532015,31.13128205008565,2.532908629876601,0.4890090349269044,B,638.2252000003064,Correct
4,304,210,B,69.34075985528104,58.91958903331209,3.467037992764052,0.9255067402979149,B,1013.6886000000231,Correct
4,304,211,A,38.87336793663258,66.42091365330992,1.943668396831629,1.0433372718898022,A,1057.5727999985247,Correct
4,304,212,B,43.28147766623245,15.799509642873534,2.164073883311622,0.24817811712186297,B,424.50280000048224,Correct
4,304,213,B,72.91470824069708,41.86807801284546,3.6457354120348544,0.6576622315253982,B,594.9691000005259,Correct
4,304,214,A,54.082049554335335,84.02523948169409,2.704102477716767,1.3198653753590661,A,443.2850999983202,Correct
4,304,215,A,44.1934249167229,63.51109094991689,2.209671245836145,0.9976298837486605,A,1244.6498000008432,Correct
4,304,216,A,53.54674531817587,66.01255447643202,2.6773372659087937,1.0369227809392743,B,4216.013699999166,Incorrect
4,304,217,B,61.35580817597419,29.74872023708592,3.067790408798709,0.46729180475263565,B,414.3671000001632,Correct
4,304,218,B,79.82939215866078,56.5646585603625,3.991469607933039,0.8885155789302492,B,742.6787999993394,Correct
4,304,219,A,31.085813466214468,47.292800554795505,1.5542906733107233,0.7428735739531643,A,753.703399999722,Correct
4,304,220,A,34.125812727513136,59.99896614852127,1.7062906363756567,0.9424615563758855,A,542.9564999994909,Correct
4,304,221,A,65.78344808241182,85.21243834076279,3.2891724041205914,1.3385138514290678,A,636.2324000001536,Correct
4,304,222,A,35.86529152688576,50.90173161343735,1.793264576344288,0.7995625304588704,A,883.3785999995598,Correct
4,304,223,B,46.88518385991094,36.132243187117425,2.3442591929955467,0.5675639487718398,B,1373.9333000012266,Correct
4,304,224,B,65.69850093980529,39.82393845286375,3.2849250469902644,0.6255529624026441,B,464.1596999990725,Correct
4,304,225,B,84.0711874967721,61.11153131290948,4.203559374838605,0.9599376891112951,B,629.6690000017406,Correct
4,304,226,B,75.77633762503118,57.74382964689042,3.7888168812515586,0.9070379550440573,B,529.5582999988255,Correct
4,304,227,A,65.7693060957508,88.04740261767924,3.2884653047875405,1.3830453661568192,A,459.78849999846716,Correct
4,304,228,A,33.30114969170209,56.1643661625412,1.6650574845851047,0.8822278006488329,A,628.8994000005914,Correct
4,304,229,B,86.76704247800092,68.89389603470346,4.338352123900046,1.082182788299017,B,788.3688000001712,Correct
4,304,230,A,21.57300148695079,45.38079032443024,1.0786500743475396,0.712839787486644,A,487.7077000001009,Correct
4,304,231,B,58.127653859307465,48.15795072587718,2.9063826929653733,0.756463321061775,B,832.8049000010651,Correct
4,304,232,A,14.185968814450746,43.2884327271675,0.7092984407225373,0.6799731112054269,A,472.0113000003039,Correct
4,304,233,A,63.73733730139877,73.63359817840151,3.1868668650699385,1.156633855473245,A,694.1083999990951,Correct
4,304,234,B,44.495989573195374,33.524005393596866,2.2247994786597687,0.5265938453171426,B,400.8549000009225,Correct
4,304,235,A,57.016993825481705,81.49122407535509,2.850849691274085,1.280061154435876,A,458.7916000000405,Correct
4,304,236,B,62.81262114239598,53.01141247729336,3.140631057119799,0.8327013199754154,B,611.3620999985869,Correct
4,304,237,B,51.425402292978355,26.590932341671973,2.5712701146489176,0.4176893884834995,B,506.8417000002228,Correct
4,304,238,A,27.05791401203698,44.46748028231944,1.352895700601849,0.6984935468929188,A,808.9015999994444,Correct
4,304,239,B,63.16455373747574,49.318794547124696,3.158227686873787,0.7746978131657566,B,785.7628999990993,Correct
4,304,240,A,43.13658924053061,53.03906049255181,2.1568294620265305,0.8331356139835271,B,1530.3507999997237,Incorrect
4,304,241,B,68.59847341904899,42.66242000478775,3.4299236709524497,0.670139726357017,B,496.7226999997365,Correct
4,304,242,A,58.711218702267814,70.53346248511303,2.935560935113391,1.1079370378774118,A,481.5403000011429,Correct
4,304,243,A,20.219420651410537,38.549134669787165,1.0109710325705268,0.6055283914042348,B,422.5198000003729,Incorrect
4,304,244,A,29.987853304427446,59.132991568228356,1.4993926652213725,0.928858859477667,A,638.5544999993726,Correct
4,304,245,B,62.48316935625377,42.06280733667149,3.1241584678126886,0.66072103259125,B,684.3398000000889,Correct
4,304,246,B,49.77225472615632,28.92873807692243,2.488612736307816,0.45441155510041414,B,480.8016000006319,Correct
4,304,247,B,40.10313519664216,30.57033176875486,2.005156759832108,0.4801976485126147,B,693.7448000007862,Correct
4,304,248,A,35.7130467326698,49.71820232631758,1.78565233663349,0.7809716958902514,A,531.3081000003876,Correct
4,304,249,B,44.32087000583405,22.160964720600923,2.2160435002917027,0.34810361981351223,B,507.8918999988673,Correct
4,304,250,A,14.963064054187953,41.208784134015566,0.7481532027093977,0.6473060674939546,A,432.04100000002654,Correct
4,304,251,B,65.03276734074882,56.31320083967015,3.251638367037441,0.8845656902901717,B,1151.21420000105,Correct
4,304,252,A,33.11429711106293,53.69938229402351,1.6557148555531467,0.8435079245860703,A,1058.8023000000248,Correct
4,304,253,B,62.23359281119992,41.404643597230034,3.1116796405599962,0.6503826207478076,B,679.8366000002716,Correct
4,304,254,B,87.17642520795874,66.14822161706358,4.358821260397937,1.0390538354009824,A,522.3101999999926,Incorrect
4,304,255,A,43.337208260949346,74.59858621456021,2.1668604130474676,1.1717918520992359,A,699.9795000010636,Correct
4,304,256,B,57.971584723274525,29.278679252487436,2.898579236163726,0.4599084182321322,B,591.021099999125,Correct
4,304,257,A,48.08226981807684,57.44771780844003,2.4041134909038417,0.9023866411624736,B,1622.2250999999233,Incorrect
4,304,258,B,50.36404963666204,32.960986870859124,2.518202481833102,0.5177499710428033,B,640.1743999995233,Correct
4,304,259,A,26.48027288101295,53.2732436471422,1.3240136440506476,0.8368141543738055,A,469.69719999833615,Correct
4,304,260,B,35.11638095185127,21.642140767807412,1.7558190475925637,0.3399539522204996,B,530.9149000004254,Correct
4,304,261,B,66.79188916580866,47.678170226719985,3.3395944582904327,0.7489269466043355,B,683.2057999999961,Correct
4,304,262,B,58.18926675547088,48.90860030696131,2.9094633377735444,0.7682544971085458,B,984.7798999999213,Correct
4,304,263,A,56.89236563228921,75.74119930186247,2.8446182816144607,1.1897399765040575,A,538.7393000000884,Correct
4,304,264,B,55.02272559345038,41.192299819658984,2.7511362796725187,0.6470471324895442,B,1071.9883000001573,Correct
4,304,265,A,44.15267260550981,59.576044468241435,2.20763363027549,0.9358183181568306,A,722.1922000007908,Correct
4,304,266,B,31.6562066414032,12.449431259885465,1.58281033207016,0.19555520893713646,B,456.02470000085304,Correct
4,304,267,A,46.258415135817565,76.09474100588588,2.312920756790878,1.1952933966045454,A,544.020500001352,Correct
4,304,268,A,13.479897320699465,42.069057962424566,0.6739948660349733,0.660819217190981,A,568.6968000009074,Correct
4,304,269,B,60.826926241128945,50.668143808201314,3.0413463120564472,0.7958933417943821,B,2509.843699999692,Correct
4,304,270,B,63.25355198819311,52.41452019662637,3.1626775994096556,0.8233253579557762,B,637.3822999994445,Correct
4,304,271,B,56.83560256382471,29.487727811376956,2.8417801281912354,0.46319214531638636,B,518.2081000002654,Correct
4,304,272,A,54.930528450150284,84.44457030529402,2.746526422507514,1.3264522085332924,A,487.8747000002477,Correct
4,304,273,A,50.59476147925379,76.67101127988786,2.52973807396269,1.2043454289009794,A,703.3129000010376,Correct
4,304,274,B,65.37057225556853,49.185117006966294,3.2685286127784265,0.7725980112751986,B,854.5076000009431,Correct
4,304,275,B,56.40324451856166,45.47958506918025,2.8201622259280827,0.7143916517082436,B,769.2922000005638,Correct
4,304,276,B,39.56594815247824,24.510498577297845,1.9782974076239122,0.3850100113313099,B,602.1354999993491,Correct
4,304,277,B,52.74546839889233,41.964015918420195,2.6372734199446164,0.6591692206221701,B,561.3407000000734,Correct
4,304,278,A,40.64079555814284,57.11553735453396,2.032039777907142,0.8971687627941864,A,990.6102000004466,Correct
4,304,279,B,79.66794348898938,53.54356725399664,3.983397174449469,0.8410603876607344,B,571.0291000013967,Correct
4,304,280,A,56.82030161787295,72.10189749335578,2.8410150808936474,1.1325739573750544,A,1798.6163000005035,Correct
4,304,281,B,42.76083977636634,28.337655291142298,2.138041988818317,0.4451268484130628,B,462.89900000010675,Correct
4,304,282,A,35.50344565342474,66.74656977829297,1.775172282671237,1.0484526663390183,A,1367.2087999984797,Correct
4,304,283,A,65.0769608332121,76.7024114885628,3.253848041660605,1.204838662225451,A,629.8353999991377,Correct
4,304,284,B,51.98531538439555,36.60366149294992,2.5992657692197776,0.5749689702036953,B,810.0164000006771,Correct
4,304,285,A,58.24000237500317,84.96295268113607,2.912000118750159,1.3345949398517714,A,605.3317000005336,Correct
4,304,286,B,70.35375541923939,58.86049709455906,3.51768777096197,0.9245785262945503,B,988.5082000000693,Correct
4,304,287,B,76.6702120925635,48.515831971435574,3.833510604628175,0.762084906521294,B,551.845100000719,Correct
4,304,288,B,43.21362384275946,33.885712500200015,2.160681192137973,0.5322755272614209,B,724.0105999990192,Correct
4,304,289,B,72.1803066464285,40.59120274104543,3.6090153323214254,0.6376051216582109,B,529.7986999994464,Correct
4,304,290,A,12.997829400947023,41.25247280699361,0.6498914700473511,0.6479923275643191,A,495.33080000037444,Correct
4,304,291,B,67.45178555874662,55.54408723475876,3.372589277937331,0.8724844820353438,B,709.1464000004635,Correct
4,304,292,A,53.872889305640484,80.7508145196251,2.693644465282024,1.268430828331231,A,497.00750000010885,Correct
4,304,293,A,33.874581751832,53.631777475473676,1.6937290875916,0.8424459905795533,A,1382.8455000002577,Correct
4,304,294,A,49.876105487065985,63.67808273299785,2.4938052743532992,1.0002529845433454,A,1269.4838999996136,Correct
4,304,295,A,39.21664452411971,49.92464373656987,1.9608322262059854,0.7842144699794779,A,1574.0238999987923,Correct
4,304,296,B,68.4533910208936,47.767683519182135,3.42266955104468,0.7503330181143241,B,500.96449999909964,Correct
4,304,297,A,62.43520233224126,85.31859504169583,3.121760116612063,1.3401813569879706,A,480.2739999995538,Correct
4,304,298,A,31.641674735234005,59.03483492569286,1.5820837367617002,0.927317018542214,A,753.6543999995047,Correct
4,304,299,B,84.80566828378707,65.38245131478308,4.240283414189354,1.0270251436210742,B,570.2550999994855,Correct
4,304,300,A,52.177394626819556,59.387893551574805,2.608869731340978,0.9328628504690003,B,747.937300000558,Incorrect
4,304,301,A,52.35770889843503,65.2025872735522,2.6178854449217517,1.0241998458681947,A,517.2961999996915,Correct
4,304,302,B,63.190971388597255,41.52560918727408,3.159548569429863,0.6522827437929054,B,655.8351999992738,Correct
4,304,303,A,39.2333569577828,54.13086633562556,1.96166784788914,0.8502856600622615,B,1884.2590999993263,Incorrect
4,304,304,A,60.33812893627589,84.14327063372849,3.0169064468137945,1.321719404359696,A,474.8978999996325,Correct
4,304,305,B,70.52071889667795,57.48818458822328,3.5260359448338976,0.903022291852881,B,915.7439999999042,Correct
4,304,306,B,48.829431223989864,29.053573319153386,2.4414715611994935,0.4563724624999236,B,495.60870000095747,Correct
4,304,307,B,72.4906203286815,52.449313408089495,3.624531016434075,0.8238718884434131,B,756.3429999991058,Correct
4,304,308,A,66.43168059897454,85.0888540851235,3.3215840299487267,1.336572594480989,A,480.19159999967087,Correct
4,304,309,B,53.547358486239546,46.171597362873335,2.6773679243119775,0.7252617553985439,B,627.5154000013572,Correct
4,304,310,B,53.45011666094673,27.341105161692738,2.6725058330473366,0.4294730755849994,B,520.2506999994512,Correct
4,304,311,A,54.11882808408187,63.741750758215495,2.7059414042040935,1.0012530795448071,A,467.8355999985797,Correct
4,304,312,A,36.46835880549219,55.19689690363103,1.8234179402746094,0.8670308290670021,A,571.8569000000571,Correct
4,304,313,B,79.63896820386978,56.4243783745533,3.9819484101934894,0.8863120629243372,B,621.7661999999109,Correct
4,304,314,A,20.917940369769052,42.919990411410865,1.0458970184884526,0.6741856328431636,A,462.3455999990256,Correct
4,304,315,A,55.68246912601374,69.67712190046564,2.784123456300687,1.0944856714289166,A,1907.357399999455,Correct
4,304,316,B,83.17120507307857,63.8975331459339,4.158560253653929,1.0037001035688813,B,539.0843999994104,Correct
4,304,317,A,21.092263477341945,39.44342136771671,1.0546131738670972,0.6195758140063274,A,1989.6238000001176,Correct
4,304,318,A,49.45804854081056,80.09436444276508,2.4729024270405278,1.2581193346366717,A,1190.6911999994918,Correct
4,304,319,A,38.8542924556138,59.37403532484089,1.9427146227806902,0.932645165952505,A,883.9537999992899,Correct
4,304,320,B,54.96289548903909,29.113759031976777,2.7481447744519545,0.4573178574662086,B,506.90080000094895,Correct
4,304,321,A,52.41198276569001,62.45131394873909,2.6205991382845006,0.9809829455419424,A,4944.136599999183,Correct
4,304,322,A,65.35521059770228,87.1777314440094,3.2677605298851145,1.3693846033056192,A,509.1379000004963,Correct
4,304,323,B,84.33905127733084,60.62948981875721,4.216952563866542,0.9523657990275239,B,611.2594000005629,Correct
4,304,324,B,80.90965159550812,58.54070226149058,4.045482579775406,0.9195552008034309,B,598.0128000010154,Correct
4,304,325,A,25.30903166662805,36.15049838172081,1.2654515833314024,0.5678507006981189,A,576.5018999991298,Correct
4,304,326,A,43.02264406359203,49.935669231385205,2.1511322031796016,0.7843876580470481,A,4135.953799999697,Correct
4,304,327,A,47.31850345138344,75.50632298892151,2.365925172569172,1.1860505480078696,A,643.8698999991175,Correct
4,304,328,B,72.97692310255951,60.25225247367594,3.6488461551279756,0.9464401686676889,B,530.2406999999221,Correct
4,304,329,A,28.073185181449013,47.47747035233631,1.4036592590724508,0.7457743603496347,A,855.1962000001367,Correct
4,304,330,B,75.4135896425311,60.32334726918778,3.7706794821265546,0.9475569231041312,B,669.8533999988285,Correct
4,304,331,B,88.39420237815236,62.86010223686474,4.419710118907618,0.9874041769561881,B,473.16719999980705,Correct
4,304,332,B,89.2235157181859,65.35605846983655,4.461175785909295,1.0266105657821174,B,522.5867999997718,Correct
4,304,333,A,69.2902967933605,85.19049672733755,3.4645148396680248,1.3381691933713447,A,522.5781000008283,Correct
4,304,334,A,56.91147868642946,81.24224838284441,2.845573934321473,1.276150253403306,A,953.4762000002956,Correct
4,304,335,B,65.35522017387079,39.79403818221094,3.26776100869354,0.625083290049528,B,560.40159999975,Correct
4,304,336,B,60.30594248262995,31.372160378168644,3.0152971241314974,0.492792742856477,B,452.0122000012634,Correct
4,304,337,B,66.2990619952876,57.73191828949276,3.3149530997643804,0.9068508518795835,B,1377.5356000005559,Correct
4,304,338,B,50.693731935245566,27.602824030852602,2.5346865967622785,0.4335841459682917,B,516.0728999999264,Correct
4,304,339,B,72.88473688783793,47.02899663597152,3.644236844391896,0.7387297516863359,B,700.5955000004178,Correct
4,304,340,A,26.02450560634073,41.99204178664695,1.3012252803170363,0.6596094499308284,A,455.37919999878795,Correct
4,304,341,A,22.189571156984638,48.22196274682202,1.1094785578492319,0.7574688195354836,A,475.27160000026925,Correct
4,304,342,B,39.84299883607224,30.289468514680664,1.992149941803612,0.4757858588343006,B,736.5258000008907,Correct
4,304,343,B,64.87173706202086,44.721319313247605,3.243586853101043,0.70248084106671,B,510.61010000012175,Correct
4,304,344,B,63.51874998696486,42.19396122493384,3.175937499348243,0.6627811930505236,B,584.8393000014767,Correct
4,304,345,B,30.21770564833447,11.649981483705862,1.5108852824167236,0.18299748121833725,B,785.6773000003159,Correct
4,304,346,B,60.019902801286726,29.045104747994802,3.0009951400643367,0.4562394384952324,B,513.3998000001156,Correct
4,304,347,B,76.74614792009126,46.029200409634,3.8373073960045634,0.7230249892875924,B,503.5100999994029,Correct
4,304,348,A,22.854337902620923,45.253468659262026,1.1427168951310462,0.7108398234469676,A,943.5415000007197,Correct
4,304,349,B,67.38259562682899,50.83545204122606,3.36912978134145,0.7985214133731603,B,1226.5664999995352,Correct
4,304,350,B,86.52959708371344,67.62563264534545,4.326479854185672,1.0622609535648968,B,1445.3400000002148,Correct
4,304,351,A,33.35136077001745,43.93269781747914,1.6675680385008724,0.690093203578864,A,1667.9858000006789,Correct
4,304,352,A,25.327958657300666,46.13882788984415,1.2663979328650334,0.724747013719891,A,476.0193000001891,Correct
4,304,353,B,32.19014214666617,12.310640379293012,1.6095071073333085,0.19337508688286398,B,639.0572999989672,Correct
4,304,354,B,65.90968935994388,54.376762847562745,3.295484467997194,0.8541481934394876,A,1627.211700000771,Incorrect
4,304,355,A,64.09285241540627,87.82379822878471,3.204642620770313,1.3795329966295118,A,628.3191000002262,Correct
4,304,356,A,63.79995822689685,80.02132605804994,3.1899979113448422,1.256972050372416,A,550.8126000004268,Correct
4,304,357,B,82.42337253904404,57.738846399952244,4.121168626952202,0.9069596783841972,B,776.2445999996999,Correct
4,304,358,B,75.75847733138282,61.89907456079416,3.787923866569141,0.9723083895209889,B,512.2229999997217,Correct
4,304,359,A,51.943410418084476,78.98871284442498,2.597170520904224,1.2407517999427964,A,1008.8176999997813,Correct
4,304,360,A,61.35121901824227,72.4481376094852,3.067560950912114,1.1380126844011056,A,1210.2180999991106,Correct
4,304,361,A,41.07886386188897,52.57509149891778,2.0539431930944487,0.8258476060740563,A,716.4518999998108,Correct
4,304,362,A,24.18254979312811,36.20646697036965,1.2091274896564057,0.5687298532327739,A,473.68859999915003,Correct
4,304,363,A,62.00639604187095,81.8971184549365,3.1003198020935474,1.286436928441008,A,1247.5309999990714,Correct
4,304,364,A,19.313156464596503,49.97936431759662,0.9656578232298252,0.7850740188562468,A,579.6694000000571,Correct
4,304,365,A,34.96377953009875,63.755092340896944,1.7481889765049374,1.0014626486355036,A,1049.4713999996748,Correct
4,304,366,B,70.12314959089014,40.21051506186882,3.5061574795445067,0.631625293577144,B,907.9707999990205,Correct
4,304,367,A,27.959529223947648,53.08219353256877,1.3979764611973824,0.8338131461917484,A,850.6132000002253,Correct
4,304,368,B,36.678873820636724,25.4961697956918,1.8339436910318363,0.40049289862411674,B,559.3007000006764,Correct
4,304,369,A,34.15785267673629,51.59941359570622,1.7078926338368146,0.8105216934090598,A,595.749900001465,Correct
4,304,370,A,55.50318241380227,72.21296927687067,2.7751591206901134,1.1343186688706117,A,595.2175000002171,Correct
4,304,371,A,36.90468316535773,59.52380910307457,1.8452341582678866,0.9349978069595017,A,653.4288999991986,Correct
4,304,372,A,15.74104363943325,38.351363622645394,0.7870521819716626,0.6024218110602682,A,644.0481999998156,Correct
4,304,373,A,24.05871894643002,41.96137154020802,1.2029359473215009,0.6591276828263466,A,472.80359999967914,Correct
4,304,374,B,55.35612185688693,44.90561223273524,2.7678060928443466,0.7053757074765648,B,2087.7132000005076,Correct
4,304,375,B,62.18138307088348,30.813048893185325,3.1090691535441737,0.4840102401876706,B,462.9026000002341,Correct
4,304,376,B,40.409574511330916,25.010757624569067,2.0204787255665457,0.39286806207030545,B,608.56270000113,Correct
4,304,377,B,73.52275524714918,45.12736490190689,3.6761377623574587,0.7088589902584828,B,511.7366000013135,Correct
4,304,378,A,29.70527966839446,55.74605467117914,1.4852639834197232,0.8756569791079567,A,570.8328999990044,Correct
4,304,379,A,38.80836719022578,53.14314405847152,1.9404183595112892,0.8347705548137909,A,955.3680999997596,Correct
4,304,380,A,44.12762683016216,52.39760845659499,2.206381341508108,0.823059708964566,A,632.3341999996046,Correct
4,304,381,A,42.1638531685161,60.80870831812242,2.108192658425805,0.9551809566324898,A,479.2742999998154,Correct
4,304,382,B,77.4646524354902,48.52380481978527,3.8732326217745094,0.762210143730312,B,628.779200000281,Correct
4,304,383,A,38.20110882959705,55.191726029343705,1.9100554414798523,0.8669496051636336,A,1517.3866999994061,Correct
4,304,384,A,53.344391399590464,80.78054071366469,2.667219569979523,1.268897766295301,A,558.7927000015043,Correct
4,304,385,A,17.748666765228208,38.57634327389063,0.8874333382614104,0.6059557831580642,A,493.68170000161626,Correct
4,304,386,A,59.71377841942973,75.3316218311412,2.9856889209714863,1.1833063486385884,A,539.7551999994903,Correct
4,304,387,A,34.31375316016507,42.86656679042477,1.7156876580082536,0.6733464565670731,A,628.9187999991555,Correct
4,304,388,B,40.89981198598806,22.626309357608797,2.044990599299403,0.35541323627856897,B,818.3871000001091,Correct
4,304,389,A,44.923627691393946,52.70478742330337,2.2461813845696974,0.8278848648903079,B,735.1370999986102,Incorrect
4,304,390,A,42.707915881681785,60.730766342758315,2.1353957940840895,0.953956646946439,A,471.1552999997366,Correct
4,304,391,B,53.982201550716134,41.300993967700364,2.699110077535807,0.6487544961744192,A,1933.7851999989653,Incorrect
4,304,392,A,13.606350342100448,35.158394544343714,0.6803175171050225,0.5522667700626084,A,471.4664000002813,Correct
4,304,393,A,37.637925025391404,54.095068129366915,1.8818962512695703,0.8497233431532922,A,704.0132000001904,Correct
4,304,394,A,59.8729118363748,72.27421999094102,2.9936455918187397,1.1352807928373645,A,806.1192999994091,Correct
4,304,395,A,29.35123189323461,42.87952561705538,1.4675615946617304,0.6735500133397826,A,739.6320999996533,Correct
4,304,396,B,53.58535792716536,28.141019327317462,2.6792678963582683,0.4420380979161446,B,762.2570000003179,Correct
4,304,397,A,41.69331270050134,52.61653727135436,2.084665635025067,0.826498634745102,A,581.0654999986582,Correct
4,304,398,B,52.085931068813814,30.67558618501678,2.6042965534406908,0.4818509810170463,B,722.5830999996106,Correct
4,304,399,B,75.86922288797768,48.20925023852904,3.793461144398884,0.757269131922174,B,824.9508999997488,Correct
4,304,400,B,51.293450589870154,20.812499483778584,2.564672529493508,0.32692197740540074,B,590.4596000000311,Correct
4,304,401,A,39.2310808365762,66.93710372047906,1.96155404182881,1.051445566504175,A,519.0347999996447,Correct
4,304,402,B,82.7817217339936,61.20519168753847,4.13908608669968,0.9614089028356297,B,936.4580000001297,Correct
4,304,403,B,50.69704816995443,43.36081516526204,2.5348524084977213,0.6811100918842606,A,1644.329299999299,Incorrect
4,304,404,A,37.6404617399963,53.4687867644187,1.8820230869998147,0.8398857384772849,A,669.717099999616,Correct
4,304,405,A,61.63912008518728,81.39917507330397,3.081956004259364,1.2786152520928058,A,499.81409999963944,Correct
4,304,406,B,52.46104797382871,24.11585900960049,2.623052398691436,0.3788110274978406,B,505.90610000108427,Correct
4,304,407,B,80.34158648354511,52.442808073035465,4.017079324177256,0.8237697028793385,B,657.9192999997758,Correct
4,304,408,A,51.0157043550205,71.23221170029765,2.550785217751025,1.11891296488304,A,665.6370000000607,Correct
4,304,409,B,67.55087933929323,34.144995554902806,3.377543966964662,0.536348335960694,B,553.9234999996552,Correct
4,304,410,A,65.33215412665845,83.74349015157574,3.2666077063329224,1.3154396672307977,A,539.8824000003515,Correct
4,304,411,B,50.9947454962948,27.590264094341414,2.5497372748147398,0.43338685494692614,B,469.83299999919836,Correct
4,304,412,A,24.132418960990158,51.43254120317859,1.2066209480495078,0.807900467996801,A,519.2452000010235,Correct
4,304,413,A,22.204004816418433,36.73715409563061,1.1102002408209217,0.5770658671031466,A,859.1061999995873,Correct
4,304,414,B,82.81440587350292,55.587057381125284,4.1407202936751455,0.8731594555160874,B,566.9827000001533,Correct
4,304,415,B,68.48068525174745,51.5797018023094,3.424034262587372,0.8102120612824371,B,662.7420999993774,Correct
4,304,416,B,37.10799504862129,11.514696943020873,1.8553997524310646,0.1808724366225361,B,570.9010999999009,Correct
4,304,417,B,70.7315465249732,47.20267782565371,3.5365773262486595,0.7414579294341976,B,628.8623000000371,Correct
4,304,418,A,59.921608036375325,68.17243265592705,2.9960804018187663,1.0708500680460267,A,907.4774000000616,Correct
4,304,419,A,20.94743645016903,38.9340548126787,1.0473718225084514,0.6115747028698687,A,516.8842000002769,Correct
4,304,420,A,14.410412749792144,41.52492941545056,0.7205206374896072,0.6522720659620709,A,488.1815999997343,Correct
4,304,421,A,13.419915890371243,36.25538864268013,0.6709957945185622,0.5694983130644335,A,460.34750000035274,Correct
4,304,422,A,38.56851174338672,46.91669489956707,1.928425587169336,0.7369657201359681,A,978.7228000004689,Correct
4,304,423,B,75.92296674453972,51.35451126292878,3.7961483372269864,0.806674776561557,B,574.8507000007521,Correct
4,304,424,A,68.32218507662412,84.22207472721081,3.4161092538312063,1.3229572561654803,A,576.5603000018018,Correct
4,304,425,A,20.38449200011876,32.778684097305835,1.0192246000059382,0.5148863657721829,A,713.9463000003161,Correct
4,304,426,A,59.96124105314972,76.40062443434893,2.998062052657486,1.2000982022631173,A,635.0354000005609,Correct
4,304,427,B,63.055945513985776,44.574085413756,3.152797275699289,0.7001680963816991,B,921.4536999988923,Correct
4,304,428,B,55.34294532470159,23.53232515714523,2.7671472662350793,0.36964489917786864,B,552.6078999992023,Correct
4,304,429,A,64.28208726479022,83.50985367145732,3.214104363239511,1.3117697139830449,A,415.5075999988185,Correct
4,304,430,B,40.93340080842854,28.337893135878108,2.046670040421427,0.4451305844694365,B,613.6155999993207,Correct
4,304,431,B,47.90949500084689,34.537448074921535,2.395474750042345,0.5425129657295622,B,420.2467000013712,Correct
4,304,432,A,54.56602105368586,72.7730156008654,2.728301052684293,1.1431158559562709,A,520.1066999998147,Correct
4,304,433,A,26.939743334777308,50.21939664415451,1.3469871667388653,0.7888444378249384,A,636.0081999991962,Correct
4,304,434,B,64.54082878551193,42.31632662824217,3.227041439275597,0.6647033043109587,B,491.1846999984846,Correct
4,304,435,B,39.914935389040224,17.878515533085373,1.9957467694520112,0.2808350652791601,B,446.74900000063644,Correct
4,304,436,A,56.22896823972292,75.38165252025404,2.811448411986146,1.1840922288654432,A,387.2180999987904,Correct
4,304,437,B,80.91550228412498,66.46443651963587,4.045775114206249,1.044020927475366,B,960.4586999994353,Correct
4,304,438,B,74.11543700380273,60.310797318439725,3.7057718501901364,0.9473597889387662,B,462.5452000000223,Correct
4,304,439,A,61.24165499391279,86.23915089299487,3.0620827496956395,1.3546414144862717,A,539.8181000000477,Correct
4,304,440,B,37.51801569237719,15.1054650292347,1.8759007846188596,0.23727608982450635,B,468.92470000057074,Correct
4,304,441,B,86.36458541124368,66.5971083364229,4.318229270562184,1.0461049315001487,B,727.1776999987196,Correct
4,304,442,A,61.131987069499274,79.38689361539014,3.0565993534749634,1.2470064088671207,A,554.4625999991695,Correct
4,304,443,B,35.65136897838727,16.30710610465246,1.7825684489193634,0.2561514236984272,B,400.26919999945676,Correct
4,304,444,A,58.30110243412954,79.4619376937839,2.915055121706477,1.2481851984940069,A,472.3223000000871,Correct
4,304,445,A,59.23898198526925,80.42120820321591,2.961949099263462,1.2632533844201916,A,483.3610999994562,Correct
4,304,446,A,24.35929426532542,45.87147475944592,1.217964713266271,0.7205474405680246,A,528.5860000003595,Correct
4,304,447,A,52.549937624778984,72.90002075456738,2.627496881238949,1.1451108482454617,A,635.6740999999602,Correct
4,304,448,B,61.70108730966443,50.35690459745263,3.085054365483222,0.7910044077043963,B,946.8847000007372,Correct
4,304,449,A,56.732864734157594,75.4760220770859,2.8366432367078795,1.1855745823977704,A,661.3567000003968,Correct
4,304,450,A,49.49617236505193,61.58564255560655,2.4748086182525966,0.9673850110965024,A,559.5962999996118,Correct
4,304,451,A,23.567124246485218,43.29309567053532,1.178356212324261,0.6800463565485692,A,568.7621999986732,Correct
4,304,452,B,65.79307207207958,43.83544210597444,3.2896536036039787,0.68856551443495,B,543.8726000011229,Correct
4,304,453,B,82.02246198126767,54.346102762462834,4.101123099063384,0.8536665859489458,B,584.4402999991871,Correct
4,304,454,A,40.73861228612184,65.80199053474338,2.036930614306092,1.0336152502776745,A,504.211800000121,Correct
4,304,455,B,65.66934260098265,34.46783757114354,3.2834671300491323,0.5414195264931541,B,641.3305000005494,Correct
4,304,456,A,12.6594959881898,34.501319607414786,0.6329747994094901,0.5419454610890388,A,487.9672000006394,Correct
4,304,457,A,41.83746130402834,73.74776551931276,2.0918730652014172,1.158427191870678,A,523.8121999991563,Correct
4,304,458,B,49.72007506243639,33.471469981118645,2.4860037531218198,0.5257686209876682,B,488.80150000150024,Correct
4,304,459,A,56.10212438062193,78.17772447957466,2.8051062190310967,1.2280128244969934,A,528.5356999993382,Correct
4,304,460,A,42.73151684331651,57.9662764032768,2.1365758421658256,0.9105321405224488,A,1086.364599999797,Correct
4,304,461,B,62.7387317982218,52.307454070130234,3.1369365899110897,0.8216435671735334,B,1161.9737000000896,Correct
4,304,462,B,65.13360688475005,55.189890382461854,3.2566803442375027,0.8669207708898408,B,629.5872999999119,Correct
4,304,463,B,67.30093731546576,56.437830601414014,3.365046865773288,0.8865233700097375,B,556.5039000011893,Correct
4,304,464,B,47.94916649274937,19.12035939976447,2.3974583246374688,0.300341903121483,B,651.6821000004711,Correct
4,304,465,B,72.9897356262313,53.66285018040362,3.649486781311565,0.8429340794872285,B,682.2745999998006,Correct
4,304,466,B,47.32800874764238,34.55860928805877,2.366400437382119,0.5428453652882271,B,466.3242000005994,Correct
4,304,467,A,59.50990286838233,86.5237442093504,2.9754951434191166,1.3591117958458883,A,516.2672999995266,Correct
4,304,468,B,56.751498469506345,44.00775381765405,2.8375749234753176,0.6912721804726506,B,382.76460000088264,Correct
4,304,469,B,75.81523964514928,44.121914645198686,3.790761982257464,0.6930654145583605,B,481.5355999999156,Correct
4,304,470,A,19.17074159428747,39.26097531777562,0.9585370797143736,0.6167099581554704,A,534.5146999989083,Correct
4,304,471,A,10.105381608752324,32.22927835074594,0.5052690804376162,0.50625632048602,A,517.7175999997417,Correct
4,304,472,A,59.848336261584606,73.83878418238409,2.9924168130792306,1.1598569096869003,A,741.1565999991581,Correct
4,304,473,B,59.59979601332878,30.087541529650167,2.9799898006664387,0.47261399717063385,B,468.65840000100434,Correct
4,304,474,A,26.968145521989968,56.863483452450666,1.3484072760994985,0.8932095093587187,A,523.2790000009118,Correct
4,304,475,B,85.22125057194218,66.783594814352,4.261062528597109,1.0490342542454283,B,472.27989999919373,Correct
4,304,476,A,22.363752029918974,48.8935321539937,1.1181876014959486,0.7680178071152146,A,531.3043999994989,Correct
4,304,477,B,43.47068594708953,22.04917675061658,2.1735342973544762,0.3463476584871996,B,504.29739999890444,Correct
4,304,478,A,48.122464033998995,63.47371413050046,2.4061232016999496,0.9970427700421944,A,910.9496000000945,Correct
4,304,479,A,55.58620734096036,67.7519413202199,2.779310367048018,1.064245005590248,A,501.568399999087,Correct
4,304,480,B,37.220358513446655,21.24970076951934,1.8610179256723327,0.33378951914251664,B,477.8497999996034,Correct
4,304,481,B,76.61208421232757,55.41345731149485,3.8306042106163782,0.870432551999019,B,640.0611999997636,Correct
4,304,482,A,52.05019992238142,63.60301276925541,2.602509996119071,0.9990737883103529,B,841.1938999997801,Incorrect
4,304,483,A,54.32559412855478,61.57097552405204,2.716279706427739,0.9671546219035942,A,896.0974999990867,Correct
4,304,484,A,43.914781753422005,52.38593925552485,2.1957390876711003,0.8228764095827902,A,630.2117999985057,Correct
4,304,485,B,55.583110581165926,46.496860871134736,2.779155529058296,0.730370982638718,B,598.5057999987475,Correct
4,304,486,B,36.14379873529076,14.198570928681011,1.807189936764538,0.22303063060508935,B,474.65699999884237,Correct
4,304,487,B,49.32316052707994,30.309227087242455,2.4661580263539973,0.4760962257663283,B,495.092699999077,Correct
4,304,488,B,72.29435613861061,49.3032734990556,3.6147178069305306,0.7744540091128069,B,735.3788999989774,Correct
4,304,489,A,45.58415845429517,55.391726400736864,2.2792079227147584,0.8700912036510536,A,927.1188999991864,Correct
4,304,490,A,32.540490863321125,47.801167882564144,1.6270245431660562,0.7508589892643794,A,603.8029999999708,Correct
4,304,491,B,46.1315748358311,35.758820119032094,2.306578741791555,0.5616982329349506,B,791.3822999998956,Correct
4,304,492,B,52.645438031178756,34.8250575383581,2.6322719015589375,0.5470307246167383,B,583.7307000001601,Correct
4,304,493,A,67.78167491496488,89.63711564669029,3.389083745748244,1.4080165200231045,A,478.3554000005097,Correct
4,304,494,A,25.86469191300082,47.752830407350615,1.293234595650041,0.7500997059792599,A,559.1856999999436,Correct
4,304,495,B,58.52039650561742,27.283875226082216,2.926019825280871,0.4285741098586023,B,510.6321000002936,Correct
4,304,496,B,80.09867376295854,62.906232671758154,4.0049336881479265,0.9881287921330282,B,637.5959000015428,Correct
4,304,497,A,48.49349882600162,66.50962749098443,2.424674941300081,1.044730785593352,A,521.4042999996309,Correct
4,304,498,B,69.37628974819349,48.10554117916888,3.468814487409674,0.7556400738271912,B,738.8436999990518,Correct
4,304,499,B,53.643787314819555,44.71303128366775,2.6821893657409777,0.7023506530025061,B,546.6092000006029,Correct
4,304,500,B,59.56972706832109,42.3941000994761,2.978486353416055,0.6659249671403221,B,466.866900000241,Correct
4,304,501,A,30.942344019672298,62.21274791221831,1.547117200983615,0.977235559003294,A,508.0677999994805,Correct
4,304,502,B,57.737325609909945,25.05512775763522,2.886866280495497,0.3935650264907025,B,495.92849999862665,Correct
4,304,503,B,85.85832127675818,58.71025846636533,4.292916063837908,0.9222185834414564,B,727.6190000011411,Correct
4,304,504,B,67.74637669644818,48.943117206292285,3.387318834822409,0.7687966872953603,B,434.9296000000322,Correct
4,304,505,B,57.15815306396781,26.48172110435675,2.8579076531983905,0.4159739023793048,B,450.9589999997843,Correct
4,304,506,A,48.72702417799425,60.599490325541076,2.436351208899713,0.9518945680900279,A,500.90090000048804,Correct
4,304,507,B,54.56532401676556,25.617316618979498,2.7282662008382776,0.4023958684743485,B,499.5562999993126,Correct
4,304,508,A,43.73322322766546,66.11717182489362,2.186661161383273,1.0385661064060991,A,511.9728000008763,Correct
4,304,509,B,70.29219280879886,47.81171317869999,3.514609640439943,0.7510246343887309,B,424.5045999996364,Correct
4,304,510,B,76.08213303131588,59.68913241998288,3.804106651565794,0.9375946995488328,B,584.5640999996249,Correct
4,304,511,B,65.66047971779385,43.62250160512737,3.2830239858896926,0.6852206528693855,B,606.0950999999477,Correct
4,304,512,A,16.8849458323279,37.390357652303585,0.844247291616395,0.5873263645778593,A,668.7034999995376,Correct
4,304,513,B,77.74790837310992,62.33679462760813,3.8873954186554958,0.9791840802521468,B,488.57280000083847,Correct
4,304,514,B,39.21309844915224,23.300953495777673,1.9606549224576122,0.3660105216198628,B,520.6280999991577,Correct
4,304,515,B,69.67304834772567,51.3003284992912,3.4836524173862835,0.8058236757005817,B,455.53749999999127,Correct
4,304,516,A,38.96520011790291,46.84109047470932,1.9482600058951454,0.7357781286074082,B,642.5789000004443,Incorrect
4,304,517,A,20.191913554060665,49.1882290652123,1.0095956777030333,0.7726468953718144,A,542.9752999989432,Correct
4,304,518,A,17.944269524086284,48.019978072270646,0.8972134762043141,0.754296051686942,A,480.671600000278,Correct
4,304,519,A,44.45331395300421,58.05444086728361,2.2226656976502106,0.9119170246846063,A,508.2896999992954,Correct
4,304,520,A,14.547537548892564,38.31212737753334,0.7273768774446282,0.6018054895632757,A,440.9967999999935,Correct
4,304,521,A,60.659176856646354,78.22414922952976,3.0329588428323175,1.2287420627640118,A,431.64250000154425,Correct
4,304,522,B,57.888785664002945,38.684146595954594,2.894439283200147,0.6076491537812078,B,1027.2029000007024,Correct
4,304,523,B,85.60871163400505,64.18846891550368,4.280435581700252,1.0082701119506157,B,844.6315999990475,Correct
4,304,524,A,47.78636524416685,61.81247858789277,2.389318262208343,0.9709481431595015,A,883.8353999999526,Correct
4,304,525,A,22.34950433817022,41.750800816250106,1.117475216908511,0.6558200456291103,A,533.2148000015877,Correct
4,304,526,B,54.73691158371116,25.713942826216737,2.736845579185558,0.40391366938835227,B,729.6571999995649,Correct
4,304,527,A,14.928910007431124,30.71171530846946,0.7464455003715562,0.4824184959611443,A,589.7683999992296,Correct
4,304,528,B,36.202248855099675,10.622173964182572,1.8101124427549837,0.1668527184551437,B,703.4726000001683,Correct
4,304,529,B,64.94624968759972,48.60553525305685,3.247312484379986,0.7634939623740156,B,583.2034000013664,Correct
4,304,530,B,51.06743533361772,22.686118726630383,2.553371766680886,0.35635271965023924,B,448.5848000003898,Correct
4,304,531,B,57.08717468169842,26.5521494593806,2.8543587340849212,0.4170801883930415,B,593.1473000000551,Correct
4,304,532,B,49.43387908592064,29.105781464768608,2.4716939542960317,0.4571925461335351,B,464.9059000003035,Correct
4,304,533,B,60.02720278833584,46.891699776538886,3.001360139416792,0.7365730976615635,B,470.1729999997042,Correct
4,304,534,A,45.14795655965743,62.77788100428585,2.2573978279828713,0.9861126488549933,B,652.268699999695,Incorrect
4,304,535,B,63.98068868726536,41.601810369520145,3.199034434363268,0.6534797091646009,B,626.8940000009025,Correct
4,304,536,B,88.69226474783041,62.119954334151814,4.43461323739152,0.9757779608875238,B,916.0381000001507,Correct
4,304,537,B,36.04458426183215,16.11900051469383,1.8022292130916073,0.25319666800086116,B,923.4832000001916,Correct
4,304,538,B,47.4858768077267,39.69928720399838,2.374293840386335,0.6235949451641629,A,967.9169999999431,Incorrect
4,304,539,B,48.79965246163753,22.200493147149444,2.4399826230818764,0.34872453088577615,B,599.3708999994851,Correct
4,304,540,A,27.0569856826355,49.44343906132907,1.3528492841317752,0.7766557246164302,A,477.1779000002425,Correct
4,304,541,B,66.84548176853363,56.56520448333018,3.3422740884266817,0.8885241542681726,B,1206.8624000003183,Correct
4,304,542,B,83.91148458793977,62.73928811390593,4.195574229396988,0.9855064331505015,B,798.0270000007295,Correct
4,304,543,A,68.54833046414095,84.3664688988703,3.427416523207047,1.3252253945100134,A,460.9564999991562,Correct
4,304,544,A,49.341258254019166,63.28259944312054,2.4670629127009587,0.9940407475528651,A,831.1727000000246,Correct
4,304,545,A,34.139758868901566,44.983711300449826,1.7069879434450783,0.7066024847634865,A,900.9940999985702,Correct
4,304,546,B,80.89300137879047,51.99215755091753,4.044650068939523,0.8166909010312281,B,514.273000000685,Correct
4,304,547,B,80.96379392916096,59.305052017800364,4.0481896964580475,0.9315615786994107,B,594.8544999992009,Correct
4,304,548,A,19.824059386473742,37.96267069817992,0.9912029693236871,0.5963162368802527,A,460.774199998923,Correct
4,304,549,A,59.13375222387933,82.76524988911686,2.9566876111939666,1.3000735051208647,A,812.5076000014815,Correct
