subject,day,trial,cat,x,y,xt,yt,resp,rt,fb
10,310,0,B,74.5581956589062,52.33422853634946,3.72790978294531,0.8220641395054238,A,1294.185600000219,Incorrect
10,310,1,B,60.82995686474266,52.215504671072516,3.041497843237133,0.8201992293906247,B,1184.4338999999309,Correct
10,310,2,B,65.45376789963544,42.665114733984,3.2726883949817718,0.6701820550642488,B,542.0042999999168,Correct
10,310,3,B,64.99717921355679,56.558207119303574,3.2498589606778396,0.8884142399310702,A,992.730500000107,Incorrect
10,310,4,B,42.06645098120963,24.902563993853065,2.1033225490604814,0.3911685604931924,B,707.8231999998934,Correct
10,310,5,B,44.42906199892604,19.19386111622329,2.221453099946302,0.3014964653837494,B,411.2565000000359,Correct
10,310,6,A,39.699954594363874,72.49873154920661,1.9849977297181938,1.1388074121478302,A,454.88590000013573,Correct
10,310,7,B,37.691208142709584,27.843666078323196,1.8845604071354791,0.4373672840033374,B,1203.5931999998866,Correct
10,310,8,A,34.00266950001306,63.817564668664915,1.7001334750006531,1.0024439616653462,A,608.857000000171,Correct
10,310,9,B,85.61140863071401,61.20884150223708,4.2805704315357005,0.9614662339908503,B,661.2807999999859,Correct
10,310,10,A,64.81515558490041,86.60600693826112,3.240757779245021,1.3604039757699389,A,497.99510000002556,Correct
10,310,11,B,85.53414138014267,56.711552990062835,4.276707069007133,0.8908229912362483,B,906.2807999998768,Correct
10,310,12,A,51.77543018747793,82.31848635527332,2.5887715093738968,1.2930557599417913,A,522.0265999996627,Correct
10,310,13,A,47.576236491954916,74.4519846370218,2.378811824597746,1.169489039904239,A,511.856699999953,Correct
10,310,14,A,18.792161957173363,34.172653277134046,0.9396080978586682,0.5367827824455774,A,591.0409000002801,Correct
10,310,15,B,62.00694283429872,36.73223138673148,3.100347141714936,0.5769885413725803,B,537.5324999999975,Correct
10,310,16,B,31.28597326513874,16.4711813975682,1.564298663256937,0.25872871237272554,A,521.2836000000607,Incorrect
10,310,17,B,43.995550920875516,28.346617937354665,2.199777546043776,0.4452676333305504,B,512.4559999999292,Correct
10,310,18,B,43.86909842750846,20.254920232839986,2.193454921375423,0.31816354301268684,B,537.5654999998005,Correct
10,310,19,A,38.765308790096434,52.38280776933135,1.9382654395048218,0.8228272203126885,A,541.4620000001378,Correct
10,310,20,B,74.61524906975157,44.211671872335806,3.730762453487579,0.6944753177852633,B,563.0258999999569,Correct
10,310,21,B,52.510179052357884,40.15205810594298,2.6255089526178943,0.6307070538607048,B,931.8313999997372,Correct
10,310,22,A,42.62421513020043,62.57661715691693,2.1312107565100216,0.9829512037333561,A,430.338600000141,Correct
10,310,23,A,62.31381355286814,80.37873952532344,3.1156906776434075,1.2625862879878185,A,455.7612000003246,Correct
10,310,24,B,46.58680811531183,24.0043152599457,2.3293404057655915,0.37705890237549383,B,486.95290000023306,Correct
10,310,25,A,55.866183274119805,83.62257545029784,2.7933091637059904,1.3135403435445694,A,492.74389999982304,Correct
10,310,26,A,38.43530550324525,59.78133032346558,1.9217652751622625,0.939042940830121,A,925.0579999998081,Correct
10,310,27,A,59.2183301806915,75.36760252331632,2.960916509034575,1.1838715320296305,A,1226.0746000001745,Correct
10,310,28,A,55.33224308866746,72.77418320995164,2.766612154433373,1.1431341967169089,A,741.3688999999977,Correct
10,310,29,B,44.433854220654354,22.10795433946328,2.2216927110327176,0.3472709346937821,B,452.79690000006667,Correct
10,310,30,A,28.661709790667246,48.40112451942694,1.4330854895333625,0.7602830860785826,A,550.7696999998188,Correct
10,310,31,B,51.03968762961679,41.47345931593025,2.55198438148084,0.651463575529408,A,2210.630999999921,Incorrect
10,310,32,B,32.067545673238484,14.385951678934749,1.6033772836619244,0.22597400054719574,B,538.9532999997755,Correct
10,310,33,B,81.28526421454967,62.366010004961794,4.064263210727484,0.9796429943264775,B,782.8445000000102,Correct
10,310,34,B,47.09196668613774,26.357954418001057,2.354598334306887,0.4140297798162338,B,447.96809999979814,Correct
10,310,35,B,63.020090692315485,41.48581258106398,3.1510045346157742,0.6516576201643681,B,402.7442000001429,Correct
10,310,36,A,10.911665413019104,36.863890066529436,0.5455832706509552,0.5790566310787532,A,604.9703999997291,Correct
10,310,37,B,84.21827002002854,60.790669515808,4.210913501001427,0.954897603788337,A,1059.3204000001606,Incorrect
10,310,38,A,69.18806807272162,87.80167273356264,3.4594034036360815,1.379185450163278,A,536.3177999997788,Correct
10,310,39,B,74.42268138749263,59.70142007762484,3.7211340693746315,0.9377877136237218,B,491.07790000016394,Correct
10,310,40,A,15.532211688121382,43.429548204674106,0.7766105844060691,0.6821897479426398,A,478.40380000025107,Correct
10,310,41,A,54.21204716786084,68.78266993676942,2.710602358393042,1.0804356528382317,A,531.4149000000725,Correct
10,310,42,A,55.11053295200562,69.55383409423662,2.755526647600281,1.0925490710972852,A,589.869699999781,Correct
10,310,43,A,47.66387607526322,57.663318156462445,2.383193803763161,0.9057732835097667,A,561.2368000001879,Correct
10,310,44,B,70.85153922265725,44.24174846552092,3.5425769611328626,0.6949477598062401,B,600.1262999998289,Correct
10,310,45,A,56.760456996233145,66.845850369878,2.838022849811657,1.0500121622248564,A,554.6414999998888,Correct
10,310,46,A,22.90985175852624,45.95786900398403,1.145492587926312,0.7219045181877916,A,487.8969999999754,Correct
10,310,47,A,20.41531153300067,44.05950935693826,1.0207655766500334,0.6920851545826397,A,486.5214000001288,Correct
10,310,48,B,72.78844712067871,42.32053633545698,3.6394223560339354,0.6647694302372578,B,787.8003000000717,Correct
10,310,49,B,52.96119195809713,40.33993012561415,2.6480595979048562,0.633658140644775,B,922.172000000046,Correct
10,310,50,B,61.39910054851342,30.855239967463984,3.0699550274256704,0.4846729760326751,B,608.517699999993,Correct
10,310,51,A,53.651848688614564,77.51470356170556,2.6825924344307284,1.2175981162732237,A,540.979200000038,Correct
10,310,52,B,69.70224845536517,39.83267731403159,3.4851124227682586,0.6256902321128722,B,475.56470000017725,Correct
10,310,53,A,30.34170871363245,53.38836902096703,1.5170854356816224,0.8386225395170546,A,457.66619999994873,Correct
10,310,54,B,68.40079616239805,46.35676563268431,3.420039808119902,0.728170371779124,B,513.9374999998836,Correct
10,310,55,A,47.06647561544384,57.43704701354744,2.353323780772192,0.902219024708261,A,505.7021999996323,Correct
10,310,56,B,49.762441337904136,25.622103429506634,2.488122066895207,0.4024710595182794,B,381.88339999987875,Correct
10,310,57,B,67.73541099680764,53.19546204050428,3.3867705498403824,0.8355923637538146,B,744.093299999804,Correct
10,310,58,A,36.27035645107031,68.56571534350535,1.8135178225535156,1.0770277380564268,A,455.0112000001718,Correct
10,310,59,B,30.612892922427253,15.144745948565284,1.5306446461213628,0.2378931130624824,B,448.1353000001036,Correct
10,310,60,B,53.902327515378616,26.602671513406413,2.6951163757689307,0.4178737869619003,B,411.730599999828,Correct
10,310,61,A,22.003321990553612,41.84217846118112,1.1001660995276807,0.6572554023191983,A,518.5277999999016,Correct
10,310,62,B,71.3322138705339,54.29107753252354,3.5666106935266955,0.8528022516582491,B,776.4697000002343,Correct
10,310,63,B,54.9860238676037,34.23564478680551,2.7493011933801847,0.5377722507656895,B,515.5242000000726,Correct
10,310,64,A,50.22802539440484,75.36567216125013,2.511401269720242,1.1838412099732012,A,495.0959999996485,Correct
10,310,65,A,38.98479921378511,65.6856412225964,1.9492399606892554,1.0317876395562187,A,446.3143000002674,Correct
10,310,66,B,71.36403880331937,57.51181717352394,3.568201940165969,0.9033935116347105,B,762.4599000000671,Correct
10,310,67,B,36.92001100179094,23.495205548965934,1.846000550089547,0.36906182573606766,B,580.6805000001987,Correct
10,310,68,B,71.96346468463658,56.14220620437905,3.5981732342318287,0.8818797128400025,B,608.3005000000412,Correct
10,310,69,A,38.878937165572346,50.39966253425987,1.9439468582786175,0.7916760478051776,B,616.2821999996595,Incorrect
10,310,70,B,52.82403155626928,29.066597321980872,2.641201577813464,0.4565770430579393,B,431.49670000002516,Correct
10,310,71,A,16.939752641446788,38.815526761346106,0.8469876320723394,0.6097128685933146,A,455.2487000000838,Correct
10,310,72,A,44.4963169374329,72.69258091138646,2.2248158468716452,1.1418523908084668,A,513.7374000000818,Correct
10,310,73,A,51.52725809677386,79.64126175310815,2.576362904838693,1.2510020142309315,A,601.1994000000414,Correct
10,310,74,B,73.26243456834388,42.13679656461237,3.663121728417194,0.6618832526659693,B,422.4456000001737,Correct
10,310,75,B,53.06671017392236,34.05868732916173,2.6533355086961183,0.5349926095210312,B,544.67939999995,Correct
10,310,76,B,66.95350802958497,43.85756305343813,3.3476754014792482,0.6889129894651618,B,424.13929999975153,Correct
10,310,77,B,48.316996456093314,30.83564106320474,2.4158498228046654,0.48436511716447883,B,509.6397000002071,Correct
10,310,78,A,20.461103440191664,46.424773764462245,1.0230551720095833,0.7292386410150138,A,456.7341000001761,Correct
10,310,79,A,23.847764713041784,38.13458867899994,1.1923882356520892,0.5990167182080735,A,499.5088000000578,Correct
10,310,80,B,32.12578468059053,15.646106379126525,1.6062892340295263,0.24576846428974145,B,408.79180000001725,Correct
10,310,81,B,56.07182510347078,48.78120884037982,2.803591255173539,0.7662534366308336,B,583.1226000000242,Correct
10,310,82,A,49.20386049521369,62.98170175248963,2.4601930247606845,0.9893142576810241,A,631.9592999998349,Correct
10,310,83,B,50.540155856865276,24.7351036946673,2.5270077928432637,0.3885381002647427,B,461.25209999991057,Correct
10,310,84,A,40.792407631508325,72.56466030125205,2.0396203815754164,1.1398430185632615,A,471.7577999999776,Correct
10,310,85,B,57.18708428316085,43.543533984458875,2.859354214158042,0.6839802323845674,B,833.9590999999018,Correct
10,310,86,B,57.31095753368094,38.97727712130617,2.865547876684047,0.6122536373061449,B,589.8293999998714,Correct
10,310,87,B,63.46165543045855,49.73035673896293,3.1730827715229277,0.781162616957628,B,698.2828999998674,Correct
10,310,88,B,88.44045917664663,67.87940324791619,4.422022958832332,1.0662471728685632,B,747.1291000001656,Correct
10,310,89,B,69.47424497842377,42.30527101222676,3.4737122489211885,0.6645296431006841,B,483.39660000010554,Correct
10,310,90,A,46.35310523296518,59.24182894314387,2.317655261648259,0.9305684729650198,A,657.7629000003071,Correct
10,310,91,A,35.93897150454765,66.28452757503612,1.7969485752273826,1.0411949243820176,A,689.2001999999593,Correct
10,310,92,A,44.27410602512879,60.4386760759835,2.2137053012564394,0.9493685037650148,B,914.3583999998555,Incorrect
10,310,93,A,54.2614322459239,62.17810060927938,2.7130716122961953,0.9766913204413956,B,597.1214999999575,Incorrect
10,310,94,B,53.84976533868458,23.033865067158104,2.6924882669342285,0.3618151063938123,B,444.8678999997355,Correct
10,310,95,A,51.24262033341472,62.31963062048824,2.562131016670736,0.978914468658777,A,430.815100000018,Correct
10,310,96,A,36.54081711212759,44.461573190843154,1.8270408556063797,0.6984007585169888,A,576.7525999999634,Correct
10,310,97,A,54.932170002800135,74.81603493497563,2.746608500140007,1.175207528612184,A,492.0915000002424,Correct
10,310,98,A,34.70518613700462,47.478835968082166,1.7352593068502307,0.7457958113916089,A,588.6681000001772,Correct
10,310,99,A,29.502989922750437,48.098652991415015,1.4751494961375218,0.7555318744269708,A,537.9063000000315,Correct
10,310,100,B,38.823629173407866,29.53920041731744,1.9411814586703935,0.46400067511980503,B,617.6576999996541,Correct
10,310,101,A,69.82901826595888,85.70146269304955,3.4914509132979443,1.3461954279919208,A,574.3640000000596,Correct
10,310,102,A,68.38323774132563,84.56725710418833,3.419161887066281,1.3283793682637863,A,544.0466999998534,Correct
10,310,103,A,35.3508153897902,57.82348676033806,1.76754076948951,0.9082892060561235,A,496.870299999955,Correct
10,310,104,A,45.88061497337918,69.18356119371222,2.294030748668959,1.0867328379767311,A,556.5016000000469,Correct
10,310,105,A,48.63135929144042,70.46636056944332,2.4315679645720207,1.106883003450863,A,528.9343999997982,Correct
10,310,106,B,47.19942436556495,29.161416790297018,2.3599712182782473,0.45806646378333576,B,508.5628000001634,Correct
10,310,107,B,50.264813828827215,26.72985766110709,2.5132406914413608,0.41987162229817443,B,433.79079999976966,Correct
10,310,108,A,15.39464226085573,38.68564549643233,0.7697321130427865,0.6076726984548544,A,556.8484000000353,Correct
10,310,109,A,60.397354334193096,78.7035659265508,3.019867716709655,1.2362727226308596,A,1096.4595000000372,Correct
10,310,110,B,63.91624867960545,31.71953883980987,3.1958124339802727,0.498249350972014,B,732.6180000000022,Correct
10,310,111,B,59.9807046829,35.200104473201165,2.999035234145,0.5529219480930099,B,676.611899999898,Correct
10,310,112,A,62.21191429678463,87.62594947976515,3.1105957148392314,1.3764251957473026,A,485.4832000000897,Correct
10,310,113,A,51.91160814438014,80.58928634183877,2.595580407219007,1.2658935496478247,A,500.0777999998718,Correct
10,310,114,B,41.289650033346156,25.690245884400866,2.064482501667308,0.4035414386967459,B,556.4076000000568,Correct
10,310,115,A,58.806916468241354,84.09813622766168,2.9403458234120676,1.3210104347670781,A,478.61120000015944,Correct
10,310,116,B,31.406808135110186,13.630968777858062,1.5703404067555093,0.21411475686915363,B,480.56759999963106,Correct
10,310,117,B,32.37062901043928,18.319342683942764,1.618531450521964,0.2877595619723426,B,662.1046000000206,Correct
10,310,118,B,58.58920206909924,34.787546882990384,2.9294601034549617,0.5464415086200655,B,480.8592000003955,Correct
10,310,119,A,31.455403105746566,45.35625557469318,1.572770155287328,0.712454396538986,A,545.173099999829,Correct
10,310,120,B,53.63361552685254,41.60646510603683,2.6816807763426267,0.6535528255948269,B,455.5468999997174,Correct
10,310,121,B,75.83482337830421,56.98684187146064,3.7917411689152107,0.8951472188733198,B,659.1411999997945,Correct
10,310,122,B,55.60406835165987,46.86701577805542,2.7802034175829937,0.736185362320079,B,614.7123000000647,Correct
10,310,123,B,39.150818643147645,22.530667176556964,1.9575409321573825,0.35391089241174023,B,557.6585000003433,Correct
10,310,124,B,83.05124717388816,52.98116630613495,4.152562358694408,0.8322262142298633,B,512.9455999999664,Correct
10,310,125,A,28.402773070145837,49.19691521215286,1.420138653507292,0.7727833370488968,A,743.3353999999781,Correct
10,310,126,B,35.5707754826486,16.334256630928216,1.77853877413243,0.25657790316787227,B,615.3821000002608,Correct
10,310,127,A,30.458939349277692,49.916590926997976,1.5229469674638847,0.7840879767425188,A,511.3928000000669,Correct
10,310,128,A,10.175408628422137,32.29388876481676,0.5087704314211068,0.5072712184969714,A,574.0089999999327,Correct
10,310,129,B,54.15912655487615,41.61777812880488,2.7079563277438075,0.6537305301409169,B,580.3774000000885,Correct
10,310,130,B,37.72027670447673,22.876085934679114,1.8860138352238365,0.35933671757638347,B,481.61949999985154,Correct
10,310,131,A,24.78078323254315,57.15860161964356,1.2390391616271574,0.8978452146886893,A,485.2438000002621,Correct
10,310,132,A,31.6829922802755,51.488694047712485,1.584149614013775,0.8087825148161302,A,599.7462000000269,Correct
10,310,133,B,61.26783283051565,45.08542036733276,3.0633916415257825,0.7082001270501012,B,497.4065999999766,Correct
10,310,134,A,48.872189080130475,64.57013651377046,2.443609454006524,1.0142653325647568,A,633.4158999998181,Correct
10,310,135,A,13.342612934551031,33.6970423718293,0.6671306467275515,0.5293119038152145,A,519.5167000001675,Correct
10,310,136,A,28.027496256477264,43.68243979308588,1.4013748128238632,0.6861621597241852,A,627.1248000002743,Correct
10,310,137,B,62.379401760272664,52.176591721529135,3.1189700880136333,0.8195879862085497,B,560.9610000001339,Correct
10,310,138,A,34.30767981564374,57.50737924499751,1.7153839907821868,0.9033238008164315,A,743.5704999998052,Correct
10,310,139,A,41.86794550594072,56.85615300251224,2.093397275297036,0.8930943629203485,A,457.2473000002901,Correct
10,310,140,B,56.37632568465375,40.328753762518154,2.8188162842326876,0.6334825827437938,B,518.2372999997824,Correct
10,310,141,B,37.373198872981774,18.83493780315646,1.868659943649089,0.2958585111660851,B,418.97370000015144,Correct
10,310,142,B,74.44260340464422,54.40818185790865,3.722130170232211,0.8546417220999165,B,548.6231999998381,Correct
10,310,143,B,75.668157131418,60.135500143542345,3.7834078565709,0.944606227354503,B,579.7743999996783,Correct
10,310,144,B,66.74453707401658,40.090689477023474,3.337226853700829,0.6297430776918329,B,361.33319999999003,Correct
10,310,145,A,16.774971133966904,38.43401560366985,0.8387485566983451,0.6037201053422234,A,535.9718999998222,Correct
10,310,146,A,29.589576121536926,59.585587784158555,1.4794788060768462,0.9359682242127112,A,465.36220000007233,Correct
10,310,147,B,53.332855051029995,27.27904717425254,2.6666427525514997,0.42849827099780596,B,632.0193000001382,Correct
10,310,148,B,88.39000115834878,64.6996457137929,4.419500057917439,1.0162996583215707,B,521.6730000001917,Correct
10,310,149,A,60.470722601238,85.31434740238126,3.0235361300619004,1.3401146352256421,A,471.1982999997417,Correct
10,310,150,A,51.91166819090205,67.07617331942645,2.5955834095451022,1.053630066656129,A,655.5058999997527,Correct
10,310,151,A,21.276532151130777,34.19088524668709,1.0638266075565388,0.537069169553619,A,508.186200000182,Correct
10,310,152,A,54.22724857023569,66.33826900406294,2.7113624285117846,1.0420390927751382,B,540.5128999996123,Incorrect
10,310,153,B,70.64020164755395,59.66442003835854,3.5320100823776976,0.9372065183660141,B,509.35930000014196,Correct
10,310,154,B,49.03615102941782,38.963976514003996,2.4518075514708912,0.6120447118552009,B,614.4570000001295,Correct
10,310,155,A,64.55580646204342,75.11780369010299,3.227790323102171,1.179947701133139,B,712.9627999997865,Incorrect
10,310,156,A,47.2885250007322,54.76319419699349,2.36442625003661,0.8602182428819298,B,424.1743999996288,Incorrect
10,310,157,B,54.512007419674184,27.904281981013725,2.725600370983709,0.43831943637625376,B,560.9825000001365,Correct
10,310,158,A,18.249533126504257,38.82359561671451,0.9124766563252129,0.6098396138770561,A,936.739000000216,Correct
10,310,159,A,67.07644125489179,88.11774731177469,3.3538220627445896,1.3841503380277655,A,1997.7121000001716,Correct
10,310,160,B,34.66990372312581,12.439980222885215,1.7334951861562906,0.19540675239509256,B,533.7479999998322,Correct
10,310,161,B,64.4737337367596,39.836010329632366,3.2236866868379797,0.6257425869995008,B,757.4712999999065,Correct
10,310,162,A,63.123190558171856,88.02988921035143,3.156159527908593,1.382770266197817,A,835.29819999967,Correct
10,310,163,A,24.148937526692826,37.364648101974055,1.2074468763346413,0.5869225199056475,A,777.6645999997527,Correct
10,310,164,A,40.3615711062308,66.95232869091858,2.01807855531154,1.0516847197805945,A,705.9586000000309,Correct
10,310,165,B,56.886140697236975,31.51517653329738,2.8443070348618487,0.4950392353679625,B,639.5001999999295,Correct
10,310,166,A,24.770309349085828,37.78690850441107,1.2385154674542915,0.5935553707966376,A,642.2836000001553,Correct
10,310,167,B,65.50976902759865,50.60613363979655,3.2754884513799323,0.7949192883468407,A,495.26160000004893,Incorrect
10,310,168,A,62.491077988701505,76.97626071936807,3.124553899435075,1.2091402758838965,A,702.4498999999196,Correct
10,310,169,A,21.90935110470569,38.54745080474879,1.0954675552352844,0.6055019413140638,A,661.3609000000906,Correct
10,310,170,A,27.76693891211868,37.269652837789934,1.3883469456059339,0.5854303377852142,A,605.6458000002749,Correct
10,310,171,A,18.496534770317226,46.18039384740602,0.9248267385158613,0.7253999302544702,A,504.16779999977734,Correct
10,310,172,A,48.17783993916349,57.54771947394791,2.408891996958175,0.903957463651005,A,584.7124000001713,Correct
10,310,173,A,39.74455567950247,47.44141853882585,1.9872277839751233,0.7452080597872695,A,859.7727999999734,Correct
10,310,174,B,35.93520672684231,17.362448262350615,1.7967603363421154,0.27272869954666784,B,364.04440000023897,Correct
10,310,175,A,41.79885868322902,51.583632758966544,2.089942934161451,0.8102738086052155,B,1264.7495999999592,Incorrect
10,310,176,A,66.7278027101222,89.90848322189441,3.33639013550611,1.4122791519265234,A,632.793600000241,Correct
10,310,177,B,65.22042866889953,55.63731962247518,3.2610214334449767,0.8739489729569764,A,1723.8228000001072,Incorrect
10,310,178,A,30.186071165947247,49.99821730281323,1.5093035582973624,0.7853701608555206,A,709.221399999933,Correct
10,310,179,B,79.37228054158606,61.268564842078376,3.9686140270793033,0.9624043660193167,B,732.4315999999271,Correct
10,310,180,A,55.929639149348034,77.69693576063004,2.7964819574674014,1.220460612960167,A,504.0306999999302,Correct
10,310,181,B,62.92918774510938,43.66646127797277,3.146459387255469,0.6859111697957122,B,715.0691000001643,Correct
10,310,182,A,57.77839514752893,83.67406787846556,2.8889197573764465,1.3143491847148054,A,752.6296000000912,Correct
10,310,183,A,38.21179280140014,61.587748393247395,1.9105896400700066,0.9674180895168131,A,492.25760000035734,Correct
10,310,184,A,19.660580394506994,37.558299253739236,0.9830290197253497,0.589964385084371,A,541.6182999997545,Correct
10,310,185,A,50.31611034925648,57.15242155173041,2.5158055174628244,0.8977481384089161,A,556.78910000006,Correct
10,310,186,A,49.60334999185405,59.842536923158406,2.4801674995927026,0.9400043718498519,A,1053.6458000001403,Correct
10,310,187,B,40.2317212037255,26.528602459843555,2.011586060186275,0.4167103129892431,B,416.7171999997663,Correct
10,310,188,A,45.839919139407016,60.73530858413852,2.291995956970351,0.9540279963071934,A,599.9138999995921,Correct
10,310,189,A,37.13320489876254,48.72799993222094,1.856660244938127,0.7654176330559462,A,852.0554999995511,Correct
10,310,190,B,45.10474746608088,34.54631693420507,2.255237373304044,0.5426522774454167,B,504.78650000059133,Correct
10,310,191,B,30.079121126955545,13.129919064244493,1.5039560563477772,0.20624428637229536,A,600.206099999923,Incorrect
10,310,192,B,60.40033974202429,37.16184250612624,3.0200169871012146,0.5837368570555357,B,591.7067999998835,Correct
10,310,193,B,54.08906935906068,32.99070964115329,2.704453467953034,0.5182168552268056,B,721.3445999996111,Correct
10,310,194,A,59.37319402367302,77.38235017041023,2.9686597011836513,1.2155191140643684,A,625.6530999999086,Correct
10,310,195,A,67.93719008261782,81.55429279688657,3.396859504130891,1.2810518355970493,B,1099.8841999999058,Incorrect
10,310,196,A,44.35858797666697,58.51427481336155,2.2179293988333484,0.9191400794189545,A,1303.4864999999627,Correct
10,310,197,B,69.09995280652427,59.93214622977611,3.4549976403262135,0.9414119515466691,B,919.5272000006298,Correct
10,310,198,B,72.65429207941229,62.37044219091404,3.6327146039706144,0.979712614940612,A,1513.738900000135,Incorrect
10,310,199,A,24.173077458708015,40.7532313371059,1.2086538729354006,0.6401502608934863,A,556.2322999994649,Correct
10,310,200,B,63.073482602221,53.8309579763219,3.15367413011105,0.8455747105705688,B,859.9777999997968,Correct
10,310,201,A,65.68851757069964,77.87023183968371,3.2844258785349827,1.2231827414044216,A,585.50490000016,Correct
10,310,202,B,46.72191287614047,35.601561617961266,2.3360956438070235,0.5592280221765572,A,835.471299999881,Incorrect
10,310,203,B,82.50611744041466,60.78144963503203,4.125305872020733,0.9547527782397733,B,1685.1414000002478,Correct
10,310,204,A,28.382423652123897,58.21301721688441,1.4191211826061947,0.914407936159301,A,429.4390000004569,Correct
10,310,205,B,53.03282643619764,39.864618530012365,2.651641321809882,0.6261919635602319,B,623.6397000002398,Correct
10,310,206,A,64.5362182802924,83.45497580776171,3.2268109140146204,1.3109076945158906,A,642.459400000007,Correct
10,310,207,A,23.496510456451382,51.117054789745204,1.174825522822569,0.8029448190030525,A,493.7638999999763,Correct
10,310,208,B,75.73511506709622,59.60001742291885,3.786755753354811,0.9361948844483277,B,677.498199999718,Correct
10,310,209,A,56.66079748831331,70.50798450756068,2.833039874415665,1.1075368307418778,A,541.7764999992869,Correct
10,310,210,A,60.59652522307395,79.09707380475969,3.0298262611536972,1.2424539299274135,A,950.636300000042,Correct
10,310,211,B,72.13217909939306,62.15853936508425,3.6066089549696527,0.9763840531361031,B,601.4205999999831,Correct
10,310,212,A,26.7494418753337,49.06869977519646,1.337472093766685,0.7707693336748016,A,518.4089000003951,Correct
10,310,213,A,53.59661122626585,66.1899732902571,2.6798305613132927,1.0397096691498817,A,717.5931000001583,Correct
10,310,214,A,64.1112371279778,87.28841514774868,3.20556185639889,1.3711232188583162,A,770.5838000001677,Correct
10,310,215,A,46.17837649526152,70.3506902331859,2.308918824763076,1.1050660580577403,A,466.0446999996566,Correct
10,310,216,B,53.153638488709376,33.14553102335224,2.657681924435469,0.5206487838114798,B,921.5133999996397,Correct
10,310,217,A,39.43645633442823,71.37847642453592,1.9718228167214114,1.1212104857987715,A,638.5073999999804,Correct
10,310,218,B,72.72296405600702,52.093569467433404,3.6361482028003507,0.8182838756907918,B,655.9239999996862,Correct
10,310,219,B,40.293100984519384,13.397042980870403,2.0146550492259694,0.2104402590426458,B,495.63040000066394,Correct
10,310,220,B,81.67911859978136,66.89316653756882,4.083955929989068,1.0507554028489239,A,630.79850000031,Incorrect
10,310,221,B,78.30171310748021,52.3212360348262,3.9150856553740105,0.8218600537687378,B,416.741699999875,Correct
10,310,222,B,50.751651199898944,31.635855942448963,2.5375825599949473,0.49693486309411333,B,547.825799999373,Correct
10,310,223,B,51.781855496649065,27.470199308419986,2.5890927748324533,0.4315008816998982,B,409.3570000004547,Correct
10,310,224,A,16.861915445526463,37.07866053243617,0.8430957722763232,0.5824302376682563,A,515.0469000000157,Correct
10,310,225,A,41.92408607257886,52.35741745922945,2.096204303628943,0.822428390254246,B,731.8712000005689,Incorrect
10,310,226,B,66.9883880087004,52.75019861591613,3.3494194004350195,0.828598182235823,B,607.497400000284,Correct
10,310,227,A,24.43056874392599,51.22837942184127,1.2215284371962993,0.8046935022348354,A,472.0381000006455,Correct
10,310,228,B,83.39344085041719,66.69780479438063,4.169672042520859,1.0476866677629615,B,559.7980000002281,Correct
10,310,229,A,46.44633712003585,69.78830946059573,2.3223168560017924,1.0962322015392931,A,541.8872000000192,Correct
10,310,230,A,35.11245468255772,54.18824481284825,1.7556227341278858,0.8511869590748464,B,608.1076999998913,Incorrect
10,310,231,A,54.65615732009534,84.06433500137884,2.7328078660047668,1.3204794863462153,A,548.7989000002926,Correct
10,310,232,A,16.682177477076618,47.09134683024993,0.8341088738538309,0.7397091462478108,A,516.2921000001006,Correct
10,310,233,B,49.796554620146914,40.07338420672002,2.489827731007346,0.6294712471415643,B,487.05450000034034,Correct
10,310,234,A,31.099514010004576,40.15808946980111,1.554975700500229,0.630801794302644,A,968.4429999997519,Correct
10,310,235,B,83.02591535985009,58.85236909186693,4.151295767992504,0.9244508519268209,A,923.5065000002578,Incorrect
10,310,236,A,58.1244120575425,73.65742586087654,2.906220602877125,1.157008139834323,A,509.46750000002794,Correct
10,310,237,B,39.85224828688646,29.236483288083086,1.992612414344323,0.4592456055732129,B,607.6952000003075,Correct
10,310,238,B,64.76875073415925,34.12281644137422,3.2384375367079627,0.5359999472600713,B,518.5737000001609,Correct
10,310,239,A,39.58910774899203,66.20805164421517,1.9794553874496015,1.0399936432698,A,535.7062999992195,Correct
10,310,240,B,45.02914213064048,24.127452072464084,2.251457106532024,0.37899313090346504,B,516.7062999998961,Correct
10,310,241,A,35.78594969047471,48.77596746489668,1.7892974845237353,0.7661711052972708,B,809.6700999994937,Incorrect
10,310,242,B,44.356781856353486,24.437703483133788,2.217839092817674,0.38386654866609404,B,366.0847000001013,Correct
10,310,243,B,86.80329240377097,67.50002730508706,4.340164620188548,1.0602879494938597,B,791.7830000005779,Correct
10,310,244,A,23.921842504913172,47.74060040671088,1.1960921252456587,0.7499075975784439,A,977.4631999998746,Correct
10,310,245,A,51.62757111959713,69.32317408178213,2.5813785559798568,1.0889258720942654,A,768.911900000603,Correct
10,310,246,B,62.6632738830165,34.74093507119048,3.133163694150825,0.54570933199246,B,567.823800000042,Correct
10,310,247,A,29.56623002004219,58.029596364770875,1.4783115010021095,0.9115267681517257,A,854.1893000001437,Correct
10,310,248,A,34.83752188164715,49.13892524464541,1.7418760940823574,0.7718724327693801,A,1165.6676000002335,Correct
10,310,249,A,40.93048094665159,69.25576949367341,2.0465240473325794,1.0878670833001627,A,498.9384999998947,Correct
10,310,250,A,43.049267063113426,57.99326477322291,2.1524633531556714,0.9109560728462242,B,578.1080999995538,Incorrect
10,310,251,A,58.044183770219874,77.04907424562239,2.902209188510994,1.2102840280797094,A,538.4132999997746,Correct
10,310,252,B,70.49275688734497,38.82197354228816,3.5246378443672484,0.6098141343915491,B,553.604799999448,Correct
10,310,253,A,63.50446639575971,73.52518383610943,3.1752233197879853,1.154930886966802,A,772.6670000001832,Correct
10,310,254,A,61.71770382550342,71.17461323639974,3.085885191275171,1.1180082103278413,A,599.9587999995128,Correct
10,310,255,A,40.698581195248366,49.26264547656688,2.0349290597624186,0.7738158256279049,A,718.6037999999826,Correct
10,310,256,A,25.843861434693213,47.97809096471549,1.2921930717346606,0.7536380905400651,A,465.65580000060436,Correct
10,310,257,A,60.797465837544294,73.8501325352525,3.0398732918772144,1.1600351691969093,A,402.79720000035013,Correct
10,310,258,A,33.17251021656124,62.37458824708174,1.6586255108280623,0.9797777410386013,A,605.8101999997234,Correct
10,310,259,B,65.35617508311122,41.178833960093975,3.267808754155561,0.6468356112621255,A,442.8029999999126,Incorrect
10,310,260,A,63.58827927524034,79.51930361388541,3.1794139637620167,1.2490863002597936,A,533.6086000006617,Correct
10,310,261,A,23.378861697466675,40.96665212908801,1.1689430848733338,0.6435026668545577,A,510.9823000002507,Correct
10,310,262,A,58.35811836879604,77.70963352655804,2.917905918439802,1.220660069000949,A,524.2314000006445,Correct
10,310,263,A,26.840628012170605,52.00459598679198,1.3420314006085303,0.8168862835250545,A,540.2712000004612,Correct
10,310,264,B,47.04073824279542,21.1260368816464,2.352036912139771,0.3318470113342368,B,390.2209000007133,Correct
10,310,265,A,27.789702239183313,38.8012215079404,1.3894851119591658,0.6094881621982792,A,575.3562999998394,Correct
10,310,266,A,39.6985627234788,47.00686123093766,1.9849281361739401,0.738382049557143,B,989.4176000007064,Incorrect
10,310,267,A,36.21137832954185,51.40260495617152,1.8105689164770924,0.8074302305284338,A,621.7332999995051,Correct
10,310,268,A,20.171201830266035,45.57919205001363,1.0085600915133017,0.7159562745044056,A,710.8540999997786,Correct
10,310,269,B,40.87950224646908,23.07542668381643,2.043975112323454,0.3624679547416379,B,526.8660000001546,Correct
10,310,270,B,42.022326747385236,23.439539194989173,2.101116337369262,0.36818742069254,B,648.5108999995646,Correct
10,310,271,B,51.14745028471445,29.26418068921776,2.557372514235723,0.45968067533285406,B,500.40160000025935,Correct
10,310,272,B,36.782705844023724,22.631257409934715,1.839135292201186,0.3554909601027524,B,390.3539000002638,Correct
10,310,273,A,13.157448784749423,33.30136379366843,0.6578724392374711,0.5230965992435492,A,600.5824000003486,Correct
10,310,274,B,34.270053671666766,20.07651808331292,1.7135026835833385,0.3153612086009926,B,652.9969000002893,Correct
10,310,275,A,32.683652059968544,46.948542563356526,1.6341826029984272,0.7374659820689429,A,608.8843999996243,Correct
10,310,276,B,48.14963876374818,19.930079176083993,2.407481938187409,0.31306095162524195,B,575.8020000002944,Correct
10,310,277,A,59.915926725722954,86.68463906963922,2.9957963362861477,1.3616391264013066,A,501.9043000002057,Correct
10,310,278,A,27.027603919130527,47.38538976132414,1.3513801959565261,0.7443279618083246,A,578.0415999997786,Correct
10,310,279,A,46.8303576817129,57.4608808799289,2.3415178840856448,0.9025934062059141,A,719.5771000006062,Correct
10,310,280,B,63.773971766857635,46.196260913205506,3.1886985883428816,0.7256491695412186,B,599.0865000003396,Correct
10,310,281,A,49.40039916629284,57.1279534516007,2.4700199583146425,0.8973637943908421,A,902.768400000241,Correct
10,310,282,A,56.327277192095025,69.5690668104702,2.8163638596047513,1.0927883460443535,A,757.1562000002814,Correct
10,310,283,B,56.477841966039165,34.007402637310314,2.823892098301958,0.5341870314652212,B,436.3453000005393,Correct
10,310,284,B,84.98811461099999,65.1640215884475,4.2494057305499995,1.0235940575031668,B,606.3042000005225,Correct
10,310,285,B,63.65125699404909,36.99805384250765,3.182562849702455,0.5811640707437082,B,474.43029999976716,Correct
10,310,286,B,83.72717576551284,59.63525280624884,4.1863587882756415,0.9367483605554072,B,586.1935000002632,Correct
10,310,287,B,64.76554531042301,50.65879293866542,3.2382772655211505,0.7957464586791889,B,1204.9491000007038,Correct
10,310,288,B,72.00606036714413,62.02384913257299,3.6003030183572067,0.9742683439112648,B,529.3962999994619,Correct
10,310,289,A,64.04177674212478,89.35084231233051,3.2020888371062393,1.4035197490023879,A,528.0454000003374,Correct
10,310,290,B,42.67063054291857,32.898591007319396,2.1335315271459283,0.5167698591102492,B,452.476000000388,Correct
10,310,291,A,29.825797239422812,50.35844644165085,1.4912898619711406,0.7910286269364268,A,540.723899999648,Correct
10,310,292,B,75.12697952760121,64.82499789851309,3.75634897638006,1.0182686858347125,B,550.6916000003912,Correct
10,310,293,B,73.59938197732609,42.972565338319825,3.6799690988663043,0.6750114778638647,B,438.180299999658,Correct
10,310,294,A,26.59847416689778,49.58468906416503,1.329923708344889,0.7788744744725751,A,442.308900000171,Correct
10,310,295,A,50.50258174216448,76.64187308320945,2.525129087108224,1.2038877271778605,A,527.0172000000457,Correct
10,310,296,B,61.15414872688784,30.03135463557018,3.0577074363443923,0.47173141550228526,B,455.32810000077006,Correct
10,310,297,B,80.5529586534133,59.29468091308799,4.027647932670664,0.9313986697675407,B,866.9163999993543,Correct
10,310,298,A,46.594483774961574,66.92538230142358,2.329724188748079,1.0512614468842034,A,686.2320999998701,Correct
10,310,299,A,68.7833784926545,88.05001962683937,3.439168924632725,1.3830864740405784,A,457.8655000004801,Correct
10,310,300,A,23.47099049417938,50.20456950420532,1.173549524708969,0.788611533655248,A,524.9076000000059,Correct
10,310,301,A,21.503745280390195,50.29623655444617,1.0751872640195097,0.7900514363133125,A,602.4358000004213,Correct
10,310,302,A,42.76581243428482,75.31145522470001,2.138290621714241,1.182989572325371,A,649.3637999992643,Correct
10,310,303,B,45.71371372363091,36.35229829832992,2.2856856861815458,0.5710205663756901,B,583.9971999994304,Correct
10,310,304,B,58.89607378759872,27.76934698123373,2.944803689379936,0.4361998823561489,B,590.0837999997748,Correct
10,310,305,B,60.29206617259162,32.2818791637585,3.0146033086295807,0.5070825721246855,B,694.6481999993921,Correct
10,310,306,B,62.02183035741628,34.79744371082154,3.1010915178708136,0.5465969676281065,B,566.1177000001771,Correct
10,310,307,B,39.470929963257376,12.887451193405152,1.973546498162869,0.2024356099634932,B,528.0671999998958,Correct
10,310,308,A,54.109943656726216,73.52967627988377,2.705497182836311,1.1550014541085927,A,741.3406000005125,Correct
10,310,309,B,46.56275119471999,18.186380376357498,2.3281375597359997,0.2856709949287714,B,727.2933999993256,Correct
10,310,310,A,10.445868220338621,32.92757475952331,0.522293411016931,0.5172251348252357,A,611.4086999996289,Correct
10,310,311,A,39.48051860422704,52.94646222855984,1.974025930211352,0.8316810838540654,A,785.2336999994805,Correct
10,310,312,B,72.3011956854,55.542644994777135,3.61505978427,0.8724618273826888,A,788.5782000003019,Incorrect
10,310,313,A,47.35118707278039,57.797056401113274,2.3675593536390194,0.9078740389442618,A,529.0246000004117,Correct
10,310,314,B,53.13974342507532,21.987795159697505,2.656987171253766,0.34538347871171443,B,393.56880000013916,Correct
10,310,315,B,53.070985726838,34.432236768633324,2.6535492863419,0.540860310395014,B,525.7314999998925,Correct
10,310,316,B,79.58544850993647,64.1207614776016,3.979272425496823,1.0072065660030831,A,756.08850000026,Incorrect
10,310,317,A,14.379401758350049,34.01225047074714,0.7189700879175024,0.534263181054776,A,480.80539999955363,Correct
10,310,318,B,41.99167382386189,22.410700914201396,2.0995836911930947,0.3520264667692658,B,614.3410000004224,Correct
10,310,319,A,60.99751793176657,72.21707145024197,3.0498758965883286,1.1343831056592468,A,539.5779000000402,Correct
10,310,320,B,44.29390858633738,15.799300691998468,2.214695429316869,0.24817483492919262,B,572.977699999683,Correct
10,310,321,A,58.425123482964665,81.11225445261236,2.921256174148233,1.274108313522165,A,708.9871000007406,Correct
10,310,322,B,50.04797221540752,41.12197481336334,2.502398610770376,0.6459424698738337,A,470.37969999928464,Incorrect
10,310,323,A,28.57189087822275,56.393176906632945,1.4285945439111376,0.8858219514123381,A,1786.0043999999107,Correct
10,310,324,A,50.3755420978446,67.40068013857878,2.51877710489223,1.058727407851573,A,694.1471000000092,Correct
10,310,325,B,35.424112013498416,17.112477248032473,1.7712056006749208,0.2688021640357065,B,492.7915000007488,Correct
10,310,326,B,85.1833951440548,66.96515375217874,4.25916975720274,1.0518861753717785,A,763.1437999998525,Incorrect
10,310,327,B,42.88886338707785,24.297454101608366,2.144443169353892,0.38166351653274017,B,431.3234999999622,Correct
10,310,328,B,70.68231524544274,47.395210863274315,3.534115762272137,0.7444822313170089,B,458.3674000004976,Correct
10,310,329,A,63.005350151956556,75.24010163006797,3.1502675075978277,1.1818687526818548,A,1054.5259000000442,Correct
10,310,330,A,10.807684385865066,34.41075374679658,0.5403842192932533,0.5405228558771179,A,502.2502000001623,Correct
10,310,331,B,78.50239366348339,66.83894924684098,3.9251196831741697,1.0499037596376835,B,1500.6000999992466,Correct
10,310,332,B,72.14653398410351,49.19319843406675,3.6073266992051756,0.7727249540352451,B,515.5506999999488,Correct
10,310,333,B,69.50150679065335,46.207428012625556,3.4750753395326677,0.7258245819287185,B,663.9555000001565,Correct
10,310,334,B,57.00593280074211,45.92116937358894,2.8502966400371053,0.7213280417415981,B,791.169400000399,Correct
10,310,335,B,50.22979378225379,21.327427096216937,2.5114896891126897,0.3350104414272351,B,586.2130000004981,Correct
10,310,336,B,33.211283354918535,15.208913069767586,1.6605641677459266,0.23890104784533817,B,491.9092999998611,Correct
10,310,337,B,41.42462769590884,32.13043413405915,2.0712313847954418,0.5047036791610547,B,478.92899999988003,Correct
10,310,338,A,51.42116765230047,63.81208601139747,2.5710583826150235,1.0023579031182317,A,759.205600000314,Correct
10,310,339,B,66.62778912587676,40.64515456749891,3.331389456293838,0.638452594966381,B,541.9049000001905,Correct
10,310,340,B,40.72976057379185,19.541622484992338,2.0364880286895923,0.30695908819038525,B,740.5122999998639,Correct
10,310,341,B,44.25984656594753,25.594900705063722,2.2129923282973762,0.40204376012194204,B,544.6576000003915,Correct
10,310,342,A,49.217483987999614,79.32983859981371,2.460874199399981,1.246110190778194,A,774.186099999497,Correct
10,310,343,A,35.15268994584636,61.89903256454124,1.7576344972923181,0.9723077298453906,A,643.1876000006014,Correct
10,310,344,B,58.54646037597627,50.10072959020074,2.9273230187988135,0.7869804201003171,B,973.946199999773,Correct
10,310,345,A,20.273291215304496,51.1259099346931,1.0136645607652248,0.8030839152946263,A,559.9113999996916,Correct
10,310,346,B,70.76787782176848,52.413631919255344,3.538393891088424,0.8233114049274602,B,448.1978000003437,Correct
10,310,347,B,49.55292905032874,39.607327246962775,2.4776464525164372,0.6221504415369254,B,712.4968999996781,Correct
10,310,348,A,23.917727028545407,54.287292112034855,1.1958863514272704,0.8527427904122591,A,509.20529999984865,Correct
10,310,349,A,16.811550576126667,36.320348744497636,0.8405775288063333,0.5705187039576651,A,498.4515999994983,Correct
10,310,350,B,45.5066486249611,30.30908435940009,2.2753324312480547,0.47609398380262313,B,608.2745000003342,Correct
10,310,351,A,44.06633437066067,53.345703287570544,2.2033167185330336,0.8379523477440624,A,607.739600000059,Correct
10,310,352,A,53.37312764646249,78.203464451488,2.6686563823231246,1.2284171470303262,A,563.8883000001442,Correct
10,310,353,A,69.74212684975174,88.11280352642532,3.487106342487587,1.3840726812290929,A,530.5261000003156,Correct
10,310,354,B,44.076329929657504,21.424196214409456,2.203816496482875,0.33653048718127504,A,1053.8431999993918,Incorrect
10,310,355,B,82.21933926590714,63.254166043532614,4.110966963295357,0.9935941167565552,B,861.325100000613,Correct
10,310,356,A,57.86232754773383,76.04172222426995,2.8931163773866913,1.1944605795304108,A,770.2922999997099,Correct
10,310,357,B,50.660886042038854,43.78958470340904,2.5330443021019424,0.687845188039889,A,465.2494000001752,Incorrect
10,310,358,A,57.10949006753434,85.99545056493109,2.8554745033767173,1.3508133786846588,A,563.7077999999747,Correct
10,310,359,A,69.19025340223206,84.23406311608505,3.4595126701116032,1.323145569337559,A,770.0948000001517,Correct
10,310,360,B,49.403672496661265,36.59144703345664,2.4701836248330635,0.574777105922637,B,638.2390000007945,Correct
10,310,361,B,81.47742686244281,59.24314022605157,4.073871343122141,0.9305890705487678,B,642.3979000001054,Correct
10,310,362,A,60.80938206830319,75.29287908824297,3.040469103415159,1.1826977790562434,A,553.8219000000026,Correct
10,310,363,B,61.601326505111004,34.03387490650308,3.08006632525555,0.5346028568973205,B,593.8795000001846,Correct
10,310,364,B,67.19322890547028,57.353519146388805,3.359661445273514,0.900906972039083,B,1027.82230000048,Correct
10,310,365,B,64.82034928670494,34.11932938787289,3.241017464335247,0.535945172751759,B,1105.080799999996,Correct
10,310,366,A,58.15892798623962,80.85988972197586,2.907946399311981,1.270144177603201,A,1286.3209999995888,Correct
10,310,367,B,59.31606108324164,28.099051537233606,2.965803054162082,0.4413788694110704,B,592.5784000000931,Correct
10,310,368,A,17.05494776814067,42.277276133917844,0.8527473884070335,0.664089900580517,A,643.6367999995127,Correct
10,310,369,A,58.9327839402759,68.62906013379707,2.946639197013795,1.078022755695545,B,733.001300000069,Incorrect
10,310,370,B,70.1167935739472,51.27655871424808,3.5058396786973605,0.8054503007902374,B,486.4336999999068,Correct
10,310,371,B,51.814592666521484,24.163006080418597,2.590729633326074,0.37955161195444287,B,672.0734999998967,Correct
10,310,372,B,60.058387574017644,27.523780140381383,3.002919378700882,0.43234252744021406,B,633.4868000003553,Correct
10,310,373,A,49.525545725701676,76.47942170986654,2.4762772862850837,1.2013359469725624,A,878.1891999997242,Correct
10,310,374,A,43.540665517836985,72.1844519715355,2.1770332758918496,1.133870720085906,B,830.2036000004591,Incorrect
10,310,375,A,26.560514113196774,57.18945918331465,1.3280257056598388,0.8983299241653733,A,546.9352999998591,Correct
10,310,376,A,20.47631546349294,38.50719988592148,1.0238157731746471,0.6048696813596233,A,793.3306999993874,Correct
10,310,377,A,51.12733220196576,59.32684655266388,2.556366610098288,0.9319039264524889,B,712.7473000000464,Incorrect
10,310,378,A,31.833201017865427,40.7242164825595,1.5916600508932714,0.6396944966240464,A,955.231900000399,Correct
10,310,379,B,59.19640814442247,34.791892940494506,2.9598204072211236,0.5465097763317007,B,551.11720000059,Correct
10,310,380,A,26.59532740782232,40.05696904899273,1.329766370391116,0.6292133984469463,A,578.4419000001435,Correct
10,310,381,B,58.845482653343105,42.71713314294241,2.9422741326671553,0.6709991583214248,B,493.5067999995226,Correct
10,310,382,A,34.72296197013144,53.91789437702487,1.7361480985065723,0.8469403043594588,A,567.991300000358,Correct
10,310,383,A,53.813277614270035,64.73763913297263,2.6906638807135015,1.0168964575544694,B,508.4593000001405,Incorrect
10,310,384,B,53.629410791341,26.192947753651158,2.68147053956705,0.41143786119365877,B,436.4506000001711,Correct
10,310,385,A,23.523979025231164,48.030352557816,1.1761989512615583,0.7544590137248123,A,606.9646999994802,Correct
10,310,386,A,21.308123959430628,39.722844193979924,1.0654061979715315,0.6239649774974965,A,602.8307000005952,Correct
10,310,387,B,58.80954708680432,28.263605792859714,2.940477354340216,0.44396368161402994,B,1046.7047000001912,Correct
10,310,388,A,63.150376240295174,78.00232096306519,3.1575188120147586,1.2252575925025935,A,853.340699999535,Correct
10,310,389,A,31.192015048473223,57.34083301046524,1.5596007524236613,0.9007076986819836,A,584.1343000001871,Correct
10,310,390,B,33.74973632648775,14.036748847737673,1.6874868163243875,0.22048873530168833,B,724.2569999998523,Correct
10,310,391,B,51.60272168710131,22.37257971728486,2.580136084355065,0.35142766040837065,B,561.2512000006973,Correct
10,310,392,A,25.31369880536318,51.914333397397655,1.265684940268159,0.8154684420863786,A,562.679499999831,Correct
10,310,393,A,14.57759925837765,31.995069823520783,0.7288799629188825,0.5025773815433269,A,753.5958999997092,Correct
10,310,394,A,25.166772765537825,39.89543034879891,1.2583386382768913,0.6266759544779497,A,807.1079000001191,Correct
10,310,395,B,79.81123752712634,61.01210340564049,3.9905618763563164,0.9583758791961049,B,1154.4537999998283,Correct
10,310,396,A,47.17332560331051,68.90860345377708,2.3586662801655254,1.0824138118975917,A,553.6490000004051,Correct
10,310,397,B,37.3478057592517,13.709090396491678,1.8673902879625848,0.2153418883850832,B,627.0665000001827,Correct
10,310,398,A,54.27028309664264,66.7642889278359,2.713514154832132,1.0487309980891784,A,742.6290000003064,Correct
10,310,399,A,35.05515414524967,50.46175248652453,1.7527577072624836,0.7926513544946597,A,553.1534999990981,Correct
10,310,400,B,75.2474375572029,48.38181020767494,3.762371877860145,0.7599796975790363,B,428.17920000015874,Correct
10,310,401,B,84.64028333056058,62.6975602130732,4.232014166528029,0.9848509728169723,B,772.4632999997993,Correct
10,310,402,B,83.3731239649606,60.391784692706665,4.16865619824803,0.9486319356389188,B,595.3878999998778,Correct
10,310,403,A,15.853468669519117,38.44537496409085,0.7926734334759559,0.6038985377584639,A,572.5119000007908,Correct
10,310,404,A,37.801964896040275,48.88953113420109,1.8900982448020136,0.7679549592432782,A,772.2475000000486,Correct
10,310,405,A,33.10020016539394,47.99285352383703,1.6550100082696972,0.7538699802764872,A,473.2266000000891,Correct
10,310,406,B,61.09463023407726,53.654783989509916,3.054731511703863,0.842807376056958,B,765.6627000005756,Correct
10,310,407,A,36.708758879895484,45.75870521500414,1.8354379439947741,0.7187760607061899,B,590.5012000002898,Incorrect
10,310,408,B,43.25673601416888,16.06905302360699,2.162836800708444,0.25241209464554293,B,440.47109999974055,Correct
10,310,409,A,63.46875367320221,86.88376817883449,3.17343768366011,1.3647670391341253,A,879.6449000001303,Correct
10,310,410,B,77.6776602533629,49.592801865904484,3.8838830126681447,0.7790019100642985,B,1225.8894000005967,Correct
10,310,411,B,51.01580932069729,21.844163777047804,2.550790466034864,0.3431273222289282,B,390.0525999997626,Correct
10,310,412,A,16.877863655471586,43.87240578462549,0.8438931827735793,0.6891461385414489,A,514.7789000002376,Correct
10,310,413,B,49.47466198747476,27.968762797822908,2.473733099373738,0.4393322986781798,B,486.64630000075704,Correct
10,310,414,A,13.964359858652006,33.542386338609205,0.6982179929326002,0.5268825725262266,A,483.3169000003181,Correct
10,310,415,B,77.082489394825,56.35435003331308,3.8541244697412504,0.8852120603124204,B,941.8433000000732,Correct
10,310,416,A,12.803363504558352,30.973871820924213,0.6401681752279176,0.48653644082923714,A,416.33959999944636,Correct
10,310,417,B,56.613256126348055,45.149731015908564,2.8306628063174024,0.7092103163556678,B,523.9420999996582,Correct
10,310,418,A,53.84749907431391,69.79099174130431,2.6923749537156954,1.0962743347061379,A,504.642299999432,Correct
10,310,419,A,14.884246600634913,39.27811547629439,0.7442123300317456,0.6169791951358901,A,464.3676999994568,Correct
10,310,420,B,50.87625312592131,43.04803481786346,2.5438126562960655,0.6761969496763874,B,550.4645999999411,Correct
10,310,421,B,47.98988203607669,22.622330886087912,2.3994941018038345,0.3553507425940563,B,510.4676000000836,Correct
10,310,422,A,58.96152106949373,86.76967850661552,2.948076053474687,1.3629749227536574,A,450.3540999994584,Correct
10,310,423,B,73.60937855737677,53.201913838173894,3.6804689278688385,0.8356937083546214,B,573.9687999994203,Correct
10,310,424,A,47.56008552366473,72.7902646658037,2.3780042761832365,1.1433868036347279,A,726.2376999997286,Correct
10,310,425,B,41.79540724896944,21.246058046700604,2.089770362448472,0.3337322993862846,B,635.505799999919,Correct
10,310,426,B,44.13364825981944,27.18235735315811,2.206682412990972,0.4269794708396701,B,693.7477000001309,Correct
10,310,427,A,39.31540762085201,60.85599298792582,1.9657703810426002,0.9559237024888987,A,572.3474000005808,Correct
10,310,428,B,55.06896280327115,33.71046259137452,2.7534481401635573,0.5295227081308786,B,478.89390000000276,Correct
10,310,429,A,39.680223457438544,61.89706723662363,1.9840111728719274,0.9722768585466512,A,997.776199999862,Correct
10,310,430,B,47.80080653228538,17.971117715181812,2.390040326614269,0.28228965695406283,B,585.6685999997353,Correct
10,310,431,B,68.24469396351333,37.95733727961218,3.4122346981756664,0.5962324597372981,B,467.61330000026646,Correct
10,310,432,B,50.686322105425475,42.420365287362955,2.5343161052712735,0.6663375397468746,A,461.84200000061537,Incorrect
10,310,433,B,69.01565423251087,35.89673543028977,3.4507827116255436,0.5638646015782741,B,431.5182999998797,Correct
10,310,434,A,58.87818672599704,85.84244949846192,2.9439093362998516,1.3484100435526039,A,556.5103999997518,Correct
10,310,435,B,46.84859212422222,22.302464329464872,2.342429606211111,0.3503262904719763,B,466.0564000005252,Correct
10,310,436,A,54.807681798038516,62.18471640363184,2.7403840899019256,0.9767952410960723,A,495.5736000001707,Correct
10,310,437,A,30.21076740971902,46.154176709215804,1.5105383704859507,0.7249881124107874,A,620.5247999996573,Correct
10,310,438,A,15.903714240006746,36.57356508774009,0.7951857120003374,0.574496216976162,A,651.7468999991252,Correct
10,310,439,B,80.66573757495667,65.98076633886397,4.033286878747833,1.0364234540419988,B,1082.6194000001124,Correct
10,310,440,B,69.45248320399432,40.76237485891091,3.4726241601997163,0.6402938869981389,B,571.774899999582,Correct
10,310,441,A,60.295129860013404,70.2523300541348,3.01475649300067,1.1035210199781766,A,703.6477999999988,Correct
10,310,442,A,33.80755350565295,43.36042335791865,1.6903776752826474,0.6811039373889025,B,530.6954999996378,Incorrect
10,310,443,B,63.966756152743436,35.75682941331889,3.198337807637172,0.5616669630027302,B,430.01840000033553,Correct
10,310,444,B,56.97944163026982,32.780142189447815,2.848972081513491,0.5149092694299904,B,587.2758999994403,Correct
10,310,445,B,75.0315579187211,59.028730632828044,3.7515778959360553,0.9272211325341169,B,710.6145000007018,Correct
10,310,446,B,37.16203043623494,11.39507665703361,1.8581015218117471,0.17899344556414662,B,661.8151000002399,Correct
10,310,447,A,24.158494725832725,46.79236908553571,1.2079247362916363,0.7350128148159056,A,565.821700000015,Correct
10,310,448,B,77.77459700102355,65.49548497525362,3.8887298500511776,1.0288006722077871,B,587.0922999993127,Correct
10,310,449,A,37.9836703464221,56.536061464859486,1.8991835173211051,0.8880663768045178,A,603.1020999998873,Correct
10,310,450,A,30.726118469214224,42.406320358606266,1.5363059234607113,0.6661169225218636,B,878.1151000002865,Incorrect
10,310,451,B,49.562220480851934,26.200316153039516,2.4781110240425965,0.4115536037405947,B,496.0823999999775,Correct
10,310,452,B,69.23419958147983,55.42639435900808,3.4617099790739916,0.8706357666661526,A,622.7374999998574,Incorrect
10,310,453,A,31.751337856370487,58.42730268165542,1.5875668928185243,0.9177739243687795,A,660.5485000000044,Correct
10,310,454,B,62.70741816310715,40.99737901786464,3.1353709081553576,0.6439853236947994,B,404.5765000000756,Correct
10,310,455,A,17.74003263770484,46.878570908943345,0.8870016318852421,0.7363668698916228,A,557.1355000001859,Correct
10,310,456,B,47.299770100068145,31.7066656515087,2.3649885050034074,0.4980471394030378,B,445.69769999998243,Correct
10,310,457,B,54.85892444122147,33.02081434121259,2.7429462220610734,0.51868973874953,B,597.18520000024,Correct
10,310,458,A,59.60861512181711,75.20693573127575,2.980430756090856,1.181347783961878,A,516.8964000004053,Correct
10,310,459,B,87.08500171585551,67.44891647441516,4.354250085792776,1.059485102443071,B,695.1292000003377,Correct
10,310,460,B,80.53874849927703,65.75899998092993,4.026937424963852,1.032939956237504,B,647.720500000105,Correct
10,310,461,B,44.67325188713438,21.302873311805744,2.2336625943567188,0.3346247514836149,B,835.0157000004401,Correct
10,310,462,A,49.53142511850885,77.07504416193335,2.4765712559254425,1.2106919625711936,A,532.9661000005217,Correct
10,310,463,B,82.64359121053559,65.79722787906974,4.1321795605267795,1.033540438657295,B,848.8536999993812,Correct
10,310,464,A,41.13961155307857,50.33945150251616,2.0569805776539285,0.7907302551302221,A,845.2970000007554,Correct
10,310,465,A,60.50956049824913,76.94415718508749,3.0254780249124567,1.2086359947466458,B,1107.3858999998265,Incorrect
10,310,466,A,57.09090311757464,75.9422962241874,2.8545451558787316,1.1928987995732352,A,606.7056000001685,Correct
10,310,467,B,56.43424738875664,40.72020025143335,2.8217123694378317,0.6396314098130413,B,595.4001999998582,Correct
10,310,468,A,32.91829483937201,53.52672006353126,1.6459147419686004,0.8407957526117359,A,574.4748999995863,Correct
10,310,469,A,57.72831317879708,84.09503306149847,2.8864156589398537,1.3209616903469719,A,614.2002999995384,Correct
10,310,470,A,23.145594321271293,53.94551906232479,1.1572797160635646,0.8473742319014386,A,423.8746999999421,Correct
10,310,471,A,58.703198921327875,67.29776825891416,2.9351599460663937,1.0571108718259654,B,1183.8768999996319,Incorrect
10,310,472,A,42.59749830835641,60.73517051310014,2.1298749154178207,0.954025827492394,A,538.4179000002405,Correct
10,310,473,A,52.39601831698095,78.64037394485413,2.6198009158490474,1.2352801053035398,A,629.9849000006361,Correct
10,310,474,A,18.852984277328048,47.6301789620234,0.9426492138664024,0.7481731015812992,A,483.5489000006419,Correct
10,310,475,A,56.40864427788068,73.47204617453917,2.8204322138940343,1.1540962025307118,A,1210.7344999994893,Correct
10,310,476,B,56.866327369737355,33.82261331521939,2.843316368486868,0.5312843675815078,B,925.4931000004945,Correct
10,310,477,A,63.45219152201607,81.89173972114862,3.1726095761008035,1.28635243948824,A,587.2753000003286,Correct
10,310,478,B,53.365698662199364,26.03397046095769,2.668284933109968,0.40894065171959176,B,799.750000000131,Correct
10,310,479,B,63.933328315847206,40.18368675700551,3.1966664157923605,0.6312038755498098,A,617.1359999998458,Incorrect
10,310,480,B,34.13739322093356,20.5318324349544,1.7068696610466783,0.3225132697119469,B,561.6851000004317,Correct
10,310,481,A,62.4414281039347,84.4500982355789,3.122071405196735,1.326539041059155,A,682.5651999997717,Correct
10,310,482,B,43.590859951180676,22.597893688448703,2.1795429975590337,0.354966883991168,B,419.68379999980243,Correct
10,310,483,A,21.510662168385004,36.74079112652868,1.0755331084192503,0.5771229974508978,A,474.59879999951227,Correct
10,310,484,B,56.41781880227325,35.327497001522005,2.820890940113663,0.5549230252484848,B,584.3840999996246,Correct
10,310,485,B,77.59642140282861,64.83226558557789,3.87982107014143,1.0183828463961693,A,619.4525000000795,Incorrect
10,310,486,B,61.93358418757514,37.78270541790009,3.096679209378757,0.593489348868111,B,508.8488999999754,Correct
10,310,487,B,54.52384430028128,34.945832643241694,2.726192215014064,0.5489278555279324,B,771.454900000208,Correct
10,310,488,A,40.92949251090695,69.65846213011133,2.0464746255453474,1.0941925644416028,A,685.7357999997475,Correct
10,310,489,B,86.3122641802963,60.038679964728786,4.315613209014815,0.9430853795421033,B,640.4700000002777,Correct
10,310,490,A,57.2947051675041,79.7888310268549,2.864735258375205,1.2533200269624234,A,592.7964000002248,Correct
10,310,491,A,45.89452887229706,76.53099898794189,2.294726443614853,1.2021461209620306,A,578.1706000007034,Correct
10,310,492,B,76.8759754507886,51.30912891603031,3.84379877253943,0.8059619123234624,B,573.2061999997313,Correct
10,310,493,B,43.10483278257885,27.575953469575577,2.155241639128943,0.433162064178763,B,532.6966000002358,Correct
10,310,494,B,83.71633073242445,68.42195434696659,4.185816536621223,1.074769545603432,B,649.6675999997024,Correct
10,310,495,B,51.72922159293843,41.565289283958656,2.5864610796469214,0.6529060372940954,A,886.6474999995262,Incorrect
10,310,496,B,66.76789470877812,53.257514294750976,3.3383947354389054,0.8365670782842153,B,540.5002000006789,Correct
10,310,497,B,57.11315498970796,40.57676043591324,2.855657749485398,0.6373782624596901,B,501.612699999896,Correct
10,310,498,B,50.37203580241822,32.58351364650145,2.518601790120911,0.5118206354999587,B,434.56810000043333,Correct
10,310,499,A,38.05058980017884,50.27867497530383,1.902529490008942,0.7897755796732174,A,585.7501000000411,Correct
10,310,500,B,62.02843371028275,41.76058315954258,3.1014216855141377,0.6559737063182229,B,792.6789000002827,Correct
10,310,501,B,44.59042338448583,30.982903351664316,2.2295211692242916,0.48667830778235593,B,395.45689999977185,Correct
10,310,502,B,73.74410164448315,47.72600617440057,3.6872050822241578,0.7496783519133896,B,483.46939999919414,Correct
10,310,503,B,40.544310115257346,14.392054641939453,2.0272155057628676,0.2260698656658993,B,384.1760000004797,Correct
10,310,504,A,21.503413424562197,42.74639821541465,1.07517067122811,0.6714588530048525,A,494.53690000063943,Correct
10,310,505,A,40.56356422376424,52.392091187991255,2.028178211188212,0.8229730439119993,A,497.28200000026845,Correct
10,310,506,A,66.02498700994623,87.49206562377968,3.3012493504973115,1.3743221530553118,A,576.2190999994345,Correct
10,310,507,B,60.52486719674352,32.214001051098755,3.026243359837176,0.5060163452243286,B,429.46349999965605,Correct
10,310,508,B,74.79448617914692,48.44580676348196,3.7397243089573458,0.7609849531269283,B,703.9830000003349,Correct
10,310,509,A,12.95845235232223,33.45931586515678,0.6479226176161115,0.5255777045805848,A,572.1161000001302,Correct
10,310,510,B,50.57437458147711,32.10430322788212,2.5287187290738555,0.5042932158466678,B,886.9406000003437,Correct
10,310,511,A,31.8833644623791,55.31776586567237,1.594168223118955,0.8689294342829826,B,1025.1157000002422,Incorrect
10,310,512,B,87.20270603282636,65.66497586725333,4.360135301641318,1.0314630289135707,B,993.9653999999791,Correct
10,310,513,A,13.023031386699692,32.5845657025762,0.6511515693349846,0.5118371611581366,A,613.8555000006818,Correct
10,310,514,A,34.100361181415394,53.4990227593091,1.7050180590707698,0.8403606843743932,A,647.5380000001678,Correct
10,310,515,B,68.08772268286589,36.185612470040894,3.4043861341432944,0.5684022715076384,B,792.9062000002887,Correct
10,310,516,A,45.63943207220275,70.03305420287813,2.2819716036101374,1.1000766429610886,A,503.559600000699,Correct
10,310,517,A,43.39910467869932,73.60377169059426,2.1699552339349655,1.1561653420983564,A,1053.953000000547,Correct
10,310,518,B,66.30451208740553,35.17124270506933,3.315225604370277,0.552468588499347,B,960.4472000000897,Correct
10,310,519,A,42.847111380635546,55.0163143964665,2.142355569031777,0.8641942456776277,A,638.2395999999062,Correct
10,310,520,A,39.890325617380455,65.82113211312479,1.9945162808690227,1.0339159254877803,A,650.6701999996949,Correct
10,310,521,A,35.68864400316753,67.76117780248929,1.7844322001583766,1.0643900919144604,B,969.5842999999513,Incorrect
10,310,522,B,89.52697247169327,67.55081904167369,4.476348623584664,1.0610857842264778,B,633.8973000001715,Correct
10,310,523,B,78.5870910020924,52.18147011473789,3.9293545501046196,0.8196646158298795,B,436.6685000004509,Correct
10,310,524,B,41.97143124764955,24.007171306161368,2.098571562382477,0.37710376504454113,B,485.2154000000155,Correct
10,310,525,A,30.105307505258807,55.0204976645706,1.5052653752629401,0.8642599562993467,A,848.8514999999097,Correct
10,310,526,A,24.942882178973637,35.880222275223545,1.2471441089486819,0.5636052135450557,A,788.7309000007008,Correct
10,310,527,B,79.16343220991104,61.49935777715107,3.958171610495552,0.9660296529659405,B,594.2536000002292,Correct
10,310,528,A,41.876464138588005,69.94588779791195,2.0938232069294003,1.0987074362736806,A,669.3096999997579,Correct
10,310,529,B,70.45140692620639,53.26831996736395,3.5225703463103195,0.8367368133927054,B,563.114399999904,Correct
10,310,530,B,40.68415948681466,26.810420778872206,2.034207974340733,0.4211371047927803,B,721.764400000211,Correct
10,310,531,B,35.60174830022122,17.284307702363293,1.780087415011061,0.27150127050065,B,470.2050000005329,Correct
10,310,532,B,60.88074289488182,50.37947539033843,3.044037144744091,0.7913589488899748,B,705.5026999996699,Correct
10,310,533,B,49.65146185432596,23.292688642537975,2.482573092716298,0.3658806976087586,B,539.4414000002143,Correct
10,310,534,A,31.373734215786946,42.09529684815011,1.5686867107893474,0.6612313766441499,A,557.6946999999564,Correct
10,310,535,A,17.078402082289927,33.45480974475757,0.8539201041144964,0.525506922606873,A,699.7817000001305,Correct
10,310,536,B,39.76946297657925,24.243533863077673,1.9884731488289622,0.380816539406501,A,1202.9643999994732,Incorrect
10,310,537,B,75.16430864747181,53.26594999273146,3.7582154323735906,0.8366995859182321,A,1675.8151000003636,Incorrect
10,310,538,A,42.215482255995745,55.93509140931564,2.110774112799787,0.8786263612468977,A,695.9912000002078,Correct
10,310,539,A,62.622159368097755,88.59914923563068,3.131107968404888,1.3917121817648153,A,785.9195000000909,Correct
10,310,540,A,69.18277454356364,85.20054067302924,3.459138727178182,1.338326963301335,A,652.9594000003272,Correct
10,310,541,B,63.73556711664551,55.52222590821468,3.1867783558322755,0.8721410851210006,A,658.4978000000774,Incorrect
10,310,542,B,58.524578936628515,51.088464828238024,2.9262289468314258,0.8024957289378654,B,449.69530000071245,Correct
10,310,543,B,68.77786309904673,56.99204196937765,3.4388931549523365,0.89522890182039,B,769.4029000003866,Correct
10,310,544,A,51.102447390824366,73.43042872966981,2.555122369541218,1.153442477235398,A,579.3695000002117,Correct
10,310,545,B,48.92867279744325,32.77454763589921,2.4464336398721627,0.5148213903883484,B,644.48640000046,Correct
10,310,546,B,65.6070218660542,55.36664958416422,3.28035109330271,0.8696972979374535,B,657.2102999998606,Correct
10,310,547,B,78.7846361900319,48.33234628320199,3.939231809501595,0.7592027200703264,B,688.6931999997614,Correct
10,310,548,A,22.66130463096511,38.52957071972382,1.1330652315482554,0.6052210815952637,A,851.4513000000079,Correct
10,310,549,B,33.87055734890457,11.53291347697851,1.6935278674452285,0.18115858126881207,B,897.2750000002634,Correct
