subject,day,trial,cat,x,y,xt,yt,resp,rt,fb
2,202,0,B,78.19294884568143,64.10744818058357,3.9096474422840712,1.0069974412225484,B,649.9443999998675,Correct
2,202,1,B,55.84850609550684,25.735359342286912,2.792425304775342,0.4042500792361101,B,709.8733000000266,Correct
2,202,2,A,42.94663537908621,69.64987863683565,2.1473317689543108,1.0940577352445178,A,423.553899999888,Correct
2,202,3,B,33.163994925724424,19.268381586766587,1.658199746286221,0.30266703019775376,A,756.8129999999655,Incorrect
2,202,4,A,40.59698757412341,68.83241834834217,2.0298493787061704,1.0812170990598553,A,828.538700000081,Correct
2,202,5,A,35.35563277931219,44.93102872586201,1.7677816389656096,0.7057749488170002,A,629.4313999999304,Correct
2,202,6,A,32.141245675500166,42.82694951929726,1.6070622837750081,0.6727241499274259,A,563.4577999999237,Correct
2,202,7,A,38.00634604464646,52.00025346952497,1.9003173022323232,0.816818071423334,A,669.979099999864,Correct
2,202,8,B,81.58369952616508,64.1517231673471,4.079184976308254,1.007692911088319,B,588.6052999999265,Correct
2,202,9,B,67.23116494372043,51.363801819368916,3.3615582471860215,0.8068207122808572,B,635.2569000000585,Correct
2,202,10,B,62.55880527677042,52.58912217499748,3.127940263838521,0.8260679994185408,B,552.2166999999172,Correct
2,202,11,A,37.97735906645405,57.27954620179864,1.8988679533227026,0.8997450077426389,A,627.0041999998739,Correct
2,202,12,B,36.40304215397238,24.618852631092754,1.820152107698619,0.3867120328282537,B,1017.0755000001463,Correct
2,202,13,A,53.00046823725468,78.32943840022727,2.6500234118627337,1.2303959411898413,B,824.2900000000191,Incorrect
2,202,14,A,51.28225402455452,64.23956999319833,2.564112701227726,1.009072805801996,A,1512.8345000000536,Correct
2,202,15,A,24.37674634746262,39.03852398211211,1.218837317373131,0.6132157007459618,A,1068.7500999999884,Correct
2,202,16,B,48.34504478901954,22.68543058146241,2.417252239450977,0.35634191029121765,B,774.9699999999393,Correct
2,202,17,B,78.01144033037603,65.25429068229047,3.900572016518802,1.0250120011134831,B,834.2795999999453,Correct
2,202,18,B,56.39925539385656,31.602214858923425,2.819962769692828,0.4964064301898002,B,1000.401199999942,Correct
2,202,19,A,40.22335362147772,53.69849340243547,2.011167681073886,0.8434939619096563,A,840.1377999998658,Correct
2,202,20,B,67.56158480443189,38.23943470427057,3.3780792402215947,0.600663635721815,B,647.00589999984,Correct
2,202,21,A,61.98966082124021,87.42648599553085,3.09948304106201,1.3732920306636534,A,760.4409999999007,Correct
2,202,22,A,30.981171953055465,53.85491478409256,1.5490585976527733,0.8459510232270476,A,604.8912999999629,Correct
2,202,23,A,42.11985981421484,50.916342020585034,2.105992990710742,0.7997920301976762,A,687.938000000031,Correct
2,202,24,B,62.41562044232176,50.12150685062089,3.1207810221160877,0.7873067885438053,B,648.1957999999395,Correct
2,202,25,B,52.98282675619183,41.98614076249298,2.649141337809591,0.6595167568601744,B,1282.435299999861,Correct
2,202,26,A,59.99818140653206,75.20313353457863,2.999909070326603,1.1812880591958221,A,754.1934999999285,Correct
2,202,27,A,14.115133655729256,42.03793474940541,0.7057566827864628,0.6603303349040955,A,616.2861999998768,Correct
2,202,28,A,60.856365928121555,81.32422481800525,3.042818296406078,1.27743793623565,A,936.3126000000648,Correct
2,202,29,B,40.97953815895973,30.566255867239374,2.0489769079479863,0.4801336244013256,A,898.769399999992,Incorrect
2,202,30,A,43.56261113101851,62.774626390447935,2.1781305565509252,0.9860615255003761,A,596.4452999999139,Correct
2,202,31,A,28.942667034210295,49.84460396479467,1.447133351710515,0.7829572081844582,A,556.2151999999969,Correct
2,202,32,A,21.50157938596115,33.378245346797506,1.0750789692980576,0.5243042518560838,A,478.14979999998286,Correct
2,202,33,A,15.415604025153836,39.987207705814654,0.7707802012576919,0.6281175898307825,A,533.0572000000302,Correct
2,202,34,A,59.88665121663033,77.48132401889659,2.994332560831516,1.2170737916408794,B,654.1698000000906,Incorrect
2,202,35,B,65.41817877220952,52.85126981582777,3.2709089386104755,0.8301858049314824,B,722.0801000000847,Correct
2,202,36,A,66.10386723360048,78.18133647085526,3.3051933616800238,1.2280695615233534,A,726.5406999999868,Correct
2,202,37,B,84.11919878364033,58.14681560312593,4.205959939182017,0.913368043642104,B,577.8401000000031,Correct
2,202,38,B,58.268481490340065,41.414912569250724,2.913424074517003,0.6505439253831083,B,659.2172000000573,Correct
2,202,39,A,35.7396626828193,52.278301543257136,1.786983134140965,0.8211856403522427,A,758.8286000000153,Correct
2,202,40,B,46.76443216107339,17.456126554052137,2.3382216080536695,0.2742001947117195,B,804.381899999953,Correct
2,202,41,B,31.086762356328364,13.972697121671729,1.5543381178164182,0.21948261314139572,B,866.1819999999807,Correct
2,202,42,B,38.745184302958464,21.59480786335089,1.9372592151479233,0.3392104486959313,B,497.6633999999649,Correct
2,202,43,B,82.27283252333592,57.969169618671074,4.113641626166796,0.9105775870435884,B,630.3201999999146,Correct
2,202,44,B,72.50340843526168,55.62951490365643,3.625170421763084,0.8738263767204548,B,522.2450999999637,Correct
2,202,45,A,36.28618905145769,46.050275339045136,1.8143094525728845,0.7233560335046572,A,703.2140000001164,Correct
2,202,46,A,36.89436716036379,58.142778653313314,1.8447183580181896,0.9133046313827328,A,552.371500000163,Correct
2,202,47,A,56.958080350184744,80.29897032149535,2.847904017509237,1.2613332762641731,B,630.6789000000208,Incorrect
2,202,48,A,47.80346271081072,55.66904873078967,2.390173135540536,0.874447372624905,B,946.0329999999431,Incorrect
2,202,49,A,23.138595461966744,40.75670876774381,1.1569297730983372,0.6402048842462134,A,557.6423999998497,Correct
2,202,50,A,17.19859417844597,47.07118479177343,0.8599297089222985,0.7393924416880151,A,549.641500000007,Correct
2,202,51,A,29.11285103428125,41.852722806152485,1.4556425517140625,0.6574210325026932,A,515.7231999999112,Correct
2,202,52,A,65.07827351419617,77.81772453577372,3.2539136757098084,1.2223579586033044,B,496.7074999999568,Incorrect
2,202,53,A,35.167616643546616,53.681029482150635,1.7583808321773307,0.8432196392913075,A,806.5369000000828,Correct
2,202,54,B,51.407349295422364,20.906779123886505,2.570367464771118,0.3284029185291315,B,543.0922999998984,Correct
2,202,55,B,57.82785564704126,29.522297550428146,2.891392782352063,0.4637351655075851,B,546.7062000000169,Correct
2,202,56,B,46.0021801396997,16.597050474754738,2.300109006984985,0.2607058592137424,B,756.9395000000441,Correct
2,202,57,B,67.8472663427157,35.48241546761096,3.3923633171357848,0.5573564788233372,B,546.733199999835,Correct
2,202,58,A,45.00362249863354,68.17374058600005,2.250181124931677,1.0708706129635703,B,1042.4666000001253,Incorrect
2,202,59,A,40.4970006448492,55.469328776402826,2.02485003224246,0.8713101789175202,A,2409.958700000061,Correct
2,202,60,A,39.21898071216895,56.79554003161704,1.9609490356084476,0.8921422565999655,A,880.8504999999514,Correct
2,202,61,B,40.08472987421631,23.658663953697836,2.004236493710815,0.3716294243534338,B,781.5579999999045,Correct
2,202,62,A,52.17907432000503,65.07446804152018,2.6089537160002516,1.0221873536775177,B,681.2085999999908,Incorrect
2,202,63,B,73.2460492966899,46.77874279594245,3.662302464834495,0.7347987735594962,B,590.4308000001492,Correct
2,202,64,A,56.80542811260274,82.9659214892954,2.840271405630137,1.30322564724539,A,876.255300000139,Correct
2,202,65,A,19.586794650229493,38.19138546516244,0.9793397325114747,0.5999088800388517,A,597.6618999998209,Correct
2,202,66,B,31.006613206141708,14.397368353140067,1.5503306603070854,0.22615333324625506,B,1426.0819999999512,Correct
2,202,67,A,35.0248314528982,56.19601889334011,1.7512415726449098,0.8827250005815525,A,684.5596000000569,Correct
2,202,68,B,81.65416745423776,51.17371596364726,4.082708372711888,0.8038348506414247,B,649.560000000065,Correct
2,202,69,B,59.736237177713036,49.40455802634478,2.9868118588856523,0.7760449827470771,B,1108.616000000211,Correct
2,202,70,A,53.330968750841976,82.40757587839413,2.6665484375420987,1.2944551748985322,A,1020.9248999999545,Correct
2,202,71,A,37.06575251870123,62.58992711614208,1.8532876259350615,0.9831602760839628,A,642.450800000006,Correct
2,202,72,B,42.203685325287836,16.635826692614803,2.1101842662643917,0.2613149546195582,B,609.6425999999155,Correct
2,202,73,A,25.329037211939557,37.285632812431494,1.2664518605969777,0.5856813506399067,A,592.8539000001365,Correct
2,202,74,B,85.93323253398037,63.993569738732305,4.296661626699018,1.0052086428409375,B,528.864300000123,Correct
2,202,75,B,45.452473659504165,30.777715135173057,2.2726236829752082,0.48345521881469533,A,794.2631000000802,Incorrect
2,202,76,B,42.67568214041009,14.862773560652862,2.1337841070205044,0.2334639011505782,B,861.8463000000247,Correct
2,202,77,A,29.477132465474476,49.62608891716357,1.4738566232737238,0.7795247818427746,A,1238.4306000001288,Correct
2,202,78,A,27.224699713350937,49.5342090822205,1.3612349856675467,0.7780815367704237,A,1020.481000000018,Correct
2,202,79,B,69.33670472406534,47.81289399029356,3.466835236203267,0.7510431825338691,B,529.4986000001245,Correct
2,202,80,B,75.59551046786918,47.79706045185069,3.779775523393459,0.7507944698936068,B,570.6334999999854,Correct
2,202,81,A,33.30391844336405,65.42492238031933,1.6651959221682022,1.0276922775584683,A,610.8874000001379,Correct
2,202,82,B,42.82964798160501,25.002291381042017,2.1414823990802505,0.39273507462796503,B,529.4952999997804,Correct
2,202,83,A,59.14834223902426,74.35221649967835,2.957417111951213,1.1679218856675366,B,538.3996000000479,Incorrect
2,202,84,A,47.622431956268116,55.12720670878389,2.3811215978134057,0.8659361380462072,A,958.2441000002291,Correct
2,202,85,A,39.63143504960338,53.97012646735319,1.9815717524801693,0.8477607641157442,A,1472.2188999999162,Correct
2,202,86,B,79.1406386158695,57.281859063997885,3.9570319307934754,0.8997813380971083,B,486.300300000039,Correct
2,202,87,B,31.002203959162337,10.723643678450749,1.5501101979581167,0.1684466009996775,B,930.4486999999426,Correct
2,202,88,A,42.46962994597827,60.55353768561221,2.1234814972989136,0.95117274570996,A,701.517099999819,Correct
2,202,89,B,30.964978457808698,16.938780125698443,1.5482489228904348,0.26607373601833506,B,703.7381999998615,Correct
2,202,90,A,39.39056149430374,60.8426855953063,1.9695280747151869,0.955714670454439,A,576.3096999999107,Correct
2,202,91,A,45.32983727927376,57.60478687780745,2.266491863963688,0.904853876334628,A,862.1092999997018,Correct
2,202,92,B,69.98369205425915,45.864528285088085,3.499184602712958,0.72043832560397,B,511.7725000000064,Correct
2,202,93,B,72.68123698981613,40.47166867478452,3.634061849490806,0.635727484936116,B,568.6365000001388,Correct
2,202,94,B,41.80679091454844,29.438721664923875,2.0903395457274225,0.46242235856799757,B,779.6745999999075,Correct
2,202,95,B,49.8534560997515,38.700807796297234,2.492672804987575,0.6079108673041899,B,699.6716999997261,Correct
2,202,96,A,32.100912311362165,41.72364720048715,1.605045615568108,0.6553935176301139,B,789.947199999915,Incorrect
2,202,97,A,17.1020993532087,39.41358278828647,0.855104967660435,0.6191071106966695,A,664.980900000046,Correct
2,202,98,B,54.498819375704215,39.33574792708198,2.724940968785211,0.6178844835559034,B,998.7876999998662,Correct
2,202,99,A,58.7184920319207,69.76955833866937,2.9359246015960347,1.095937659604841,A,923.2374000002892,Correct
2,202,100,B,47.1853289798385,27.381171552896554,2.3592664489919253,0.4301024369863082,B,632.7836000000389,Correct
2,202,101,B,48.470616936602354,29.44976565089175,2.423530846830118,0.46259583709391267,B,610.4507999998532,Correct
2,202,102,A,54.61400861181633,72.28940750723673,2.7307004305908165,1.135519357785469,A,658.7462000002233,Correct
2,202,103,A,51.10383416309485,76.02018439946167,2.5551917081547426,1.1941222641694509,A,543.7237000001005,Correct
2,202,104,A,26.834668455094906,57.03173816314217,1.3417334227547455,0.8958524481739204,A,1269.5315999999366,Correct
2,202,105,B,35.3582726444655,18.504396132740798,1.7679136322232751,0.29066637474866935,B,545.4155000002174,Correct
2,202,106,B,45.398811256572294,16.615420768606363,2.2699405628286144,0.2609944191147851,B,574.4009999998525,Correct
2,202,107,B,57.345504307992144,30.31126680231815,2.8672752153996073,0.47612826553581444,B,519.2436999996062,Correct
2,202,108,A,47.82775452121925,64.56501419561299,2.3913877260609624,1.0141848713792925,A,650.5765000001702,Correct
2,202,109,A,40.87299527165928,72.62023598580235,2.043649763582964,1.140715999374769,A,659.7167999998419,Correct
2,202,110,A,55.13458206230665,82.17386015569734,2.7567291031153327,1.2907839769112688,A,689.7641999998996,Correct
2,202,111,A,53.195603785662,82.53649855086866,2.6597801892831,1.296480287502168,A,650.3083999996306,Correct
2,202,112,B,56.3972966159897,29.676016124734524,2.819864830799485,0.46614977122639106,B,549.9337999999625,Correct
2,202,113,B,65.0211533201064,36.690845932139716,3.2510576660053196,0.5763384601720254,B,491.20029999994586,Correct
2,202,114,A,29.35317085546118,50.347481802287646,1.4676585427730588,0.7908563947840633,A,679.0673000000425,Correct
2,202,115,A,36.96719614479566,68.24128673433424,1.8483598072397829,1.0719316253804951,A,867.4842999998873,Correct
2,202,116,B,54.6212419778753,30.725513709825194,2.731062098893765,0.48263524074279657,B,617.8666999999223,Correct
2,202,117,A,60.26095631593135,85.42971308415751,3.013047815796568,1.3419267951173652,A,809.6220999996149,Correct
2,202,118,A,62.60183983025361,88.27347384635064,3.13009199151268,1.3865964847127294,A,785.0846000001184,Correct
2,202,119,B,69.0643804209977,49.489742490146845,3.4532190210498843,0.7773830571754798,B,1338.7557000000925,Correct
2,202,120,B,52.29629728714834,33.7013498950603,2.614814864357417,0.5293795662319029,B,1059.0431000000535,Correct
2,202,121,B,67.26375930960141,56.01521466352203,3.363187965480071,0.8798849343808802,B,598.3645000001161,Correct
2,202,122,A,39.85400829731801,50.9602309849249,1.9927004148659007,0.800481436437395,A,641.4346000001387,Correct
2,202,123,A,19.825609282587468,46.12602822132527,0.9912804641293733,0.7245459569969548,A,522.053600000163,Correct
2,202,124,A,39.80860738603917,51.31755885497641,1.9904303693019585,0.8060943294947788,A,988.228799999888,Correct
2,202,125,B,60.75695592296403,35.77119134540474,3.0378477961482013,0.5618925597043916,B,555.3993999997147,Correct
2,202,126,B,72.33360066352633,57.40824282581283,3.6166800331763165,0.9017665695853626,B,523.4237999998186,Correct
2,202,127,B,39.764590409640455,23.178208543272774,1.9882295204820226,0.3640824484145897,B,1490.900000000238,Correct
2,202,128,A,46.74182231661117,67.96228894342873,2.3370911158305585,1.0675491383291127,A,841.8494000002283,Correct
2,202,129,B,47.76174559055619,22.941709114272573,2.3880872795278094,0.3603675240709636,B,679.3528999996852,Correct
2,202,130,B,57.30509484834585,37.297436599131046,2.8652547424172927,0.5858667640878059,B,627.494100000149,Correct
2,202,131,B,57.16323549408001,29.80959743314648,2.858161774704001,0.46824806151221066,B,741.4607999999134,Correct
2,202,132,B,41.098545798029534,17.293958186732617,2.0549272899014768,0.2716528599546413,B,663.6653000000479,Correct
2,202,133,B,62.209069019794214,46.574976248257116,3.110453450989711,0.7315980161132184,B,501.21050000007017,Correct
2,202,134,A,20.192225189366745,34.483141679666524,1.0096112594683373,0.5416599228676818,A,618.7599000004411,Correct
2,202,135,B,78.83072600675933,47.06089776829609,3.9415363003379666,0.7392308535010964,B,737.3701000001347,Correct
2,202,136,A,56.3713712995813,77.98132366564123,2.8185685649790653,1.2249277677259318,A,684.7271999999975,Correct
2,202,137,A,46.381760673174924,65.26793105177416,2.3190880336587463,1.025226263536294,A,908.7201000002096,Correct
2,202,138,B,39.753369084837075,14.127647714083633,1.9876684542418537,0.22191657135534887,B,669.8560000004363,Correct
2,202,139,A,66.12853144608647,85.41264201242795,3.3064265723043236,1.3416586433496929,B,686.4380000001802,Incorrect
2,202,140,A,30.8309307520744,62.84311753565104,1.54154653760372,0.9871373818934062,A,532.7737999996316,Correct
2,202,141,B,45.38351258656895,16.842931084620442,2.2691756293284473,0.26456814280181373,B,702.1718000000874,Correct
2,202,142,A,41.090347980670195,57.891927382098885,2.05451739903351,0.9093642688287782,A,792.6797000000079,Correct
2,202,143,B,35.3010195671524,15.825308052394668,1.76505097835762,0.24858335759099243,B,699.4409999997515,Correct
2,202,144,B,59.24147174272428,28.08035367881174,2.9620735871362136,0.44108516413779036,B,645.4031999996914,Correct
2,202,145,A,51.229473339001785,58.00910041973271,2.5614736669500893,0.9112048185999242,A,841.8704999999136,Correct
2,202,146,A,18.85015402416885,46.06278165135049,0.9425077012084426,0.7235524821989671,A,584.4782000003761,Correct
2,202,147,A,50.741385316068445,60.761882385286725,2.537069265803422,0.9544454165995191,A,1486.0388999995848,Correct
2,202,148,A,26.08971895803672,57.09843189078372,1.3044859479018358,0.8969000707979164,A,671.1679000000004,Correct
2,202,149,A,23.794163563412553,52.65835874040838,1.1897081781706276,0.8271555648448142,A,515.8417000002373,Correct
2,202,150,B,54.31521243882496,38.9589459288288,2.7157606219412482,0.6119656916080526,B,1272.8155999998307,Correct
2,202,151,B,84.70833905232763,61.394554493738084,4.235416952616381,0.964383406839729,B,611.8630000000849,Correct
2,202,152,B,66.68598482327211,35.759448491132304,3.3342992411636057,0.5617081033808193,B,557.8156999999919,Correct
2,202,153,A,27.31457405260679,47.47594114479824,1.3657287026303395,0.7457503396137977,A,576.8895999999586,Correct
2,202,154,B,56.87690648157869,30.140130900518606,2.8438453240789348,0.4734400690765198,B,703.2359999998334,Correct
2,202,155,A,47.12407754102634,60.47587539879965,2.3562038770513167,0.9499528293614032,A,582.1440999998231,Correct
2,202,156,B,33.665066715971975,18.488411655519965,1.6832533357985988,0.29041529116762715,B,731.4360000000306,Correct
2,202,157,A,60.638244514365724,82.7060266126668,3.0319122257182864,1.2991432280697799,A,910.7647000000725,Correct
2,202,158,B,38.57743579233447,22.907646057100717,1.9288717896167236,0.35983246282011405,B,713.4958000001461,Correct
2,202,159,A,46.34662383108998,72.79707296780725,2.3173311915544987,1.143493748192517,A,704.1363000003003,Correct
2,202,160,B,60.522465911243515,41.907520405922114,3.0261232955621757,0.6582817911870463,B,533.9319999998224,Correct
2,202,161,B,33.768196638685836,17.765814776972796,1.6884098319342917,0.2790647659418736,B,732.314000000315,Correct
2,202,162,B,82.94550026603835,59.917659575189106,4.147275013301918,0.9411843957085411,B,650.698100000227,Correct
2,202,163,B,84.9007242911643,62.295697598921606,4.245036214558215,0.9785385296351172,B,467.5211999997373,Correct
2,202,164,B,87.19082906611033,63.78397650902228,4.359541453305516,1.0019163600874417,B,640.4999999999745,Correct
2,202,165,B,57.06153426382559,32.69166086064001,2.8530767131912795,0.5135194079671782,B,695.6592999999884,Correct
2,202,166,A,30.07459278354022,45.90710090770004,1.503729639177011,0.7211070547961789,A,567.1500000003107,Correct
2,202,167,B,68.93553549348265,59.84428027305047,3.4467767746741322,0.9400317563259196,B,592.2882999998365,Correct
2,202,168,B,33.07926638992009,11.91781893028482,1.6539633194960046,0.1872046619909808,B,691.6328000002068,Correct
2,202,169,B,80.98954707436937,53.83699706569298,4.049477353718469,0.8456695723645816,B,589.2800999999963,Correct
2,202,170,A,21.210242248444175,46.205243297557246,1.0605121124222088,0.7257902645046744,A,542.7055000000109,Correct
2,202,171,A,23.16363499399206,53.70885316177635,1.158181749699603,0.8436566926288475,A,533.8715000002594,Correct
2,202,172,B,79.53069446829764,58.061594038386346,3.976534723414882,0.9120293864335374,B,776.1066999996729,Correct
2,202,173,B,61.353804669555174,37.77168218008543,3.0676902334777587,0.5933161962534245,B,587.424700000156,Correct
2,202,174,B,78.33979836862014,49.91669556856484,3.9169899184310064,0.7840896204484076,A,988.2520999999542,Incorrect
2,202,175,B,54.33169881688501,32.950646060196576,2.7165849408442506,0.5175875379687551,B,948.8357999998698,Correct
2,202,176,B,69.37702354277938,45.76587748173183,3.468851177138969,0.7188887224084962,B,661.1299000001054,Correct
2,202,177,B,30.28098634571582,13.391639234094402,1.514049317285791,0.21035537718677913,B,832.1768000000702,Correct
2,202,178,B,45.51017345559717,31.485811698738274,2.2755086727798584,0.4945779736253387,B,775.365899999997,Correct
2,202,179,A,33.48545004462322,63.69315277426245,1.674272502231161,1.0004897041979763,A,754.6984000000521,Correct
2,202,180,A,30.060980327982904,40.770551986872164,1.5030490163991452,0.6404223330237916,A,1048.8000000000284,Correct
2,202,181,A,61.816719490586806,78.93718703923449,3.0908359745293406,1.2399424344875125,B,552.5400999999874,Incorrect
2,202,182,B,57.333791985067585,42.93990651875565,2.866689599253379,0.674498474325776,B,971.8651000002865,Correct
2,202,183,B,50.43928794159148,30.874249625053665,2.521964397079574,0.48497157903583005,B,725.537699999677,Correct
2,202,184,B,53.143340906340036,31.365732550020446,2.657167045317002,0.4926917747680324,B,736.8727999996736,Correct
2,202,185,B,39.314225566911425,17.190326060978578,1.9657112783455712,0.2700250103299173,B,662.9494999997405,Correct
2,202,186,A,39.7075755152231,69.99649385687336,1.9853787757611547,1.0995023543889821,A,1061.5724999997838,Correct
2,202,187,B,37.38996969024275,24.924092414170836,1.8694984845121376,0.3915067281287609,B,669.5887000000766,Correct
2,202,188,B,56.387302680851434,37.76418445142024,2.819365134042572,0.5931984222069585,B,1127.5572999998076,Correct
2,202,189,B,65.15754755763867,34.988826260299554,3.2578773778819334,0.5496031976854335,B,540.2687000000697,Correct
2,202,190,A,50.66684917542212,62.42366965653414,2.533342458771106,0.9805487100154185,A,761.5278000002945,Correct
2,202,191,B,74.2026687926305,53.2329995732418,3.7101334396315253,0.8361820019392252,A,944.1268999999011,Incorrect
2,202,192,B,51.85190178381936,42.3573328582763,2.5925950891909677,0.665347428666092,B,757.6842999997098,Correct
2,202,193,B,72.5856967517087,60.20807775360313,3.629284837585435,0.945746273787413,A,812.0380000000296,Incorrect
2,202,194,A,37.292281011986674,52.90717086101204,1.8646140505993338,0.8310638964958769,A,656.7299000003004,Correct
2,202,195,A,41.259601375177674,55.57409767539884,2.062980068758884,0.872955884934573,A,730.688199999804,Correct
2,202,196,B,50.422817863373496,23.60941945387668,2.521140893168675,0.37085589355909465,B,723.8056000001052,Correct
2,202,197,A,29.026767848843292,56.71541454490657,1.4513383924421646,0.890883648397891,A,672.5513000001229,Correct
2,202,198,A,31.71283251922962,40.779982667385084,1.585641625961481,0.6405704698068804,A,594.4402000000082,Correct
2,202,199,B,68.35240701957751,37.7563134846482,3.4176203509788756,0.5930747853500202,B,628.1318000001193,Correct
2,202,200,B,39.037048739364096,23.866323709398845,1.9518524369682047,0.37489133616821657,A,587.9305000003114,Incorrect
2,202,201,A,65.42469514734651,78.9551466849102,3.2712347573673255,1.240224543942092,B,3460.76260000018,Incorrect
2,202,202,B,56.56804653621622,39.815291245791904,2.828402326810811,0.6254171323915892,B,822.4312000002101,Correct
2,202,203,B,52.670923030098315,21.51411782006094,2.6335461515049157,0.3379429724598435,B,555.3748000002088,Correct
2,202,204,B,70.97489298260935,42.64735091709212,3.5487446491304673,0.6699030216810127,B,663.0155999996532,Correct
2,202,205,A,29.17986696110991,39.533523456164204,1.4589933480554953,0.6209911343020262,A,1130.6202000000667,Correct
2,202,206,A,64.27151416743675,84.92448124854792,3.2135757083718373,1.3339906320018113,A,1005.9418999999252,Correct
2,202,207,B,41.65143297274594,25.108159816206395,2.082571648637297,0.39439805211876233,B,848.9927000000534,Correct
2,202,208,B,57.466110088300866,32.302916490790075,2.8733055044150433,0.5074130256849534,B,639.0710000000581,Correct
2,202,209,A,23.67142003615941,42.633715952824964,1.1835710018079706,0.6696888441631443,A,526.3116999999511,Correct
2,202,210,A,35.811740409213506,47.30141228060691,1.7905870204606753,0.7430088466258834,A,687.9439000003913,Correct
2,202,211,A,56.94240619635892,74.43615009059933,2.8471203098179454,1.1692403114306702,A,771.8250000002627,Correct
2,202,212,A,36.280748139273236,61.02370856371232,1.8140374069636618,0.9585581725928158,A,594.7188999998616,Correct
2,202,213,B,51.669713464686964,23.430916746868707,2.5834856732343483,0.3680519795941839,B,723.846500000036,Correct
2,202,214,B,55.16209017079475,23.157316924790358,2.7581045085397373,0.3637542836388598,B,523.0588999997963,Correct
2,202,215,B,66.31534744521734,47.42972870564294,3.315767372260867,0.7450244363170241,B,592.2903000000588,Correct
2,202,216,A,54.91016384640331,63.96621408305181,2.745508192320165,1.0047789412063377,A,995.629700000336,Correct
2,202,217,A,20.990367267482213,49.499617663647015,1.0495183633741108,0.777538176038085,A,617.1746999998504,Correct
2,202,218,A,56.900756740468545,72.58939085838817,2.8450378370234275,1.1402314852463518,A,618.2643999995889,Correct
2,202,219,B,56.13196734467684,27.429604753204153,2.8065983672338417,0.43086322391768916,B,632.1078000000853,Correct
2,202,220,A,51.57159027300747,71.49258492823239,2.5785795136503737,1.1230028979833961,A,597.635099999934,Correct
2,202,221,B,43.20426147441884,18.287720534021975,2.160213073720942,0.28726284240293326,B,535.8593999999357,Correct
2,202,222,B,56.58234935125647,32.618487767756775,2.8291174675628237,0.5123700077119661,B,650.8808000003228,Correct
2,202,223,B,57.73215405920406,40.837990319210455,2.886607702960203,0.6414816518710132,B,742.7850000003673,Correct
2,202,224,A,25.719628559075105,38.081923773430375,1.2859814279537551,0.5981894598058767,A,448.19860000006884,Correct
2,202,225,A,56.52152644121511,83.6628921822595,2.8260763220607554,1.3141736372893067,A,594.1139999999905,Correct
2,202,226,A,19.532054689561715,37.742763566521404,0.9766027344780858,0.5928619437338007,A,503.9465999998356,Correct
2,202,227,A,50.32025053466931,78.18919049020937,2.5160125267334656,1.2281929321708733,A,622.3023000002286,Correct
2,202,228,A,53.35340749500203,63.27884690957751,2.667670374750102,0.9939818028938094,A,967.980500000067,Correct
2,202,229,A,49.303101954987,80.19778182910737,2.46515509774935,1.2597438111426034,A,594.4729000002553,Correct
2,202,230,B,34.37770049349764,10.814560370683381,1.718885024674882,0.1698747170617111,B,771.3317999996434,Correct
2,202,231,A,48.87697566539025,74.6183493549208,2.4438487832695124,1.1721022907820793,A,584.0272999998888,Correct
2,202,232,A,61.832428694860965,80.89941460647167,3.091621434743048,1.2707650330370308,A,653.3039999999346,Correct
2,202,233,B,61.44220546002672,36.74405237009297,3.072110273001336,0.5771742249450136,B,692.4779000000854,Correct
2,202,234,A,32.17697754428558,47.88084835642163,1.608848877214279,0.7521106072209055,A,1121.1978000001181,Correct
2,202,235,B,88.35537750480106,61.352839724756805,4.417768875240053,0.9637281527808399,B,1075.147399999878,Correct
2,202,236,A,30.482585428948582,39.64302474441524,1.5241292714474293,0.6227111765156665,A,757.904900000085,Correct
2,202,237,B,73.41848329379437,58.69205235953105,3.670924164689718,0.921932602584051,B,764.2496000003121,Correct
2,202,238,A,16.907307633661162,31.946100885879325,0.8453653816830581,0.5018081792695844,A,542.2305999995842,Correct
2,202,239,B,42.43940582886569,21.33434885791822,2.1219702914432843,0.33511916820578835,B,896.4739999996709,Correct
2,202,240,B,54.020843985613816,38.21366628455721,2.701042199280691,0.6002588663314845,B,689.861700000165,Correct
2,202,241,B,75.66512828632676,63.87496273570041,3.7832564143163383,1.0033455683939911,B,564.6068000000923,Correct
2,202,242,A,66.88820705620608,87.05583353087063,3.344410352810304,1.3674698353635957,A,803.790900000422,Correct
2,202,243,A,50.15600890452276,71.11652058325654,2.5078004452261378,1.1170956930661302,A,918.5615999999754,Correct
2,202,244,A,45.21148768307166,60.998650021631484,2.260574384153583,0.9581645539342617,A,612.9335000000538,Correct
2,202,245,B,65.47283458935357,40.820346812501775,3.2736417294676783,0.6412045083157155,B,708.4267000000182,Correct
2,202,246,B,64.10985127970989,54.36781597089066,3.2054925639854948,0.8540076562293597,B,559.4389000002593,Correct
2,202,247,B,72.72866846119646,63.197736185400174,3.636433423059823,0.9927077186177952,B,552.0089999999982,Correct
2,202,248,A,64.70643022712605,75.25160515926366,3.235321511356302,1.1820494496959126,A,879.4647999998233,Correct
2,202,249,A,35.58406393532386,48.095138167187024,1.779203196766193,0.7554766636971042,B,981.8394999997508,Incorrect
2,202,250,A,59.959886987639265,73.28321197479197,2.997994349381963,1.15113000185735,A,1549.0279000000555,Correct
2,202,251,A,18.4722509597904,37.88944241317446,0.9236125479895201,0.595165969669212,A,784.3719000002238,Correct
2,202,252,A,41.06427862298844,66.94222675042678,2.053213931149422,1.0515260388704144,A,590.4507000000194,Correct
2,202,253,B,51.504415458675645,42.40037592710462,2.575220772933782,0.6660235476101869,B,570.6280999997944,Correct
2,202,254,B,75.27631261124641,57.52202490480492,3.7638156305623203,0.9035538543027212,B,547.1603000000869,Correct
2,202,255,B,84.19279339211012,56.51682113222029,4.209639669605505,0.8877641503661582,B,511.60509999999704,Correct
2,202,256,B,73.36804427053565,60.040791127110964,3.668402213526782,0.9431185416032551,B,551.6159000003427,Correct
2,202,257,A,54.52031398285424,70.31502106086182,2.726015699142712,1.1045057680090755,A,640.2226999998675,Correct
2,202,258,B,33.08296314122693,11.961710273799731,1.654148157061346,0.18789410560269393,B,494.8165999999219,Correct
2,202,259,A,50.5655287606627,58.29938184937297,2.528276438033135,0.9157645486340812,A,818.1560000002719,Correct
2,202,260,A,37.33456466961519,46.992002281154356,1.8667282334807596,0.7381486457197467,A,809.8920000002181,Correct
2,202,261,A,46.33483276250075,54.65699873559213,2.3167416381250376,0.8585501284750142,A,705.1821000000018,Correct
2,202,262,A,19.92422055883338,40.93452220766804,0.996211027941669,0.6429979712290906,A,454.32830000027025,Correct
2,202,263,A,18.927009328909918,39.27416764210697,0.9463504664454959,0.6169171827014861,A,451.38349999979255,Correct
2,202,264,B,42.117643507739466,28.680809313766083,2.105882175386973,0.45051709919568617,B,716.1922999998751,Correct
2,202,265,B,77.1306346039308,55.62274874454738,3.85653173019654,0.8737200941417047,B,636.7380000001504,Correct
2,202,266,B,53.16918136414718,21.247902609080352,2.6584590682073586,0.3337612737043911,B,471.5057999997043,Correct
2,202,267,A,15.1939052156909,38.8809388125014,0.7596952607845451,0.6107403586901432,A,511.2470000003668,Correct
2,202,268,A,64.28023817113508,78.1815299914166,3.214011908556754,1.2280726013372223,A,627.1332000001166,Correct
2,202,269,A,19.126244618667396,42.44479905861134,0.9563122309333698,0.6667213445281418,A,514.848400000119,Correct
2,202,270,A,27.8743044146268,50.27425833959774,1.3937152207313401,0.7897062033217783,A,693.6722000000373,Correct
2,202,271,A,45.09112878993257,64.41036755083175,2.2545564394966284,1.0117556875635572,B,583.0814000000828,Incorrect
2,202,272,A,48.595849095578984,59.610589587177266,2.429792454778949,0.9363609516161617,B,899.1989000001013,Incorrect
2,202,273,B,60.31572543590824,32.1224021500434,3.0157862717954123,0.5045775130511666,A,1567.0703000000685,Incorrect
2,202,274,A,20.763027008244382,44.2879501788964,1.038151350412219,0.6956734946228584,A,569.8538000001463,Correct
2,202,275,A,33.84723719806214,61.361608801099706,1.692361859903107,0.9638658971099281,A,435.5501000000004,Correct
2,202,276,A,41.21681212169668,67.69216300012202,2.0608406060848337,1.0633060099339309,A,713.0862999997589,Correct
2,202,277,A,44.74241524225927,53.05250692464934,2.2371207621129634,0.8333468300450002,A,438.86950000023717,Correct
2,202,278,A,28.580006447178352,39.01848836559006,1.4290003223589176,0.6129009820175827,A,489.6436000003632,Correct
2,202,279,A,32.208168608499726,45.138665831281905,1.6104084304249864,0.7090365048419992,A,467.36509999982445,Correct
2,202,280,B,85.47214296108044,59.16481304498221,4.273607148054022,0.9293587100656484,B,495.495099999971,Correct
2,202,281,B,68.04557642459345,39.28070830748475,3.402278821229672,0.6170199232329883,B,669.5694999998523,Correct
2,202,282,B,30.913736189894024,13.431947805335007,1.5456868094947012,0.21098854274321,B,824.8828000000685,Correct
2,202,283,A,34.08945526603181,59.36279177849369,1.7044727633015908,0.9324685527394817,A,579.1386000000784,Correct
2,202,284,B,59.00216389158732,41.93280814392484,2.950108194579366,0.6586790100467226,B,763.4094999998524,Correct
2,202,285,A,63.39994238191606,87.56254608344591,3.169997119095803,1.375429257526857,A,867.988499999683,Correct
2,202,286,A,11.996443926060344,38.57684189028331,0.5998221963030173,0.6059636154060452,A,460.560600000008,Correct
2,202,287,A,49.46379233745705,73.47846726901194,2.4731896168728524,1.15419706484683,B,1096.1351999999351,Incorrect
2,202,288,B,65.70912274485403,54.55492523651612,3.2854561372427016,0.8569467617008972,B,522.3761000002014,Correct
2,202,289,B,54.380938885365026,31.61907044632627,2.719046944268251,0.49667119713758373,B,520.4882999996698,Correct
2,202,290,A,21.960629575758457,45.61911248883068,1.0980314787879228,0.7165833432909842,A,316.61520000034216,Correct
2,202,291,B,45.88606958232362,17.976555629884828,2.294303479116181,0.282375075518472,B,657.3156999997991,Correct
2,202,292,A,36.73920247166753,47.04499918020802,1.8369601235833768,0.7389811190633968,A,1085.4919999997037,Correct
2,202,293,B,57.26156126693399,43.482599676680024,2.8630780633466992,0.6830230785162194,B,557.1915999998964,Correct
2,202,294,A,64.03641732424369,85.9232841610048,3.2018208662121843,1.3496797914626044,A,376.3006999997742,Correct
2,202,295,A,66.82884541909603,85.76374882193682,3.341442270954801,1.347173816216585,B,660.4209000001902,Incorrect
2,202,296,B,50.241982841753796,26.7845624498703,2.5120991420876897,0.42073092311064786,B,1638.9569000002666,Correct
2,202,297,A,64.20651311552447,78.01658709817713,3.210325655776223,1.2254816844289076,A,651.6264000001684,Correct
2,202,298,B,68.71720023549729,56.307335174499656,3.435860011774864,0.8844735526371312,B,1304.078699999991,Correct
2,202,299,A,63.211250863295845,82.24444599473912,3.1605625431647923,1.2918927366781747,A,1129.2131000000154,Correct
2,202,300,A,19.463561939396154,48.18156444865306,0.9731780969698077,0.7568342445517581,A,474.32089999983873,Correct
2,202,301,A,10.385668085260807,32.76743605679148,0.5192834042630403,0.514709681964947,A,571.1470999999619,Correct
2,202,302,B,34.83669364925979,15.154961689053131,1.7418346824629896,0.2380535815388204,B,626.618000000235,Correct
2,202,303,B,55.36948648205148,32.435686452109216,2.768474324102574,0.5094985713604415,B,1740.0402000002941,Correct
2,202,304,A,23.107181910037244,49.42032275280106,1.1553590955018622,0.7762926144911816,A,548.6243000000286,Correct
2,202,305,A,57.7114969195334,81.95050532218374,2.8855748459766697,1.2872755273907186,A,962.1178000002146,Correct
2,202,306,A,21.252650954625434,48.333007347440656,1.0626325477312717,0.7592131040431053,A,549.4727000000239,Correct
2,202,307,A,59.14259931479977,77.08994831421418,2.9571299657399885,1.2109260764477605,A,821.2032000001273,Correct
2,202,308,A,60.82108930681942,80.60376592364173,3.041054465340971,1.2661209943869207,A,684.6565000000737,Correct
2,202,309,B,70.91932903870116,51.608950413713266,3.545966451935058,0.8106714973960076,B,878.6528000000544,Correct
2,202,310,A,65.16490521132388,79.5753365148133,3.2582452605661945,1.2499664630093654,A,678.6333000000013,Correct
2,202,311,B,58.93819118912026,27.970997697478786,2.9469095594560133,0.4393674043998819,B,525.5710999999792,Correct
2,202,312,B,54.58609420649742,43.74196414790232,2.729304710324871,0.6870971661031902,B,677.0053000000189,Correct
2,202,313,A,48.807525709987786,55.47544602324965,2.440376285499389,0.8714062684062911,B,709.2883000000256,Incorrect
2,202,314,A,47.198897603300445,56.112406901285624,2.3599448801650222,0.8814116264816007,A,547.6935000001504,Correct
2,202,315,B,70.2123908036004,53.54394904517118,3.51061954018002,0.84106638482248,A,564.5448999998735,Incorrect
2,202,316,A,49.44500553829852,69.5571677512676,2.472250276914926,1.0926014360594758,A,460.7733000002554,Correct
2,202,317,B,40.13075435161173,22.73573036422838,2.0065377175805863,0.35713201743129136,B,599.8505000002297,Correct
2,202,318,B,59.468644875774196,49.612767540078146,2.9734322437887095,0.7793155301408382,B,759.6109999999499,Correct
2,202,319,B,78.82107432944001,50.72636853852816,3.9410537164720005,0.7968079337196425,A,905.5570000000444,Incorrect
2,202,320,B,51.24102607705754,32.19494116419638,2.562051303852877,0.5057169532209749,B,661.6898000002038,Correct
2,202,321,B,68.68187305419,37.32637010075889,3.4340936527095005,0.5863212504685892,B,658.4136999999828,Correct
2,202,322,B,70.57605457640466,59.742522358786374,3.528802728820233,0.9384333467464362,A,705.6116999997357,Incorrect
2,202,323,A,14.732993495139532,40.461723229016954,0.7366496747569766,0.6355712622393157,A,370.9773000000496,Correct
2,202,324,B,84.32691559286792,69.07834555372705,4.216345779643396,1.0850801145686302,A,1455.1405000001978,Incorrect
2,202,325,B,48.63890203415552,33.08037371832615,2.4319451017077762,0.5196252952574916,B,584.2761999997492,Correct
2,202,326,B,53.69291488560977,26.46996808747803,2.684645744280488,0.4157892864218863,B,509.5149000003403,Correct
2,202,327,A,22.41821588054662,37.0529500726399,1.120910794027331,0.5820263787101745,A,1057.9490000000078,Correct
2,202,328,A,57.09421536201642,74.49340330482521,2.854710768100821,1.1701396428167026,A,924.742299999707,Correct
2,202,329,B,70.33101782391738,44.726746955791114,3.5165508911958687,0.7025660982764149,B,448.07799999989584,Correct
2,202,330,A,58.11484570467883,83.39245708085366,2.9057422852339414,1.3099256526500598,A,462.1193999996649,Correct
2,202,331,B,75.03954853478139,61.381334632368365,3.751977426739069,0.964175749742926,B,497.4867999999333,Correct
2,202,332,B,35.898339054162,19.785115259480804,1.7949169527081,0.31078386374806105,B,688.9467999999397,Correct
2,202,333,B,59.44752024456858,26.87855352671503,2.972376012228429,0.42220733149323986,B,856.9428999999218,Correct
2,202,334,B,84.27167235808291,65.06026656768137,4.2135836179041455,1.021964277448107,B,861.9349999999031,Correct
2,202,335,A,51.705921102311144,81.64849722875744,2.585296055115557,1.2825315953525547,A,557.9551999999239,Correct
2,202,336,B,45.85140230556823,34.214785870967724,2.2925701152784113,0.5374445996819002,B,476.8598999999085,Correct
2,202,337,A,22.47038748713987,50.83935124469494,1.1235193743569936,0.7985826619180236,A,532.6089999998658,Correct
2,202,338,A,49.130285542262904,70.2462608233802,2.456514277113145,1.1034256847244186,A,873.5694000001786,Correct
2,202,339,A,21.988606850252904,53.8144175164071,1.0994303425126453,0.8453148936337922,A,520.7702000002428,Correct
2,202,340,A,11.881767229937942,31.126547263961093,0.5940883614968971,0.48893466108037825,A,529.0631000002577,Correct
2,202,341,B,48.2534518261502,39.725749226452486,2.4126725913075098,0.6240106096408676,B,1220.6884000001992,Correct
2,202,342,B,76.3007441925909,55.19169115987328,3.815037209629545,0.8669490574352731,B,636.9445000000269,Correct
2,202,343,B,69.64343168549115,48.52243157488918,3.4821715842745573,0.7621885728499264,B,632.5741000000562,Correct
2,202,344,A,40.68815216934694,65.10119569526486,2.034407608467347,1.0226071906807779,A,881.4423000003444,Correct
2,202,345,B,36.77051867642693,18.2055342879597,1.8385259338213467,0.2859718638686564,A,685.3065000000242,Incorrect
2,202,346,B,59.198448454311794,49.896807243654635,2.9599224227155894,0.7837772153712567,B,470.9642000002532,Correct
2,202,347,B,82.08014882680305,62.43744464910611,4.104007441340153,0.9807650870927556,B,658.5785000002033,Correct
2,202,348,A,11.614617321030607,36.61129455644303,0.5807308660515303,0.575088870084667,A,492.5274000001991,Correct
2,202,349,B,73.22484491132322,53.10622290803493,3.661242245566161,0.8341905987389225,B,459.6958000001905,Correct
2,202,350,B,60.0015018543363,48.72858625002566,3.000075092716815,0.765426842914486,B,475.47339999982796,Correct
2,202,351,A,26.00656231854451,53.27450374311098,1.3003281159272257,0.8368339479149968,A,1120.441000000028,Correct
2,202,352,B,76.22258839763087,61.13654463014115,3.811129419881544,0.9603305973795797,B,499.75210000002335,Correct
2,202,353,B,39.827173497354906,20.860253072667433,1.9913586748677454,0.3276720890255796,B,577.3143000001255,Correct
2,202,354,A,27.452221001658963,58.178731139732285,1.372611050082948,0.9138693717187932,A,1551.9414000000324,Correct
2,202,355,A,59.41977534680976,71.33112719823664,2.970988767340488,1.1204667258912964,B,2306.142099999761,Incorrect
2,202,356,A,34.424997451901206,65.10373198755391,1.7212498725950605,1.022647030666891,A,581.7984000000251,Correct
2,202,357,A,44.63024829966603,67.85987563417481,2.2315124149833014,1.065940433829203,A,949.5183000003635,Correct
2,202,358,B,59.30048381278981,32.687355574532134,2.9650241906394905,0.5134517806911376,B,631.7291000000296,Correct
2,202,359,B,80.10389587928155,58.398746189605916,4.005194793964077,0.9173253600406044,B,722.5311000001966,Correct
2,202,360,A,36.62113795262655,58.75860844404931,1.8310568976313275,0.9229780631149225,A,614.4033000000491,Correct
2,202,361,A,46.60463729484282,60.87367529821721,2.3302318647421405,0.9562014555694482,A,582.9644999998891,Correct
2,202,362,B,67.42030109841274,47.612945110590395,3.371015054920637,0.7479023928760243,A,2439.5346000001155,Incorrect
2,202,363,B,62.80153504907212,37.13671902357794,3.1400767524536057,0.5833422183145038,B,752.7078000002803,Correct
2,202,364,B,76.06365746062816,53.037394294091996,3.8031828730314086,0.8331094413993231,B,1104.6941999998126,Correct
2,202,365,B,63.70624116126175,36.41502971526078,3.185312058063088,0.5720059491685864,B,916.5580000003501,Correct
2,202,366,B,78.07694430326734,53.5110644554449,3.903847215163367,0.8405498348949779,B,599.6035000002848,Correct
2,202,367,A,34.535879522552015,54.78223321689822,1.7267939761276008,0.860517307107251,A,460.8810999998241,Correct
2,202,368,A,20.561514455293565,45.60826126170179,1.0280757227646782,0.7164128926138315,A,577.044399999977,Correct
2,202,369,B,41.04901339132479,32.40080736899342,2.0524506695662397,0.5089506920040389,B,770.9354000003259,Correct
2,202,370,A,25.016455867650592,35.79754396653391,1.2508227933825296,0.5623065057091027,A,587.0359000000462,Correct
2,202,371,B,40.94990473304688,22.104804548168477,2.047495236652344,0.34722145788782166,B,768.4915999998339,Correct
2,202,372,A,15.626722138668804,39.7284476268801,0.7813361069334402,0.6240529960156668,A,515.298299999813,Correct
2,202,373,B,48.93508744132752,26.30533944699379,2.446754372066376,0.4132033057843074,B,765.7960999999887,Correct
2,202,374,A,28.21311614536682,52.788276989817376,1.410655807268341,0.8291963159343669,A,645.8196999997199,Correct
2,202,375,A,20.019588541714846,50.885499015204694,1.0009794270857424,0.7993075494020886,A,442.5122000002375,Correct
2,202,376,A,26.163021730976357,50.8745350215587,1.3081510865488177,0.7991353273926273,A,620.9578000002693,Correct
2,202,377,A,36.44244527421656,63.14334273040858,1.822122263710828,0.9918533082247702,A,685.0257999999485,Correct
2,202,378,A,32.471001976796074,58.86334927047066,1.6235500988398035,0.9246233281690035,A,472.08580000005895,Correct
2,202,379,A,64.93293490218632,77.05703359903283,3.246646745109316,1.210409053310717,B,484.24130000012156,Incorrect
2,202,380,B,59.545225877082615,49.46691592289118,2.9772612938541307,0.7770244982954946,B,438.7265000000298,Correct
2,202,381,A,40.485915009492615,63.329981286427305,2.0242957504746304,0.9947850198070954,A,429.64030000030107,Correct
2,202,382,A,17.92968228427639,41.12108370944834,0.8964841142138195,0.6459284724462692,A,494.7744999999486,Correct
2,202,383,B,41.58637405356387,31.41121870459684,2.0793187026781936,0.4934062696133187,B,479.07130000021425,Correct
2,202,384,B,68.11928757164677,52.869906619162705,3.405964378582338,0.8304785511536996,B,919.9125999998614,Correct
2,202,385,A,29.682321349132323,38.59168323555244,1.4841160674566163,0.6061967427123796,A,691.8006000000787,Correct
2,202,386,A,55.80120292710755,69.96884706173489,2.790060146355378,1.0990680795464707,B,548.3569000002717,Incorrect
2,202,387,A,48.042162584564,76.94940090046852,2.4021081292282,1.2087183628352387,A,679.9401999996917,Correct
2,202,388,A,30.02515248323668,48.01442274083469,1.5012576241618343,0.7542087887448049,A,511.392700000215,Correct
2,202,389,A,50.821666760209695,71.02713445436807,2.541083338010485,1.115691619036886,A,1189.5205999999234,Correct
2,202,390,A,20.80208268871945,46.696860948388476,1.0401041344359725,0.7335125765058068,A,474.4703000001209,Correct
2,202,391,B,73.67815665677193,47.00730913798631,3.683907832838597,0.7383890852646107,B,621.227799999815,Correct
2,202,392,A,30.403357907476742,60.93992330316445,1.5201678953738371,0.9572420767977344,A,558.9374000001044,Correct
2,202,393,B,81.16083878746574,66.68767785308766,4.058041939373287,1.0475275941411146,A,1450.2845000001798,Incorrect
2,202,394,A,28.65708127058715,61.83763781824657,1.4328540635293576,0.971343343425749,A,1525.5971999999929,Correct
2,202,395,A,65.27824751914375,80.06546993227762,3.2639123759571875,1.2576654607272895,A,768.3372999999847,Correct
2,202,396,A,26.63644998555796,42.92826240478192,1.331822499277898,0.6743155690111889,A,1070.4634000003352,Correct
2,202,397,A,28.632923973964015,40.45974454727653,1.4316461986982008,0.6355401811792181,A,785.5107000000316,Correct
2,202,398,A,35.47518545697006,57.45055789771751,1.773759272848503,0.9024312531805221,A,681.5255000001343,Correct
2,202,399,B,66.0857058387961,57.18195735256798,3.3042852919398054,0.8982120856835621,B,863.1249000000025,Correct
2,202,400,A,55.30972480471995,78.95730831705463,2.7654862402359974,1.2402584987804153,A,699.2341999998644,Correct
2,202,401,B,71.77237871088163,46.09260090305763,3.5886189355440816,0.7240208819094606,B,848.219699999845,Correct
2,202,402,A,59.716911767638464,73.0261933290177,2.985845588381923,1.14709276241035,A,581.7646999998942,Correct
2,202,403,B,62.47915495217921,40.87498648411271,3.1239577476089604,0.642062786270353,B,1007.4304999998276,Correct
2,202,404,B,48.574479868662266,21.010993754462596,2.4287239934331133,0.3300399181182036,B,2321.079800000007,Correct
2,202,405,B,65.51739396813964,35.9595318438675,3.275869698406982,0.5648510053361119,B,1022.3238999997193,Correct
2,202,406,B,75.88214030997491,46.186413969613206,3.794107015498746,0.7254944941129692,B,1026.7785999999433,Correct
2,202,407,B,78.19613243414392,53.15130131705624,3.909806621707196,0.8348986887320069,B,822.6466000000983,Correct
2,202,408,B,69.86448979119969,40.567619189270495,3.493224489559984,0.6372346720932025,B,1488.607199999933,Correct
2,202,409,B,78.90031654877276,53.56621736339732,3.945015827438638,0.8414161747472152,B,458.2511999997223,Correct
2,202,410,A,32.456255838458404,59.134469665122,1.62281279192292,0.9288820773693786,A,603.9677999997366,Correct
2,202,411,B,64.45219293856601,44.00921946921161,3.2226096469283005,0.6912952028734803,B,496.3775999999598,Correct
2,202,412,B,54.576451217070364,25.82247798323127,2.728822560853518,0.40561853564801764,B,2102.9975999999806,Correct
2,202,413,B,39.918105547692385,19.980904115986817,1.9959052773846193,0.3138593079143312,B,751.5960999999152,Correct
2,202,414,B,32.85700630485221,16.730592306654415,1.6428503152426106,0.2628035294039571,A,1316.8650000002344,Incorrect
2,202,415,B,66.61664076265768,56.345511431391486,3.330832038132884,0.8850732238780961,B,479.07359999999244,Correct
2,202,416,B,58.44191712888265,44.41914894828701,2.9220958564441326,0.6977343600732463,B,473.59899999992194,Correct
2,202,417,B,39.11055597731966,23.688112639620492,1.9555277988659834,0.37209200323019626,B,1452.0745999998326,Correct
2,202,418,A,54.392303469661854,73.13547843856395,2.7196151734830925,1.1488094088968361,B,2341.7584000003444,Incorrect
2,202,419,A,42.91311423243961,69.75699330959571,2.1456557116219805,1.0957402885896912,A,777.8711999999359,Correct
2,202,420,B,84.97174817463859,60.41282935756865,4.24858740873193,0.948962504461557,B,824.5624000001044,Correct
2,202,421,B,45.300261739860915,17.055558257341755,2.2650130869930454,0.26790808262068794,B,690.4977999997755,Correct
2,202,422,B,67.0433478967046,41.60956154559428,3.3521673948352304,0.6536014643536567,B,1248.589599999832,Correct
2,202,423,A,45.467812266599054,77.01714143415742,2.2733906133299526,1.209782428650175,A,775.7916999998997,Correct
2,202,424,A,56.51613245878909,77.53038326169374,2.8258066229394547,1.2178444124246908,A,793.4629000001223,Correct
2,202,425,A,46.66073446486414,73.46876517647003,2.333036723243207,1.1540446647335594,A,1270.1806000000033,Correct
2,202,426,A,57.64347333966445,69.51388594080245,2.8821736669832227,1.091921566970519,A,928.3791999996538,Correct
2,202,427,A,66.96442215805234,89.71395307716743,3.348221107902617,1.4092234795586431,A,615.0457000003371,Correct
2,202,428,B,61.649435255336286,31.60699788968899,3.0824717627668146,0.49648156186137515,B,586.6273999999976,Correct
2,202,429,B,79.07576256519363,55.200803832259794,3.953788128259681,0.8670921989583933,B,510.7858999999735,Correct
2,202,430,A,56.85159411335826,84.90675427144308,2.842579705667913,1.3337121772965967,A,745.2916999995978,Correct
2,202,431,B,68.01393112108674,57.62066050500027,3.4006965560543367,0.905103218687502,B,791.640599999937,Correct
2,202,432,B,64.02358093572607,54.15651870687131,3.2011790467863035,0.8506886065675254,A,775.3725000002305,Incorrect
2,202,433,A,15.282101132052539,43.680666384413826,0.7641050566026268,0.6861343030859055,A,1056.5222000000176,Correct
2,202,434,B,87.92654730038723,65.8069853881152,4.396327365019362,1.0336937092509677,B,720.2452000001358,Correct
2,202,435,A,17.46723555943337,38.917856033258495,0.8733617779716684,0.6113202530377505,A,518.3502999998382,Correct
2,202,436,A,29.004744825612917,45.341454656275836,1.450237241280646,0.7122219042561544,A,641.1020999998982,Correct
2,202,437,A,24.14289834656391,41.114661965203865,1.2071449173281956,0.6458275999235608,A,883.0508999999438,Correct
2,202,438,B,60.06743310804745,45.64760168529823,3.003371655402373,0.7170308505426297,B,518.4098999998241,Correct
2,202,439,A,42.78562120547752,52.88328879199051,2.139281060273876,0.830688757832924,A,662.6852999997936,Correct
2,202,440,A,25.76753508400728,47.69445863760651,1.2883767542003641,0.7491828043642343,A,1434.8426999999901,Correct
2,202,441,B,59.078606430604836,32.35253095235706,2.953930321530242,0.5081923678248066,B,608.6566999997558,Correct
2,202,442,A,45.585538152458255,55.11337558433252,2.2792769076229127,0.8657188792513708,A,1112.3674000000392,Correct
2,202,443,B,31.0592056437427,13.375184556240882,1.552960282187135,0.21009690771147005,A,614.2166999998153,Incorrect
2,202,444,A,64.94482922093566,76.04753256232146,3.2472414610467832,1.1945518481070985,A,685.122699999738,Correct
2,202,445,A,25.368756654555355,54.86088149734826,1.2684378327277677,0.8617527114076474,A,482.64579999977286,Correct
2,202,446,B,84.56336697932238,59.21667510959305,4.228168348966119,0.9301733574715554,B,938.6492999997245,Correct
2,202,447,A,39.945732695898435,61.40348922794259,1.9972866347949219,0.9645237533164221,A,1327.9305999999451,Correct
2,202,448,B,42.1816393215243,13.937099523891288,2.1090819660762152,0.21892344738303338,B,754.1643999998087,Correct
2,202,449,A,17.570862984608823,34.4809879826043,0.8785431492304412,0.541626092673338,A,482.1732999998858,Correct
2,202,450,B,58.209989536072236,33.546354917594655,2.910499476803612,0.526944910819156,B,561.3663999997698,Correct
2,202,451,A,63.95344913125787,81.5712076813442,3.197672456562893,1.2813175339807912,B,1083.0251000002136,Incorrect
2,202,452,A,50.08591850625623,71.91207610314265,2.5042959253128116,1.1295922499501154,B,737.3749999997017,Incorrect
2,202,453,B,34.90719483800348,18.34606206799187,1.7453597419001738,0.28817926907552815,B,419.3177999995896,Correct
2,202,454,B,67.0586116409817,51.930974054771525,3.3529305820490847,0.815729832921162,A,1433.445699999993,Incorrect
2,202,455,B,50.91843903714739,29.17436847363647,2.5459219518573692,0.45826990834948994,B,515.9287999999833,Correct
2,202,456,B,58.07169862395736,29.349739281100394,2.9035849311978676,0.46102462655140386,B,521.1767000000691,Correct
2,202,457,B,74.07189971958711,51.05592317637457,3.7035949859793558,0.8019845658657161,B,442.59699999975055,Correct
2,202,458,A,20.559689808210237,44.79420085342036,1.0279844904105118,0.7036256616226552,A,536.1170999999558,Correct
2,202,459,A,41.84273662949871,51.370020450557504,2.0921368314749356,0.8069183943111445,B,599.0713999999571,Incorrect
2,202,460,B,71.05224631007331,42.51384883535267,3.5526123155036657,0.6678059758848546,B,579.1524000001118,Correct
2,202,461,A,24.09153148598361,41.36187396282476,1.2045765742991805,0.6497107969015861,B,677.6718999999503,Incorrect
2,202,462,B,43.91311027021082,22.327700821154977,2.195655513510541,0.35072270435645636,B,617.8169999998318,Correct
2,202,463,B,48.376868097495276,19.4956636321844,2.418843404874764,0.30623716821864105,B,1683.251299999938,Correct
2,202,464,A,37.711709930219115,58.91231825620408,1.8855854965109557,0.925392531198173,A,768.7795999995615,Correct
2,202,465,A,48.19543621130621,74.00729432747715,2.4097718105653105,1.1625038608562988,A,728.5111999999572,Correct
2,202,466,B,55.37765637924583,30.51324953284341,2.7688828189622914,0.4793010028476652,A,1077.7549000004,Incorrect
2,202,467,A,50.73044022085921,75.69753789837058,2.5365220110429605,1.1890541447817797,A,518.3541999999761,Correct
2,202,468,B,80.381109695203,54.10807906309361,4.01905548476015,0.849927718422353,B,905.6548999997176,Correct
2,202,469,A,66.14973472371432,81.20127911631323,3.3074867361857163,1.2755067096695198,A,522.5135000000591,Correct
2,202,470,A,68.41212880902248,82.20960805718222,3.420606440451124,1.2913455036346997,A,597.832500000095,Correct
2,202,471,B,42.21248342863858,13.988464202305078,2.1106241714319287,0.21973028186482718,B,566.4212000001498,Correct
2,202,472,A,28.1744636410609,57.99186358497438,1.408723182053045,0.9109340630326849,A,613.5819000000993,Correct
2,202,473,B,66.55582895201931,43.18257163345147,3.327791447600965,0.6783102490338306,B,841.4670000001934,Correct
2,202,474,A,45.228984145295485,63.5055159951428,2.2614492072647745,0.9975423125638487,A,558.7544999998499,Correct
2,202,475,B,44.463273468083784,27.408017193300914,2.2231636734041893,0.4305241273196845,A,705.5052999999134,Incorrect
2,202,476,A,68.53035467262221,82.29503007884813,3.42651773363111,1.2926873096133016,A,788.8232000000244,Correct
2,202,477,B,64.45807892533219,44.30396205038981,3.2229039462666096,0.6959250085121281,B,926.496699999916,Correct
2,202,478,B,50.907541599904064,28.940148667000962,2.545377079995203,0.45459079223023335,B,713.2739000003312,Correct
2,202,479,A,64.37353232153876,75.80888629507417,3.218676616076938,1.190803201307145,A,668.8764000000447,Correct
2,202,480,A,29.091985823469827,59.7877782217943,1.4545992911734913,0.939144224180224,A,615.6542999997328,Correct
2,202,481,A,57.75209364609021,67.63034009991112,2.8876046823045107,1.0623348980882998,B,1088.2298999999875,Incorrect
2,202,482,B,40.045409723868104,22.177972244617287,2.002270486193405,0.34837077337604005,B,795.541299999968,Correct
2,202,483,B,77.5485577369497,50.771433880400195,3.877427886847485,0.7975158184544261,A,1032.267199999751,Incorrect
2,202,484,B,44.58758310314169,28.441990318775467,2.2293791551570847,0.4467657391946851,A,730.2001999996719,Incorrect
2,202,485,A,41.101447765960785,54.91012966024242,2.055072388298039,0.8625262997414029,B,1153.6744999998518,Incorrect
2,202,486,B,59.525926205049664,38.17343519751907,2.9762963102524833,0.5996269178940596,B,1133.837300000323,Correct
2,202,487,A,59.33744333867658,85.63113016897256,2.966872166933829,1.3450906472871775,A,542.4318000000312,Correct
2,202,488,A,57.26502766797135,80.95330195074666,2.863251383398568,1.27161149346151,A,1409.9701000000096,Correct
2,202,489,A,19.327628009354953,33.40839860069588,0.9663814004677477,0.5247778980607285,A,515.7030999998824,Correct
2,202,490,B,34.041748849436075,11.345341633095611,1.702087442471804,0.178212209634998,B,621.5759000001526,Correct
2,202,491,A,19.40236049654972,43.12792193229887,0.9701180248274859,0.6774518135355212,B,407.3056000001998,Incorrect
2,202,492,A,58.04649028256464,74.78844142564022,2.902324514128232,1.174774090781109,A,569.2397999996501,Correct
2,202,493,B,72.43105300102195,43.785529855315644,3.6215526500510977,0.687781494634981,A,606.5069000001131,Incorrect
2,202,494,A,21.69754964846913,51.53441820704672,1.0848774824234566,0.8095007482314103,A,431.3558000003468,Correct
2,202,495,B,77.33691697629935,55.940325365579326,3.8668458488149673,0.8787085760396339,B,494.83509999981834,Correct
2,202,496,B,53.95182846177548,27.755735133488642,2.6975914230887734,0.43598606795176015,B,420.6377999998949,Correct
2,202,497,A,60.03464635685195,69.2144860978809,3.0017323178425976,1.0872186052354775,B,547.552099999848,Incorrect
2,202,498,A,62.09487075290635,82.91049487577578,3.1047435376453176,1.3023550080361568,B,778.7441000000399,Incorrect
2,202,499,B,81.13438478456418,60.087023762376134,4.056719239228209,0.943844762139781,B,444.41649999998845,Correct
2,202,500,B,40.7533611279777,25.5145594954965,2.037668056398885,0.40078176335315757,A,855.7542999997167,Incorrect
2,202,501,A,33.52677058623146,62.07106321205547,1.676338529311573,0.9750099809375057,A,358.90070000004926,Correct
2,202,502,B,43.95376621328175,27.700819346613706,2.1976883106640877,0.4351234527886982,A,1285.5658000003132,Incorrect
2,202,503,B,74.46119518654677,64.38023256513831,3.723059759327339,1.0112823283152044,A,784.8899999999048,Incorrect
2,202,504,A,35.067788186090766,64.72679828288825,1.7533894093045381,1.016726169879551,A,445.02220000003945,Correct
2,202,505,A,53.32508205770612,74.82582688451386,2.666254102885306,1.175361340195852,B,785.2212999996482,Incorrect
2,202,506,B,82.02852246908957,61.08998497122927,4.101426123454479,0.9595992399676235,B,491.9872000000396,Correct
2,202,507,B,57.680345599413464,34.26158993038265,2.8840172799706734,0.5381797961279807,B,711.8267999999262,Correct
2,202,508,A,23.05655862017212,34.896328417139564,1.152827931008606,0.5481502449627119,A,562.6717000000099,Correct
2,202,509,A,66.29870177448052,80.46404344685163,3.3149350887240256,1.263926238853795,A,595.4545999998118,Correct
2,202,510,B,70.31352981722121,59.48423516941765,3.5156764908610603,0.9343761810632505,B,714.4100999998955,Correct
2,202,511,A,53.455991148552194,77.90865147622311,2.6727995574276098,1.2237862356439506,A,543.3626999997614,Correct
2,202,512,B,73.74607115811403,63.88642382691843,3.6873035579057016,1.0035255987938543,A,687.1211000002404,Incorrect
2,202,513,B,56.923465589368824,41.474684599071516,2.846173279468441,0.6514828222319841,B,772.0588000001953,Correct
2,202,514,B,36.64335671126467,22.16466027358882,1.8321678355632338,0.3481616694241008,B,821.4950000001409,Correct
2,202,515,A,44.58129286905959,71.25464022349689,2.2290646434529795,1.119265271301608,B,486.30269999966913,Incorrect
2,202,516,A,54.472721923464675,63.743516908309196,2.7236360961732338,1.0012808221656047,B,493.49739999979647,Incorrect
2,202,517,B,66.11387465012871,37.566799383199644,3.3056937325064353,0.5900979048057079,B,451.0349000001952,Correct
2,202,518,A,25.479913863344514,39.93425765462461,1.2739956931672256,0.6272858523716531,A,462.1172000001934,Correct
2,202,519,A,32.65645318447741,50.87553021987193,1.6328226592238704,0.7991509599311758,A,565.0068999998439,Correct
2,202,520,A,68.77155126641301,84.84139479226123,3.4385775633206506,1.3326855129983959,B,556.7661999998563,Incorrect
2,202,521,B,72.76353916133064,54.80776222956323,3.638176958066532,0.8609183159004601,B,475.10990000000675,Correct
2,202,522,B,71.19752519807649,52.00972768396665,3.5598762599038247,0.8169668920357767,B,692.2473999998147,Correct
2,202,523,A,11.736964259267534,30.740355086575622,0.5868482129633767,0.48286836854363807,A,496.09220000002097,Correct
2,202,524,A,42.58342848435596,64.1607138814475,2.129171424217798,1.0078341368951607,A,793.2470000000649,Correct
2,202,525,A,22.155871091431166,47.66929549616012,1.1077935545715583,0.7487875426626882,A,447.5857999996151,Correct
2,202,526,B,63.14299704220463,54.66761845257814,3.1571498521102312,0.8587169425993466,B,853.6965999996937,Correct
2,202,527,B,84.1728632537353,59.86081976228421,4.208643162686765,0.9402915580152739,B,954.6393000000535,Correct
2,202,528,A,45.95750148788977,74.02157299179959,2.2978750743944887,1.1627281495909911,A,1004.073900000094,Correct
2,202,529,A,24.57180805526345,44.19299980273075,1.2285904027631724,0.6941820176017706,A,580.6183000004239,Correct
2,202,530,B,74.04021786607501,49.725695764757575,3.7020108933037505,0.7810894025460176,B,478.86049999988245,Correct
2,202,531,B,71.26795731494487,55.15196492152144,3.563397865747243,0.8663250391424687,B,621.491800000058,Correct
2,202,532,B,65.08242915252998,42.849686137286554,3.254121457626499,0.6730812958876391,B,768.5499000003801,Correct
2,202,533,B,56.18659257441763,42.480297107970486,2.809329628720882,0.667278946583559,B,552.8230999998414,Correct
2,202,534,B,74.3654953799637,55.299768112668296,3.718274768998185,0.868646726239889,B,910.086400000182,Correct
2,202,535,B,34.38958592471971,11.719953048817661,1.7194792962359855,0.18409659199291428,A,1312.325200000032,Incorrect
2,202,536,A,27.297829795901,57.141218348221344,1.36489148979505,0.8975721588997124,A,1151.2320000001637,Correct
2,202,537,B,44.95173230486509,19.63397112427414,2.2475866152432546,0.30840969722406886,B,1594.8358000000553,Correct
2,202,538,B,68.50815050034545,49.69260345410074,3.425407525017272,0.7805695897457685,B,1551.2731000003441,Correct
2,202,539,B,73.76228548834885,42.058719777907534,3.6881142744174427,0.6606568253683301,B,476.26020000006974,Correct
2,202,540,B,50.685149701295984,30.168283038095815,2.534257485064799,0.47388228181949693,B,557.9203999996025,Correct
2,202,541,B,66.41734536264659,39.37006653262486,3.3208672681323295,0.6184235589511782,B,450.3386000001228,Correct
2,202,542,B,77.5349187540909,63.309221721769845,3.876745937704545,0.9944589293279974,B,876.2907999998788,Correct
2,202,543,B,73.78933494128361,56.82465996099987,3.689466747064181,0.8925996713810763,A,2342.2669000001406,Incorrect
2,202,544,A,17.095191285146115,40.196301715498414,0.8547595642573057,0.6314020308544431,A,1126.8198000002485,Correct
2,202,545,B,55.53272794094037,46.62541786263778,2.7766363970470183,0.7323903511390858,A,1830.0175999997919,Incorrect
2,202,546,A,44.519554613741086,69.08250478846368,2.2259777306870543,1.0851454476750961,A,913.8895000000957,Correct
2,202,547,B,72.98638139871875,59.465350731715745,3.6493190699359377,0.934079545009493,A,1676.1295999999675,Incorrect
2,202,548,A,52.08452889196006,63.54546175993067,2.6042264445980035,0.9981697791698465,B,1763.8584000001174,Incorrect
2,202,549,A,66.79769497009005,84.16605918817243,3.3398847485045025,1.3220773661358312,B,540.701800000079,Incorrect
