subject,day,trial,cat,x,y,xt,yt,resp,rt,fb
7,307,0,B,60.32997807681112,35.9484330135228,3.016498903840556,0.5646766653167402,B,1259.6214000000145,Correct
7,307,1,A,50.98345316363813,75.53951886154046,2.5491726581819067,1.1865719875556153,A,621.8576999999641,Correct
7,307,2,B,45.07009610334662,29.650785659467935,2.253504805167331,0.46575345200475027,B,736.6689000000406,Correct
7,307,3,A,59.07665616691242,68.19369231227381,2.9538328083456213,1.071184013947011,A,1475.1717999997709,Correct
7,307,4,A,48.77513281912409,68.61531155327621,2.4387566409562043,1.0778067934977371,A,491.7559999998957,Correct
7,307,5,A,64.07162271483142,86.44248671853553,3.2035811357415707,1.3578354061649227,A,626.090799999929,Correct
7,307,6,B,48.67216138744081,25.535382649034066,2.4336080693720405,0.40110885268404844,B,526.5512000000854,Correct
7,307,7,B,61.13851588331011,32.12486116699337,3.056925794165506,0.504616139199092,B,613.17310000004,Correct
7,307,8,A,38.65256379440107,66.93880217660104,1.9326281897200532,1.0514722457905517,A,606.5303000000313,Correct
7,307,9,B,84.93775494324969,58.55182274115984,4.246887747162484,0.9197298808895976,B,676.927699999851,Correct
7,307,10,A,62.110071479662864,74.3927587669259,3.105503573983143,1.1685587221122602,A,1618.2128000000375,Correct
7,307,11,A,39.372113569019625,57.23219689417746,1.9686056784509813,0.8990012465577623,A,542.6346000003832,Correct
7,307,12,A,43.87108768601519,53.29835018121773,2.1935543843007594,0.8372085268888492,A,1659.0604999996685,Correct
7,307,13,A,66.53299406005216,80.36276440732355,3.326649703002608,1.2623353514210747,A,1257.159700000102,Correct
7,307,14,B,40.12975799247303,15.429646277596667,2.0064878996236515,0.24236831696593397,B,600.0543999998627,Correct
7,307,15,A,33.67960844754765,59.90939643821104,1.6839804223773824,0.9410545986564116,A,689.7110999998404,Correct
7,307,16,B,65.80494738034025,48.75058553378016,3.2902473690170124,0.7657724068556231,B,981.5928000002714,Correct
7,307,17,A,51.213350436164205,77.6806263987882,2.5606675218082104,1.220204426103432,A,848.3885000000555,Correct
7,307,18,A,32.70086229544512,50.924039983839265,1.635043114772256,0.7999129495217118,A,972.0132999996167,Correct
7,307,19,A,18.01197992469261,34.98597567158907,0.9005989962346306,0.5495584207426772,A,619.222499999978,Correct
7,307,20,B,56.69902342962413,41.71148318336576,2.8349511714812063,0.6552024456959803,B,1106.6909000001033,Correct
7,307,21,A,69.25538485052837,87.69762550603853,3.4627692425264183,1.3775510801351978,A,545.324399999572,Correct
7,307,22,B,45.37399803028321,34.76074827935064,2.2686999015141605,0.5460205571384601,B,639.6904000002905,Correct
7,307,23,A,37.343067169288815,69.53665051491602,1.8671533584644409,1.0922791520645054,A,622.6230999996005,Correct
7,307,24,B,67.72799276933169,36.11472252976034,3.386399638466585,0.5672887349296445,B,589.7980999998254,Correct
7,307,25,B,47.214168230252255,19.225817682173865,2.3607084115126127,0.3019984379478708,B,711.9785999998385,Correct
7,307,26,A,27.41094640327649,41.353374218956624,1.3705473201638245,0.6495772832371184,A,951.1881000003086,Correct
7,307,27,A,56.72980212410425,84.01894707399492,2.8364901062052126,1.3197665344500604,A,793.1739999999081,Correct
7,307,28,A,18.86181538569025,40.819794869888746,0.9430907692845125,0.641195838421424,A,550.1099000002796,Correct
7,307,29,A,23.031399761511604,51.76805762305821,1.1515699880755803,0.8131707475960639,A,630.1570999999058,Correct
7,307,30,B,66.06223096872547,37.472693300133685,3.3031115484362736,0.5886196899096172,B,727.0088000000214,Correct
7,307,31,A,37.66173389744948,58.614344709485444,1.883086694872474,0.9207119736714962,A,629.9207000001843,Correct
7,307,32,B,71.58268854053325,62.343529024025955,3.5791344270266627,0.9792898639037099,B,1112.4176999996962,Correct
7,307,33,A,26.23725610544197,53.62304171617907,1.3118628052720984,0.8423087695934358,A,447.04559999991034,Correct
7,307,34,B,54.410596935300916,45.06776678451566,2.720529846765046,0.7079228252196624,B,783.6379999998826,Correct
7,307,35,B,67.3184985456586,45.17134263148333,3.36592492728293,0.7095497908192772,B,596.6039999998429,Correct
7,307,36,B,60.58753725778414,51.91221762505617,3.029376862889207,0.8154352076121552,B,568.5045000000173,Correct
7,307,37,A,18.94866468533547,42.40256052623103,0.9474332342667735,0.6660578632130197,A,410.7226000000992,Correct
7,307,38,A,32.53544522971231,49.46948500906107,1.6267722614856155,0.7770648534066833,A,511.98139999996783,Correct
7,307,39,B,39.72362056518543,26.558411535007785,1.9861810282592713,0.41717855284697436,B,684.9644999997508,Correct
7,307,40,A,48.16281176377074,56.914450048555715,2.408140588188537,0.8940100907782293,A,600.0350000003891,Correct
7,307,41,B,87.33910756537762,62.20762834775591,4.366955378268881,0.9771551410727707,B,676.7253000002711,Correct
7,307,42,A,58.078873752158316,85.7273430939095,2.9039436876079154,1.3466019563779887,A,724.1832999998223,Correct
7,307,43,A,24.70479777632383,45.2683963883332,1.2352398888161915,0.7110743076668916,A,522.2552999998697,Correct
7,307,44,A,41.817660153672556,70.5091884748568,2.090883007683628,1.107555742615941,A,780.7781999999861,Correct
7,307,45,A,63.54543194813523,79.23943618234223,3.1772715974067616,1.2446901529252181,A,791.55449999962,Correct
7,307,46,A,35.98281424800498,58.891730347388425,1.799140712400249,0.9250691370827328,A,690.8888000002662,Correct
7,307,47,A,57.85594711897443,71.60904541505708,2.8927973559487214,1.124832255032606,A,823.6429999997199,Correct
7,307,48,A,48.57653022769877,72.36380507311202,2.4288265113849383,1.1366879920174626,A,648.4433000000536,Correct
7,307,49,B,45.54041574700193,33.36576171178503,2.2770207873500965,0.5241081593758572,B,858.3911000000626,Correct
7,307,50,B,80.99900515044277,50.017902721611726,4.049950257522139,0.7856793786909217,B,563.7894999999844,Correct
7,307,51,A,10.649073491986666,30.8898344410506,0.5324536745993333,0.4852163847530477,A,560.508199999731,Correct
7,307,52,A,48.76933393989922,68.1997307871107,2.438466696994961,1.071278866087943,A,1138.7273999998797,Correct
7,307,53,B,74.24399844211119,50.367679724500746,3.71219992210556,0.7911736630042755,B,602.4371000003157,Correct
7,307,54,A,18.087652204533132,40.90460499611447,0.9043826102266566,0.6425280327689278,A,470.603900000242,Correct
7,307,55,B,54.781220726477365,33.55435466971432,2.7390610363238683,0.5270705706316045,B,773.239999999987,Correct
7,307,56,A,42.810044266312644,56.68475772723662,2.1405022133156324,0.8904020922320192,A,787.8870999998071,Correct
7,307,57,A,40.430043159339945,69.12368320559055,2.0215021579669976,1.0857922767387573,A,1744.862699999885,Correct
7,307,58,A,14.0211659865063,32.5724367008943,0.701058299325315,0.5116466392452405,A,529.19060000022,Correct
7,307,59,B,85.87326807436298,58.48877651884897,4.293663403718149,0.9187395531453556,B,604.524500000025,Correct
7,307,60,A,61.54902982227103,87.42179825503953,3.0774514911135515,1.3732183958082058,A,530.3228000002491,Correct
7,307,61,B,61.30233040177914,48.99200785677925,3.065116520088957,0.7695646598373556,B,480.97039999993285,Correct
7,307,62,A,37.405962883329046,44.89240378218486,1.8702981441664521,0.7051682296204931,A,1295.0448000001415,Correct
7,307,63,A,20.53653598704458,33.4025791916835,1.0268267993522289,0.5246864869977208,A,530.6778999997732,Correct
7,307,64,A,25.666049767154767,48.99164737527832,1.2833024883577382,0.7695589974071804,A,627.7706000000762,Correct
7,307,65,A,44.21322809273353,66.31036305644572,2.210661404636676,1.0416007471750093,A,922.9860000000372,Correct
7,307,66,B,81.99869194061961,57.09928674333331,4.09993459703098,0.896913498790365,B,655.6682999998884,Correct
7,307,67,B,54.17987101068897,32.69697801111444,2.7089935505344487,0.5136029295715206,B,517.2058999996807,Correct
7,307,68,B,81.71547940854128,62.763511632345995,4.085773970427065,0.9858869352883785,B,1392.5143999999818,Correct
7,307,69,B,51.188463822661085,35.68909967756005,2.559423191133054,0.5606030668012826,B,569.385599999805,Correct
7,307,70,A,39.86118119262539,60.97540159379463,1.9930590596312694,0.9577993684837629,A,931.326700000227,Correct
7,307,71,A,28.90276407790256,42.20557112363036,1.445138203895128,0.6629635609127932,A,913.435699999809,Correct
7,307,72,A,30.59633053342353,41.70201916071446,1.5298165266711765,0.6550537851758066,A,591.5377000001172,Correct
7,307,73,A,33.75516656880052,44.56360588093355,1.687758328440026,0.7000034842650588,A,482.57360000025074,Correct
7,307,74,B,78.41117347663501,50.1589660548932,3.9205586738317506,0.7878951963485614,B,1552.6813000001312,Correct
7,307,75,B,66.7814441805332,47.19925936404121,3.33907220902666,0.7414042323647556,B,1747.448600000098,Correct
7,307,76,B,57.48775519019583,50.127398721507355,2.874387759509791,0.7873993378352695,A,1857.807099999718,Incorrect
7,307,77,B,47.933557254687265,17.608792106278575,2.396677862734363,0.27659825959837353,B,553.3013000003848,Correct
7,307,78,A,13.797314411319569,40.20388327041065,0.6898657205659785,0.6315211216405184,A,488.45529999971404,Correct
7,307,79,B,63.07132272250774,42.122022263409114,3.153566136125387,0.6616511784853589,B,961.5953000002264,Correct
7,307,80,A,25.481387417196345,48.910746111549955,1.2740693708598172,0.7682882033282045,A,615.3837000001658,Correct
7,307,81,A,36.40869300154975,46.880903470914674,1.8204346500774875,0.736403509689389,A,648.7870000000839,Correct
7,307,82,B,83.31781174806929,57.62179756877118,4.165890587403465,0.9051210796434488,B,600.5522999998902,Correct
7,307,83,A,35.1205395650746,52.2594687202374,1.75602697825373,0.8208898150600169,A,644.1434999997,Correct
7,307,84,B,75.1878844528003,63.87209012367643,3.759394222640015,1.0033004455098353,B,743.2122999998683,Correct
7,307,85,B,43.18634364583026,32.779596861127345,2.159317182291513,0.5149007034327635,B,896.8882999997732,Correct
7,307,86,A,38.9104704223415,57.642499487158226,1.9455235211170747,0.9054462646170485,A,1177.1629999998368,Correct
7,307,87,B,34.03299579168778,16.59822158056211,1.701649789584389,0.2607242549007474,B,573.330199999873,Correct
7,307,88,B,49.27228462609803,38.74872116821003,2.4636142313049016,0.6086634887902397,B,660.5107000000316,Correct
7,307,89,A,25.207859897104584,56.126420873293526,1.2603929948552293,0.8816317574391389,A,578.6227999997209,Correct
7,307,90,B,54.57088116155067,39.22488441855474,2.7285440580775338,0.6161430436362015,B,535.857599999872,Correct
7,307,91,A,52.537179935913905,82.06623254233637,2.6268589967956952,1.2890933663139779,A,560.1698999998916,Correct
7,307,92,A,39.836361575958634,67.54835249826637,1.9918180787979316,1.0610470398532368,A,683.738700000049,Correct
7,307,93,A,37.77428436693217,63.60203740287843,1.8887142183466086,0.9990584672911306,A,751.652799999647,Correct
7,307,94,B,65.61173243355383,57.009961937755534,3.280586621677691,0.8955103880254326,B,675.8254000001216,Correct
7,307,95,B,67.40952579997733,56.66969922238864,3.3704762899988667,0.8901655537909968,B,556.6604999999072,Correct
7,307,96,B,49.27511674459064,29.54969879355288,2.463755837229532,0.46416558322808454,B,735.4330000002847,Correct
7,307,97,B,79.48191500388471,60.61926770634318,3.9740957501942353,0.9522052304612036,B,1675.8820999998534,Correct
7,307,98,A,17.073976816977197,37.50153130989912,0.8536988408488598,0.5890726763077334,A,507.06990000026053,Correct
7,307,99,A,45.12998889940163,69.17791898109438,2.2564994449700815,1.0866442103081801,A,1129.3814000000566,Correct
7,307,100,A,60.99845748746564,77.93341563961454,3.0499228743732822,1.2241752302128648,A,1459.0963999999076,Correct
7,307,101,B,85.54622007106909,60.54968159115874,4.2773110035534545,0.9511121743199271,B,628.5093000001325,Correct
7,307,102,B,66.72139172545987,45.31377768337234,3.336069586272993,0.7117871553824181,B,1052.224600000045,Correct
7,307,103,B,64.68705600194258,31.417012382482547,3.234352800097129,0.49349727649273367,B,920.9348999997928,Correct
7,307,104,A,34.327840426650596,52.24289285992432,1.7163920213325299,0.8206294420550844,A,464.6813999997903,Correct
7,307,105,A,29.145696553877567,45.550610474644444,1.4572848276938783,0.7155073161683663,A,891.4709000000585,Correct
7,307,106,A,41.8850232378979,64.13204727357825,2.0942511618948947,1.0073838428717339,A,945.0180000003456,Correct
7,307,107,A,37.66447888469337,70.07465649872555,1.8832239442346685,1.100730130296122,A,968.4462000000167,Correct
7,307,108,A,39.05671151628045,62.31805959981351,1.9528355758140226,0.9788897911237251,A,962.4219000002086,Correct
7,307,109,B,77.88165509637109,62.4562968010743,3.894082754818555,0.9810612160033936,B,1148.666399999911,Correct
7,307,110,B,47.5838871209907,29.87876001287983,2.379194356049535,0.46933446477417873,B,751.9578999999794,Correct
7,307,111,B,53.982069470939585,28.424441504915396,2.6991034735469794,0.446490083071175,B,612.6676999997471,Correct
7,307,112,A,47.281943987425436,72.77023056265114,2.364097199371272,1.1430721086783013,A,787.6144999995631,Correct
7,307,113,B,61.05481202248623,45.804961791754934,3.0527406011243112,0.7195026573146923,B,520.8717999998953,Correct
7,307,114,B,67.63936852111475,51.80436290563597,3.3819684260557374,0.8137410296412277,B,1177.9610999997203,Correct
7,307,115,A,41.016894054281664,66.4677976873779,2.050844702714083,1.0440737245747953,A,539.9468000000525,Correct
7,307,116,B,83.6114802509021,54.367812975636944,4.180574012545105,0.8540076091800243,B,659.6658000003117,Correct
7,307,117,B,73.75331570110835,43.431217412869614,3.6876657850554175,0.6822159678036613,B,712.0873000003485,Correct
7,307,118,B,36.45734317693231,26.879360447481076,1.8228671588466157,0.4222200065749931,B,757.923799999844,Correct
7,307,119,A,38.57941110462707,63.96420830557679,1.9289705552313534,1.0047474345274365,A,695.3303000000233,Correct
7,307,120,B,52.190004919993704,42.96137367954571,2.609500245999685,0.6748356796989335,A,1293.9309999997022,Incorrect
7,307,121,B,57.99598758400562,25.626218093068964,2.8997993792002807,0.4025356925023765,B,610.4058000000805,Correct
7,307,122,B,84.47141015298214,66.21015289877474,4.223570507649107,1.0400266496992383,B,553.5845999997946,Correct
7,307,123,A,38.83020039050963,53.16856679515716,1.9415100195254815,0.8351698942278196,A,558.579699999882,Correct
7,307,124,A,30.88592909897875,39.954258288834325,1.5442964549489375,0.6276000215991551,A,896.7766000000665,Correct
7,307,125,B,67.40945453502266,50.15457141604144,3.370472726751133,0.7878261655229021,B,524.9205000000075,Correct
7,307,126,A,31.270290228204992,58.166122742499965,1.5635145114102498,0.9136713194782006,A,585.935999999947,Correct
7,307,127,A,49.35292688612413,67.59845198305221,2.4676463443062064,1.061834000719996,A,939.5791000001736,Correct
7,307,128,B,36.31265262175904,25.858740382313506,1.815632631087952,0.4061881440808091,B,583.7581000000682,Correct
7,307,129,B,36.85806954054712,25.349677048954934,1.842903477027356,0.39819179593935305,B,541.5886000000683,Correct
7,307,130,A,56.023709544338374,65.05557544481903,2.8011854772169187,1.0218905894624999,A,1536.3159999997151,Correct
7,307,131,A,47.515241671213275,62.404073387627896,2.375762083560664,0.9802408925432506,A,728.0977000000348,Correct
7,307,132,B,75.09247160063815,44.64292157955596,3.7546235800319074,0.7012493723455913,B,526.439599999776,Correct
7,307,133,A,60.893525285972245,80.43286488245332,3.0446762642986123,1.263436487109479,A,706.6113999999288,Correct
7,307,134,B,62.5365157645413,51.158890299892576,3.1268257882270647,0.8036019696597432,B,1772.280099999989,Correct
7,307,135,A,31.91913537087501,50.70397322896507,1.5959567685437506,0.7964561490196511,A,835.7928999998876,Correct
7,307,136,B,84.06101998555552,60.15977256574084,4.203050999277775,0.944987497670821,B,1059.5143999998982,Correct
7,307,137,B,45.47375950508624,16.484172808543242,2.273687975254312,0.2589327809791204,B,516.8972000001304,Correct
7,307,138,A,21.68084976141712,40.59289402293662,1.0840424880708561,0.6376316882520336,A,552.1890999998504,Correct
7,307,139,A,56.35187238747126,76.12302032146933,2.8175936193735627,1.195737607054973,A,632.5148000000809,Correct
7,307,140,B,66.83126327678583,47.14490929821801,3.3415631638392913,0.7405505035271942,B,1264.820200000031,Correct
7,307,141,B,76.0779689963206,58.74622272120915,3.80389844981603,0.9227835086355023,B,530.478900000162,Correct
7,307,142,B,83.56227842776731,61.956657693505576,4.178113921388365,0.9732129032544734,B,636.7174000001796,Correct
7,307,143,B,42.18657474196152,17.598308665887497,2.109328737098076,0.2764335861017888,B,665.6967999997505,Correct
7,307,144,B,66.65483240810768,47.2423210824392,3.332741620405384,0.7420806442556059,B,777.4570999999924,Correct
7,307,145,B,68.35232254640071,42.51428520439454,3.417616127320036,0.6678128303537356,B,638.9718000000357,Correct
7,307,146,B,84.20967153392456,68.49160639244786,4.2104835766962285,1.0758636373753896,B,1650.029800000084,Correct
7,307,147,B,53.80447931121138,32.80407252352998,2.690223965560569,0.5152851662387429,B,591.0295000003316,Correct
7,307,148,B,58.180337994371705,41.43720802145314,2.9090168997185852,0.6508941415273461,B,781.1378999999761,Correct
7,307,149,A,61.51865958510933,86.25565717373479,3.075932979255467,1.3549006945378248,A,917.9423000000497,Correct
7,307,150,A,48.81674600614994,70.33203126489047,2.4408373003074972,1.104772963669138,A,1022.2334000000046,Correct
7,307,151,A,28.355291948088187,51.665723660154455,1.4177645974044095,0.8115632894657079,A,557.9536999998709,Correct
7,307,152,A,35.85599202783345,65.53845698940165,1.7927996013916725,1.0294756750275742,A,912.4818999998752,Correct
7,307,153,A,38.23113976776319,66.76280984100713,1.9115569883881594,1.0487077646476017,A,592.4517999997079,Correct
7,307,154,A,32.940446866378345,53.50212058884613,1.6470223433189173,0.8404093449669712,A,1183.4050000002208,Correct
7,307,155,B,61.93232040144936,42.55880775336575,3.096616020072468,0.6685121889175707,B,632.8416000001198,Correct
7,307,156,B,63.099742194873244,39.426941644917115,3.154987109743662,0.6193169511259254,B,611.8246999999428,Correct
7,307,157,A,24.566408622065737,53.080524861060766,1.228320431103287,0.8337869347609943,A,388.7303999999858,Correct
7,307,158,B,47.0126190760956,27.19725635991186,2.3506309538047803,0.42721350389048696,B,442.5119000002269,Correct
7,307,159,B,72.58125452312869,62.871789555542215,3.6290627261564343,0.9875877609286745,B,1259.6599000003152,Correct
7,307,160,B,43.93235463764114,15.59533033449448,2.196617731882057,0.2449708760457696,B,489.48360000031244,Correct
7,307,161,B,40.88468926476372,18.442068489890584,2.044234463238186,0.28968733442420036,B,479.2798000003131,Correct
7,307,162,B,81.6367963002809,64.50848353701718,4.081839815014046,1.0132968898705565,B,1158.7535999997272,Correct
7,307,163,B,69.52414872921122,43.83725024788092,3.476207436460561,0.6885939166616001,B,515.169700000115,Correct
7,307,164,A,25.780004792659703,57.33205949693873,1.2890002396329852,0.9005698846537784,A,562.3591000003216,Correct
7,307,165,A,54.35937478281892,70.46677850899962,2.7179687391409457,1.1068895684300617,A,1223.3373999997639,Correct
7,307,166,B,66.24460494505115,45.12650189341499,3.3122302472525575,0.7088454341527921,B,665.2588000001742,Correct
7,307,167,A,31.83507884462348,42.705881909371,1.591753942231174,0.6708224243577658,B,519.9330999998892,Incorrect
7,307,168,B,71.97910912328528,56.08011421981317,3.5989554561642643,0.8809043742272077,B,525.4815000002964,Correct
7,307,169,B,81.2135615331643,55.800083582900804,4.060678076658215,0.876505663268688,B,576.5240000000631,Correct
7,307,170,B,48.458548477045824,38.24421564943917,2.4229274238522915,0.6007387346329094,B,649.6570000003885,Correct
7,307,171,B,65.18753824853027,47.98409254737926,3.2593769124265135,0.7537323631800972,B,1022.8802999999971,Correct
7,307,172,A,41.71060381760019,48.71598504548584,2.0855301908800095,0.7652289036564427,A,832.8113000002304,Correct
7,307,173,A,56.434583732760316,84.9482915881435,2.8217291866380156,1.3343646439415762,A,708.1597999999758,Correct
7,307,174,A,40.3302376770887,66.48017959350311,2.016511883854435,1.0442682191013972,A,672.3603999998886,Correct
7,307,175,B,39.75636963821661,29.88888537402031,1.9878184819108304,0.4694935135750481,B,650.5433000002085,Correct
7,307,176,A,38.866446871225364,50.30549669571269,1.9433223435612683,0.7901968942721829,A,1278.9905999998155,Correct
7,307,177,A,57.52656116399908,80.11369576621746,2.8763280581999537,1.2584229903553823,A,719.5928000001004,Correct
7,307,178,A,22.73654512573372,39.02133884509563,1.1368272562866861,0.6129457572449523,A,597.6407999996809,Correct
7,307,179,A,62.65650456762788,77.34641007887483,3.1328252283813938,1.2149545684266831,A,810.6583000003411,Correct
7,307,180,A,37.149390865090375,55.52735199513317,1.8574695432545187,0.8722216055060247,A,738.1178999999065,Correct
7,307,181,A,27.481536104539074,52.014094455951785,1.3740768052269539,0.8170354851297186,A,474.4064999999864,Correct
7,307,182,B,61.582519271807534,39.081973708320966,3.0791259635903767,0.613898207449253,B,1300.0716000001376,Correct
7,307,183,A,38.31121902914932,52.51405034217138,1.915560951457466,0.8248887738260509,A,723.805000000084,Correct
7,307,184,B,45.371775772620026,19.783144759533926,2.268588788631001,0.310752911207276,B,599.6888999998191,Correct
7,307,185,A,43.1344589394023,55.80792428361697,2.156722946970115,0.8766288247075325,A,816.2575999999717,Correct
7,307,186,B,57.259599755069175,37.991893935444,2.8629799877534587,0.5967752744177673,B,828.6908999998559,Correct
7,307,187,A,58.716575489362505,85.06514077907866,2.935828774468125,1.3362001067406752,A,1060.4518999998618,Correct
7,307,188,B,33.56661914376432,10.92690652112308,1.678330957188216,0.17163944626611333,B,679.2236999999659,Correct
7,307,189,B,63.49401487580078,46.839117464297274,3.174700743790039,0.7357471366323285,B,1469.854800000121,Correct
7,307,190,A,53.57577284343748,61.008142427249304,2.6787886421718734,0.958313660293031,A,2155.1156999998966,Correct
7,307,191,B,59.25129596881757,50.632854543894894,2.9625647984408783,0.7953390193269038,B,1997.6574000002074,Correct
7,307,192,A,52.31458009453322,78.75968718274015,2.6157290047266613,1.2371542732616334,A,628.8331999999173,Correct
7,307,193,B,50.96725105724621,43.163230165632314,2.5483625528623106,0.6780064339677792,B,1765.4109000000062,Correct
7,307,194,B,67.63535371478731,41.873224987953854,3.3817676857393657,0.657743080021342,B,773.6952999998721,Correct
7,307,195,A,26.62921961708637,39.261475805646086,1.3314609808543185,0.6167178198005557,A,704.1899999999259,Correct
7,307,196,A,46.316402832503556,73.3424527142829,2.315820141625178,1.1520605532172399,A,539.2559000001711,Correct
7,307,197,B,45.66068621875507,25.818941973293917,2.2830343109377536,0.4055629921338066,B,780.9422000000268,Correct
7,307,198,A,68.29292846384054,84.20026565582174,3.414646423192027,1.3226146800731926,A,762.7320000001419,Correct
7,307,199,A,39.201196342479925,48.214841113746154,1.9600598171239962,0.7573569531847202,A,1397.7623999999196,Correct
7,307,200,A,65.49846602844801,84.88015780293527,3.2749233014224,1.333294400946219,A,684.9822000003769,Correct
7,307,201,B,80.38130772833502,56.87388525305241,4.0190653864167505,0.8933729004604914,B,666.8076000000838,Correct
7,307,202,B,60.44152690604875,49.49542988836627,3.0220763453024375,0.7774723946178008,B,1069.5572999998149,Correct
7,307,203,B,56.72468295275351,49.751868478127946,2.836234147637675,0.7815005225662618,B,2464.0755000000354,Correct
7,307,204,A,36.52624425145173,67.39525854562481,1.8263122125725864,1.0586422456685982,A,546.6058000001794,Correct
7,307,205,A,57.48216107600885,67.89459592019324,2.874108053800443,1.066485818806633,A,1302.7388000000428,Correct
7,307,206,B,59.112795671218294,40.19986105245154,2.9556397835609145,0.6314579407885611,B,721.2475000001177,Correct
7,307,207,B,52.07388269154257,38.14149202993642,2.603694134577129,0.5991251557910096,B,548.0294999997568,Correct
7,307,208,A,64.6484413607823,77.69071028806917,3.232422068039115,1.2203628234658552,A,689.274899999873,Correct
7,307,209,B,65.1155266991885,34.30463157477288,3.2557763349594246,0.5388558926970547,B,699.2088000001786,Correct
7,307,210,B,44.6409940811141,15.687595259232292,2.2320497040557052,0.24642017009447115,B,786.1499999999069,Correct
7,307,211,B,73.88142316725094,57.11917439840233,3.694071158362547,0.8972258933456746,B,940.3270000002522,Correct
7,307,212,A,18.317429492711575,33.538503958981885,0.9158714746355787,0.5268215882496484,A,1508.1254000001536,Correct
7,307,213,B,48.024230519555616,37.967972239933204,2.4012115259777804,0.5963995133033768,B,1715.8140000001367,Correct
7,307,214,A,41.972442671846906,61.00508676867156,2.0986221335923454,0.9582656621203323,A,910.8814999999595,Correct
7,307,215,B,63.48769047288897,51.016773844774555,3.1743845236444486,0.8013696096029782,B,1365.8288000001448,Correct
7,307,216,B,38.86891473180792,13.282496726752516,1.943445736590396,0.20864097069048088,B,1395.946399999957,Correct
7,307,217,A,68.03615344244217,81.08568763078009,3.401807672122109,1.2736910028606774,A,880.3445999997166,Correct
7,307,218,B,59.292991317628726,32.22007666102349,2.9646495658814365,0.5061117806818568,B,1048.1241000002228,Correct
7,307,219,A,45.6185179014642,65.12838502444818,2.28092589507321,1.0230342796648695,A,833.4947999996984,Correct
7,307,220,A,50.012997782263746,70.84638098057489,2.500649889113187,1.1128523501099887,A,1116.2726999996266,Correct
7,307,221,B,59.08213383482419,38.2190224361748,2.954106691741209,0.6003430005643511,B,633.2674000000225,Correct
7,307,222,B,68.34865012312848,41.91424050045586,3.417432506156424,0.6583873501851395,B,739.7382999997717,Correct
7,307,223,B,47.49021374405249,31.775318716244136,2.3745106872026245,0.4991255392221342,B,1274.1280999998708,Correct
7,307,224,B,75.42013647665708,46.72813456595681,3.7710068238328542,0.734003821341826,B,692.3535000000811,Correct
7,307,225,A,52.57456925321848,73.14687754718237,2.628728462660924,1.1489884656763016,A,773.2112999997298,Correct
7,307,226,B,83.11004231451697,61.07876783915253,4.155502115725849,0.9594230416689906,B,1376.2577000002238,Correct
7,307,227,B,54.06800233826087,34.8939995010876,2.703400116913043,0.5481136624349136,B,965.7929999998487,Correct
7,307,228,B,59.464616996001006,46.40435524156948,2.9732308498000504,0.7289179076074285,B,514.744999999948,Correct
7,307,229,A,30.032614719711617,38.941075791246845,1.5016307359855807,0.6116849881433222,A,633.1315000002178,Correct
7,307,230,A,28.586107321599357,53.93132194239193,1.4293053660799677,0.8471512240630225,A,467.6350999998249,Correct
7,307,231,A,34.89448952016511,59.798900103180394,1.7447244760082554,0.9393189262845073,A,714.286599999923,Correct
7,307,232,B,77.71127534576625,52.120794547119665,3.8855637672883123,0.8187115262424706,B,508.7368999998034,Correct
7,307,233,A,31.199248243093646,61.0553282211746,1.5599624121546822,0.9590548530107785,A,557.0400999999947,Correct
7,307,234,A,30.932069528001545,47.97688146849803,1.5466034764000773,0.7536190918179084,A,569.1905000003317,Correct
7,307,235,B,58.01377357447644,31.298733496672426,2.900688678723822,0.4916393560990544,B,590.4376999997112,Correct
7,307,236,B,46.87609744021042,37.713936893636074,2.343804872010521,0.5924091354149807,B,1074.901200000113,Correct
7,307,237,A,41.46256799248099,65.38786240379783,2.0731283996240495,1.0271101408085574,A,784.6902999999656,Correct
7,307,238,B,32.48693400470651,14.728773435719095,1.6243467002353256,0.23135903211021802,B,532.609500000035,Correct
7,307,239,A,27.466232867365605,38.1288162557838,1.3733116433682802,0.5989260451962275,A,874.367699999766,Correct
7,307,240,A,14.365414540965595,33.75750299743144,0.7182707270482797,0.5302616171013301,A,550.3224000003684,Correct
7,307,241,B,73.01593987244388,53.67654722333736,3.650796993622194,0.8431492321345112,B,585.8745000000454,Correct
7,307,242,B,34.19221396227259,10.212082697767887,1.7096106981136296,0.16041101990579512,B,578.449399999954,Correct
7,307,243,B,75.86089196901793,62.28549892241031,3.7930445984508965,0.9783783291990961,B,1022.0665000001645,Correct
7,307,244,B,57.40697506786608,38.7102397381055,2.8703487533933036,0.6080590238996595,B,900.1662999999098,Correct
7,307,245,A,53.639821302059026,78.20326612166016,2.681991065102951,1.2284140316726757,A,517.5454000000173,Correct
7,307,246,B,41.216852202827354,27.814898760043413,2.0608426101413677,0.43691540802448114,B,622.1231000004082,Correct
7,307,247,B,54.596034217343544,45.91888133093016,2.7298017108671773,0.7212921012515585,B,686.984499999653,Correct
7,307,248,B,84.82802084251209,58.40246586683493,4.241401042125605,0.9173837885938863,B,773.0710000000727,Correct
7,307,249,A,56.407290512869245,68.94900424497587,2.820364525643462,1.0830484260417383,B,1145.1888999999937,Incorrect
7,307,250,A,39.89077007593616,64.54684955974147,1.994538503796808,1.0138995419462469,A,723.658400000204,Correct
7,307,251,B,31.616879167109854,12.297926310127036,1.5808439583554925,0.19317537475141866,B,623.3710999999857,Correct
7,307,252,A,55.903112827572684,66.42241421674065,2.795155641378634,1.0433608426850531,A,995.1887000001989,Correct
7,307,253,A,20.84612151304556,44.58159539479217,1.042306075652278,0.700286062887958,A,565.6912999997985,Correct
7,307,254,B,57.965105050119405,31.266400499305178,2.89825525250597,0.491131470564067,B,545.3116999997292,Correct
7,307,255,A,36.3046941605102,44.78361798708839,1.81523470802551,0.7034594263470431,A,1001.8527999995968,Correct
7,307,256,A,47.22356005380272,54.798585728625675,2.361178002690136,0.8607741717608045,A,1388.3745000002818,Correct
7,307,257,B,63.36990029227513,39.558133973546205,3.1684950146137565,0.6213777154050679,B,506.19730000016716,Correct
7,307,258,A,45.41202411623934,69.76612777978761,2.2706012058119667,1.0958837725119377,A,779.8496999998861,Correct
7,307,259,A,13.517761266039269,35.94263853756635,0.6758880633019635,0.5645856459012591,A,508.70350000013786,Correct
7,307,260,A,55.02794871533123,70.76517181973617,2.7513974357665614,1.111576719594513,A,1905.4283999998916,Correct
7,307,261,B,65.49965579009618,36.11788091235364,3.2749827895048096,0.5673383466874061,B,459.93719999978566,Correct
7,307,262,B,39.9116831140354,20.963342105298686,1.9955841557017697,0.3292914077634797,B,513.7315000001763,Correct
7,307,263,B,52.602781836625816,39.971176086737074,2.630139091831291,0.6278657657471861,B,897.1903999999995,Correct
7,307,264,B,68.4314257840958,43.91528013883699,3.4215712892047896,0.6898196073225402,B,453.91079999990325,Correct
7,307,265,A,27.135941336184267,39.15714359660449,1.3567970668092133,0.6150789732932664,A,412.2461000001749,Correct
7,307,266,A,40.843855821058256,55.992188139607215,2.0421927910529125,0.8795232345890379,A,839.0320000003157,Correct
7,307,267,B,58.840551467674295,33.516794400613826,2.942027573383715,0.5264805753042394,B,1101.122099999884,Correct
7,307,268,A,36.81069227138058,58.71062534941655,1.8405346135690293,0.9222243464269485,A,889.8383999999169,Correct
7,307,269,A,66.05582643468934,83.66600840268264,3.3027913217344667,1.3142225867652484,A,1096.7916000004152,Correct
7,307,270,A,58.043574231482836,67.51220716451718,2.9021787115741415,1.0604792702783967,A,1178.4557999999379,Correct
7,307,271,A,56.07793096795227,67.10069431894652,2.8038965483976135,1.0540152416158837,A,1645.4985000000306,Correct
7,307,272,B,80.63272952653982,61.40853859388588,4.031636476326991,0.9646030685711857,B,640.2554999999666,Correct
7,307,273,A,12.430279614104656,35.33404115842739,0.6215139807052328,0.5550258206247743,A,708.978599999682,Correct
7,307,274,B,50.360827567837866,21.913168806308974,2.5180413783918936,0.34421125069386643,B,826.509100000294,Correct
7,307,275,A,46.722859180679336,66.82139972556101,2.3361429590339666,1.0496280924020474,A,1254.1297000002487,Correct
7,307,276,B,60.3211017872263,40.97249267003401,3.016055089361315,0.6435944098572025,B,898.8139000002775,Correct
7,307,277,A,45.32987707990903,70.34000342552925,2.266493853995452,1.1048981900756178,A,1193.188199999895,Correct
7,307,278,A,47.597307900271566,54.40337167602383,2.3798653950135784,0.8545661639395575,A,2005.0492999998824,Correct
7,307,279,A,25.508439221049002,48.785075410109854,1.2754219610524502,0.7663141725661259,A,706.0687000002872,Correct
7,307,280,B,76.79195160182246,57.2162648730844,3.839597580091123,0.8987509869556486,B,773.6746000000494,Correct
7,307,281,A,25.365736416668387,56.05415186935869,1.2682868208334193,0.8804965585799192,A,797.9457999999795,Correct
7,307,282,A,40.45503696792897,61.466236152215714,2.0227518483964486,0.9655093796980813,A,1068.5757000001104,Correct
7,307,283,B,69.82804407195701,42.21202514771514,3.491402203597851,0.6630649404860475,B,757.448999999724,Correct
7,307,284,A,26.166828854431422,55.80040324623817,1.3083414427215712,0.8765106845286494,A,798.5435000000507,Correct
7,307,285,A,18.32969188701964,47.89225282458696,0.9164845943509818,0.752289748187937,A,741.4954000000762,Correct
7,307,286,A,27.899602251208307,40.737569939660766,1.3949801125604153,0.6399042522376932,A,1233.9504999999917,Correct
7,307,287,A,61.31712397476471,71.21872844060987,3.065856198738236,1.118701170335132,A,1269.2607999997563,Correct
7,307,288,A,14.585326087517512,31.948075052667374,0.7292663043758756,0.5018391894089759,A,646.6746999999486,Correct
7,307,289,B,43.517583064162636,18.5162503913709,2.1758791532081316,0.29085258100779976,B,1175.2408000002106,Correct
7,307,290,A,45.25077687294608,62.75757281552109,2.262538843647304,0.9857936485718377,A,10787.961099999848,Correct
7,307,291,A,15.216615470868774,43.67569032328436,0.7608307735434388,0.6860561393004648,A,522.6440000001276,Correct
7,307,292,A,38.34764492135786,62.91238421600967,1.917382246067893,0.9882254203641722,A,692.0095000000401,Correct
7,307,293,A,52.68263813140523,63.567005343045054,2.634131906570261,0.9985081849820674,A,1346.1316000002626,Correct
7,307,294,B,61.24914072376762,53.34286302184052,3.062457036188381,0.837907732954304,B,611.7959000002884,Correct
7,307,295,B,79.65385024079151,48.15409254955216,3.9826925120395753,0.7564027169697802,B,475.235899999916,Correct
7,307,296,B,53.04695667900306,21.851660230730854,2.652347833950153,0.3432450762480214,B,547.8213999999753,Correct
7,307,297,A,41.45224452574085,73.06843317365147,2.072612226287043,1.147756264338301,A,496.2285999999949,Correct
7,307,298,B,60.251500063820885,38.41490340863446,3.0125750031910443,0.6034198916846376,B,502.33699999989767,Correct
7,307,299,A,48.936627594604936,62.38259089090152,2.446831379730247,0.9799034462737688,A,1280.8374999999614,Correct
7,307,300,A,53.97993027055021,82.82937383738303,2.6989965135275105,1.3010807617448257,A,715.0620000002164,Correct
7,307,301,A,24.0225327565446,56.20939787588854,1.2011266378272298,0.8829351571479859,A,525.5753000001278,Correct
7,307,302,B,55.25546616064193,42.25409009161584,2.762773308032097,0.6637256950797079,B,1011.3618999998835,Correct
7,307,303,B,51.293586732758214,25.795495707281148,2.564679336637911,0.40519469904850747,B,584.3376000002536,Correct
7,307,304,A,41.75073250704248,66.39422935082524,2.087536625352124,1.042918115846542,A,594.8566000001847,Correct
7,307,305,A,21.79670034035061,36.49445936121991,1.0898350170175306,0.5732536271296986,A,615.8575999997993,Correct
7,307,306,A,29.73437698394121,50.048339277892524,1.4867188491970607,0.786157474998983,A,1208.399399999962,Correct
7,307,307,A,64.17303113636066,87.7310308601618,3.2086515568180336,1.3780758102107187,A,680.722600000081,Correct
7,307,308,A,58.43332858739743,75.38741535155745,2.9216664293698718,1.1841827512078762,A,805.1402999999482,Correct
7,307,309,B,69.24481386623835,40.8402302652658,3.4622406933119176,0.6415168368613728,B,664.7541000002093,Correct
7,307,310,A,52.44116165129832,72.33695269458977,2.622058082564916,1.136266195841978,A,650.1381000002766,Correct
7,307,311,B,59.79825568822866,51.54164280168054,2.9899127844114326,0.8096142318985441,B,799.393499999951,Correct
7,307,312,A,51.405051557480924,71.26025501882988,2.570252577874046,1.1193534683004556,A,1514.7375000001375,Correct
7,307,313,A,37.59967002331228,50.276960148546124,1.879983501165614,0.7897486432374965,A,549.7752999999648,Correct
7,307,314,A,34.14099341683574,59.16810337933568,1.7070496708417868,0.929410394516812,A,533.5100000002058,Correct
7,307,315,B,69.50015522746016,53.59887330612932,3.4750077613730075,0.8419291330961296,B,656.8701999999575,Correct
7,307,316,B,64.1218040593071,36.31364029658245,3.206090202965355,0.5704133279042285,B,693.0074000001696,Correct
7,307,317,B,63.372044981463645,40.07889931378309,3.1686022490731824,0.6295578782407298,B,716.4418999996087,Correct
7,307,318,B,57.50160223235869,38.105270236343245,2.8750801116179345,0.5985561851877487,B,592.8711000001385,Correct
7,307,319,A,61.12016076134027,81.24495839408551,3.056008038067014,1.2761928221603374,A,859.4165000004068,Correct
7,307,320,A,20.86448623849552,43.50213813968827,1.043224311924776,0.6833299879754651,A,542.7520000002914,Correct
7,307,321,B,84.14642145364981,64.81808877355004,4.207321072682491,1.0181601575535792,B,526.7539999999826,Correct
7,307,322,A,53.852030652901895,66.38930708728805,2.692601532645095,1.0428407971117046,A,1306.0805000000073,Correct
7,307,323,B,51.30878276346354,35.84713424439937,2.5654391381731774,0.5630854679722608,B,577.0153999997092,Correct
7,307,324,A,32.898270555881275,54.1118976984247,1.6449135277940639,0.8499877014058673,A,1192.4666000004436,Correct
7,307,325,A,36.747760730385885,54.908155897239524,1.8373880365192943,0.8624952959446538,A,678.2858999999917,Correct
7,307,326,B,47.7833596656149,25.758706937343646,2.3891679832807453,0.40461682240165614,B,568.2338999999956,Correct
7,307,327,A,42.804591273611905,61.195530774225254,2.1402295636805952,0.9612571495641709,A,1591.715000000022,Correct
7,307,328,A,46.430278976940386,58.63618475186273,2.321513948847019,0.9210550362549289,A,882.1681000003991,Correct
7,307,329,A,58.40823731714716,74.02981893727544,2.9204118658573583,1.1628576765996355,A,859.0003999997862,Correct
7,307,330,B,48.32245653888126,25.250522355801927,2.416122826944063,0.3966342776614609,B,553.1283999998777,Correct
7,307,331,A,64.31124467055857,82.20459518854793,3.215562233527928,1.291266761678325,A,742.381000000023,Correct
7,307,332,B,87.22141551121899,59.72749784278524,4.3610707755609495,0.9381973422009717,B,607.8012000002673,Correct
7,307,333,A,24.902029317720583,48.46238821996535,1.245101465886029,0.7612454140362983,A,475.9137999999439,Correct
7,307,334,A,42.767411294884795,51.823371056452515,2.13837056474424,0.8140396089760458,A,946.5731999998752,Correct
7,307,335,B,31.739247904929773,14.50360200576527,1.5869623952464886,0.2278220475595118,B,543.8483999996606,Correct
7,307,336,B,64.9527757319758,47.957384744011925,3.2476387865987904,0.7533128379858354,B,629.1147000001729,Correct
7,307,337,A,48.888641576399266,58.15026314962859,2.4444320788199634,0.9134221975759321,A,891.733600000407,Correct
7,307,338,B,49.300459897219454,37.93914053861653,2.465022994860973,0.595946625998142,B,516.0605999999461,Correct
7,307,339,A,34.595419140507985,57.34947663765543,1.7297709570253994,0.9008434724603888,A,806.2477999992552,Correct
7,307,340,A,32.89792469535074,63.29930030239638,1.644896234767537,0.9943030840369133,A,555.7968000002802,Correct
7,307,341,A,26.76556287389198,56.58800428793827,1.338278143694599,0.8888822927614729,A,517.1942000006311,Correct
7,307,342,B,35.973007297902285,15.882888559397994,1.7986503648951142,0.24948783007995057,B,590.3042000009009,Correct
7,307,343,B,45.757808605294734,27.437085419631437,2.2878904302647367,0.4309807299511487,B,1397.5109000002703,Correct
7,307,344,A,46.82939066702909,60.32483345003689,2.3414695333514546,0.9475802679783186,A,801.9180000001143,Correct
7,307,345,A,44.30840372769721,52.0947767209699,2.215420186384861,0.8183028391849979,A,1505.9614000001602,Correct
7,307,346,A,59.06426404748394,78.82486062433082,2.953213202374197,1.2381780152881854,A,944.854999999734,Correct
7,307,347,B,80.41881643212712,64.49920324015882,4.020940821606356,1.0131511153083896,B,584.3205999999554,Correct
7,307,348,A,21.653480414374645,42.89372478475245,1.0826740207187322,0.6737730533444036,A,615.5191999996532,Correct
7,307,349,A,13.89316255458986,40.309557843674696,0.6946581277294931,0.6331810539557062,A,671.8485999999757,Correct
7,307,350,B,51.8911417793853,29.850542188946054,2.5945570889692653,0.46889122023232555,B,721.2091999999757,Correct
7,307,351,B,72.47186667661764,55.26945513110036,3.623593333830882,0.8681705710388781,B,1599.0310999995927,Correct
7,307,352,A,21.48158507261118,53.274022744428265,1.074079253630559,0.836826392405357,A,652.8321000005235,Correct
7,307,353,B,61.198176278322144,41.6575786314744,3.0599088139161075,0.6543557149748956,B,1130.9280000004946,Correct
7,307,354,B,55.721889040523145,43.08542460728026,2.7860944520261572,0.6767842671151427,B,1210.9553000000233,Correct
7,307,355,B,47.039598869487996,33.788872256477845,2.3519799434744,0.5307543642701739,B,800.7651999996597,Correct
7,307,356,A,64.91665753459672,79.91633404340294,3.245832876729836,1.255322839662913,A,789.745000000039,Correct
7,307,357,A,14.60253457036244,42.61314612482684,0.730126728518122,0.6693657340605218,A,598.8522999996349,Correct
7,307,358,B,52.17346906713547,22.303455831325152,2.6086734533567735,0.35034186494677766,B,603.0431999997745,Correct
7,307,359,B,54.14566917954285,38.329932096926655,2.7072834589771424,0.6020851654415021,B,628.6698000003526,Correct
7,307,360,A,53.473113228483555,61.83906258702657,2.6736556614241778,0.9713657236414104,A,1617.1383999999307,Correct
7,307,361,A,34.485067605982216,65.9838516438541,1.7242533802991107,1.0364719178994541,A,589.5587000004525,Correct
7,307,362,A,26.46737090972087,39.853376825424064,1.3233685454860435,0.6260153792774897,B,615.2451000007204,Incorrect
7,307,363,B,55.67992617707608,28.2203515044378,2.7839963088538036,0.4432842448403173,B,498.29290000070614,Correct
7,307,364,B,47.22390556131412,31.50070859687822,2.361195278065706,0.4948119735541273,B,606.9934999995894,Correct
7,307,365,A,49.98194036349612,72.37623745257663,2.499097018174806,1.136883279377426,A,701.367399999981,Correct
7,307,366,A,63.43069317563808,83.28210757726144,3.1715346587819044,1.3081922867009967,A,623.0246000004627,Correct
7,307,367,B,57.35674288421773,24.752314896810972,2.8678371442108865,0.38880845319581275,B,1223.0405000000246,Correct
7,307,368,A,65.13554165368073,84.55291165095822,3.2567770826840365,1.3281540304113857,A,950.2559000002293,Correct
7,307,369,A,23.018537501185982,34.66606945380692,1.1509268750592991,0.5445333456245667,A,620.346900000186,Correct
7,307,370,A,64.0798188677373,77.90503274897704,3.2039909433868647,1.2237293928092925,A,1122.4360999995042,Correct
7,307,371,B,32.72509705825061,17.032526047259044,1.6362548529125305,0.267546293510729,B,746.1633000002621,Correct
7,307,372,B,75.19973620690098,44.378435021692816,3.759986810345049,0.6970948272098108,B,1079.120200000034,Correct
7,307,373,B,61.49590770948086,33.76357173504672,3.0747953854740433,0.5303569446088738,B,1151.4405999996598,Correct
7,307,374,B,61.763822014292636,50.33575624476051,3.088191100714632,0.790672210157131,B,648.8364000006186,Correct
7,307,375,A,36.26628273567476,45.45758854113695,1.813314136783738,0.7140461310537171,A,1088.874300000498,Correct
7,307,376,A,41.26551867650148,62.68723216408772,2.0632759338250737,0.9846887402028788,A,622.1051000002262,Correct
7,307,377,B,50.96814068847775,33.8089364915984,2.5484070344238874,0.531069532538447,B,638.9852000002065,Correct
7,307,378,B,65.0485015331686,54.81850867394932,3.2524250766584304,0.8610871206541375,B,800.632499999665,Correct
7,307,379,A,49.82143761079353,73.46652398523702,2.4910718805396765,1.1540094601839948,A,829.3367999995098,Correct
7,307,380,A,55.94079598859538,82.44605047770457,2.797039799429769,1.29505953249125,A,943.8460000001214,Correct
7,307,381,B,65.78540790486281,43.19106286687881,3.2892703952431406,0.6784436290166068,B,590.7779999997729,Correct
7,307,382,B,51.883769029059195,23.411627704322285,2.5941884514529594,0.36774898802239087,B,1107.48650000005,Correct
7,307,383,A,17.69300609679737,48.65721514327499,0.8846503048398685,0.7643057481912537,A,478.55080000044836,Correct
7,307,384,B,60.98987591389381,37.90639695738722,3.0494937956946906,0.5954322910269308,B,836.6261000001032,Correct
7,307,385,A,22.95003595059409,39.77506801250648,1.1475017975297044,0.6247853073206237,A,470.5880999999863,Correct
7,307,386,B,52.144057879810276,42.32174975525977,2.6072028939905136,0.6647884905909487,B,977.355400000306,Correct
7,307,387,B,79.3543157911071,65.65090185922195,3.9677157895553545,1.0312419549123808,B,668.4013999993113,Correct
7,307,388,B,49.01117096978497,37.90115051408153,2.4505585484892487,0.5953498800881978,B,1214.9153000000297,Correct
7,307,389,B,42.594803042733474,31.010173787629597,2.129740152136674,0.48710667078879966,B,779.350599999816,Correct
7,307,390,B,50.420872005593175,42.11210201121195,2.5210436002796586,0.661495351528237,A,2181.007700000009,Incorrect
7,307,391,A,66.94583655617392,80.12308978961974,3.3472918278086956,1.2585705513299237,A,862.9289000000426,Correct
7,307,392,B,84.78956046037203,63.33610718886816,4.239478023018602,0.9948812452576195,B,676.7712000000756,Correct
7,307,393,B,37.558729881620295,22.668548234845883,1.8779364940810148,0.3560767230106885,B,773.3495000002222,Correct
7,307,394,A,33.37242234333495,61.47522211792375,1.6686211171667475,0.96565053091735,A,619.9806000004173,Correct
7,307,395,A,27.047636856485358,59.49366246157716,1.352381842824268,0.9345242646222082,A,969.2759999998088,Correct
7,307,396,B,61.26517355176648,47.90287982957364,3.063258677588324,0.7524566767919162,B,822.1989000003305,Correct
7,307,397,B,60.2034291808391,32.7315780265807,3.010171459041955,0.514146425343535,B,1694.8098000002574,Correct
7,307,398,B,56.122362878360846,28.442037297335524,2.806118143918042,0.4467664771321809,B,557.7175000007628,Correct
7,307,399,B,62.89982994020253,37.247759933886975,3.1449914970101265,0.5850864448548778,B,1500.6257999993977,Correct
7,307,400,B,61.567389512333406,53.65487866580078,3.0783694756166704,0.8428088632286572,B,598.8713999995525,Correct
7,307,401,A,44.57475854350272,69.0577811520913,2.228737927175136,1.0847570897031085,A,1601.3435000004392,Correct
7,307,402,A,37.14408219349852,48.5717167113355,1.8572041096749259,0.7629627419628808,A,1146.4487999992343,Correct
7,307,403,B,72.71488257264994,58.43973663814897,3.635744128632497,0.9179692365006553,B,2043.870099999367,Correct
7,307,404,A,55.269557144179004,84.83628276640715,2.76347785720895,1.3326052134840554,A,640.0369000002684,Correct
7,307,405,B,49.33930370578263,24.263601222056607,2.4669651852891317,0.3811317567442269,B,615.1980000004187,Correct
7,307,406,B,58.92862995321196,37.42478776604676,2.946431497660598,0.5878671915398483,B,1033.4632999993119,Correct
7,307,407,B,31.64659335444827,13.8075446284478,1.5823296677224135,0.21688840384422411,B,1183.0033999995067,Correct
7,307,408,B,74.05048525894989,59.03329248166325,3.7025242629474944,0.9272927898880542,B,1207.5221000004603,Correct
7,307,409,A,38.149108489399936,52.017193633973,1.9074554244699968,0.8170841669042368,A,746.9145000004573,Correct
7,307,410,A,27.059597683926263,44.1002231732314,1.352979884196313,0.6927246857134706,A,618.3481999996729,Correct
7,307,411,A,41.68356877530496,59.06354339789445,2.084178438765248,0.9277679701690357,A,1279.066299999613,Correct
7,307,412,A,49.78024321928844,60.51057515629359,2.4890121609644216,0.9504978918775251,A,1570.4046000000744,Correct
7,307,413,A,16.645609102271465,44.98650308062876,0.8322804551135732,0.7066463379439896,A,1115.2429000003394,Correct
7,307,414,B,69.02162229568066,40.77998088281257,3.4510811147840332,0.640570441774881,B,600.7941999996547,Correct
7,307,415,A,41.758640008439365,53.33955313664525,2.087932000421968,0.8378557413992356,A,630.2918999999747,Correct
7,307,416,A,44.33395979720628,54.57818205215001,2.216697989860314,0.8573120789066039,A,977.9346999994232,Correct
7,307,417,A,33.09634029175572,47.149869644010636,1.654817014587786,0.7406284204567011,A,876.9506999997247,Correct
7,307,418,B,50.38322830352855,36.50520023201183,2.5191614151764274,0.5734223443335639,B,1419.0842999996676,Correct
7,307,419,A,26.69796550223922,55.1601493619893,1.334898275111961,0.8664536000327064,A,465.4161999997086,Correct
7,307,420,B,72.7064456447601,43.788016168525175,3.635322282238005,0.6878205495515488,B,921.9947999999931,Correct
7,307,421,A,14.44167388382326,36.05959473388465,0.7220836941911629,0.5664227895369861,A,631.5077999997811,Correct
7,307,422,A,33.741844293567645,45.32081701116985,1.6870922146783824,0.7118977288848926,A,666.5788999998767,Correct
7,307,423,B,50.96126405275862,32.64302626607726,2.5480632026379313,0.5127554575422348,B,944.1371999992043,Correct
7,307,424,A,32.91458857891661,52.15318973321823,1.6457294289458304,0.8192203886357651,A,415.33030000027793,Correct
7,307,425,B,52.682735165252765,28.275982336810237,2.6341367582626383,0.44415809191178895,B,595.7535999996253,Correct
7,307,426,B,56.219690883510815,41.97729225739709,2.810984544175541,0.659377764867152,B,658.1194000000323,Correct
7,307,427,B,70.49495051592058,45.94893024805811,3.5247475257960286,0.721764108538046,B,708.668299999772,Correct
7,307,428,A,39.89180928063523,49.14194649360689,1.9945904640317615,0.7719198904370903,A,575.6584999999177,Correct
7,307,429,A,32.30784011794458,55.898717577490274,1.6153920058972289,0.8780550024326703,A,540.1075999998284,Correct
7,307,430,B,55.641425551495296,41.07926193549757,2.7820712775747647,0.64527153755725,B,1318.8849000007394,Correct
7,307,431,A,28.038424449466582,53.09319576613348,1.4019212224733293,0.8339859688724484,A,569.1067999996449,Correct
7,307,432,B,87.73243928499281,67.3887708449897,4.38662196424964,1.0585403371053284,B,516.7318999992858,Correct
7,307,433,A,60.55563694878667,85.5169029741763,3.027781847439334,1.343296370707117,A,504.8554000004515,Correct
7,307,434,B,67.56090626455966,40.633983645882864,3.3780453132279833,0.6382771225399669,B,574.3958000002749,Correct
7,307,435,B,40.13602934349503,13.889670281179356,2.0068014671747516,0.2181784305806877,B,554.5282000002771,Correct
7,307,436,B,84.51054977866933,64.45797638816862,4.225527488933467,1.0125035254316743,B,844.2233999994642,Correct
7,307,437,B,33.75807508799349,13.811929534544412,1.6879037543996744,0.21695728178812304,B,513.4822999998505,Correct
7,307,438,B,67.48343210909857,53.95307505824068,3.3741716054549284,0.847492921207738,B,537.2320999995281,Correct
7,307,439,A,34.78256162586284,46.26470839654855,1.7391280812931422,0.7267243400953547,A,733.3891999996922,Correct
7,307,440,A,21.63489545174505,46.77194219728582,1.0817447725872524,0.7346919500055978,A,437.9339999995864,Correct
7,307,441,B,86.96877114170441,64.5693102095941,4.34843855708522,1.014252353009106,B,641.8007000002035,Correct
7,307,442,B,51.2362952542851,24.89221099082208,2.5618147627142553,0.3910059359018687,B,640.7567999995081,Correct
7,307,443,A,49.80694358038795,80.97038608217564,2.4903471790193974,1.2718798503704611,A,584.7530999999435,Correct
7,307,444,A,13.34083901046333,30.167658182517666,0.6670419505231665,0.47387246661102755,A,669.7573000001285,Correct
7,307,445,A,54.28782271821596,83.07987889672884,2.714391135910798,1.305015686015465,A,483.55549999996583,Correct
7,307,446,A,35.9879299410794,46.03233406547487,1.7993964970539702,0.7230742126384352,A,1044.3793000004007,Correct
7,307,447,A,52.49825962676927,62.823576864228144,2.624912981338463,0.9868304377444641,A,1037.5280999996903,Correct
7,307,448,A,34.28417917717495,55.803550246447244,1.7142089588587475,0.8765601174923378,A,426.19809999996505,Correct
7,307,449,A,38.691285431310106,63.24079948242144,1.9345642715655054,0.9933841553056019,A,1157.833700000083,Correct
7,307,450,A,61.19454696390639,82.52180574951043,3.0597273481953198,1.2962494935181297,A,752.6090000001204,Correct
7,307,451,B,61.39857892170079,41.65036052782178,3.0699289460850396,0.6542423332678561,B,722.2878000002311,Correct
7,307,452,A,21.484506925893232,48.822261627929095,1.0742253462946616,0.7668982923097046,A,539.093899999898,Correct
7,307,453,B,57.9551348008632,37.92797619735872,2.89775674004316,0.5957712569357534,B,668.8069000001633,Correct
7,307,454,A,10.709779882978982,33.348086259736746,0.535488994148949,0.5238305140243384,A,503.8594000006924,Correct
7,307,455,A,39.531000515555704,64.06171446601972,1.9765500257777853,1.0062790577140726,A,711.6120999999112,Correct
7,307,456,A,65.86794323701231,79.62117311828993,3.2933971618506153,1.2506864626931038,A,577.8166000000056,Correct
7,307,457,B,64.87314635690265,43.68646464337511,3.2436573178451327,0.6862253819246875,A,1982.5044999997772,Incorrect
7,307,458,B,75.74345218443813,53.090829639737244,3.7871726092219062,0.8339488018459288,B,919.9349000000439,Correct
7,307,459,B,78.75136614046754,48.049280605887574,3.937568307023377,0.7547563348086546,B,604.6332999994775,Correct
7,307,460,A,34.497069927980654,44.13424895647448,1.7248534963990325,0.6932591614668161,A,609.0799999992669,Correct
7,307,461,B,61.614455783507935,41.03312659993993,3.0807227891753968,0.644546845400956,B,755.2994999996372,Correct
7,307,462,B,44.98316782666889,21.280202795818596,2.2491583913334443,0.3342686438512234,B,652.7181999999812,Correct
7,307,463,A,36.877012611075656,67.63425112007349,1.8438506305537827,1.0623963322493506,A,486.64410000037606,Correct
7,307,464,B,65.86200860102537,49.9005665509605,3.2931004300512683,0.7838362664323303,B,1417.4394000001485,Correct
7,307,465,B,64.96485286040398,40.0894344952306,3.248242643020199,0.6297233644839284,B,815.5040000001463,Correct
7,307,466,A,56.813818578721026,77.9852182203996,2.840690928936051,1.2249889432490213,A,626.8168000005971,Correct
7,307,467,B,56.04454018557616,45.234159813124656,2.8022270092788077,0.7105365208010954,B,588.2175999995525,Correct
7,307,468,B,61.274948635356125,36.80081191663136,3.063747431767806,0.578065801817144,B,887.0270000006713,Correct
7,307,469,B,68.19581456577123,39.918072811584985,3.4097907282885616,0.6270316214516892,B,591.543399999864,Correct
7,307,470,B,42.87962210410738,34.200376864836876,2.1439811052053694,0.5372182635428693,B,2298.8924000001134,Correct
7,307,471,A,48.03402440589247,67.29452188312413,2.4017012202946235,1.0570598778743017,A,957.9885000002832,Correct
7,307,472,A,34.65830848503414,43.73635285591159,1.7329154242517069,0.6870090241347142,A,1335.3895000000193,Correct
7,307,473,B,46.20482446011392,34.61238984046946,2.3102412230056957,0.5436901482300243,B,1839.6694000002753,Correct
7,307,474,A,29.10942722365958,39.39358292098848,1.4554713611829788,0.6187929535157888,A,685.7647000006182,Correct
7,307,475,B,43.686284054972944,16.15598349323918,2.184314202748647,0.25377759526939087,B,650.7440999994287,Correct
7,307,476,A,42.687377609067305,52.5992984338686,2.134368880453365,0.8262278477190934,A,1649.1174000002502,Correct
7,307,477,B,74.76053014599582,48.669799650386885,3.7380265072997907,0.7645034251667125,B,1472.5766999999905,Correct
7,307,478,B,79.4610148781793,60.36564811616475,3.973050743908965,0.9482213832546486,A,2607.463100000132,Incorrect
7,307,479,B,84.77262433927164,67.283449035088,4.238631216963582,1.0568859459840785,B,1343.221099999937,Correct
7,307,480,A,60.57913153840828,78.77699975651679,3.0289565769204136,1.2374262185345903,A,599.7719000006327,Correct
7,307,481,B,75.02358014923475,61.30800342472622,3.7511790074617375,0.9630238658268889,B,685.6583999997383,Correct
7,307,482,A,45.75789837447162,57.1236305382138,2.287894918723581,0.8972958902261501,A,591.838800000005,Correct
7,307,483,B,68.31418723554908,47.98573751290728,3.415709361777454,0.7537582022381882,B,1465.7971000006,Correct
7,307,484,B,38.09739563366065,28.934217402167427,1.9048697816830327,0.45449762414009565,A,622.488599999997,Incorrect
7,307,485,A,55.37275347621605,83.19374435129994,2.7686376738108027,1.306804280393356,A,531.4723999999842,Correct
7,307,486,A,67.54965070870969,82.14883238257454,3.3774825354354845,1.2903908415703773,A,549.1685999995752,Correct
7,307,487,B,78.21764924438229,62.585712826514765,3.9108824622191145,0.9830940781772964,B,762.1589999998832,Correct
7,307,488,B,61.22337033171731,40.87042803886896,3.0611685165858655,0.641991182379905,B,762.9893000002994,Correct
7,307,489,B,70.28330566439716,57.64371524964771,3.5141652832198584,0.9054653617695758,B,812.1081999997841,Correct
7,307,490,A,21.102392791781746,36.19400897576073,1.0551196395890872,0.5685341635110646,A,413.77550000015617,Correct
7,307,491,B,62.62107315631572,53.47105807957831,3.131053657815786,0.8399214162123818,B,1368.8640999998825,Correct
7,307,492,B,52.33278821278399,40.35419282662544,2.6166394106391992,0.6338821786283622,B,928.891399999884,Correct
7,307,493,A,50.37197899387144,60.74441441224293,2.5185989496935717,0.9541710303205818,B,1019.0990999999485,Incorrect
7,307,494,B,83.34537156621387,64.81876277638374,4.1672685783106935,1.0181707447653334,B,738.2831000004444,Correct
7,307,495,B,70.24879823844505,48.78976004716718,3.512439911922252,0.7663877586729461,B,563.1407000000763,Correct
7,307,496,B,36.891091625431486,17.944898969192277,1.8445545812715745,0.28187781385512756,B,893.3575999999448,Correct
7,307,497,B,51.554877761033104,22.84759813024347,2.577743888051655,0.3588892321907239,B,493.09140000059415,Correct
7,307,498,B,74.71114964084735,52.74956199718267,3.7355574820423674,0.8285881822521419,B,719.3114000001515,Correct
7,307,499,A,53.890488131828945,78.68783704600295,2.694524406591447,1.2360256539529684,A,1868.5625999996773,Correct
7,307,500,A,40.59401681693962,62.403103034384074,2.029700840846981,0.9802256502701396,A,1455.6435999993482,Correct
7,307,501,B,57.95573652433209,39.859135646506154,2.8977868262166044,0.6261058386275139,B,842.9808999999295,Correct
7,307,502,B,35.3011447041503,12.560508665313549,1.7650572352075153,0.19730000874149992,B,646.2708999997631,Correct
7,307,503,A,55.7041787662467,79.72507104822041,2.785208938312335,1.252318487560068,A,2201.083099999778,Correct
7,307,504,A,62.45193080678686,76.429306829859,3.122596540339343,1.200548744278226,A,1193.085699999756,Correct
7,307,505,A,14.613976783377222,36.39549463080256,0.7306988391688611,0.5716990927794804,A,1819.6270999997068,Correct
7,307,506,A,23.294298572104992,46.22466473403131,1.1647149286052496,0.7260953357154196,A,655.4919999998674,Correct
7,307,507,B,44.373144925774106,17.28481686226288,2.2186572462887053,0.2715092683656502,B,638.9540999998644,Correct
7,307,508,A,36.095912412976446,45.38688888617772,1.8047956206488223,0.7129355834705607,A,819.3608000001404,Correct
7,307,509,B,57.47366549234958,28.302351328350404,2.873683274617479,0.44457229506231477,B,2050.8560999996917,Correct
7,307,510,B,64.89749680394223,42.50746068307581,3.2448748401971113,0.6677056310235396,B,1703.5678000002008,Correct
7,307,511,A,13.869736982369322,39.99342974530772,0.693486849118466,0.6282153253985912,A,700.0294999998005,Correct
7,307,512,B,80.86821898769303,51.186526077293294,4.0434109493846515,0.8040360714360348,B,1556.5863000001627,Correct
7,307,513,B,84.02408847929225,67.36331106494367,4.2012044239646125,1.0581404158155554,B,1561.8483999996897,Correct
7,307,514,A,25.20318159081897,55.46624729210017,1.2601590795409485,0.8712617750752834,A,913.2854999998017,Correct
7,307,515,A,36.033900852549536,63.12340108907797,1.801695042627477,0.9915400656552465,A,470.5764000000272,Correct
7,307,516,A,55.96783794242653,72.19406978330738,2.798391897121326,1.1340217963199368,A,1684.9532999995063,Correct
7,307,517,A,67.04645594611674,80.66735882308157,3.352322797305837,1.267119909315424,A,1433.107399999244,Correct
7,307,518,B,71.80103604080391,54.998610989178225,3.5900518020401955,0.8639161612062259,B,979.5822999994925,Correct
7,307,519,B,46.70971319609637,16.326837492619585,2.3354856598048186,0.25646136361584043,B,636.7049999998926,Correct
7,307,520,B,62.1441640519266,36.59548098224744,3.10720820259633,0.5748404710420678,B,2194.2755999998553,Correct
7,307,521,B,54.21952269075315,37.981087639132355,2.7109761345376575,0.5966055295122416,B,650.5619999998089,Correct
7,307,522,A,39.587017509612295,64.32241020179791,1.9793508754806146,1.0103740567557873,A,1355.6884999998147,Correct
7,307,523,B,74.29905293772138,46.7606588308115,3.7149526468860694,0.7345147112994804,B,600.1393999995344,Correct
7,307,524,B,52.18073197714872,44.022693279577396,2.6090365988574358,0.6915068489917856,B,1083.4326000003784,Correct
7,307,525,B,69.8478700033387,52.12365007080196,3.492393500166935,0.8187563807035826,B,724.0086000001611,Correct
7,307,526,B,68.26564351616209,44.8511531580551,3.4132821758081042,0.7045202663318828,B,480.16069999994215,Correct
7,307,527,A,45.8848372156876,61.87426666583525,2.2942418607843797,0.9719187080182192,A,1382.7907000004416,Correct
7,307,528,A,66.38426940529976,85.06994738237992,3.319213470264988,1.336275608688775,A,660.0658000006661,Correct
7,307,529,A,39.48003830495002,47.68443943679681,1.9740019152475012,0.7490254231259412,B,709.7416999995403,Incorrect
7,307,530,B,73.38251357246567,52.54080500180826,3.669125678623283,0.8253090350368734,B,605.7768000000578,Correct
7,307,531,B,67.48162965991038,48.07262437775327,3.374081482995519,0.7551230179196565,B,619.5753999991211,Correct
7,307,532,A,52.96209726513087,78.24445608161247,2.6481048632565436,1.2290610420506145,A,639.7359000002325,Correct
7,307,533,B,83.6558223408198,55.156835692473095,4.182791117040989,0.8664015490336638,B,563.0382000008467,Correct
7,307,534,B,68.65920466184834,58.80356725957533,3.4329602330924165,0.9236842745377756,B,1848.8317999999708,Correct
7,307,535,B,58.85051810028016,27.373113851270936,2.942525905014008,0.4299758669051489,B,703.247200000078,Correct
7,307,536,A,57.29498363110848,69.18667847623384,2.8647491815554242,1.0867818041360766,A,1072.9135999999926,Correct
7,307,537,A,38.63632536626295,71.4785679902706,1.9318162683131477,1.1227827204367635,A,1123.1503999997585,Correct
7,307,538,B,87.29400557322023,69.85493361736857,4.364700278661012,1.0972787313466388,B,840.9616999997525,Correct
7,307,539,A,43.69820453905158,59.65143676170173,2.184910226952579,0.9370025775331914,A,1025.4803000007087,Correct
7,307,540,A,24.519542540971507,37.04672450243975,1.2259771270485755,0.5819285876821485,A,503.0687000007674,Correct
7,307,541,B,82.2542504263259,53.660629359900696,4.112712521316294,0.842899194920344,B,608.4436000001006,Correct
7,307,542,B,84.56150087514108,59.634966460142635,4.228075043757054,0.936743862641289,B,736.7405999993935,Correct
7,307,543,B,65.34931497545969,56.50439337101806,3.267465748772985,0.8875689355496907,B,1547.2499999996217,Correct
7,307,544,B,62.94845110573533,54.20002106090622,3.1474225552867665,0.8513719399467752,B,550.5862999998499,Correct
7,307,545,B,69.79742274786712,42.211387625615,3.489871137393356,0.6630549263123158,B,550.0500999996802,Correct
7,307,546,B,64.95734089202799,44.19971067414097,3.2478670446013997,0.6942874317233781,B,806.8687000004502,Correct
7,307,547,A,19.343629591815937,45.80536598223861,0.9671814795907969,0.7195090063239631,A,1050.7707000006121,Correct
7,307,548,B,68.95802409967864,39.58251356114542,3.447901204983932,0.6217606690715639,B,531.8890999997166,Correct
7,307,549,B,37.02966778167112,19.709025738446297,1.851483389083556,0.3095886523465752,B,635.3666999993948,Correct
