subject,day,trial,cat,x,y,xt,yt,resp,rt,fb
19,419,0,A,25.909505826004008,51.74082782285306,1.2954752913002006,0.8127430228946478,A,2001.8507999993744,Correct
19,419,1,A,64.23431560106218,85.23602242943153,3.211715780053109,1.3388843094275844,A,1678.853700000218,Correct
19,419,2,A,46.48205004035725,77.3739967972667,2.3241025020178627,1.2153878995858665,A,1518.5786000001826,Correct
19,419,3,B,77.72537280230955,55.479778621502895,3.8862686401154773,0.8714743247005079,B,673.1124999996609,Correct
19,419,4,A,60.265912404555195,80.38876977529654,3.0132956202277597,1.262743842785964,A,1345.1531000000614,Correct
19,419,5,A,28.661364896708765,57.86622484474663,1.4330682448354384,0.9089605343161558,A,909.2724000001908,Correct
19,419,6,A,67.009292324518,84.53954641027804,3.3504646162259,1.3279440897017143,A,1376.5949000007822,Correct
19,419,7,A,35.017207000491936,47.63997081494218,1.7508603500245967,0.7483269116472725,B,1527.5504000001092,Incorrect
19,419,8,B,32.210656224922005,14.734995509279226,1.6105328112461001,0.23145676821315106,B,559.0423000003284,Correct
19,419,9,A,45.56130811873486,66.79981384561157,2.278065405936743,1.0492890221926952,A,848.6854000002495,Correct
19,419,10,A,46.28707058563263,62.84704709879899,2.314353529281631,0.9871991073269929,A,915.732599999501,Correct
19,419,11,A,17.59335934934609,32.641843786255464,0.8796679674673045,0.512736883192629,A,968.4392999997726,Correct
19,419,12,B,83.67357366706668,68.4938302037865,4.1836786833533335,1.0758985689222116,B,926.5709000001152,Correct
19,419,13,B,43.73856260158396,25.675293184110007,2.186928130079198,0.4033065622298204,B,944.4862000000285,Correct
19,419,14,A,60.24026391172529,75.44315835698377,3.0120131955862646,1.1850583602895584,A,2873.6650999999256,Correct
19,419,15,A,47.919641381532024,62.85178398465125,2.395982069076601,0.9872735141559648,B,956.1576999994941,Incorrect
19,419,16,B,48.67524171087319,30.379085931174906,2.4337620855436595,0.4771935659207606,B,651.0416999999507,Correct
19,419,17,B,57.851549554218884,45.249324101080894,2.8925774777109443,0.7107747208792966,B,729.9739000000045,Correct
19,419,18,B,51.3454259672773,40.38381021840687,2.567271298363865,0.6343474075305573,B,1078.1675999996878,Correct
19,419,19,B,31.253722491482417,11.508726394067903,1.5626861245741208,0.18077865145889338,B,615.0157000001855,Correct
19,419,20,B,60.2363327902611,33.419846544062814,3.011816639513055,0.5249577219346299,B,542.9946000003838,Correct
19,419,21,B,63.94857549533693,53.66273882141374,3.1974287747668466,0.8429323302643059,A,1385.2295999995476,Incorrect
19,419,22,B,41.33061461384804,21.45789784577513,2.066530730692402,0.33705987116883696,B,499.1482999994332,Correct
19,419,23,B,54.43644801074747,37.88564740572396,2.7218224005373735,0.595106357831578,B,749.1147000000637,Correct
19,419,24,B,44.03541460984654,28.952944230673026,2.2017707304923273,0.45479178447438673,B,1098.3642999999574,Correct
19,419,25,A,30.091779580238573,59.41992555787251,1.5045889790119287,0.9333660080473234,A,600.4775999999765,Correct
19,419,26,B,39.956036520172816,23.732326515596473,1.9978018260086408,0.37278651316996064,B,726.2670000000071,Correct
19,419,27,A,29.13740987178901,59.23913235542167,1.4568704935894505,0.9305261150641306,A,565.5053000000407,Correct
19,419,28,B,86.8413917410408,62.17995815102972,4.34206958705204,0.9767204986389787,B,1178.199300000415,Correct
19,419,29,B,57.332541147567106,42.41156372669405,2.8666270573783557,0.6661992851551868,B,720.5672999998569,Correct
19,419,30,A,15.97113155178884,42.54080836069792,0.7985565775894421,0.6682294551186992,A,506.78659999994125,Correct
19,419,31,B,89.30375543245438,64.61131466107442,4.46518777162272,1.0149121573900495,B,1844.1796000006434,Correct
19,419,32,B,44.999736885521486,32.37528211359613,2.249986844276074,0.5085497422298532,B,778.2521999997698,Correct
19,419,33,B,70.27853127058837,41.236416690709454,3.5139265635294183,0.6477401186795017,B,728.6788000001252,Correct
19,419,34,A,40.36675028685314,64.63390912945613,2.018337514342657,1.0152670704694482,A,523.7158999998428,Correct
19,419,35,B,60.99399945601468,31.104705420868044,3.0496999728007337,0.4885915702113683,B,569.1947999994227,Correct
19,419,36,A,35.432143269141896,50.99959375331067,1.771607163457095,0.8010997453573234,A,571.7180999999982,Correct
19,419,37,A,69.46638606091751,84.08369857486899,3.4733193030458756,1.3207836486473348,A,794.6424000001571,Correct
19,419,38,A,58.91636610712996,75.09906705987812,2.9458183053564984,1.1796533868338017,A,788.3283000001029,Correct
19,419,39,B,80.59309458874148,53.06515351831511,4.029654729437073,0.8335454822737666,B,868.0371000000378,Correct
19,419,40,B,85.30640341306457,68.02050140398744,4.265320170653228,1.0684635375213059,B,1079.1108999992503,Correct
19,419,41,A,14.823777327856753,34.5941769362473,0.7411888663928378,0.5434040605994999,A,605.4608999993434,Correct
19,419,42,B,54.21154800258991,35.307802069681614,2.710577400129495,0.5546136579825712,B,952.8180000006614,Correct
19,419,43,B,35.631767781806495,24.49758146512405,1.7815883890903248,0.38480710980775595,B,748.9694999994754,Correct
19,419,44,A,24.15752349060008,36.0750762808417,1.2078761745300042,0.5666659731079183,A,515.0727999998708,Correct
19,419,45,B,58.707963726976445,32.49101421647491,2.9353981863488223,0.5103676578507955,B,520.6205000004047,Correct
19,419,46,B,51.61502241002258,31.95934397616054,2.5807511205011293,0.5020162012452758,B,531.3851000000795,Correct
19,419,47,A,30.16882397934492,51.74020769640149,1.5084411989672462,0.812733281971125,A,503.50890000026993,Correct
19,419,48,A,25.377517628586116,49.54144047965612,1.2688758814293057,0.7781951272957183,A,533.0708000001323,Correct
19,419,49,A,45.82243932530867,55.56976833968781,2.2911219662654334,0.8728878798882496,A,1798.7360999995872,Correct
19,419,50,A,56.248974899778304,74.7439193336614,2.8124487449889153,1.1740747393956938,A,1457.7691000004052,Correct
19,419,51,B,67.10001934791782,41.99794104270823,3.3550009673958914,0.6597021152283471,B,570.3624999996464,Correct
19,419,52,B,79.04754685794147,58.46962073656658,3.9523773428970737,0.918438654820895,B,1705.2824000002147,Correct
19,419,53,B,71.32092753750918,44.2439654788629,3.566046376875459,0.6949825845703804,B,601.3147999992725,Correct
19,419,54,A,49.97675138774122,59.49603604814046,2.498837569387061,0.9345615488327579,A,760.2048999997351,Correct
19,419,55,A,31.853406040312564,49.48400155033883,1.592670302015628,0.777292878703852,A,481.340000000273,Correct
19,419,56,B,56.832958005391674,43.64136201876767,2.841647900269584,0.6855169115540657,B,559.9714999998469,Correct
19,419,57,A,54.29045737949461,72.74468926352188,2.714522868974731,1.142670906889763,A,759.1492000001381,Correct
19,419,58,A,25.10808727715784,51.266633821337024,1.255404363857892,0.8052944009369521,A,538.209100000131,Correct
19,419,59,B,59.924033931020766,45.14920891048586,2.9962016965510383,0.709202115142866,B,521.9591999994009,Correct
19,419,60,A,44.18713150129216,56.84764499894822,2.209356575064608,0.8929607195128815,A,1737.7102999998897,Correct
19,419,61,A,54.73987289253901,70.09148553707959,2.7369936446269505,1.1009944802124223,A,744.3352000000232,Correct
19,419,62,A,12.68414083901951,34.20723825614458,0.6342070419509754,0.5373260420254976,A,607.8011999998125,Correct
19,419,63,A,36.79316905531809,65.35126614931288,1.8396584527659043,1.0265352881873633,A,1331.1247999999978,Correct
19,419,64,B,67.94835734503604,51.402533401673345,3.397417867251802,0.8074291065530046,B,810.6219000001147,Correct
19,419,65,B,33.71093313370097,17.91031015776401,1.6855466566850483,0.2813344940757303,B,620.2760000005583,Correct
19,419,66,B,68.04854419918628,45.442929199844656,3.402427209959314,0.7138158626591653,B,988.3074999997916,Correct
19,419,67,A,65.8788776911878,82.51381935955295,3.2939438845593894,1.2961240435980341,A,743.5992999999144,Correct
19,419,68,A,51.22299839604132,76.69589584631608,2.561149919802066,1.2047363147563726,A,641.8632000004436,Correct
19,419,69,B,59.697914610935236,43.007866632790154,2.9848957305467616,0.6755659893007157,B,576.8124999995052,Correct
19,419,70,A,30.416951940796018,53.50149057279606,1.520847597039801,0.8403994486979982,A,853.2069000002593,Correct
19,419,71,A,28.915392080756945,54.24818398344024,1.4457696040378472,0.8521284813648167,A,662.0309999998426,Correct
19,419,72,A,26.106123986038238,50.031997583907334,1.305306199301912,0.7859007802701279,A,557.523399999809,Correct
19,419,73,B,71.28131720932362,61.565646304600975,3.564065860466181,0.9670709107202101,B,1657.410799999525,Correct
19,419,74,A,30.749743152486154,54.31304001225848,1.5374871576243079,0.8531472374831988,A,413.5859999996683,Correct
19,419,75,A,42.15140574387348,50.401682107737116,2.107570287193674,0.7917077711911753,B,734.4368999993094,Incorrect
19,419,76,B,51.84876727126536,27.392762993199234,2.5924383635632684,0.43028451490480535,B,597.8712000005544,Correct
19,419,77,B,70.25937154891436,58.957858957183916,3.512968577445718,0.9261078828563609,A,1423.2902000003378,Incorrect
19,419,78,B,44.3037723377236,31.79323175120665,2.2151886168861803,0.4994069165173428,B,705.4980000002615,Correct
19,419,79,B,43.75991275682594,28.97150822809759,2.187995637841297,0.45508338706403817,B,463.054199999533,Correct
19,419,80,A,13.537274964961732,36.198094802209965,0.6768637482480867,0.5685983435228485,A,484.30829999961134,Correct
19,419,81,B,64.46191405243839,32.99238011325354,3.223095702621919,0.5182430949411965,B,719.617499999913,Correct
19,419,82,B,55.52327466490328,36.7753707975446,2.776163733245164,0.5776661736530337,B,642.1362999999474,Correct
19,419,83,B,61.11740593218325,42.64677068873355,3.0558702966091627,0.6698939074752691,B,727.3774000004778,Correct
19,419,84,B,63.361248657458134,39.816862502137226,3.168062432872907,0.6254418136285461,B,520.2696000005744,Correct
19,419,85,A,41.969411199830375,66.98947628245189,2.0984705599915188,1.0522682327838928,A,739.2503000000943,Correct
19,419,86,B,68.03213225480656,49.64931500237328,3.401606612740328,0.7798896163361069,B,664.2529999999169,Correct
19,419,87,A,54.71421965887473,67.54198319541412,2.7357109829437367,1.0609469910779912,A,809.117800000422,Correct
19,419,88,B,41.52345038103377,27.54173020010795,2.0761725190516884,0.43262448631905637,B,512.8516000004311,Correct
19,419,89,A,69.29742096077428,88.691338643943,3.464871048038714,1.3931602896042794,A,809.4210999997813,Correct
19,419,90,A,60.09122922005915,83.43989237762428,3.004561461002958,1.310670764549337,B,1259.108400000514,Incorrect
19,419,91,A,48.53078060509404,67.17036579826032,2.426539030254702,1.0551096386537688,A,1436.7873999999574,Correct
19,419,92,A,54.66483120215858,63.17354272641553,2.733241560107929,0.9923276886527398,B,2333.338100000219,Incorrect
19,419,93,A,16.733029597775698,33.5083368972477,0.8366514798887849,0.526347725152026,A,621.6132999998081,Correct
19,419,94,B,35.74453554414467,20.22117358498319,1.7872267772072334,0.31763345190773584,B,604.2808000001969,Correct
19,419,95,B,38.85048722505274,19.003454143584882,1.942524361252637,0.29850555965158393,B,1051.481800000147,Correct
19,419,96,B,43.27120775806739,22.344718757143657,2.1635603879033694,0.3509900214698628,B,2007.897899999989,Correct
19,419,97,A,49.228334678024126,57.01503070479028,2.4614167339012063,0.8955900080318281,B,704.2285999996238,Incorrect
19,419,98,A,33.72790718500252,42.9247781326543,1.6863953592501262,0.6742608381925929,A,607.6577000003454,Correct
19,419,99,A,31.58732384334486,64.69613911428206,1.579366192167243,1.016244576785259,A,1289.6184000001085,Correct
19,419,100,B,56.26402458529371,32.53055656585039,2.8132012292646857,0.5109887876223139,B,1701.5153000002101,Correct
19,419,101,A,15.370649528316612,32.06777912203588,0.7685324764158307,0.5037194965336403,A,501.27299999985553,Correct
19,419,102,A,32.71571609077148,60.611604775045706,1.635785804538574,0.952084861417858,B,1458.2813999995778,Incorrect
19,419,103,B,81.86798386070221,58.26651261972323,4.09339919303511,0.9152482399820973,B,723.3673000000636,Correct
19,419,104,A,60.1784418774081,78.94305597792737,3.008922093870405,1.240034623560922,A,1103.8017999999283,Correct
19,419,105,B,55.881041600348524,35.94376421081801,2.794052080017426,0.5646033279353481,B,760.3831999995236,Correct
19,419,106,A,58.28044914526596,67.32088141060163,2.914022457263298,1.0574739323636788,A,1680.0915000003442,Correct
19,419,107,B,59.26266222461811,37.854840312235766,2.9631331112309054,0.5946224411386731,B,526.7927999993844,Correct
19,419,108,B,35.01698747268588,10.930865857612446,1.7508493736342938,0.17170163937825375,B,577.8132000004916,Correct
19,419,109,A,27.857434318051652,39.718953229904436,1.3928717159025825,0.6239038583767218,A,1736.4418999995905,Correct
19,419,110,B,58.96133731030529,39.31717481487476,2.9480668655152646,0.617592737791581,B,628.8825000001452,Correct
19,419,111,A,27.37022246722803,48.67775987871207,1.3685111233614016,0.7646284641408492,A,1183.668700000453,Correct
19,419,112,B,65.96504441769743,46.00207508188374,3.298252220884871,0.7225989056356601,B,561.6008000006332,Correct
19,419,113,A,24.955717901168356,53.88007337023503,1.2477858950584177,0.8463462133740471,A,603.291899999931,Correct
19,419,114,B,57.03999305524253,41.869473349165375,2.8519996527621263,0.6576841494170579,B,499.0171999997983,Correct
19,419,115,B,77.29398010496719,51.755188027840134,3.86469900524836,0.812968592467105,B,454.95000000028085,Correct
19,419,116,A,45.797140722112374,68.05836533752336,2.2898570361056185,1.0690583027984681,A,965.286599999672,Correct
19,419,117,A,45.015371862111756,62.4605843782763,2.2507685931055876,0.9811285651085911,A,1349.584400000822,Correct
19,419,118,A,51.55659425949137,64.74061621204143,2.5778297129745686,1.0169432214031282,B,654.9840000006952,Incorrect
19,419,119,B,81.80473353727594,55.94555748214971,4.090236676863797,0.878790761934535,A,749.9023999998826,Incorrect
19,419,120,B,58.000930390280836,36.64781629402812,2.9000465195140417,0.5756625521971352,B,469.9432999996134,Correct
19,419,121,A,58.247846272377785,73.83565445065966,2.912392313618889,1.1598077479759346,A,1102.8341999999611,Correct
19,419,122,B,41.92713019616208,22.44262866611599,2.096356509808104,0.35252798672356844,B,687.3170999997456,Correct
19,419,123,B,57.05364750725664,45.455184240984025,2.852682375362832,0.7140083643952297,B,1460.5695000000196,Correct
19,419,124,B,65.88981762673778,34.54253646784,3.2944908813368894,0.5425928940186183,B,762.365999999929,Correct
19,419,125,B,57.674363853951064,43.87246676041194,2.883718192697553,0.6891470963468627,B,536.759699999493,Correct
19,419,126,A,59.56867357984833,72.74261857197135,2.9784336789924164,1.1426383805429483,A,631.1167000003479,Correct
19,419,127,B,37.31152341790853,23.260233722765836,1.8655761708954264,0.3653708969211136,B,522.7124999992157,Correct
19,419,128,B,76.77274385180368,54.98753466839294,3.838637192590184,0.8637421747661868,A,757.8097999994498,Incorrect
19,419,129,A,25.05668146891747,35.734768196900376,1.2528340734458736,0.561320426225582,A,599.7326999995494,Correct
19,419,130,A,54.283385945260896,63.64204695887854,2.714169297263045,0.9996869359271472,B,2185.9337000005326,Incorrect
19,419,131,B,62.878005292185335,40.70910062339097,3.1439002646092664,0.6394570572634636,B,1451.6470999997182,Correct
19,419,132,B,84.17891192019019,57.53569467983053,4.20894559600951,0.9037685786267048,B,1454.9708999993527,Correct
19,419,133,B,66.01559728446523,39.48498869877561,3.3007798642232613,0.6202287521157472,B,522.0392999999603,Correct
19,419,134,A,23.299326545922295,39.94420104348244,1.1649663272961148,0.6274420427585908,A,505.7324999997945,Correct
19,419,135,B,86.91529210666022,61.082195754410606,4.345764605333011,0.9594768872359499,A,1831.5873999999894,Incorrect
19,419,136,B,55.351664561481755,37.83498906115973,2.7675832280740877,0.594310618415948,B,594.348099999479,Correct
19,419,137,A,19.35960650503814,36.15055223370483,0.967980325251907,0.5678515466031059,A,616.7624999998225,Correct
19,419,138,B,60.04359275075975,35.88567881430419,3.0021796375379877,0.5636909246605047,B,588.2959999999002,Correct
19,419,139,B,53.72606335362617,28.429506781745722,2.6863031676813085,0.4465696482535678,B,609.8572000000786,Correct
19,419,140,A,59.363513685192146,85.56580667139161,2.9681756842596076,1.344064548186642,A,607.9239999999118,Correct
19,419,141,A,58.476659459735735,77.48051780816928,2.9238329729867867,1.2170611277123888,A,1404.3706000002203,Correct
19,419,142,B,87.06479793287777,60.01804518845673,4.353239896643888,0.9427612492343794,B,636.16760000059,Correct
19,419,143,B,42.668625961540855,26.06200478134123,2.1334312980770425,0.4093810137944183,B,882.7572999998665,Correct
19,419,144,A,30.618225132926252,46.194617443712026,1.5309112566463126,0.7256233539827829,A,609.9550999997518,Correct
19,419,145,A,33.82127484364598,50.17105365796563,1.6910637421822992,0.7880850679736208,A,596.2007999996786,Correct
19,419,146,B,51.37624753950917,21.464987259282044,2.5688123769754587,0.33717123141579486,B,539.9283999995532,Correct
19,419,147,B,42.91310255043879,28.062891428834895,2.1456551275219398,0.44081086775657846,B,505.7283999994979,Correct
19,419,148,A,47.55656931277593,70.89980548520022,2.3778284656387965,1.1136915402662517,B,463.8363999993089,Incorrect
19,419,149,B,75.76295746736533,61.22743751907261,3.788147873368266,0.9617583395402328,A,686.9870000000446,Incorrect
19,419,150,A,57.69968076907397,79.21534819407314,2.8849840384536987,1.2443117796902885,A,678.5063999996055,Correct
19,419,151,A,39.857814966955544,51.08515969834757,1.9928907483477771,0.8024438120789505,A,1218.6126999995395,Correct
19,419,152,A,35.61004513098911,55.09776109512749,1.7805022565494553,0.8654736074284901,A,543.328499999916,Correct
19,419,153,A,17.33074249398707,38.76613793118885,0.8665371246993536,0.6089370706633576,A,642.0807000004061,Correct
19,419,154,B,47.42235709394862,39.38552366451045,2.371117854697431,0.6186663590110649,B,589.7374000005584,Correct
19,419,155,A,29.693460714136883,39.73112397965745,1.484673035706844,0.6240950360667855,A,657.586899999842,Correct
19,419,156,B,87.73134923623627,61.35902583034374,4.386567461811813,0.9638253239001713,B,579.2810000002646,Correct
19,419,157,A,52.43828064411536,74.38048471080904,2.6219140322057677,1.168365921689628,A,766.3204999998925,Correct
19,419,158,A,30.107617795269704,56.13232798461051,1.5053808897634853,0.8817245461267258,A,625.0933999999688,Correct
19,419,159,A,13.661486542836286,34.92411758496196,0.6830743271418143,0.5485867561901131,A,538.2448000000295,Correct
19,419,160,A,14.219985153112678,41.88005412088559,0.7109992576556339,0.6578503517905856,A,615.7569999995758,Correct
19,419,161,A,47.386214531836934,76.29977791988144,2.3693107265918467,1.1985141089181612,A,1146.8168999999762,Correct
19,419,162,B,39.3951208436158,24.668559412476192,1.96975604218079,0.38749282512439276,B,591.7827999992369,Correct
19,419,163,B,56.49431979616564,37.49931519042274,2.8247159898082823,0.5890378655844012,B,449.20120000006136,Correct
19,419,164,A,57.78090780253816,74.2038885913616,2.889045390126908,1.1655919563320856,A,592.928999999458,Correct
19,419,165,B,45.50591241816524,34.39577692965421,2.2752956209082615,0.5402876005835748,B,460.5613000003359,Correct
19,419,166,B,85.34950984839674,65.43882143617664,4.267475492419837,1.027910603417334,A,761.5395000002536,Incorrect
19,419,167,A,48.45676158373983,75.85889808329401,2.4228380791869912,1.1915887846394664,A,750.1800000000003,Correct
19,419,168,B,74.6524844332779,50.86976479224297,3.732624221663895,0.799060396805756,B,608.7055999996664,Correct
19,419,169,B,48.41281526131903,29.85757911516366,2.4206407630659514,0.46900175601087085,B,609.8386000003302,Correct
19,419,170,A,41.55089474982055,52.77692614234327,2.0775447374910274,0.8290180172391837,A,927.082999999584,Correct
19,419,171,B,53.473554508264684,28.30537806854366,2.673677725413234,0.4446198389860921,B,666.7380000008052,Correct
19,419,172,A,15.114680237753113,37.18461403793263,0.7557340118876555,0.5840945514407052,A,444.6425999994972,Correct
19,419,173,B,54.39397772608677,46.631092626040804,2.7196988863043385,0.7324794901141748,B,644.1357999992761,Correct
19,419,174,A,43.43143959085817,64.83511105471423,2.1715719795429083,1.0184275429208431,A,683.3072999997967,Correct
19,419,175,B,85.39941648909604,69.6532111395602,4.269970824454802,1.0941100820749052,B,1092.1609000006356,Correct
19,419,176,A,27.41787157427664,58.65405504973738,1.3708935787138319,0.9213357422375311,A,541.849799999909,Correct
19,419,177,B,66.11843628925863,39.72960085180533,3.3059218144629314,0.6240711108304321,B,472.060799999781,Correct
19,419,178,A,62.689595020718706,80.22535425010136,3.1344797510359355,1.2601769177187856,A,750.7068999993862,Correct
19,419,179,A,66.85267715926456,84.2987014436897,3.3426338579632278,1.3241609058132744,A,723.9706999998816,Correct
19,419,180,A,50.25801066553133,72.48526278038908,2.5129005332765666,1.13859584522198,A,1347.7020999998786,Correct
19,419,181,B,74.89596402086387,59.82676620764158,3.7447982010431935,0.9397566460298044,B,784.677599999668,Correct
19,419,182,B,53.10284431841208,33.17592367811884,2.6551422159206037,0.521126190516169,B,1258.926800000154,Correct
19,419,183,A,15.723770603509717,37.636391075453616,0.7861885301754858,0.5911910485513876,A,553.8208000007216,Correct
19,419,184,A,16.938453725611563,42.18394070722263,0.8469226862805782,0.6626237911263901,A,512.7486999999746,Correct
19,419,185,A,22.611150488868073,46.66652377559818,1.1305575244434036,0.7330360413099632,A,489.8838999997679,Correct
19,419,186,B,68.23065397815826,44.6068538003516,3.411532698907913,0.7006828209946927,B,603.8158000001204,Correct
19,419,187,B,53.07814870724761,28.545051797284202,2.65390743536238,0.44838462511344085,B,531.261899999663,Correct
19,419,188,A,35.41737476127458,54.07684252100031,1.770868738063729,0.8494370559665335,A,550.0751999998101,Correct
19,419,189,B,74.06597896781831,53.63587920142773,3.7032989483909153,0.8425104203401746,B,557.7997000000323,Correct
19,419,190,B,76.34248634340153,48.83947247184499,3.817124317170077,0.7671686396137458,B,592.5886000004539,Correct
19,419,191,A,25.127372239991022,41.32468561163414,1.256368611999551,0.6491266436470882,A,562.8074999995079,Correct
19,419,192,A,39.33573986905643,61.2643263598234,1.9667869934528215,0.9623377880957434,A,705.1560999998401,Correct
19,419,193,A,27.69993749371283,55.27095450957964,1.3849968746856416,0.8681941232209551,A,805.3171000001385,Correct
19,419,194,B,71.52455677210347,59.01954071160015,3.576227838605173,0.9270767775890336,B,648.6544999997932,Correct
19,419,195,A,52.3455042685128,79.31653048127683,2.61727521342564,1.2459011473410508,A,668.0106999992859,Correct
19,419,196,B,67.29650764490641,50.282515672009026,3.3648253822453205,0.7898359091959861,B,811.9888999999603,Correct
19,419,197,A,38.676347372731364,71.28359719657988,1.933817368636568,1.1197201263711465,A,553.5164000002624,Correct
19,419,198,A,17.80866375100389,48.18015253358471,0.8904331875501945,0.756812066241727,A,980.0336999996944,Correct
19,419,199,A,43.42994395561028,60.51064424859579,2.1714971977805138,0.9504989771768699,A,991.6540000003806,Correct
19,419,200,B,62.85607031404507,42.35144264609737,3.142803515702253,0.6652549054295448,B,575.6506000006993,Correct
19,419,201,B,30.180115906477766,13.926250014665541,1.5090057953238882,0.21875302369064006,A,810.4533999994601,Incorrect
19,419,202,B,78.26401977111213,58.44195926717589,3.913200988555607,0.9180041494757684,B,1289.6288000001732,Correct
19,419,203,B,79.83707169790439,52.26122299596926,3.9918535848952192,0.820917371158775,B,702.9155999998693,Correct
19,419,204,B,71.98960025526468,50.16305229214166,3.599480012763234,0.7879593828131642,B,506.78309999966586,Correct
19,419,205,A,28.488903869189677,46.541942488426045,1.4244451934594837,0.7310791230271897,A,503.7879999999859,Correct
19,419,206,B,40.12780538911744,12.7921155317168,2.006390269455872,0.20093808089156692,B,640.6129000006331,Correct
19,419,207,A,58.75983352628593,75.03420817374986,2.937991676314297,1.1786345858328988,A,788.7682999999015,Correct
19,419,208,A,42.64843019050737,72.06288938925542,2.1324215095253685,1.1319612195086934,A,1257.4907999996867,Correct
19,419,209,B,78.15222893052052,59.214277703131124,3.9076114465260265,0.9301356990989131,B,541.6365999999471,Correct
19,419,210,A,45.53766711131402,64.32743946209774,2.276883355565701,1.0104530561918421,A,681.7772999993394,Correct
19,419,211,B,73.51784694977572,62.566085753209265,3.675892347488786,0.9827857768307562,B,733.9468000000124,Correct
19,419,212,A,27.286516450211153,39.622813138851214,1.3643258225105575,0.6223936933578805,A,486.51759999938804,Correct
19,419,213,A,51.15063883461494,73.76408410974115,2.5575319417307467,1.1586835236897122,A,517.3997000001691,Correct
19,419,214,A,31.483665051569055,59.717330145134454,1.574183252578453,0.9380376283797535,B,451.24119999945833,Incorrect
19,419,215,B,44.19106960120425,15.56591832548705,2.2095534800602126,0.2445088732886443,B,574.0198999992572,Correct
19,419,216,B,45.57917008511057,32.971418706919536,2.2789585042555287,0.5179138339404574,B,528.516800000034,Correct
19,419,217,B,75.07215630896843,43.19068629316357,3.7536078154484214,0.6784377138105203,B,589.2096999996284,Correct
19,419,218,B,70.31769740640343,49.58215083648659,3.5158848703201717,0.7788346040854364,B,659.2865000002348,Correct
19,419,219,A,46.13084328876259,66.38571052105142,2.3065421644381296,1.0427843023813688,A,550.3385000001799,Correct
19,419,220,B,43.2814201258457,23.178610537986142,2.1640710062922848,0.3640887629327811,B,639.1842000002725,Correct
19,419,221,B,53.47333021249067,30.448066382799993,2.6736665106245336,0.478277108321094,B,1225.967800000035,Correct
19,419,222,B,32.96807136535673,12.390618847301056,1.6484035682678364,0.19463138572056116,B,503.8230999998632,Correct
19,419,223,A,37.533660930548606,59.695566112571804,1.8766830465274302,0.9376957597556969,A,512.0501000001241,Correct
19,419,224,B,53.36072755193083,45.59788178275538,2.6680363775965414,0.7162498521398009,B,690.3029999994033,Correct
19,419,225,B,48.127089065329876,30.972115402051514,2.4063544532664936,0.4865088510661016,B,481.21099999934813,Correct
19,419,226,A,40.66110353505431,63.36654936422552,2.0330551767527156,0.9953594298299293,A,540.2764999998908,Correct
19,419,227,B,47.093761242996116,38.29769854344412,2.354688062149806,0.6015788419674029,B,1224.4334000006347,Correct
19,419,228,B,58.02309892249069,31.04772757147546,2.9011549461245347,0.4876965642460228,B,449.2860999998811,Correct
19,419,229,A,51.16476918255653,60.40353985971582,2.5582384591278267,0.9488165853705074,A,464.7376000002623,Correct
19,419,230,B,58.52220444110184,48.97161899228132,2.926110222055092,0.769244392302747,B,520.7534000001033,Correct
19,419,231,B,65.36310056236762,51.639402428703036,3.2681550281183807,0.8111498365289018,B,1238.5777999998027,Correct
19,419,232,B,48.63806093780363,34.6230884746082,2.4319030468901817,0.5438582019820928,B,895.9931999997934,Correct
19,419,233,B,68.16018873174148,56.23353132848992,3.408009436587074,0.8833142445349771,B,539.5534000008411,Correct
19,419,234,A,49.15233518018636,73.62128071098275,2.457616759009318,1.1564403731474764,A,556.9725000004837,Correct
19,419,235,B,85.76208545352505,63.153378845700715,4.288104272676253,0.992010955155132,B,581.2723999997615,Correct
19,419,236,A,25.909609345954905,57.749325244185094,1.2954804672977451,0.9071242796844974,A,647.7569999997286,Correct
19,419,237,B,32.934226987217016,16.663803668485492,1.6467113493608507,0.2617544159288833,B,579.3524999999136,Correct
19,419,238,A,42.64137769664108,51.66602211614093,2.132068884832054,0.8115679776013807,A,559.8196999999345,Correct
19,419,239,B,45.79198043183901,23.709128426360877,2.2895990215919504,0.37242211843636136,B,501.6120999998748,Correct
19,419,240,B,65.84833209155475,47.73163256140048,3.292416604577738,0.7497667309937155,B,623.5742000008031,Correct
19,419,241,A,46.512890079570774,75.13107440283011,2.325644503978539,1.1801561570011962,A,962.8852999994706,Correct
19,419,242,A,26.054608899169125,54.95434818551388,1.3027304449584562,0.8632208827121298,A,522.3329999998896,Correct
19,419,243,A,25.67260243187163,39.95961945640187,1.2836301215935817,0.6276842346223794,A,517.9594000001089,Correct
19,419,244,A,22.10636607757319,51.335134123794184,1.1053183038786594,0.8063704011717925,A,484.5823999994536,Correct
19,419,245,A,36.863035269578155,56.59973641584313,1.8431517634789076,0.8890665805956572,B,795.5169000006208,Incorrect
19,419,246,B,65.17119104068121,35.73351591670759,3.2585595520340602,0.5613007554543126,B,562.7110000004905,Correct
19,419,247,A,29.569400968063135,42.30513253662595,1.4784700484031565,0.664527467931033,B,805.1722000000154,Incorrect
19,419,248,A,15.267759555575253,40.05197609662446,0.7633879777787627,0.6291349693345469,A,466.98900000046706,Correct
19,419,249,B,62.10639039114655,36.78494863092223,3.105319519557327,0.5778166219079159,B,567.4433000003773,Correct
19,419,250,A,41.90199287156683,64.31508661297721,2.095099643578342,1.0102590180916022,A,736.291500000334,Correct
19,419,251,B,89.14699623959763,69.18107309476359,4.457349811979881,1.086693755009839,B,773.5443999999916,Correct
19,419,252,A,50.21923024099984,77.90401412106715,2.510961512049992,1.2237133922395003,A,678.4153999997216,Correct
19,419,253,B,82.598812616295,57.0658224214304,4.12994063081475,0.8963878424511271,B,472.04449999935605,Correct
19,419,254,B,56.088445990376066,31.905884131446946,2.8044222995188033,0.5011764559682044,B,510.41220000024623,Correct
19,419,255,A,32.78631171103619,65.72553255241823,1.6393155855518098,1.0324142510997696,A,554.310099999384,Correct
19,419,256,B,42.57500301607122,33.244183260376985,2.128750150803561,0.5221984095269656,B,516.8030999993789,Correct
19,419,257,A,49.12440634350989,74.71478564022348,2.4562203171754944,1.1736171084093114,A,674.8797000000195,Correct
19,419,258,A,59.163833015684666,71.14925206613597,2.9581916507842334,1.1176098379969057,B,496.97160000050644,Incorrect
19,419,259,B,53.98325525202938,24.469427057149804,2.699162762601469,0.38436486140146564,A,364.0243999998347,Incorrect
19,419,260,A,53.10169536672219,71.39474523309262,2.6550847683361094,1.1214660356459933,A,665.5599000005168,Correct
19,419,261,A,34.981949468803066,46.08486071001826,1.7490974734401532,0.7238992992415114,B,528.4901999993963,Incorrect
19,419,262,A,36.07254891528867,66.09344361930636,1.8036274457644337,1.03819338462432,A,532.3546999998143,Correct
19,419,263,B,47.207615821304074,38.21978998028394,2.3603807910652037,0.6003550571190241,B,572.6568999998563,Correct
19,419,264,A,54.979058213696526,68.44271006383273,2.7489529106848263,1.0750955756415657,B,956.383900000219,Incorrect
19,419,265,A,45.48733881905045,76.40278130110458,2.2743669409525227,1.2001320822468888,A,560.2578999996695,Correct
19,419,266,B,46.400484431276624,36.18713596213247,2.3200242215638314,0.568426202465452,B,567.1755999992456,Correct
19,419,267,A,60.58975268717184,86.98522105353454,3.029487634358592,1.3663606571633418,A,533.2588999999643,Correct
19,419,268,A,33.70296949869638,59.332427148364275,1.6851484749348191,0.931991586244764,A,576.3458999999784,Correct
19,419,269,A,39.29129407784207,55.49564277161102,1.9645647038921032,0.8717235181876833,B,729.1609000003518,Incorrect
19,419,270,B,63.37766323345374,55.93645467497194,3.168883161672687,0.8786477753737513,B,1161.203900000146,Correct
19,419,271,B,84.39834538621076,55.35685739568091,4.219917269310538,0.8695434826004447,B,910.1940999998988,Correct
19,419,272,A,44.358595275428556,55.290147089360204,2.217929763771428,0.8684955995591656,A,1597.6499999997031,Correct
19,419,273,B,64.2180542339071,54.03227112748589,3.2109027116953546,0.8487369301544078,B,833.5343999997349,Correct
19,419,274,A,23.431221463641158,54.51940930385368,1.1715610731820578,0.8563888787352086,A,489.84590000054595,Correct
19,419,275,B,67.18149372771992,56.67017331177166,3.3590746863859966,0.890173000769611,B,528.4413999997923,Correct
19,419,276,A,54.194311998089816,81.4752827118717,2.7097155999044906,1.279810748083838,A,449.5618999999351,Correct
19,419,277,B,82.74895049249646,60.47840755487128,4.1374475246248235,0.9499926043759653,B,537.3147000000245,Correct
19,419,278,A,62.568483475979974,85.16993269987432,3.1284241737989986,1.3378461743833112,A,524.6476000002076,Correct
19,419,279,A,36.14553593650159,62.09582652437959,1.8072767968250794,0.9753989621378858,B,660.3772999997091,Incorrect
19,419,280,B,71.08340508087919,42.24460162794501,3.5541702540439593,0.6635766506408972,B,588.1080999997721,Correct
19,419,281,B,62.33967286832761,31.749896540539346,3.116983643416381,0.4987262086199719,B,483.05749999963155,Correct
19,419,282,B,83.18556404177644,66.51190874549675,4.159278202088823,1.0447666194554366,B,609.1313000006267,Correct
19,419,283,A,31.941291796820728,46.880328933420984,1.5970645898410365,0.7363944848755418,A,528.878999999506,Correct
19,419,284,A,66.71712507541521,80.76416634387536,3.3358562537707606,1.2686405582961144,A,2273.996800000532,Correct
19,419,285,B,57.16339940693735,45.25368161945399,2.858169970346868,0.7108431686178405,B,754.0063999995255,Correct
19,419,286,B,52.880809918499715,39.77427742301871,2.6440404959249855,0.6247728887699897,B,506.33509999988746,Correct
19,419,287,B,75.97346998074154,60.698058762127985,3.798673499037077,0.9534428774713143,A,754.0440000002491,Incorrect
19,419,288,B,84.94059153396387,59.93959350479041,4.247029576698194,0.9415289330690401,B,533.0893000000287,Correct
19,419,289,A,58.09055917162847,68.4141368240127,2.9045279585814234,1.0746467482400264,A,1239.8690999998507,Correct
19,419,290,A,25.3846809250812,55.43670144232041,1.2692340462540599,0.8707976699522225,A,552.1632999998474,Correct
19,419,291,A,55.713760171252915,75.575545974212,2.785688008562646,1.1871379001181106,A,578.6641000004238,Correct
19,419,292,A,29.89929757585798,46.69699424158881,1.494964878792899,0.7335146702705013,A,502.5703000001158,Correct
19,419,293,A,46.69895774774826,53.43285476710806,2.334947887387413,0.8393213199833852,B,817.8595999997924,Incorrect
19,419,294,A,28.77933672039066,54.194926344406895,1.438966836019533,0.8512919123271432,A,587.5562999999602,Correct
19,419,295,A,56.27210746505762,72.71426446110856,2.8136053732528814,1.14219299521102,A,513.6224000007132,Correct
19,419,296,A,57.65506752835137,67.44495753205952,2.8827533764175683,1.0594229155219688,A,620.4342999999426,Correct
19,419,297,B,86.40978452424025,63.342481125515846,4.320489226212013,0.9949813668203537,A,780.6968000004417,Incorrect
19,419,298,A,30.383267201618445,43.75587811249423,1.5191633600809222,0.6873157261479115,A,504.30989999949816,Correct
19,419,299,B,58.325256122512165,30.65790567714602,2.916262806125608,0.48157325624885366,B,423.7892000001011,Correct
19,419,300,B,37.71534157536708,15.44222460750223,1.8857670787683538,0.24256589691006264,B,560.9156000000439,Correct
19,419,301,B,63.61414102997499,32.83426602947247,3.180707051498749,0.5157594447210181,B,527.505399999427,Correct
19,419,302,B,62.95635606645574,39.15734148192532,3.147817803322787,0.6150820816686172,B,488.12439999983326,Correct
19,419,303,A,42.55569384474638,53.63050525544177,2.1277846922373187,0.8424260065940233,A,733.385399999861,Correct
19,419,304,B,54.352912594848775,30.3097472656005,2.7176456297424387,0.4761043967088692,B,484.8405000002458,Correct
19,419,305,A,52.235977847601504,76.36423341279468,2.611798892380075,1.1995265734332599,A,514.6319999994375,Correct
19,419,306,B,68.04672179457087,58.593056371762444,3.4023360897285437,0.9203775772445076,B,482.11059999994177,Correct
19,419,307,A,41.22754407674445,51.550731186071914,2.0613772038372224,0.8097569919067289,A,754.9417999998695,Correct
19,419,308,A,59.9520890271144,79.01529005680632,2.9976044513557203,1.2411692738186468,A,2508.0846999999267,Correct
19,419,309,B,57.71381948435018,38.611462041939504,2.885690974217509,0.6065074274765915,B,553.9026999995258,Correct
19,419,310,B,55.68435270759295,34.47042154465096,2.7842176353796475,0.5414601154540939,B,507.5817000006282,Correct
19,419,311,A,36.45152202519863,55.122542555045214,1.8225761012599315,0.8658628736906039,A,1989.7915000001376,Correct
19,419,312,B,62.9243383945601,44.483776434408675,3.146216919728005,0.6987495262513452,B,768.0589000001419,Correct
19,419,313,B,61.81495942564624,43.98382022509883,3.090747971282312,0.6908962324799232,B,909.5541999995476,Correct
19,419,314,A,66.16965019152428,78.15539498518095,3.3084825095762143,1.2276620736192652,A,686.4206000000195,Correct
19,419,315,A,28.792051913626306,55.171555806522,1.4396025956813154,0.8666327720444441,A,633.7575999996261,Correct
19,419,316,B,30.952166720242342,13.863918486631146,1.5476083360121171,0.21777392233784068,B,647.5555999995777,Correct
19,419,317,B,56.07432379561394,40.216741400099146,2.803716189780697,0.6317230966693599,A,661.0645999999178,Incorrect
19,419,318,B,89.17271939107371,65.19314942569356,4.4586359695536855,1.0240515965007029,A,827.1758000000773,Incorrect
19,419,319,A,66.43036239123032,83.97294692821885,3.321518119561516,1.3190439658498896,A,1965.3965000006792,Correct
19,419,320,A,35.875292312676365,65.08217204572912,1.7937646156338183,1.022308367892648,A,500.73520000023564,Correct
19,419,321,B,71.88069804731586,49.52740135505337,3.594034902365793,0.7779746012421441,B,514.9375000000873,Correct
19,419,322,B,49.271598192653315,22.843607637711457,2.4635799096326654,0.35882654968061,B,401.03819999967527,Correct
19,419,323,B,84.62499106157614,55.15480782200262,4.231249553078807,0.8663696953188013,B,422.3176000004969,Correct
19,419,324,A,62.94923205697398,76.53654264725974,3.1474616028486992,1.2022332005589655,A,455.6996999999683,Correct
19,419,325,B,37.3603373669456,15.5090527259262,1.86801686834728,0.2436156305395325,B,612.6532999996925,Correct
19,419,326,A,43.97688074186728,57.28445860750489,2.1988440370933637,0.8998221716310297,A,827.8424999998606,Correct
19,419,327,A,31.19533772149899,52.79865807003174,1.5597668860749496,0.8293593815610559,A,597.8839999997945,Correct
19,419,328,A,31.976335703068465,60.03403939857584,1.5988167851534232,0.9430124856994303,A,533.0112999999983,Correct
19,419,329,A,29.373958583332225,54.621992063484676,1.4686979291666113,0.8580002449554172,A,466.53040000001056,Correct
19,419,330,A,27.036220613706885,51.339432333710434,1.3518110306853441,0.806437917295275,A,510.4293000003963,Correct
19,419,331,B,42.69870149491264,30.416726576164802,2.1349350747456324,0.4777848237896437,B,501.06400000004214,Correct
19,419,332,B,75.50647269521376,43.25012216980873,3.7753236347606878,0.6793713303776608,B,664.6709999995437,Correct
19,419,333,A,15.602049435611491,31.029679227383824,0.7801024717805746,0.4874130615199841,A,392.74589999968157,Correct
19,419,334,B,73.46022296200219,62.217464658086314,3.6730111481001098,0.9773096494741327,B,493.6569999999847,Correct
19,419,335,B,65.66973453830516,44.84319973505696,3.2834867269152586,0.7043953342555735,B,504.9995999997918,Correct
19,419,336,B,67.50389223986645,45.0934695888799,3.3751946119933223,0.7083265639264992,B,547.745599999871,Correct
19,419,337,B,58.27171382860862,50.87279615140251,2.913585691430431,0.7991080132840861,B,510.2470000001631,Correct
19,419,338,A,36.04705615652337,45.227038235902256,1.8023528078261684,0.7104246553276761,B,761.3227000001643,Incorrect
19,419,339,A,56.61261815101568,71.4139949374254,2.830630907550784,1.1217684092945714,A,792.5226999996084,Correct
19,419,340,A,26.02443067804382,58.20410677029533,1.3012215339021909,0.9142679711915788,A,775.9691999999632,Correct
19,419,341,A,58.995670982862556,83.24067129451188,2.949783549143128,1.3075414070936067,A,517.25179999994,Correct
19,419,342,A,36.60895078411767,60.67095760906173,1.8304475392058834,0.9530171735544305,A,2457.6717999998436,Correct
19,419,343,B,70.98993615722722,48.61681862356422,3.5494968078613613,0.7636712011434839,B,1069.0117000003738,Correct
19,419,344,A,24.762641085806145,51.00856003845756,1.2381320542903071,0.8012405874350609,B,2748.7340999996377,Incorrect
19,419,345,B,67.49864218301563,43.743823225260606,3.374932109150782,0.6871263684220464,A,2008.1060000002253,Incorrect
19,419,346,B,55.71981648018825,33.684482145091,2.7859908240094127,0.5291146082349723,B,759.5369000000574,Correct
19,419,347,A,35.74921696910323,54.76452540309917,1.7874608484551615,0.8602391534185397,A,507.4433999998291,Correct
19,419,348,B,68.39117235030312,42.23583286513922,3.419558617515156,0.6634389112368386,B,1016.1407999994481,Correct
19,419,349,B,54.13823382638459,34.05715986362157,2.7069116913192293,0.5349686161484334,B,881.5616000001683,Correct
19,419,350,B,59.607030405621245,30.51555021235538,2.980351520281062,0.4793371418369305,B,537.5711999995474,Correct
19,419,351,A,36.57563810985545,52.264148126409644,1.8287819054927723,0.8209633190002863,A,588.9313999996375,Correct
19,419,352,B,87.25401702593277,66.56450969727582,4.362700851296638,1.0455928732738413,A,683.5209000000759,Incorrect
19,419,353,A,35.83736471233004,43.48552352406875,1.791868235616502,0.6830690062036028,A,531.8290000004708,Correct
19,419,354,A,49.83227557146482,64.2215378338201,2.491613778573241,1.0087895573048409,A,729.9093999999968,Correct
19,419,355,A,19.66421329951362,43.86035334651895,0.983210664975681,0.6889568192863821,A,530.4671000003509,Correct
19,419,356,B,55.361121272715245,24.621775184704326,2.768056063635762,0.3867579401930329,B,576.5598999996655,Correct
19,419,357,A,18.549481380541714,38.48672719098841,0.9274740690270857,0.6045480970196186,A,441.13070000003063,Correct
19,419,358,A,10.85495825912162,30.827684633461676,0.5427479129560809,0.4842401378583307,A,476.468400000158,Correct
19,419,359,A,29.64809888518203,62.43184241443516,1.4824049442591016,0.9806770873963258,A,513.1585999997696,Correct
19,419,360,A,45.43213812901367,65.87000975776621,2.2716069064506836,1.0346836937344317,A,732.7713999993648,Correct
19,419,361,B,39.707972456433936,29.022403859576645,1.9853986228216969,0.4558828537738102,B,581.8939999999202,Correct
19,419,362,B,81.17742566072931,52.047756197000695,4.058871283036466,0.8175642425216499,B,1410.0644000000102,Correct
19,419,363,B,87.17505487006238,66.93306890788713,4.358752743503119,1.051382187816188,A,1264.6975999996357,Incorrect
19,419,364,B,46.030939048580656,29.66736727596618,2.3015469524290326,0.4660139154276279,B,860.3126999996675,Correct
19,419,365,A,55.010896427387884,79.0130866987567,2.7505448213693944,1.2411346635513372,A,1116.3673999999446,Correct
19,419,366,A,54.29853471414394,67.99197128428295,2.714926735707197,1.0680153874489575,A,1178.9842999996836,Correct
19,419,367,A,34.110539859304346,53.71057473988723,1.7055269929652173,0.8436837351145761,A,625.3403999999136,Correct
19,419,368,A,42.70219979997349,61.009787427163026,2.1351099899986745,0.9583394998912513,A,881.0641999998552,Correct
19,419,369,B,48.49401089772687,36.6731798680448,2.4247005448863432,0.5760609622861331,B,570.7602000002225,Correct
19,419,370,B,71.82404285376624,59.23107860038107,3.591202142688312,0.9303996069757837,B,477.5179999996908,Correct
19,419,371,B,84.13416660594665,61.30805750871505,4.2067083302973325,0.9630247153761988,B,460.97809999992023,Correct
19,419,372,B,72.51757082175885,47.56616053062025,3.6258785410879426,0.7471675024123468,B,454.65059999878576,Correct
19,419,373,A,52.679982862805005,82.13898176816532,2.63399914314025,1.2902361084810707,A,709.3140999986645,Correct
19,419,374,B,73.88931917178493,45.61224448691635,3.6944659585892463,0.7164754609691897,B,553.7144999998418,Correct
19,419,375,B,73.49715329213203,62.86397885968567,3.674857664606601,0.9874650708050629,B,607.2769999991579,Correct
19,419,376,B,71.9001978419984,49.88625439043666,3.5950098920999203,0.7836114515405369,B,629.6375000001717,Correct
19,419,377,B,60.04171571368359,31.445552904785583,3.002085785684179,0.49394558996871785,B,487.83929999990505,Correct
19,419,378,B,57.41745509586013,43.525694279988976,2.870872754793006,0.6837000069620434,B,498.63730000106443,Correct
19,419,379,A,21.882116384661213,43.520851009811224,1.0941058192330606,0.6836239290519944,A,481.81560000011814,Correct
19,419,380,B,33.30609592957575,19.634241950630365,1.6653047964787873,0.3084139513545244,B,1649.3044999988342,Correct
19,419,381,A,56.0022070381856,66.82887210101457,2.80011035190928,1.0497454682011962,A,484.05670000101964,Correct
19,419,382,A,48.84183196112894,77.64639599175412,2.442091598056447,1.2196667361270934,A,519.9377000008099,Correct
19,419,383,A,14.541083698574354,42.86233646469617,0.7270541849287178,0.6732800067659169,A,467.5144000011642,Correct
19,419,384,B,34.829925256586954,23.950275502898094,1.7414962628293478,0.3762100478567812,B,532.3864999991201,Correct
19,419,385,B,62.249581753239156,37.352030168019354,3.112479087661958,0.5867243178625695,B,623.7086000001,Correct
19,419,386,B,73.75271035972335,47.36217323466328,3.6876355179861675,0.7439632774603265,B,717.2280000013416,Correct
19,419,387,B,57.236343581644824,50.19106421255822,2.8618171790822413,0.7883993930301323,B,483.60649999995076,Correct
19,419,388,B,58.67248060310764,44.80693480270704,2.9336240301553818,0.7038256860303064,B,684.7371000003477,Correct
19,419,389,B,66.63997071347794,55.6755154007059,3.3319985356738973,0.8745489508384152,A,683.6416999994981,Incorrect
19,419,390,A,26.753027161602763,45.255078370585665,1.3376513580801381,0.7108651087333112,A,578.005999999732,Correct
19,419,391,B,72.2016324349375,55.411343861908406,3.6100816217468745,0.8703993540105466,B,699.4285999990097,Correct
19,419,392,A,57.34969532156651,82.5692976927264,2.8674847660783254,1.2969954952176896,A,547.9715999990731,Correct
19,419,393,A,31.644449512231333,56.164973035263905,1.5822224756115668,0.8822373333832696,A,1115.1645999998436,Correct
19,419,394,A,19.372808849740117,37.28114680713954,0.968640442487006,0.5856108846335607,A,522.101799999291,Correct
19,419,395,B,44.81497075330636,27.021906743725665,2.240748537665318,0.4244591185603852,B,688.1929999999556,Correct
19,419,396,A,41.72112142863694,52.06896945519291,2.086056071431847,0.8178974596021269,B,1496.1908000004769,Incorrect
19,419,397,A,23.35693741331339,55.528764917707306,1.1678468706656695,0.8722437996419194,A,494.5528000007471,Correct
19,419,398,A,59.597272743669706,72.90824429357805,2.979863637183485,1.145240023294174,A,782.592300000033,Correct
19,419,399,B,65.5018549958417,43.64074966742049,3.275092749792085,0.6855072927615973,B,551.9815999996354,Correct
19,419,400,A,54.33431870178139,76.62080655901433,2.7167159350890695,1.2035568149896203,A,750.04429999899,Correct
19,419,401,A,59.12795647067391,72.2178344774663,2.9563978235336954,1.134395091262859,A,565.8063999999285,Correct
19,419,402,A,51.580564098622034,66.41862594878114,2.579028204931102,1.0433013367110962,A,525.0199000001885,Correct
19,419,403,B,77.06548992985088,47.14162742073067,3.853274496492544,0.7404989519161731,B,512.5927000008232,Correct
19,419,404,B,73.56379981739917,48.17687649332599,3.6781899908699587,0.7567606063216786,B,493.8707000001159,Correct
19,419,405,A,32.471491878954104,63.60171674124225,1.6235745939477053,0.999053430349928,A,451.67209999999614,Correct
19,419,406,A,37.45523255858891,69.7006973336605,1.8727616279294454,1.0948559934675675,A,987.6843000001827,Correct
19,419,407,B,60.47940979468925,39.18916300741867,3.0239704897344626,0.6155819330221969,B,901.3767999986158,Correct
19,419,408,A,26.239568892328386,58.819049766808774,1.311978444616419,0.9239274731926943,A,457.2167999995145,Correct
19,419,409,A,47.43914431016049,58.44510379861035,2.3719572155080244,0.9180535436600359,B,647.8811999986647,Incorrect
19,419,410,B,87.3813904557671,64.03480652352785,4.369069522788355,1.0058563887417942,B,578.9339000002656,Correct
19,419,411,B,72.90090160414857,61.8639064991212,3.6450450802074283,0.971755970900025,A,689.0468999990844,Incorrect
19,419,412,B,82.74836707596893,51.99953173068778,4.137418353798447,0.8168067343761903,B,486.50350000025355,Correct
19,419,413,A,38.84999511369817,65.16034923932729,1.9424997556849086,1.0235363723780793,A,452.10190000034345,Correct
19,419,414,A,64.37450546604407,79.71593094014173,3.2187252733022036,1.2521749150781025,A,506.7367000010563,Correct
19,419,415,B,69.18127459349375,50.4162978725948,3.459063729674688,0.7919373550886927,B,403.2766000000265,Correct
19,419,416,B,82.02422390056444,66.66734075805059,4.101211195028222,1.0472081397992954,A,358.07980000026873,Incorrect
19,419,417,A,50.83594008183256,72.5655362039358,2.5417970040916282,1.1398567772104446,A,534.914399999252,Correct
19,419,418,B,70.0530222945303,37.64879706634434,3.5026511147265147,0.5913859214006016,B,928.6188000005495,Correct
19,419,419,B,33.561504591802375,18.108137958845486,1.6780752295901187,0.28444196590849724,B,840.0512000007438,Correct
19,419,420,A,49.0250571418198,58.73100189910331,2.45125285709099,0.9225444205209559,A,1101.610100000471,Correct
19,419,421,B,68.7400119477123,46.5985044745409,3.4370005973856155,0.731967596627444,B,937.222099999417,Correct
19,419,422,B,41.30546555430438,27.85507140601421,2.0652732777152187,0.4375464384717667,B,689.4790000005742,Correct
19,419,423,B,65.36089510168887,38.28754592792458,3.2680447550844436,0.6014193650557483,B,654.7450999987632,Correct
19,419,424,A,34.03267112093925,50.87012384681361,1.7016335560469624,0.7990660368217629,A,378.6002000015287,Correct
19,419,425,A,37.64032402473036,67.71492768122143,1.8820162012365182,1.0636635967084467,B,614.4956999996793,Incorrect
19,419,426,B,53.3032508192162,29.512448438271072,2.66516254096081,0.46358045601559983,B,650.9317999989435,Correct
19,419,427,B,58.87957787388231,39.93281245267227,2.943978893694116,0.6272631511924711,B,495.6538000005821,Correct
19,419,428,A,53.26972529744684,62.25686481795631,2.6634862648723416,0.977928545738122,A,687.3868000002403,Correct
19,419,429,A,41.76431814976262,69.22001337129332,2.0882159074881312,1.0873054274432117,A,500.9190000000672,Correct
19,419,430,B,46.29388934076738,21.1845609935768,2.314694467038369,0.33276630593472883,B,400.52250000007916,Correct
19,419,431,B,70.74223424993143,46.22807309782508,3.5371117124965714,0.7261488741686961,A,1567.4434000011388,Incorrect
19,419,432,B,68.92694876217274,47.41803048267095,3.446347438108637,0.7448406810602797,B,552.5665000004665,Correct
19,419,433,B,65.9564937806578,57.025336033400144,3.2978246890328897,0.8957518837550961,A,1048.048700000436,Incorrect
19,419,434,A,12.767856868731052,34.64174330802663,0.6383928434365526,0.5441512314201992,A,984.3600000003789,Correct
19,419,435,B,46.21658960852114,30.449716597300586,2.3108294804260567,0.4783030298298536,B,679.8053000002255,Correct
19,419,436,A,37.63837755997468,70.39085647282985,1.881918877998734,1.105696987874679,A,725.0788999990618,Correct
19,419,437,B,66.60064542147127,43.87149376747988,3.3300322710735633,0.6891318126096259,B,576.9424000009167,Correct
19,419,438,A,49.37185511781337,61.20147939833357,2.4685927558906684,0.9613505903331591,A,340.5265999990661,Correct
19,419,439,A,38.863825954114,51.85185239136329,1.9431912977056998,0.8144869927386461,B,633.5183000010147,Incorrect
19,419,440,A,26.089499760355906,40.94007206465533,1.3044749880177955,0.6430851481787895,A,392.166300000099,Correct
19,419,441,A,57.909099613391085,79.05938452939252,2.895454980669554,1.2418619081743503,A,463.35309999994934,Correct
19,419,442,B,32.01679187432252,12.388850875459955,1.600839593716126,0.19460361448382235,B,494.5165999997698,Correct
19,419,443,B,49.21382764735981,39.09374638463501,2.4606913823679903,0.6140831322163594,B,663.1228000005649,Correct
19,419,444,A,43.8060999826973,66.60411978220098,2.190304999134865,1.046215067032886,A,472.76810000039404,Correct
19,419,445,B,44.84790716921569,23.910707676941794,2.2423953584607843,0.37558851790006703,B,588.6384999994334,Correct
19,419,446,B,35.2169761132439,20.465234652470222,1.7608488056621951,0.32146715419095856,B,502.0406000003277,Correct
19,419,447,A,63.97615261259228,76.11348182392763,3.1988076306296143,1.1955877766859564,A,722.4736999996821,Correct
19,419,448,A,51.50230006339344,63.06163360869289,2.5751150031696723,0.9905698243422038,B,526.3907999997173,Incorrect
19,419,449,A,49.20687183902268,76.98360342021306,2.4603435919511343,1.2092556147590572,A,467.35590000025695,Correct
19,419,450,A,49.429158268833504,58.781959057811335,2.471457913441675,0.9233448536981805,A,521.7183000004297,Correct
19,419,451,A,30.605288083109603,48.21238219043409,1.5302644041554803,0.7573183285076556,A,2179.3602999987343,Correct
19,419,452,A,68.00886358494097,81.57443613577607,3.4004431792470484,1.2813682464244192,B,423.83999999947264,Incorrect
19,419,453,A,48.15685518963791,56.83371433078727,2.407842759481895,0.8927418970891111,A,721.2233999998716,Correct
19,419,454,B,65.3235040828641,42.78103389774243,3.2661752041432055,0.6720029090306177,B,560.9645000004093,Correct
19,419,455,A,66.11551421151148,87.03624304406638,3.305775710575574,1.3671621087164734,A,965.6820999989577,Correct
19,419,456,A,17.736927450871626,46.03566175386787,0.8868463725435813,0.7231264838454796,A,483.20649999914167,Correct
19,419,457,B,87.70074588795504,69.33910575642989,4.385037294397751,1.0891761262544293,B,524.8695999998745,Correct
19,419,458,A,39.87104584376563,58.688102026467604,1.9935522921882813,0.9218705508973943,A,901.3049999994109,Correct
19,419,459,A,65.00244028063135,78.15967027498604,3.250122014031567,1.2277292297144835,A,681.5920000008191,Correct
19,419,460,B,62.04622768115048,44.17893048784513,3.102311384057524,0.693961017320342,B,553.9198999995278,Correct
19,419,461,A,56.43398104476503,66.55236567932866,2.8216990522382512,1.045402115486002,A,521.6382999988127,Correct
19,419,462,A,48.63067543222699,70.8325288427052,2.4315337716113494,1.112634761237149,A,1347.866600000998,Correct
19,419,463,B,47.676923136861795,36.0556819129198,2.3838461568430898,0.5663613270889962,B,665.4041000001598,Correct
19,419,464,A,39.1562198380816,46.30314647494222,1.9578109919040798,0.727328124018853,A,1439.473000000362,Correct
19,419,465,A,61.0683755122765,70.058592991742,3.053418775613825,1.1004778053184703,A,490.51520000102755,Correct
19,419,466,A,24.300738847366155,43.486057376870605,1.2150369423683076,0.6830773919438046,A,566.142999998192,Correct
19,419,467,B,54.918425287340675,35.43514146804832,2.7459212643670337,0.5566139005746783,B,919.8464999990392,Correct
19,419,468,B,33.06611921136655,10.276508628730888,1.6533059605683276,0.16142302006286538,B,609.7982999999658,Correct
19,419,469,A,15.653252976012762,45.535783628327096,0.7826626488006382,0.7152744166110339,A,482.06089999985124,Correct
19,419,470,A,61.80663359094449,78.10653084397455,3.0903316795472247,1.2268945174840753,A,561.5402000003087,Correct
19,419,471,B,39.15098162685341,29.69208612084884,1.9575490813426706,0.46640219813507083,A,450.95170000058715,Incorrect
19,419,472,A,49.92052883930617,72.52707969158064,2.4960264419653084,1.1392527037269562,A,548.0661000001419,Correct
19,419,473,B,45.000007321905954,37.2976654548257,2.250000366095298,0.5858703589446511,B,565.9845000009227,Correct
19,419,474,A,62.42777803525156,75.43927479065773,3.121388901762578,1.18499735737236,A,438.0008000007365,Correct
19,419,475,A,60.8656075710498,75.7968350521495,3.04328037855249,1.190613900825951,B,660.1040000005014,Incorrect
19,419,476,B,87.2562542895761,64.82927323578394,4.362812714478805,1.0183358426755211,A,531.852500000241,Incorrect
19,419,477,B,40.41575387497255,29.391555292432486,2.0207876937486278,0.46168147092142053,B,457.9507999987982,Correct
19,419,478,A,50.98473298465447,78.62798047961395,2.5492366492327236,1.2350854292067843,A,1022.3740000001271,Correct
19,419,479,A,43.36949911316445,61.32899427381223,2.1684749556582226,0.963353589313295,A,453.27960000031453,Correct
19,419,480,A,68.09524331779205,87.20104090051802,3.4047621658896023,1.3697507473922526,B,2567.81570000021,Incorrect
19,419,481,A,58.78729595323485,76.09920207620827,2.9393647976617427,1.1953634709333052,A,467.4360999997589,Correct
19,419,482,A,39.305997965133436,59.27316779936237,1.9652998982566716,0.9310607425673595,A,501.64540000150737,Correct
19,419,483,B,54.274274401109786,34.72326615805021,2.7137137200554893,0.545431789353868,B,522.8619000008621,Correct
19,419,484,B,53.90179350865732,23.645252215209084,2.695089675432866,0.3714187532578932,B,1053.6357000000862,Correct
19,419,485,B,59.77106608216339,48.25063593069643,2.9885533041081693,0.7579192168545581,B,547.2050999997009,Correct
19,419,486,B,37.486234440480494,18.654009333645874,1.8743117220240249,0.29301649341288655,B,527.6274000007106,Correct
19,419,487,A,33.58337603521362,55.488446685118035,1.679168801760681,0.8716104823253786,A,423.6265999988973,Correct
19,419,488,B,63.97292337897854,46.03186403263065,3.1986461689489274,0.7230668293797834,B,505.57689999914146,Correct
19,419,489,A,39.3781174121271,66.37955747075206,1.968905870606355,1.042687650493281,A,546.69979999926,Correct
19,419,490,A,34.65855076237221,45.07855022850931,1.7329275381186104,0.7080922111618166,A,524.4069999989733,Correct
19,419,491,A,44.18033707359523,68.9711785629293,2.2090168536797616,1.0833967394136426,B,1579.2881999987003,Incorrect
19,419,492,B,38.52022389082583,24.49067620729303,1.9260111945412917,0.38469864227139067,B,816.5853999998944,Correct
19,419,493,A,23.183694817457926,48.49478188324546,1.1591847408728964,0.7617542525092167,A,570.2197000009619,Correct
19,419,494,A,27.415944597827455,55.27441943119563,1.3707972298913729,0.8682485500824255,A,451.0823000000528,Correct
19,419,495,B,37.17196327689081,14.883803074104154,1.8585981638445404,0.233794231975414,B,540.2245000004768,Correct
19,419,496,A,36.875159244955626,53.615466962037175,1.8437579622477813,0.8421897856336114,A,968.9073000008648,Correct
19,419,497,B,45.89932563982285,17.635642582713768,2.2949662819911425,0.2770200258959445,B,838.7352999998257,Correct
19,419,498,B,85.92402653106971,57.48099726584685,4.2962013265534855,0.9029093936569974,A,792.1076000002358,Incorrect
19,419,499,B,71.48617896567937,41.42769992737813,3.5743089482839685,0.6507447887348677,B,435.9885000012582,Correct
19,419,500,B,34.44575971115303,17.675289061087923,1.7222879855576514,0.27764279132194924,B,459.74980000028154,Correct
19,419,501,B,80.00506478223784,65.43409469614599,4.000253239111892,1.0278363559585555,A,725.1403999998729,Incorrect
19,419,502,B,47.803888657786885,24.31165311838708,2.3901944328893445,0.3818865541667412,B,442.6751000009972,Correct
19,419,503,A,52.750563563276,80.27474197877835,2.6375281781638,1.2609526983467312,A,483.2420999991882,Correct
19,419,504,B,55.11762487645725,30.129757853950426,2.7558812438228624,0.4732771296420502,B,582.5771999989229,Correct
19,419,505,B,44.095463760316505,24.246620942326768,2.2047731880158254,0.38086503113395104,B,550.0474000000395,Correct
19,419,506,A,28.77235373004289,57.35564902558112,1.4386176865021445,0.9009404281032011,A,553.3520000008139,Correct
19,419,507,B,66.22872244535696,37.64500972489699,3.3114361222678483,0.5913264299802634,B,524.139400000422,Correct
19,419,508,B,46.32012016619028,31.590217373792516,2.316006008309514,0.49621797413405605,A,445.5383999993501,Incorrect
19,419,509,B,85.53572334993065,56.98253082951666,4.276786167496533,0.8950795011848172,B,599.2085999987466,Correct
19,419,510,A,42.44546791163681,55.548066806902256,2.1222733955818405,0.8725469930083958,A,680.360300000757,Correct
19,419,511,A,35.94964945740361,48.50432642460508,1.7974824728701804,0.7619041778143032,A,930.2690000004077,Correct
19,419,512,B,54.64920419526987,32.59906476316019,2.7324602097634934,0.5120649118692097,B,496.35719999969297,Correct
19,419,513,B,76.34116943147441,49.113622257830386,3.817058471573721,0.7714749743819204,B,689.4704999995156,Correct
19,419,514,B,30.539117880513196,11.696288846313635,1.5269558940256598,0.18372487556921577,A,1129.0012000008574,Incorrect
19,419,515,A,19.780915482333775,48.480018060522056,0.9890457741166887,0.7615223429241829,A,541.671300001326,Correct
19,419,516,B,33.723517405426406,12.367775952857802,1.6861758702713203,0.19427257037371284,B,509.98880000042845,Correct
19,419,517,B,62.840485575909646,34.55725034337247,3.1420242787954824,0.5428240190350115,A,2009.8324000009598,Incorrect
19,419,518,B,40.3200936680378,27.682752804930608,2.01600468340189,0.4348396642155612,B,614.5548000004055,Correct
19,419,519,A,42.5222222902997,50.09276508290599,2.1261111145149854,0.7868553139122838,A,1367.124899999908,Correct
19,419,520,B,66.9926070531351,44.4679814878167,3.349630352656755,0.6985014198104593,B,480.80079999999725,Correct
19,419,521,A,38.86165277690006,69.29986187321853,1.9430826388450029,1.0885596847784538,A,489.36610000055225,Correct
19,419,522,A,55.406370780956706,71.55958330799803,2.7703185390478353,1.1240553060717668,A,616.8395000004239,Correct
19,419,523,A,52.84018112898278,62.9282718346696,2.6420090564491385,0.9884749824944976,A,826.2176999996882,Correct
19,419,524,A,21.488136202819923,47.792519333307965,1.0744068101409963,0.7507231381703423,A,590.0887999996485,Correct
19,419,525,B,34.23625769303235,22.67031229532367,1.7118128846516174,0.35610443280787596,B,503.80869999935385,Correct
19,419,526,A,27.927363912842445,40.012142100290404,1.3963681956421223,0.6285092583833161,B,1032.3542000005546,Incorrect
19,419,527,B,55.87394822881884,28.010571935305563,2.7936974114409416,0.43998903507402193,B,875.6708000000799,Correct
19,419,528,A,42.870515823372486,61.957896726046435,2.1435257911686243,0.9732323659321129,A,539.7092000002885,Correct
19,419,529,A,18.138842570112388,42.64176538589122,0.9069421285056194,0.6698152843620768,A,796.5545000006387,Correct
19,419,530,B,64.68730800378263,47.09491497092441,3.2343654001891315,0.7397651944704604,A,1562.6468000009481,Incorrect
19,419,531,A,22.731644182062695,45.98522456706822,1.1365822091031348,0.722334218367892,A,497.0176000006177,Correct
19,419,532,B,62.58348665128768,30.875792649280907,3.129174332564384,0.4849958168037131,B,400.1706999988528,Correct
19,419,533,A,44.55980471988075,59.525867910893716,2.227990235994038,0.9350301466371005,A,506.9837999999436,Correct
19,419,534,A,50.35702230146852,75.54434776793856,2.517851115073426,1.1866478398399414,A,451.5238000003592,Correct
19,419,535,B,49.67598232130962,30.191449111748387,2.483799116065481,0.47424617365349414,B,561.8778000007296,Correct
19,419,536,A,54.87792794910119,81.10435372973251,2.74389639745506,1.2739842092573779,A,550.8796999984042,Correct
19,419,537,B,56.50833073999239,38.29000994774699,2.8254165369996196,0.60145806978861,B,520.0005000006058,Correct
19,419,538,B,42.95160964307906,32.11695398956988,2.147580482153953,0.5044919335465707,B,556.4362000004621,Correct
19,419,539,A,57.34849097320405,77.19817492412261,2.8674245486602024,1.2126260960608168,A,522.2512999989704,Correct
19,419,540,B,67.61139124764512,50.2974081933895,3.3805695623822554,0.7900698403747977,B,477.006999999503,Correct
19,419,541,B,40.47892431133018,20.80007125418704,2.023946215566509,0.3267267552314912,B,1112.1044000010443,Correct
19,419,542,A,69.1432623748949,84.4170516330496,3.457163118744745,1.3260199462404942,A,722.8186999982427,Correct
19,419,543,B,57.38263261564336,40.14120446715432,2.869131630782168,0.630536565301289,B,378.3105999991676,Correct
19,419,544,A,20.781803055256496,36.050828661323,1.0390901527628247,0.5662850923911835,A,458.8798000004317,Correct
19,419,545,B,49.14238474464444,29.715792501234773,2.457119237232222,0.4667745770873892,B,525.6756999988283,Correct
19,419,546,B,53.98703294771668,36.34596730426573,2.699351647385834,0.5709211193534801,B,667.750900000101,Correct
19,419,547,B,41.33708608685279,20.562414554095586,2.0668543043426397,0.32299365251607265,A,351.3552999993408,Incorrect
19,419,548,A,36.38865108856903,65.42882491601499,1.8194325544284513,1.0277535784458274,A,540.8903999996255,Correct
19,419,549,B,71.30317697290857,41.26831095137467,3.5651588486454284,0.6482411125544894,B,450.41630000014266,Correct
