subject,day,trial,cat,x,y,xt,yt,resp,rt,fb
19,519,0,A,16.058288127879305,38.04110987917343,0.8029144063939653,0.5975483566540668,A,1147.1186999999645,Correct
19,519,1,A,21.609886484618457,39.96196501027437,1.0804943242309228,0.6277210784964516,A,486.19639999992614,Correct
19,519,2,B,58.802723734350586,49.018370939141484,2.9401361867175293,0.7699787701667314,A,974.4739999998728,Incorrect
19,519,3,A,50.316995034492884,67.94013707502904,2.515849751724644,1.067201177593974,A,810.3653000000577,Correct
19,519,4,B,42.69081355703514,18.229362039225258,2.1345406778517573,0.28634614931029356,B,550.8084000000508,Correct
19,519,5,B,73.67204532485762,61.34705646919805,3.6836022662428807,0.9636373096149539,B,812.0793999999023,Correct
19,519,6,A,50.02750943556166,59.291050642193255,2.501375471778083,0.9313416456056735,A,469.48969999994006,Correct
19,519,7,B,59.18474400220122,45.94869392887075,2.959237200110061,0.7217603964449313,B,406.02659999990465,Correct
19,519,8,B,78.18747103014445,61.745860265547506,3.909373551507223,0.9699017049991298,B,939.0273000001343,Correct
19,519,9,A,53.332882827740704,76.03860181491083,2.666644141387035,1.194411564254817,A,885.5137000000468,Correct
19,519,10,B,58.998761080579534,32.85936435118275,2.949938054028977,0.5161536882365303,B,590.9412000000884,Correct
19,519,11,A,68.55655538277446,84.43514292706584,3.4278277691387236,1.3263041236223712,A,813.0212000000938,Correct
19,519,12,A,60.688273017571724,70.2758298436893,3.0344136508785864,1.103890153809303,A,2067.6401000000624,Correct
19,519,13,B,70.58008103633254,43.2995909234118,3.5290040518166275,0.680148383742169,B,529.7634999999445,Correct
19,519,14,A,48.27214915969423,65.72732855894196,2.4136074579847118,1.0324424627042732,A,481.49239999997917,Correct
19,519,15,B,58.880095548548134,37.839750262158596,2.944004777427407,0.5943854071863495,B,434.8727000001418,Correct
19,519,16,B,42.61063067218802,30.496755185228736,2.130531533609401,0.4790419102412051,A,1295.8788999999342,Incorrect
19,519,17,A,46.9533060099813,57.46541671783297,2.347665300499065,0.9026646549811008,A,655.3664999999,Correct
19,519,18,B,57.42054923966569,43.06340691855488,2.8710274619832843,0.6764384140693994,B,549.4360000000142,Correct
19,519,19,B,56.77711124027694,28.112359114722366,2.838855562013847,0.4415879043494493,B,563.5466999999608,Correct
19,519,20,B,40.26956477546523,23.261608418194452,2.0134782387732613,0.3653924905864109,B,529.6246999998857,Correct
19,519,21,B,67.90799329213745,45.80507385088871,3.3953996646068725,0.7195044175354497,B,580.3877000000739,Correct
19,519,22,A,63.17299653158095,79.6888142820764,3.1586498265790475,1.251748967609263,A,608.5488000001078,Correct
19,519,23,A,59.09800500449788,74.04599512346866,2.9549002502248936,1.1631117715381738,A,632.5901000000158,Correct
19,519,24,A,60.157799654774834,72.92083303555876,3.007889982738742,1.1454377667907962,A,610.7823999998345,Correct
19,519,25,A,28.584138728668954,45.091685155825346,1.4292069364334479,0.7082985341176241,B,639.2296999999871,Incorrect
19,519,26,A,30.496728415096918,52.88086615841425,1.524836420754846,0.8306507031936966,A,513.4511000001112,Correct
19,519,27,A,26.673614471638256,46.288576799838715,1.3336807235819128,0.7270992640975011,A,930.0359000001208,Correct
19,519,28,A,31.349089500132187,64.32753116678104,1.5674544750066093,1.010454496685639,A,526.750600000014,Correct
19,519,29,A,57.830895538991925,83.03234552829488,2.891544776949596,1.3042690336101024,A,629.4132000000445,Correct
19,519,30,B,39.93258158224555,23.547382629300227,1.9966290791122774,0.3698814213973875,B,506.3536000000113,Correct
19,519,31,A,39.00432805704672,70.19954279990407,1.950216402852336,1.1026918397277043,A,547.1890000001167,Correct
19,519,32,B,66.52035312457387,53.43408915180397,3.326017656228694,0.8393407096528469,B,561.028800000031,Correct
19,519,33,A,33.00692246931279,61.657717351729794,1.6503461234656396,0.9685171593465511,A,645.4622000001109,Correct
19,519,34,B,65.10761401787752,51.80734182597122,3.255380700893876,0.813787822412432,B,493.7499000000116,Correct
19,519,35,B,61.862082133688304,36.95306338037274,3.0931041066844154,0.580457362217085,B,415.4395000000477,Correct
19,519,36,B,44.86771093107937,19.341861022201154,2.2433855465539687,0.30382124247050957,B,462.91230000019823,Correct
19,519,37,B,78.04076978260939,48.693580503276294,3.9020384891304696,0.7648769739303799,B,496.3244000000486,Correct
19,519,38,B,78.09326778835232,63.23903835451286,3.9046633894176157,0.9933564915731038,B,440.5768999999964,Correct
19,519,39,A,49.71085218269296,59.49359047521074,2.485542609134648,0.9345231338630088,A,519.2415000001347,Correct
19,519,40,A,55.63128858202843,72.70665893393353,2.781564429101422,1.1420735278695213,B,892.499799999996,Incorrect
19,519,41,A,60.52900016469667,71.02546997347017,3.0264500082348333,1.1156654734320814,A,524.7871999999916,Correct
19,519,42,B,69.67637725274234,42.82305413171814,3.4838188626371167,0.6726629613224188,B,531.1566000000312,Correct
19,519,43,B,83.88983885658334,54.36093843959599,4.194491942829167,0.8538996242204088,B,493.1242000000111,Correct
19,519,44,A,51.571323476102954,62.220832035923884,2.5785661738051475,0.9773625441215146,A,660.3132000000187,Correct
19,519,45,A,29.88560623713931,52.2880015767793,1.4942803118569654,0.8213380081225068,A,787.7218999999513,Correct
19,519,46,B,40.86927999656905,31.17641896055246,2.0434639998284525,0.4897180438585457,B,706.3828000000285,Correct
19,519,47,A,58.25623810129679,70.6337808915487,2.9128119050648396,1.1095128357208026,A,734.2948000000433,Correct
19,519,48,A,42.14056772872111,58.953429102508174,2.1070283864360557,0.9260382988618321,A,497.90649999999914,Correct
19,519,49,A,41.90766496843689,67.46482149542952,2.095383248421845,1.0597349379289407,A,1067.8454999999758,Correct
19,519,50,A,50.28423781467701,80.50622892235815,2.5142118907338507,1.2645888867534925,A,522.4463999998079,Correct
19,519,51,B,65.50511757332715,46.381820220851026,3.2752558786663575,0.7285639283297404,B,501.51929999992717,Correct
19,519,52,A,48.232177378137024,67.79820503690355,2.411608868906851,1.0649717143525534,A,555.8774999999514,Correct
19,519,53,B,69.691625621521,56.516235398367684,3.48458128107605,0.8877549496803167,B,552.5915999999143,Correct
19,519,54,A,33.36252042634191,55.71357004856142,1.6681260213170956,0.8751467118491043,A,418.84729999992487,Correct
19,519,55,A,35.5673085601782,63.84251115193832,1.7783654280089098,1.0028358201082692,A,485.3526999997939,Correct
19,519,56,A,28.421631119325472,42.790498253113654,1.4210815559662737,0.6721515747771436,A,554.5902999999726,Correct
19,519,57,A,38.10537842479084,70.07046868983406,1.9052689212395422,1.1006643483478815,A,581.9041000002017,Correct
19,519,58,A,49.696415901282215,74.63398006146703,2.484820795064111,1.1723478173463595,A,523.7154000001283,Correct
19,519,59,B,89.00863242645424,68.07842902651497,4.450431621322712,1.0693734624881677,B,1114.386500000137,Correct
19,519,60,A,59.41332090188378,84.81923729617871,2.970666045094189,1.3323374638638221,A,1211.7839000000004,Correct
19,519,61,A,29.638054771634174,62.240456423525316,1.4819027385817087,0.9776708032811139,A,517.9807000001801,Correct
19,519,62,B,81.53366352699325,54.381813921081424,4.076683176349662,0.8542275355167827,B,723.5659000000396,Correct
19,519,63,A,64.89563343071094,84.5223926794412,3.2447816715355473,1.3276746395278207,A,877.7608000000328,Correct
19,519,64,A,33.97321218820399,61.24348347817498,1.6986606094101995,0.9620103888764119,A,444.676999999956,Correct
19,519,65,A,62.90462504240335,86.4076213572629,3.1452312521201677,1.3572877423507281,A,1202.805600000147,Correct
19,519,66,A,67.01722680947114,85.2780206651276,3.350861340473557,1.339544016171217,A,617.7110999999513,Correct
19,519,67,B,47.36099174524526,30.15719457903915,2.368049587262263,0.4737081047119367,B,532.75450000001,Correct
19,519,68,B,38.84295997921282,29.35321830792108,1.9421479989606412,0.46107927497691137,B,505.45839999995223,Correct
19,519,69,B,78.96044164200747,55.682408849963466,3.9480220821003735,0.8746572328861425,B,555.968699999994,Correct
19,519,70,A,68.68786038720121,88.35297176660771,3.4343930193600607,1.3878452351240058,A,785.7543000000078,Correct
19,519,71,B,40.79645466347897,18.432197038471273,2.0398227331739487,0.2895322740279045,B,519.6081999999933,Correct
19,519,72,B,48.758588989834735,32.50518437537481,2.4379294494917367,0.5105902421862962,B,547.1807000001263,Correct
19,519,73,A,42.41729392004573,71.5541184458331,2.1208646960022866,1.123969464217616,A,544.7325000000092,Correct
19,519,74,B,75.51259395666236,48.45993667749872,3.7756296978331183,0.7612069052972826,B,1671.9201999999314,Correct
19,519,75,B,47.132203939749786,28.401728325823886,2.3566101969874893,0.4461333052883073,B,561.5763999999217,Correct
19,519,76,B,66.34096052639173,52.80507189663393,3.3170480263195863,0.8294601297137301,B,538.1540999999288,Correct
19,519,77,B,68.43032491152246,52.00993597711225,3.421516245576123,0.8169701638968566,B,647.7050000000872,Correct
19,519,78,B,39.4377403992674,25.97656981759327,1.9718870199633698,0.4080390045220668,B,663.1890999999541,Correct
19,519,79,B,50.35290857912213,28.84824473831328,2.5176454289561065,0.453147168694227,B,526.926400000093,Correct
19,519,80,A,13.563755741795362,41.55790605779326,0.6781877870897681,0.6527900618486904,A,503.2183000000714,Correct
19,519,81,B,72.90348048329584,61.52422991927416,3.645174024164792,0.9664203436608051,B,564.7676000000956,Correct
19,519,82,B,32.91268035163186,20.670683160307973,1.6456340175815933,0.32469433180552887,B,409.75350000007893,Correct
19,519,83,B,61.15917834764799,28.705213486295754,3.0579589173823996,0.45090043904136706,B,472.66659999991134,Correct
19,519,84,B,55.809823487385685,46.02591588479471,2.7904911743692846,0.7229733960920642,B,479.83690000000934,Correct
19,519,85,B,35.949778253807544,21.84339791958599,1.7974889126903772,0.34311529216804953,B,494.4955000000846,Correct
19,519,86,A,39.092858682749444,62.27957392138086,1.954642934137472,0.9782852595005628,A,486.5035000000262,Correct
19,519,87,A,41.9480517650328,55.21842062043633,2.09740258825164,0.8673689228199696,A,1333.1163000000288,Correct
19,519,88,B,79.98524326110162,67.37007375774142,3.999262163055081,1.0582466439456149,B,681.865900000048,Correct
19,519,89,B,81.02130205576174,55.90178699081501,4.051065102788087,0.8781032166644295,B,599.6886999998878,Correct
19,519,90,A,40.00046206003275,49.51597651991011,2.0000231030016375,0.7777951403513715,A,1246.2870999997904,Correct
19,519,91,A,40.80259818510046,55.42002436602567,2.040129909255023,0.8705357070503679,A,468.6603999998624,Correct
19,519,92,A,66.4184232210252,83.10886097032419,3.3209211610512597,1.3054709353629297,A,598.0607999999847,Correct
19,519,93,A,39.96435023478625,47.45959053009245,1.9982175117393126,0.7454935047585906,A,566.1007999999583,Correct
19,519,94,B,65.59142150049439,36.601033570347354,3.2795710750247196,0.5749276908919831,B,761.4001000001736,Correct
19,519,95,B,57.157161828240895,50.01877686809209,2.857858091412045,0.785693109751726,B,512.8772000000481,Correct
19,519,96,A,36.38760069979698,58.0581917883961,1.8193800349898488,0.9119759440156622,A,960.0615000001653,Correct
19,519,97,B,83.71402632588683,65.75846850930864,4.185701316294342,1.0329316079007989,B,1472.943799999939,Correct
19,519,98,A,52.3680031568079,68.58778393488998,2.6184001578403953,1.077374390679272,A,660.7931999999437,Correct
19,519,99,B,84.8618701793409,55.48876389898835,4.2430935089670445,0.8716154651092018,B,1215.0186999999733,Correct
19,519,100,B,80.36411152671367,55.05245711240683,4.018205576335683,0.8647619741320223,B,600.1461999999265,Correct
19,519,101,B,51.497694458278175,31.309150915936474,2.5748847229139087,0.49180299253820087,B,663.882900000317,Correct
19,519,102,B,73.2308914510728,45.19298682440679,3.6615445725536397,0.7098897770066834,B,797.7015999999821,Correct
19,519,103,A,15.04815625155161,41.26758606430359,0.7524078125775805,0.6482297260550035,A,581.1521000000539,Correct
19,519,104,B,76.40307670257238,60.5318621762856,3.820153835128619,0.9508322676056435,B,1554.4317000003502,Correct
19,519,105,B,82.0780972470215,60.80641009775876,4.103904862351075,0.9551448562714357,B,597.5111000002471,Correct
19,519,106,B,77.64399952527003,64.68037627349386,3.8821999762635016,1.0159969746611595,B,1688.2728000000498,Correct
19,519,107,A,26.002463324810446,54.2630170984614,1.3001231662405224,0.8523614793907184,A,494.0731000001506,Correct
19,519,108,B,72.14657619109998,53.22835121588326,3.6073288095549993,0.836108985712581,A,2396.180700000059,Incorrect
19,519,109,B,60.43674528646631,49.86451099123084,3.021837264323316,0.7832699070244914,B,702.67130000002,Correct
19,519,110,A,38.54564871838202,65.91603210929671,1.9272824359191008,1.0354066111417772,A,670.1812999999675,Correct
19,519,111,B,44.01735853192859,18.20143747094553,2.20086792659643,0.28590751121748237,B,522.0813999999336,Correct
19,519,112,A,37.171100887834406,61.18970671782432,1.8585550443917203,0.9611656655001546,A,473.78170000001774,Correct
19,519,113,A,31.196357099820283,47.39059620002698,1.5598178549910142,0.7444097443562255,A,471.66420000030485,Correct
19,519,114,A,32.93939106873761,45.19910840796805,1.6469695534368807,0.7099859346164054,A,617.5653000000239,Correct
19,519,115,A,53.389208338893866,70.74920432150422,2.6694604169446934,1.1113259027188045,A,940.3028000001541,Correct
19,519,116,A,55.71170083518332,74.02347094218472,2.785585041759166,1.1627579625259252,A,556.0346000002028,Correct
19,519,117,B,36.65453432496929,24.173006384267367,1.8327267162484646,0.3797086963599676,B,508.66110000015397,Correct
19,519,118,B,35.256540031771706,16.886110778213098,1.7628270015885852,0.2652464078426885,B,560.2468000001863,Correct
19,519,119,B,35.12972233430774,11.965378088823751,1.7564861167153873,0.18795171950636486,B,515.3166000000056,Correct
19,519,120,B,63.6583868614369,31.478438939334435,3.182919343071845,0.4944621625914397,B,695.72079999989,Correct
19,519,121,B,43.447782517992835,17.651065625958676,2.1723891258996417,0.27726229049271556,B,544.827400000031,Correct
19,519,122,B,37.24317602577624,11.843490306014772,1.8621588012888122,0.18603711069118967,B,475.6197000001521,Correct
19,519,123,A,46.084778587136725,52.95010055890538,2.304238929356836,0.8317382346134898,A,2069.604100000106,Correct
19,519,124,A,42.303526379799656,59.7597325549634,2.115176318989983,0.938703683875819,A,1361.7232999999942,Correct
19,519,125,B,43.22459581385233,33.18152205349861,2.1612297906926163,0.5212141295909947,B,557.0692000001145,Correct
19,519,126,B,72.91469752087255,58.567437218797366,3.6457348760436274,0.9199751525307761,B,1038.4747999996762,Correct
19,519,127,B,34.91125465141588,19.461319578111585,1.7455627325707939,0.30569769307879285,B,685.1236000002245,Correct
19,519,128,A,59.69730616568688,71.17489739359821,2.984865308284344,1.1180126738586773,A,1309.943000000203,Correct
19,519,129,B,87.77398338286815,62.96825323136819,4.388699169143408,0.9891030088052404,B,978.6613000001125,Correct
19,519,130,A,16.518279666768297,46.164834711242904,0.8259139833384148,0.7251555279151388,A,667.5058000000718,Correct
19,519,131,B,67.26773494175438,49.80631177043095,3.363386747087719,0.7823557158019435,B,1635.7864999999947,Correct
19,519,132,B,59.50151538797855,48.465217318740464,2.9750757693989276,0.7612898534159392,B,625.3644000003078,Correct
19,519,133,A,37.57871595411544,63.9250184753601,1.878935797705772,1.0041318421139154,A,555.8635000002141,Correct
19,519,134,B,34.297409491923865,13.610454931055848,1.7148704745961934,0.21379252611710015,B,577.3918999998386,Correct
19,519,135,A,65.7715390228031,87.81805867272239,3.288576951140155,1.3794428398937104,A,661.2762999998267,Correct
19,519,136,A,17.22076616033209,39.918811511925284,0.8610383080166045,0.6270432249295006,A,568.2157000001098,Correct
19,519,137,A,20.623433947846653,48.034195645665484,1.0311716973923326,0.7545193808075876,A,542.9488999998284,Correct
19,519,138,A,51.83545114531568,80.00962245798354,2.591772557265784,1.2567882106524702,A,1457.463899999766,Correct
19,519,139,B,53.648940214354155,44.781973716279076,2.682447010717708,0.7034335982015678,B,621.1036999998214,Correct
19,519,140,B,64.2256903219574,43.22647584807626,3.2112845160978702,0.6789998948244651,B,509.6373000001222,Correct
19,519,141,B,38.737378435087905,19.385485385336423,1.9368689217543953,0.30450649236422606,B,824.4417999999314,Correct
19,519,142,B,59.57179441309019,30.79994083653847,2.9785897206545093,0.48380433931534766,B,743.0871999999908,Correct
19,519,143,A,17.482647352305843,38.10868083491012,0.8741323676152922,0.598609758744759,A,524.605000000065,Correct
19,519,144,A,59.75954459756165,68.10890577057663,2.9879772298780822,1.0698521900644151,B,534.2797999996947,Incorrect
19,519,145,A,45.47462086198521,53.206984300149244,2.2737310430992603,0.8357733549850815,A,984.2040999997153,Correct
19,519,146,A,16.204216393874283,45.6290712666926,0.8102108196937141,0.7167397754078328,A,500.37449999990713,Correct
19,519,147,A,26.479253004684477,50.595325386835626,1.3239626502342239,0.7947495127063398,A,655.1523999996789,Correct
19,519,148,A,21.35089298384867,36.53778086393325,1.0675446491924334,0.5739341197030321,A,644.9917999998434,Correct
19,519,149,A,65.39486079641716,80.01963977729265,3.2697430398208582,1.2569455623362211,A,1054.653799999869,Correct
19,519,150,A,61.35264757648365,81.80058627168115,3.0676323788241824,1.284920604452258,A,825.7250999999997,Correct
19,519,151,A,30.45855155115281,43.33931749876753,1.5229275775576405,0.6807724073286182,A,527.5228000000425,Correct
19,519,152,B,78.9169274425686,61.616929492599716,3.9458463721284307,0.9678764651535576,B,1872.0997000000352,Correct
19,519,153,A,53.46291147259714,71.67159867367764,2.6731455736298573,1.125814839321308,A,775.5491999996593,Correct
19,519,154,B,39.06410016395135,13.772989218754248,1.9532050081975678,0.21634560873804884,B,747.1562999999151,Correct
19,519,155,A,18.880216555185527,33.53389307299778,0.9440108277592764,0.5267491606219773,A,560.7052000000294,Correct
19,519,156,B,66.3989542603255,48.13052776964461,3.3199477130162744,0.7560325622725751,B,1464.167499999803,Correct
19,519,157,B,78.25476632187967,56.733998375587944,3.912738316093984,0.8911755625276118,B,881.032199999936,Correct
19,519,158,A,29.098308282491303,61.285539813623885,1.454915414124565,0.9626710082488279,A,628.0690000003233,Correct
19,519,159,A,23.188368328649936,39.92764470616398,1.159418416432497,0.6271819764201407,A,471.1472999997568,Correct
19,519,160,A,27.078748330837577,50.710354089996706,1.353937416541879,0.796556379350354,A,593.3672000001025,Correct
19,519,161,A,29.07345392836187,52.446297321505575,1.4536726964180935,0.8238245118661398,A,524.9847999998565,Correct
19,519,162,A,23.898317878724317,41.28203374935255,1.194915893936216,0.6484566697610593,A,561.6574000000583,Correct
19,519,163,A,31.038823254545775,46.6675166370282,1.5519411627272888,0.7330516371408362,A,796.4269999997668,Correct
19,519,164,A,49.16675162669214,59.0675326254082,2.458337581334607,0.9278306328082891,A,1510.116299999936,Correct
19,519,165,B,76.61113234966062,62.72817334074094,3.8305566174830314,0.9853318427018943,A,2263.543600000048,Incorrect
19,519,166,B,39.1341864532438,26.577028782624154,1.9567093226621899,0.4174709918886827,B,506.571399999757,Correct
19,519,167,B,47.86023044042451,19.976997741074886,2.3930115220212254,0.31379794672070377,B,599.5692999999847,Correct
19,519,168,A,58.19086966793694,68.70707369048667,2.9095434833968468,1.0792481897784274,A,875.9727000001476,Correct
19,519,169,B,80.75072214716545,54.38878371486757,4.037536107358273,0.8543370167815607,B,691.2147000002733,Correct
19,519,170,B,50.71547317185123,37.35924993609219,2.535773658592561,0.586837725714261,B,471.88280000000304,Correct
19,519,171,B,33.552113774692316,20.06547866305255,1.6776056887346158,0.3151878017930431,B,714.1495999999279,Correct
19,519,172,B,83.55310412105695,67.62814503746404,4.177655206052847,1.06230041812801,A,1264.2115999997259,Incorrect
19,519,173,A,51.23992581959858,68.91526855676916,2.5619962909799288,1.0825185070905683,A,769.6504999998979,Correct
19,519,174,B,47.05456948592,24.006978644388802,2.352728474296,0.37710073872049454,B,583.4305999997014,Correct
19,519,175,B,53.56140757791481,39.76868260139636,2.67807037889574,0.6246850055174552,B,563.3241000000453,Correct
19,519,176,A,44.88960849002454,73.74039945281638,2.2444804245012273,1.1583114859687236,A,618.5033000001567,Correct
19,519,177,B,80.83643283953562,65.56630398498052,4.041821641976781,1.02991309461125,B,667.9181999998036,Correct
19,519,178,B,77.41139781892588,53.061335008845205,3.870569890946294,0.833485501267275,A,627.1059000000605,Incorrect
19,519,179,A,25.81659589228616,55.07783548849247,1.290829794614308,0.8651606167313756,A,435.92720000015106,Correct
19,519,180,B,76.15549442216178,62.641705145770956,3.807774721108089,0.9839736034714599,A,818.5625999999502,Incorrect
19,519,181,B,74.70714878399257,51.27278814950351,3.7353574391996283,0.8053910728977302,B,594.3022000001292,Correct
19,519,182,B,47.249522419059446,26.556474776553415,2.362476120952972,0.4171481303163143,B,896.1220000001049,Correct
19,519,183,B,77.80509464909954,58.20085792622432,3.890254732454977,0.9142169384682481,B,1236.3237999998091,Correct
19,519,184,B,84.71864087381603,60.958173162405146,4.235932043690801,0.9575287449163323,B,568.7511000000995,Correct
19,519,185,B,57.3550151639716,41.37714067185893,2.86775075819858,0.6499506058063174,B,564.0543999998044,Correct
19,519,186,A,25.81404770196743,40.03234359307861,1.2907023850983714,0.6288265826899908,A,519.3487999999888,Correct
19,519,187,A,42.63939130878639,69.00689589537875,2.1319695654393196,1.0839577859597875,A,706.9978999998057,Correct
19,519,188,B,71.93659680677874,62.474834869443484,3.596829840338937,0.9813524113003955,B,1093.72250000024,Correct
19,519,189,A,38.23336820554696,48.6540986721914,1.9116684102773478,0.7642567947779471,A,701.2297999999646,Correct
19,519,190,A,45.585064909346485,61.693150023481465,2.2792532454673244,0.9690737344529116,A,450.76349999999366,Correct
19,519,191,A,12.563655324335322,35.7089323059601,0.628182766216766,0.5609145969996974,A,490.8024999999725,Correct
19,519,192,B,39.17524915975711,18.853826115568985,1.9587624579878553,0.29615520808365453,B,523.9212999999836,Correct
19,519,193,B,53.43678833372886,37.959560640983774,2.671839416686443,0.5962673842160544,B,478.65500000034444,Correct
19,519,194,B,40.803176985055124,30.638125253777627,2.0401588492527565,0.4812625460851585,B,605.3509000003032,Correct
19,519,195,B,82.84812496069138,67.7840329509942,4.142406248034569,1.0647490997476592,A,810.5771000000459,Incorrect
19,519,196,B,36.53270066409348,24.62232304021791,1.8266350332046741,0.38676654588731646,B,574.4589000000815,Correct
19,519,197,B,42.88483964466725,31.72206279927775,2.1442419822333623,0.4982889972346253,B,549.0930000000844,Correct
19,519,198,B,44.625596424276694,22.252518279408417,2.2312798212138345,0.34954173975231034,B,487.8877000001012,Correct
19,519,199,A,16.566199078784855,41.43257357827619,0.8283099539392427,0.6508213438641552,A,502.82460000016727,Correct
19,519,200,A,49.36986553859727,75.88407076440083,2.468493276929863,1.1919841961896485,A,739.4755999998779,Correct
19,519,201,B,81.7740359034752,52.30920835274317,4.088701795173759,0.821671123380379,A,1830.5617999999413,Incorrect
19,519,202,B,75.05030531963668,64.0242653421394,3.7525152659818337,1.0056908082517437,A,1087.970199999745,Incorrect
19,519,203,B,74.41004918081346,57.28215375903165,3.7205024590406732,0.899785967155874,B,478.63169999982347,Correct
19,519,204,B,66.85435773433213,37.5016029937692,3.342717886716606,0.5890738023153315,B,613.3216000002903,Correct
19,519,205,A,12.835117327970842,40.961499970759554,0.641755866398542,0.6434217369407838,A,507.3578000001362,Correct
19,519,206,B,37.827103015554115,26.816141605873476,1.8913551507777058,0.42122696733317866,B,566.6636000000835,Correct
19,519,207,B,78.34450842095922,52.58824154319548,3.9172254210479607,0.8260541664865425,B,747.9347999997117,Correct
19,519,208,B,60.20101254574138,33.1705838142771,3.010050627287069,0.5210423121310872,B,579.350500000146,Correct
19,519,209,A,27.04844182143769,44.91778741926424,1.3524220910718845,0.705566954859343,A,517.0671999999286,Correct
19,519,210,B,47.92086511293919,21.487113979564374,2.3960432556469597,0.3375187971252299,B,462.7432000002045,Correct
19,519,211,A,50.51351411195451,58.78787022866297,2.5256757055977257,0.9234377061527884,A,568.755599999804,Correct
19,519,212,B,74.80071181027067,58.31251174649027,3.740035590513534,0.9159707925757118,A,1309.9686000000474,Incorrect
19,519,213,A,59.89409063032015,80.2710529296803,2.9947045315160072,1.2608947508990054,A,770.3989999999976,Correct
19,519,214,A,54.08286223661246,62.476768806823294,2.704143111830623,0.9813827895177201,A,539.4784000000072,Correct
19,519,215,A,54.857958790862696,72.50227222541628,2.742897939543135,1.1388630289596753,A,554.1502000000946,Correct
19,519,216,B,80.13559542103599,62.28576331778061,4.006779771051799,0.9783824823118608,A,1226.167599999826,Incorrect
19,519,217,A,47.90159324840991,61.326106263655994,2.3950796624204953,0.9633082245558433,A,613.7716000002911,Correct
19,519,218,A,25.19499372960999,47.95808354652544,1.2597496864804996,0.7533238147500492,A,453.48939999985305,Correct
19,519,219,B,62.39563810019026,40.77723234533379,3.1197819050095132,0.6405272678491236,B,560.5696999996326,Correct
19,519,220,A,45.020068693075864,65.03794611760948,2.2510034346537933,1.0216136686382538,A,557.0027000003392,Correct
19,519,221,B,45.01716404301815,35.72866962747936,2.250858202150907,0.5612246301211297,B,525.2855999997337,Correct
19,519,222,B,34.1115370155814,13.329678015444443,1.70557685077907,0.20938209264018814,B,479.5503000000281,Correct
19,519,223,A,28.223320156244508,48.62389797977956,1.4111660078122252,0.7637824034108752,A,491.7242999999871,Correct
19,519,224,B,67.70658347321861,57.14738109445034,3.385329173660931,0.8976689630911071,A,3822.4458999998205,Incorrect
19,519,225,A,47.258334161940475,70.2874017155887,2.3629167080970235,1.1040719243480404,A,541.0813999997117,Correct
19,519,226,B,37.44521227539554,26.74962181369355,1.872260613769777,0.42018207688102466,B,552.9748999997537,Correct
19,519,227,A,23.381243416689912,35.75568708220616,1.1690621708344957,0.5616490193075716,A,793.5311000001093,Correct
19,519,228,B,66.7735391535818,40.13106810783767,3.33867695767909,0.6303773437414724,B,634.7023000002991,Correct
19,519,229,A,49.56129862455567,63.89138296016291,2.478064931227783,1.0036034966766993,A,559.0938999998798,Correct
19,519,230,B,54.4529979720205,36.98535786634429,2.7226498986010252,0.5809646428164834,B,506.98659999989104,Correct
19,519,231,B,65.90970374322706,51.2628301420499,3.295485187161353,0.8052346528824269,B,587.2746999998526,Correct
19,519,232,B,42.56011717986519,23.33036813196151,2.1280058589932596,0.36647256564457853,B,538.4806000001845,Correct
19,519,233,A,48.50871926128175,60.072096414254275,2.4254359630640874,0.943610283903795,A,686.625599999843,Correct
19,519,234,A,54.173165747971304,71.41684405825843,2.708658287398565,1.1218131631799628,A,584.0400999995836,Correct
19,519,235,B,63.49678639620137,51.81877849657867,3.174839319810069,0.8139674692142415,A,899.3508999997175,Incorrect
19,519,236,B,69.01524941716542,40.563043157807265,3.450762470858271,0.6371627919590651,B,1631.4855999999054,Correct
19,519,237,A,56.669811589761366,66.54713927222133,2.8334905794880685,1.0453200192751366,A,820.7344000002195,Correct
19,519,238,B,64.1929140228959,42.45411752371149,3.2096457011447956,0.6668677186356484,A,1418.617499999982,Incorrect
19,519,239,B,44.102749111636356,16.80161203300446,2.2051374555818177,0.2639191046567634,B,421.64679999996224,Correct
19,519,240,B,36.73933197063588,13.735943985138704,1.836966598531794,0.2157637035691633,B,437.1335999999246,Correct
19,519,241,B,66.80245410625675,41.25382258879186,3.340122705312837,0.6480135298872258,B,684.0462000000116,Correct
19,519,242,B,55.99409149290367,35.44635055777299,2.7997045746451836,0.5567899725443405,B,477.7465000001939,Correct
19,519,243,A,50.186847122109334,63.26386326630315,2.5093423561054666,0.9937464403756358,A,453.2024000000092,Correct
19,519,244,A,37.18091024831865,45.39163755543585,1.8590455124159326,0.7130101753928391,A,1105.0696000002063,Correct
19,519,245,A,62.30485040080646,80.65680387111809,3.115242520040323,1.2669541125176869,A,549.4945000000371,Correct
19,519,246,A,35.555913786799664,63.57296768286197,1.777795689339983,0.9986018411969025,A,438.344799999868,Correct
19,519,247,A,35.54074530225592,59.11226901324296,1.777037265112796,0.9285333503451382,A,463.48760000000766,Correct
19,519,248,B,51.81376309446064,23.026348504667663,2.590688154723032,0.36169703650631124,B,450.7995999997547,Correct
19,519,249,A,53.103560345909074,75.90645464120111,2.6551780172954533,1.1923358013042216,A,907.3203999996622,Correct
19,519,250,B,46.467110539687084,18.441585974126472,2.323355526984354,0.28967975508430144,B,1186.5496000000348,Correct
19,519,251,B,67.92833410771927,59.006234162104114,3.3964167053859633,0.9268677587983267,A,722.3073000000113,Incorrect
19,519,252,B,37.75532959910301,15.946906177606188,1.8877664799551501,0.25049341647526646,B,440.6564000000799,Correct
19,519,253,A,66.38738780341853,86.85464421602792,3.3193693901709262,1.3643095609961426,A,1430.1998999999341,Correct
19,519,254,A,47.16643820177673,70.80637835937544,2.3583219100888364,1.112223990405566,A,724.5514999999614,Correct
19,519,255,A,23.080750396541532,48.213724592968816,1.1540375198270767,0.757339414917362,A,502.799800000048,Correct
19,519,256,A,52.46741549281707,62.19787757308407,2.623370774640853,0.9770019762623914,A,438.8208999998824,Correct
19,519,257,B,45.66360161158907,33.87328931009357,2.2831800805794535,0.5320803842475581,B,538.4397000002537,Correct
19,519,258,B,54.340439823015366,23.962581297744716,2.7170219911507685,0.3764033468302149,B,484.36379999975543,Correct
19,519,259,A,27.105498403271923,49.28146880237657,1.355274920163596,0.7741115017383039,A,454.2974000000868,Correct
19,519,260,B,36.55084140543177,23.655973701757706,1.8275420702715883,0.3715871659747767,B,449.3539000000055,Correct
19,519,261,B,76.14084781850744,48.50716687492638,3.807042390925372,0.7619487955036145,B,576.8621000001986,Correct
19,519,262,B,64.31145312402309,41.18680268499315,3.2155726562011546,0.6469607837001342,B,479.72600000002785,Correct
19,519,263,B,80.44258927541705,66.9695234280345,4.0221294637708525,1.0519548140796138,B,677.308599999833,Correct
19,519,264,A,31.926923687070733,55.02869393208286,1.5963461843535367,0.8643887029683637,A,479.2293000000427,Correct
19,519,265,B,55.263138584592085,35.14765191556583,2.763156929229604,0.5520980252443641,B,1541.633400000137,Correct
19,519,266,A,55.932585364903886,73.16292119416984,2.7966292682451943,1.1492404786938646,A,797.6498999996693,Correct
19,519,267,A,43.19492806138263,50.33967145448113,2.1597464030691316,0.7907337101276087,A,1477.8919999998834,Correct
19,519,268,B,74.6727777665553,57.835829545793786,3.733638888327765,0.9084830860766864,A,1746.6285000000425,Incorrect
19,519,269,B,30.618027103434525,12.24632566745844,1.5309013551717263,0.1923648337517778,B,442.623100000219,Correct
19,519,270,A,34.55757359058329,47.193748290514286,1.7278786795291643,0.7413176646242275,A,839.6420999997645,Correct
19,519,271,B,73.96279862346194,61.10371588598027,3.6981399311730967,0.9598149246721679,A,1390.5280999997558,Incorrect
19,519,272,A,39.83614740082611,53.33624485345143,1.9918073700413055,0.8378037750083472,A,453.9951000001565,Correct
19,519,273,B,37.36185518107237,25.18947174153567,1.8680927590536185,0.39567529685508074,B,1137.8998000000138,Correct
19,519,274,A,10.741857638756105,35.79858201869236,0.5370928819378052,0.5623228113942779,A,648.5201999998935,Correct
19,519,275,A,50.29734531598978,61.46744014907103,2.5148672657994893,0.9655282920364592,B,1122.7904000002127,Incorrect
19,519,276,A,21.29507316933625,44.02280147082859,1.0647536584668125,0.6915085484559852,A,427.05579999983456,Correct
19,519,277,A,23.622076237185905,54.582109953229946,1.1811038118592954,0.8573737782324877,A,452.45880000038596,Correct
19,519,278,B,46.81788617981967,20.942708239992523,2.340894308990984,0.3289672917651747,B,484.4813999998223,Correct
19,519,279,A,25.14796933595762,57.2507252298735,1.2573984667978808,0.899292288974292,A,530.8414000000994,Correct
19,519,280,B,56.65478753757573,25.011150302231925,2.832739376878786,0.3928742302366097,B,508.51680000005217,Correct
19,519,281,B,51.772852314379875,40.36722613188651,2.5886426157189937,0.6340869053086629,B,480.64260000001013,Correct
19,519,282,A,49.444394327426025,59.11972086742758,2.4722197163713013,0.9286504037969484,A,1089.7761999999602,Correct
19,519,283,A,37.0334792437062,67.02338035949772,1.8516739621853102,1.0528007967807624,A,2276.011500000095,Correct
19,519,284,A,23.46071999887709,43.88754187179827,1.1730359999438544,0.6893838956427795,A,486.24900000004345,Correct
19,519,285,A,45.24432537737283,53.75905353808202,2.2622162688686416,0.8444452382958942,B,1668.6219000002893,Incorrect
19,519,286,A,24.429787345046737,40.49078725597788,1.2214893672523368,0.6360277989072366,A,550.5471000001307,Correct
19,519,287,A,52.1995668973703,72.7908082052215,2.609978344868515,1.1433953415319373,A,631.42629999993,Correct
19,519,288,A,35.10961018851481,55.87629483870205,1.7554805094257404,0.8777027868754183,A,503.7277000001268,Correct
19,519,289,A,18.891892990056043,32.841373511762285,0.9445946495028023,0.5158710887917541,A,467.60760000006485,Correct
19,519,290,B,62.16040475423568,50.95647153713094,3.108020237711784,0.8004223831695397,A,590.3754000000845,Incorrect
19,519,291,A,36.725338786154374,65.16956401734792,1.8362669393077187,1.0236811177727498,A,493.582300000071,Correct
19,519,292,A,48.46098943010689,64.47202718851786,2.4230494715053448,1.0127242348874457,A,955.3742000002785,Correct
19,519,293,B,63.7811657764167,31.683049986230344,3.189058288820835,0.49767618540029723,B,600.3337999995892,Correct
19,519,294,B,76.41169492804127,55.48585051588011,3.8205847464020635,0.8715697017943518,A,583.8220000000547,Incorrect
19,519,295,B,44.38694147692165,21.594522651432236,2.2193470738460825,0.3392059685975895,B,517.6299000004292,Correct
19,519,296,B,85.92498602353062,58.97352820342476,4.296249301176531,0.9263540148007487,B,1056.1490999998568,Correct
19,519,297,B,39.371401506760094,28.151931275730938,1.9685700753380047,0.4422095024010052,B,536.4482999998472,Correct
19,519,298,B,72.76227158912549,55.25495762936054,3.6381135794562742,0.8679428448140718,A,770.388500000081,Incorrect
19,519,299,A,61.78383125326832,83.8191663678503,3.089191562663416,1.3166283864562958,A,521.0284999998294,Correct
19,519,300,A,20.116114438354487,43.62355687578058,1.0058057219177243,0.6852372290220439,A,499.50859999989916,Correct
19,519,301,B,51.49694818885232,31.689237554831827,2.574847409442616,0.49777337950060724,B,499.80249999998705,Correct
19,519,302,A,29.68623044225227,51.00138167428048,1.4843115221126135,0.8011278299542434,A,570.1878999998371,Correct
19,519,303,A,51.74212306755858,59.138500455004376,2.587106153377929,0.928945392868792,A,569.3710000000465,Correct
19,519,304,B,61.45154558382791,39.24600314645534,3.0725772791913952,0.6164747758383299,B,620.4540000003362,Correct
19,519,305,B,51.99705469187705,27.383869218564048,2.5998527345938522,0.4301448118195224,B,492.1556999997847,Correct
19,519,306,B,55.52472046399,33.40950114840825,2.7762360231995,0.5247952168396955,B,564.7667000002912,Correct
19,519,307,B,46.788204874884556,32.76599209513572,2.339410243744228,0.5146870002682982,B,465.98860000040077,Correct
19,519,308,A,27.094356310691502,49.850724689394895,1.354717815534575,0.7830533523016516,A,498.552799999743,Correct
19,519,309,B,81.98169643763582,63.7359660586762,4.0990848218817915,1.0011622136969278,B,2050.28429999993,Correct
19,519,310,B,83.4247378667396,57.168529757651314,4.171236893336981,0.8980011655158342,B,634.0531999999257,Correct
19,519,311,B,84.21674041530645,63.713286142627844,4.2108370207653225,1.00080595840872,B,668.0237999999008,Correct
19,519,312,B,76.39757008067815,65.64723367837443,3.8198785040339076,1.0311843352623677,B,484.306899999865,Correct
19,519,313,A,59.97930367286493,85.99385044593858,2.9989651836432465,1.3507882440742998,A,704.1777999997976,Correct
19,519,314,A,57.73615331234069,76.76360630803165,2.886807665617034,1.205799908201857,A,473.8584000001538,Correct
19,519,315,B,35.030239413573995,11.595003275104364,1.7515119706787,0.1821338855370873,B,1489.5955000001777,Correct
19,519,316,B,51.58691751543104,38.60872582863228,2.5793458757715517,0.6064644471384684,B,503.94520000008924,Correct
19,519,317,B,87.37498449827577,64.6259601931001,4.368749224913788,1.0151422088691484,B,845.7689000001665,Correct
19,519,318,B,53.90741865575599,27.77922220956257,2.6953709327877995,0.43635500208000083,B,461.53419999973266,Correct
19,519,319,A,38.59307400310838,60.165939265031405,1.9296537001554188,0.9450843639567617,A,514.2344000000776,Correct
19,519,320,A,43.51884228102312,58.55164334310743,2.175942114051156,0.9197270629115801,B,531.6272999998546,Incorrect
19,519,321,A,15.880785165604621,43.96183551124147,0.794039258280231,0.6905508974021954,A,488.9093000001594,Correct
19,519,322,B,46.03820810947564,23.333595375264057,2.301910405473782,0.36652325906383165,B,502.1462999998221,Correct
19,519,323,B,76.73461956009214,56.735516673204664,3.8367309780046073,0.891199411890805,B,486.4419000000453,Correct
19,519,324,B,69.17492865350576,54.624225435239154,3.4587464326752877,0.8580353266769003,B,555.1485000000866,Correct
19,519,325,A,22.68040131462766,45.56660109836221,1.134020065731383,0.7157584962983568,A,484.0152000001581,Correct
19,519,326,B,50.49681177650922,23.83901723819102,2.524840588825461,0.3744624071215067,B,462.7657000000909,Correct
19,519,327,A,52.18996707527759,63.66078006891734,2.60949835376388,0.9999811949315313,A,1921.8134000002465,Correct
19,519,328,B,75.38985016097051,44.38590857229252,3.7694925080485255,0.697212221468112,B,408.17409999999654,Correct
19,519,329,A,58.35739397408672,81.1823824316487,2.917869698704336,1.2752098812409234,A,571.4980999996442,Correct
19,519,330,B,78.9987961683499,59.360572401427504,3.949939808417495,0.9324336908460484,B,1277.7639999999337,Correct
19,519,331,B,82.87409629195105,58.03248237769043,4.143704814597553,0.9115721015366568,B,892.6556999999775,Correct
19,519,332,A,47.03609706086284,60.68103030559194,2.3518048530431424,0.9531753951015363,A,536.55260000005,Correct
19,519,333,B,69.0230852293869,60.321186430075414,3.4511542614693447,0.9475229807227262,B,424.84339999964504,Correct
19,519,334,A,30.046916844448567,56.06823180805209,1.5023458422224283,0.8807177257397301,A,486.9395999999142,Correct
19,519,335,B,82.74083536813052,61.667608430507144,4.137041768406526,0.9686725280486661,B,425.4177000002528,Correct
19,519,336,A,49.4262583785895,77.92512867830268,2.471312918929475,1.224045058928975,A,677.0102000000406,Correct
19,519,337,A,44.381800900885786,61.97334614072078,2.219090045044289,0.9734750447703289,A,677.2923000003175,Correct
19,519,338,A,53.89452416998578,72.46923383567844,2.6947262084992887,1.1383440631472412,A,633.7469000000056,Correct
19,519,339,B,62.846911549641014,49.031106567951326,3.142345577482051,0.7701788209562708,A,1369.1969999999856,Incorrect
19,519,340,A,61.34139053608014,86.73958288847672,3.067069526804007,1.362502181889407,A,553.8035999998101,Correct
19,519,341,B,43.02277847508914,34.64101096960729,2.151138923754457,0.5441397278752084,B,640.7490999999936,Correct
19,519,342,B,41.6712123058023,28.001563253689596,2.083560615290115,0.4398475270341058,B,493.1613000003381,Correct
19,519,343,A,55.52778144896084,71.69430198188307,2.776389072448042,1.1261714620526602,A,718.2308999999805,Correct
19,519,344,B,42.8190253520699,24.03601270035938,2.140951267603495,0.37755680460519997,B,996.0657999999967,Correct
19,519,345,B,63.86095318325092,46.335346275839136,3.1930476591625463,0.727833917308577,B,754.4387000002644,Correct
19,519,346,A,43.043434856866504,67.97678339333395,2.152171742843325,1.0677768166158128,A,600.2653000000464,Correct
19,519,347,B,87.52044853353574,64.5250407216502,4.376022426676787,1.0135569695185926,B,547.0433999998932,Correct
19,519,348,B,69.98558686697926,57.88393877727165,3.499279343348963,0.9092387841175898,B,882.7888000000712,Correct
19,519,349,B,32.49980312864991,18.08846455996199,1.6249901564324956,0.2841329368814796,B,958.6606000002575,Correct
19,519,350,B,80.96646554179404,59.45503593773714,4.048323277089702,0.9339175206045607,B,1155.113899999833,Correct
19,519,351,A,39.101621511853565,70.79386745598524,1.9550810755926784,1.112027469594664,A,680.6464000001142,Correct
19,519,352,B,81.10624419848747,56.808638664770974,4.055312209924374,0.8923480094484079,B,415.5241000003116,Correct
19,519,353,A,51.90881699126548,63.85025061353908,2.5954408495632744,1.002957391286808,A,572.5176999999348,Correct
19,519,354,A,28.772897353548544,58.85361548538188,1.4386448676774273,0.924470430230371,A,559.8633999998128,Correct
19,519,355,A,58.5968271690428,71.38463178973247,2.9298413584521397,1.1213071740491798,A,744.1417000000001,Correct
19,519,356,A,48.02314535842754,58.56544596037853,2.401157267921377,0.9199438739166761,A,768.1606000001011,Correct
19,519,357,B,69.40670453754218,41.86156641802092,3.470335226877109,0.6575599476330786,B,431.36550000008356,Correct
19,519,358,B,67.72991512600893,51.29553382092282,3.3864957563004463,0.8057483610688896,B,484.8800999998275,Correct
19,519,359,B,88.08234790528599,64.70880003771178,4.404117395264299,1.0164434541054312,B,508.6378999999397,Correct
19,519,360,A,43.77553294533653,52.101918963326355,2.188776647266826,0.8184150292655841,A,532.9087000000072,Correct
19,519,361,A,52.72091148825326,75.91091004562493,2.636045574412663,1.1924057866332545,A,514.197299999978,Correct
19,519,362,A,49.624952174986575,74.59673202905975,2.4812476087493285,1.1717627266215027,A,523.8664999997127,Correct
19,519,363,A,27.605363992570275,59.33482886069193,1.380268199628514,0.932029312253787,A,449.42800000035277,Correct
19,519,364,A,13.789713113082804,39.426559198042305,0.6894856556541401,0.6193109436644639,A,459.33960000002116,Correct
19,519,365,B,41.66637022050041,23.48657197492661,2.0833185110250207,0.36892620987218677,B,534.9341000001004,Correct
19,519,366,A,56.46335361336954,74.76255632533116,2.8231676806684773,1.1743674885762676,A,462.6690000000053,Correct
19,519,367,A,36.30194598507686,52.26192592136687,1.815097299253843,0.8209284126851006,A,546.5583999998671,Correct
19,519,368,A,64.38121533643255,88.91398438814855,3.2190607668216273,1.3966576007760252,B,1448.1297000002087,Incorrect
19,519,369,A,43.11356321015163,62.47439468629079,2.1556781605075814,0.9813454969196019,A,1625.2489000003152,Correct
19,519,370,B,74.85124455860574,56.3826821600313,3.742562227930287,0.8856571003182132,B,1044.8491000001923,Correct
19,519,371,A,31.527908098784263,57.524115570021294,1.5763954049392133,0.9035866943951457,A,1243.7565999998696,Correct
19,519,372,B,72.72224795715343,63.034273122556996,3.636112397857671,0.9901400468309881,B,715.8076000000619,Correct
19,519,373,A,59.49799862952806,74.28378469985665,2.974899931476403,1.1668469614695778,A,970.4738000000361,Correct
19,519,374,B,46.48164630234644,19.962549035648177,2.3240823151173218,0.3135709869865916,B,441.33179999971617,Correct
19,519,375,B,55.24883428675687,45.810791853395656,2.7624417143378435,0.7195942357087947,B,484.6989000002395,Correct
19,519,376,B,85.72025686612751,59.493994801840756,4.286012843306375,0.9345294850108612,B,532.4408000001313,Correct
19,519,377,A,18.695177877172807,46.50459365188102,0.9347588938586404,0.7304924488746397,A,608.2981999998083,Correct
19,519,378,B,56.65371845356526,34.814478476053395,2.8326859226782632,0.5468645490946465,B,573.3174000001782,Correct
19,519,379,A,23.974693063454637,50.99219077869813,1.1987346531727319,0.8009834597040363,A,484.47989999976926,Correct
19,519,380,A,42.415437468356366,52.19304304037935,2.1207718734178185,0.8198464029207582,A,567.2245999999177,Correct
19,519,381,A,52.446211285759425,68.28844392175077,2.622310564287971,1.072672368748254,A,607.2712000000138,Correct
19,519,382,B,45.43718295488412,20.042968996397164,2.2718591477442063,0.3148342207760466,B,420.51939999964816,Correct
19,519,383,B,57.1017307902098,24.967777101226602,2.8550865395104896,0.39219292558840474,B,424.9573000001874,Correct
19,519,384,A,15.16259226304599,31.519762808540822,0.7581296131522995,0.49511127641102315,A,513.8246000001345,Correct
19,519,385,A,52.67539813934287,77.45247400689448,2.6337699069671436,1.2166206167120703,A,978.6480000002484,Correct
19,519,386,A,30.321409651139184,63.33433586902226,1.5160704825569593,0.9948534214305442,A,496.4621000003717,Correct
19,519,387,B,74.12597716822971,49.81967542092214,3.7062988584114858,0.7825656315329849,B,439.3956999997499,Correct
19,519,388,B,70.9698531514272,38.93176783235116,3.54849265757136,0.6115387790668892,B,518.5661999998956,Correct
19,519,389,B,41.76236458201396,24.311408809024385,2.088118229100698,0.38188271656424594,B,439.6879999999328,Correct
19,519,390,A,63.39351698119881,75.75938025941869,3.1696758490599404,1.1900255623175267,A,839.1367999997783,Correct
19,519,391,B,58.38421340552175,32.419044175425526,2.919210670276087,0.509237155089599,B,904.5571999999993,Correct
19,519,392,B,52.14553185460767,36.20745036291662,2.6072765927303836,0.5687453003267797,A,431.49540000013076,Incorrect
19,519,393,A,40.02658807596524,54.441367283554214,2.001329403798262,0.8551629975469882,A,742.4065000000155,Correct
19,519,394,B,57.347386153688745,27.79693022782798,2.867369307684437,0.4366331589804621,B,548.4748999997464,Correct
19,519,395,B,54.121237844138925,30.209779453382176,2.706061892206946,0.4745341059865666,B,398.4580999999707,Correct
19,519,396,A,34.0906392540085,60.713184165171235,1.704531962700425,0.9536804667467305,A,510.7198000000608,Correct
19,519,397,B,86.35647250963993,67.03190188995455,4.317823625481997,1.052934652668165,B,713.1771999997909,Correct
19,519,398,A,44.06095377524606,52.59071659241141,2.203047688762303,0.8260930444687127,B,509.63089999959266,Incorrect
19,519,399,A,16.46054686889227,32.51509030369816,0.8230273434446134,0.5107458441445343,A,464.16510000017297,Correct
19,519,400,B,76.57949805445803,49.22393699231812,3.8289749027229014,0.7732077941791673,B,562.3439000000872,Correct
19,519,401,B,55.894054589496285,27.565089754117686,2.7947027294748144,0.432991417335397,B,450.3804000000855,Correct
19,519,402,B,71.86385541209414,45.646117406488216,3.5931927706047073,0.7170075355456029,B,725.9702999999718,Correct
19,519,403,B,52.04408235901673,40.26098796754904,2.602204117950836,0.6324181201255956,B,449.5905000003404,Correct
19,519,404,B,75.40828465056015,56.78127430019177,3.7704142325280077,0.891918171014747,A,792.5339000003078,Incorrect
19,519,405,B,63.4334618185963,54.86624361937999,3.171673090929815,0.8618369394235602,B,428.68959999987055,Correct
19,519,406,B,64.52796508862895,32.95447335030591,3.226398254431447,0.5176476569012084,B,359.4643999999789,Correct
19,519,407,B,42.924470402843355,16.366233993468445,2.1462235201421676,0.25708020240406004,B,447.20090000009804,Correct
19,519,408,B,73.00135643192812,46.47625549895841,3.650067821596406,0.7300473142094497,A,420.1563999999962,Incorrect
19,519,409,A,14.78431678761132,32.16221624647318,0.739215839380566,0.5052029114154322,A,546.5259000002334,Correct
19,519,410,B,37.00142875516569,26.644756661241047,1.8500714377582848,0.4185348589182129,B,517.3227999998744,Correct
19,519,411,B,49.7582580228341,33.59921843158272,2.487912901141705,0.5277752889550953,B,473.4787000002143,Correct
19,519,412,B,62.948614216077246,35.87686247815591,3.1474307108038624,0.5635524379761295,B,401.7800999999963,Correct
19,519,413,A,61.88992467652749,78.55303036449776,3.0944962338263746,1.2339081155516105,A,630.4652999997415,Correct
19,519,414,B,80.48930564686167,65.56045370899936,4.024465282343083,1.0298211986910306,B,604.5777999997881,Correct
19,519,415,A,14.735266325915159,35.046029328268446,0.736763316295758,0.550501741375903,A,465.2656000002935,Correct
19,519,416,A,49.85168765774938,64.96512706790438,2.492584382887469,1.020469829680279,B,2617.8333000002567,Incorrect
19,519,417,A,38.880755011888795,52.59211317114183,1.9440377505944397,0.826114981876111,A,511.1056999999164,Correct
19,519,418,A,63.98146116891145,84.99235182171832,3.199073058445572,1.3350567404721465,B,829.5253999999659,Incorrect
19,519,419,A,39.41498048956358,56.95869436550239,1.9707490244781791,0.8947050788836433,A,527.1680999999262,Correct
19,519,420,A,56.704936095215274,79.0886067528572,2.8352468047607635,1.2423209297871414,A,478.34549999970477,Correct
19,519,421,A,15.80818963661898,32.99573464645654,0.790409481830949,0.5182957878255304,A,750.0832000000628,Correct
19,519,422,B,79.94453040834048,49.59314670013289,3.997226520417024,0.7790073267076919,B,919.5113999999194,Correct
19,519,423,B,50.73006828669115,24.92621842797869,2.5365034143345575,0.3915401234755619,B,528.6252000000786,Correct
19,519,424,B,34.166228689986745,18.261287977694543,1.7083114344993373,0.28684764077906394,B,463.47789999981615,Correct
19,519,425,B,45.401873434739755,21.179047575750857,2.2700936717369875,0.33267970137003805,B,531.1079999996764,Correct
19,519,426,B,38.17754425655398,19.718468843843077,1.908877212827699,0.30973698429928315,B,767.2782999998162,Correct
19,519,427,A,36.64886333401986,60.306438806560124,1.832443166700993,0.9472913255942584,A,544.1221000000951,Correct
19,519,428,B,56.50992771046225,44.28171950019237,2.8254963855231123,0.6955756233506412,A,1563.1733000000168,Incorrect
19,519,429,A,16.044414510628677,44.593019118913176,0.8022207255314339,0.7004655063268341,A,829.9532999999428,Correct
19,519,430,B,32.19014800502241,10.665955256305207,1.6095074002511205,0.16754043338362937,B,495.6581000001279,Correct
19,519,431,B,79.63309857866315,60.980111474255374,3.9816549289331578,0.9578733511130365,B,504.7942000001058,Correct
19,519,432,A,18.069100153453746,44.532573888079945,0.9034550076726873,0.699516034861183,A,606.3255999997637,Correct
19,519,433,B,72.20062174394566,49.39041323629621,3.610031087197283,0.7758227969045612,B,2019.8163000000022,Correct
19,519,434,B,51.57802908569191,37.53087193739986,2.578901454284596,0.5895335578067736,B,862.6337000000603,Correct
19,519,435,A,55.78136439681691,66.67907938129085,2.7890682198408454,1.04739252966197,A,451.0414999999739,Correct
19,519,436,A,51.592169076631166,60.07444494165881,2.5796084538315585,0.9436471744859991,A,611.0635000000002,Correct
19,519,437,A,41.60317562747977,53.292069647421144,2.0801587813739886,0.8371098724946693,A,507.33539999964705,Correct
19,519,438,A,43.25004989636314,53.70726889496758,2.1625024948181566,0.8436318070240086,A,441.1783000000469,Correct
19,519,439,A,51.53035817460024,62.34678509363803,2.5765179087300116,0.9793410101255745,A,473.7667999997939,Correct
19,519,440,A,27.720258259574482,48.38496397530368,1.3860129129787242,0.7600292368451042,A,463.5585999999421,Correct
19,519,441,B,47.48776426828182,26.044781166469257,2.374388213414091,0.4091104658846681,B,511.29760000003444,Correct
19,519,442,B,47.73010894474058,33.20543582208876,2.386505447237029,0.521589766189607,B,580.2656999999272,Correct
19,519,443,A,61.275707848596916,82.91691171449551,3.0637853924298457,1.3024558035030627,A,521.5078999999605,Correct
19,519,444,A,19.47560609210238,35.36035776089763,0.9737803046051191,0.5554392008497141,A,468.8716000000568,Correct
19,519,445,A,34.23943059039876,62.38643185845679,1.7119715295199383,0.9799637800510405,A,501.44900000032067,Correct
19,519,446,A,54.12801918519692,65.53619408454432,2.706400959259846,1.0294401294011966,A,711.0907999999654,Correct
19,519,447,A,25.66218916639665,46.712251852513624,1.2831094583198324,0.733754336262465,A,441.0541000002013,Correct
19,519,448,B,46.6582685930385,37.58830922394837,2.3329134296519247,0.5904357805940883,A,1482.1904999998878,Incorrect
19,519,449,A,28.663456385175643,56.66650102509194,1.433172819258782,0.8901153166253366,A,696.8266000003496,Correct
19,519,450,B,69.06054412606915,48.67036413358337,3.4530272063034575,0.7645122920480284,B,570.2277000000322,Correct
19,519,451,A,66.04504511760878,79.4156742636343,3.302252255880439,1.2474584942325677,A,1127.47169999966,Correct
19,519,452,B,82.18352167236273,60.247281880744154,4.109176083618137,0.9463620907764964,B,1638.1672000002254,Correct
19,519,453,A,40.33111843882895,47.76134411014404,2.0165559219414475,0.7502334389100133,A,544.9177000000418,Correct
19,519,454,B,62.5683139049545,49.77378178201664,3.128415695247725,0.7818447359388249,B,701.0795999999573,Correct
19,519,455,A,39.202695625059576,70.31568699281837,1.9601347812529786,1.1045162284437877,A,481.49929999999586,Correct
19,519,456,A,27.653194727261045,50.24191461515939,1.3826597363630524,0.7891981492863519,A,661.9547999998758,Correct
19,519,457,B,34.69245190781112,11.940922186689772,1.7346225953905559,0.1875675670939598,B,776.7211999998835,Correct
19,519,458,B,74.71911838014906,41.90692966281631,3.7359559190074525,0.6582725118160395,B,472.98060000002806,Correct
19,519,459,B,43.974889983532776,15.095282102154993,2.1987444991766387,0.23711613677997806,B,575.6273000001784,Correct
19,519,460,A,27.494781464546982,46.14218522869993,1.374739073227349,0.7247997506753159,A,518.2694999998603,Correct
19,519,461,B,58.877635893319756,33.52979086686735,2.943881794665988,0.526684723318763,B,462.26919999980964,Correct
19,519,462,A,12.38505067090756,37.83574863756188,0.619252533545378,0.5943225498141721,A,470.8633000000191,Correct
19,519,463,B,32.52561857630701,15.806517355415298,1.6262809288153506,0.24828819401306135,B,470.9147999997185,Correct
19,519,464,A,18.4193614085464,45.93189913137025,0.92096807042732,0.7214965843827008,A,511.4662999999382,Correct
19,519,465,B,84.50769995534651,64.16014740682284,4.225384997767326,1.0078252387325644,B,598.6139999999978,Correct
19,519,466,A,24.2369002864555,39.35277295431095,1.211845014322775,0.6181519120582519,A,384.3065999999453,Correct
19,519,467,A,15.006321423030471,32.24305706529024,0.7503160711515235,0.5064727560279614,A,458.5213999998814,Correct
19,519,468,A,68.43008000074217,89.5874878629529,3.4215040000371086,1.407236968619088,B,501.88230000003387,Incorrect
19,519,469,B,77.08132003459093,61.781966203298154,3.8540660017295467,0.9704688557430717,A,739.7072999997363,Incorrect
19,519,470,A,21.795355705992808,38.612452513862266,1.0897677852996404,0.6065229857731722,A,686.2007999998241,Correct
19,519,471,A,51.88718549554055,69.98467202695656,2.5943592747770277,1.099316657518889,A,1382.7713999999105,Correct
19,519,472,A,50.361201405545295,79.51324398191484,2.5180600702772646,1.2489911157833824,A,1005.3987000001143,Correct
19,519,473,B,73.9239823381417,46.878133241958295,3.696199116907085,0.7363599950346982,B,481.5625999999611,Correct
19,519,474,A,57.2004623888064,84.63428220362033,2.86002311944032,1.329432196063695,A,517.7219000001969,Correct
19,519,475,B,62.93281970311827,35.23469989597743,3.146640985155914,0.5534653717232186,B,641.3268000001153,Correct
19,519,476,B,63.650712553962826,48.885591571485804,3.1825356276981416,0.7678930767368546,A,1439.9216000001616,Incorrect
19,519,477,A,29.11503913484938,44.14820702918756,1.4557519567424688,0.6934784143602846,A,515.5366999997568,Correct
19,519,478,B,71.22273525516408,44.5802188137691,3.561136762758204,0.7002644396038125,B,489.6278999999595,Correct
19,519,479,A,59.31131697165722,70.67083598076812,2.965565848582861,1.1100948957011518,A,632.0197999998527,Correct
19,519,480,B,65.48083479419313,46.998008877624486,3.2740417397096566,0.738242997116465,B,975.2221999997346,Correct
19,519,481,A,58.097558536152206,69.01449489625332,2.90487792680761,1.0840771507863984,A,1126.1506999999256,Correct
19,519,482,B,42.66795538253797,28.930927762319413,2.1333977691268986,0.4544459505981983,B,528.0698999999913,Correct
19,519,483,B,79.88199323133533,50.552012132713564,3.9940996615667665,0.794069149701575,B,556.220200000098,Correct
19,519,484,A,52.56699031137674,65.50644437734644,2.628349515568837,1.0289728220933,A,702.7042000004258,Correct
19,519,485,A,12.831243899555698,39.96681723961068,0.641562194977785,0.627797297136634,A,487.8343999998833,Correct
19,519,486,A,46.22026813379521,57.13221759560289,2.3110134066897605,0.8974307754081977,B,480.97280000001774,Incorrect
19,519,487,A,32.160591366152175,61.73011051601527,1.6080295683076087,0.9696543085119983,A,394.93210000000545,Correct
19,519,488,A,31.35813943205855,48.63859388666934,1.5679069716029275,0.7640132461764891,A,402.6804000000084,Correct
19,519,489,B,36.9200732580795,16.66395964832501,1.8460036629039749,0.261756866054473,B,561.8617000000086,Correct
19,519,490,B,81.88185418216798,67.49139636247045,4.094092709108399,1.0601523749642703,A,781.1663000002227,Incorrect
19,519,491,B,71.49213639027741,59.46658181152921,3.5746068195138707,0.934098882765983,B,545.8969999999681,Correct
19,519,492,A,35.65170438471608,58.65396372710867,1.7825852192358043,0.9213343077450339,A,635.2787000000717,Correct
19,519,493,B,58.07275363662105,39.26329795849928,2.9036376818310528,0.6167464421106422,B,805.47660000002,Correct
19,519,494,A,32.83848537333509,58.798348448102914,1.6419242686667546,0.9236022976388647,A,544.275799999923,Correct
19,519,495,B,38.06709440776953,25.020060845190173,1.9033547203884766,0.39301419671809534,B,523.8927000000331,Correct
19,519,496,B,46.49420066051427,29.940208802313286,2.3247100330257133,0.4702997001014594,B,520.894600000247,Correct
19,519,497,A,57.629303976869636,73.20111828943246,2.881465198843482,1.1498404772631925,A,502.9782999999952,Correct
19,519,498,A,48.03898323049017,74.77211112822562,2.4019491615245085,1.174517575069166,A,642.2977000001993,Correct
19,519,499,B,53.01123688291204,38.95082875928905,2.6505618441456016,0.6118381874070826,B,799.011800000244,Correct
19,519,500,B,70.00927792241349,50.44020403483591,3.5004638961206744,0.7923128722070536,A,697.5204999998823,Incorrect
19,519,501,B,61.18707687373754,29.82393049979899,3.0593538436868766,0.46847320479670534,B,811.7204000000129,Correct
19,519,502,A,61.93850962523375,71.89714040525286,3.096925481261687,1.1293576405562813,A,2003.4403999998176,Correct
19,519,503,B,54.35267877681401,30.895089705721837,2.7176339388407005,0.4852989342574668,B,525.4062999997586,Correct
19,519,504,B,75.12422255276388,52.29967132069762,3.7562111276381938,0.8215213160313222,B,457.87079999990965,Correct
19,519,505,A,40.397052799716214,60.35439998486994,2.0198526399858108,0.9480446980214368,A,479.3758999999227,Correct
19,519,506,A,52.38492155626039,64.6632291034943,2.619246077813019,1.015727627544657,A,684.0919000001122,Correct
19,519,507,B,45.54263960521097,34.61711080191941,2.2771319802605485,0.5437643049190695,B,753.3784000002015,Correct
19,519,508,A,35.749825116259714,63.4113933805285,1.7874912558129858,0.996063837990804,A,563.0433999999696,Correct
19,519,509,A,60.9737286500735,79.32864769920907,3.0486864325036747,1.2460914841552402,A,1635.8748000002379,Correct
19,519,510,A,54.5172997451902,70.81518845157541,2.72586498725951,1.1123623790102304,A,632.6054999999542,Correct
19,519,511,A,50.34112631172314,62.66966560283423,2.517056315586157,0.9844128053039648,A,549.0048999999999,Correct
19,519,512,B,47.321331901513915,38.922944910746146,2.366066595075696,0.6114001889384016,B,856.3781999996536,Correct
19,519,513,A,41.280641449020266,58.677082218561,2.0640320724510133,0.9216974521595777,A,607.8211000003648,Correct
19,519,514,A,47.48592650014776,76.97932517735822,2.3742963250073883,1.209188412277442,A,530.8765999998286,Correct
19,519,515,B,46.99912593595566,36.81056919975862,2.349956296797783,0.578219068862102,B,479.8588000003292,Correct
19,519,516,A,29.03801774025172,43.88590588553139,1.4519008870125862,0.6893581976305925,A,716.3023999996767,Correct
19,519,517,A,49.57681822530117,67.79436923913508,2.4788409112650585,1.064911461782103,A,1449.2820999998912,Correct
19,519,518,A,27.54605748554999,55.505776942430536,1.3773028742774995,0.8718827053706676,A,1008.1918000000769,Correct
19,519,519,A,68.98986190819157,84.52290806517748,3.449493095409579,1.3276827351880354,A,720.2220000003763,Correct
19,519,520,A,21.318342978129593,53.38371447673598,1.0659171489064796,0.8385494261072443,A,1053.7398999999823,Correct
19,519,521,A,51.38526034493422,80.40563893720295,2.5692630172467106,1.263008822961551,A,1267.0388000001367,Correct
19,519,522,B,78.17314323656298,56.05802401648984,3.908657161828149,0.8805573821248233,B,1699.316600000202,Correct
19,519,523,A,53.40174279312006,70.63383788744135,2.670087139656003,1.1095137310101906,A,618.4817000003022,Correct
19,519,524,B,41.55679543741843,19.725625202157264,2.0778397718709214,0.30984939611281465,B,558.6741000001894,Correct
19,519,525,B,54.77183200294489,39.93004227172642,2.738591600147245,0.6272196372919281,B,709.5570999999836,Correct
19,519,526,A,37.78479967580525,58.74681661730248,1.8892399837902627,0.9227928375335211,A,454.70160000013493,Correct
19,519,527,B,30.81396647572244,14.436362459897094,1.540698323786122,0.22676585124286092,B,417.76100000015504,Correct
19,519,528,A,45.39419917172743,56.36437365202635,2.2697099585863714,0.8853695109469804,A,491.16700000013225,Correct
19,519,529,A,63.56828025724869,88.14371221200916,3.1784140128624347,1.3845581937269045,A,519.3214999999327,Correct
19,519,530,A,46.10055711492655,73.42054117286033,2.3050278557463275,1.1532871638562248,A,490.34160000019256,Correct
19,519,531,B,69.1117461056258,59.22797582191173,3.45558730528129,0.9303508686455588,B,1100.0276999998277,Correct
19,519,532,A,10.651930796375396,34.71926575605917,0.5325965398187698,0.5453689511863359,A,469.42669999998543,Correct
19,519,533,A,50.02437679518444,61.6219379632557,2.501218839759222,0.9679551380266502,B,422.54030000003695,Incorrect
19,519,534,A,50.27967826241412,62.5596016542129,2.513983913120706,0.9826839248418957,A,344.238299999688,Correct
19,519,535,B,41.65008606792095,23.77303821294834,2.0825043033960475,0.37342601101653966,B,539.7744000001694,Correct
19,519,536,B,72.25421154591352,42.91292762093418,3.612710577295676,0.6740746907897865,B,434.4762999999148,Correct
19,519,537,A,25.606402368440264,50.87995456840033,1.2803201184220132,0.7992204574353446,A,478.9037999998982,Correct
19,519,538,A,18.91373887698878,41.19238542612042,0.9456869438494391,0.6470484771926958,A,531.6043000002537,Correct
19,519,539,A,44.585425807761084,58.71772823618201,2.2292712903880543,0.9223359183113568,A,540.1778999998896,Correct
19,519,540,A,18.78295713469901,45.30853100917486,0.9391478567349506,0.7117047408168452,A,475.11549999990166,Correct
19,519,541,A,27.962522490585005,38.622654885132945,1.3981261245292504,0.6066832442463379,A,439.2459999999119,Correct
19,519,542,B,78.81646638386329,55.66907110800028,3.940823319193164,0.8744477241253074,B,625.2340000000913,Correct
19,519,543,A,29.440773798016245,57.49268545328033,1.4720386899008122,0.9030929912758712,A,668.7839000001077,Correct
19,519,544,A,52.014253885724244,80.52495874570685,2.600712694286212,1.264883094130669,A,740.7982999998239,Correct
19,519,545,A,31.164825047014535,46.59037808743755,1.5582412523507267,0.7318399476373235,A,413.11869999981354,Correct
19,519,546,A,16.00735793988905,38.97917689503437,0.8003678969944525,0.6122834788820849,A,450.67340000014156,Correct
19,519,547,B,88.12072646130233,64.51216262013905,4.406036323065116,1.0133546807730944,B,514.9659999997311,Correct
19,519,548,B,57.889073697969245,39.33082213439056,2.894453684898462,0.6178071093852411,B,433.0342000002929,Correct
19,519,549,B,56.21202392964255,40.54192820857296,2.810601196482127,0.6368311191120881,B,520.250500000202,Correct
