subject,day,trial,cat,x,y,xt,yt,resp,rt,fb
4,504,0,B,54.66818441676743,35.688586329551775,2.7334092208383716,0.560595003149625,B,1552.0849999993516,Correct
4,504,1,A,18.208818899084807,40.666058526193424,0.9104409449542403,0.6387809535817092,A,1159.3487999998615,Correct
4,504,2,B,33.93473914322867,13.356061735343477,1.6967369571614335,0.20979652714323405,B,611.4847999997437,Correct
4,504,3,B,42.37681740521067,31.653817194532692,2.1188408702605335,0.4972169977820909,B,645.4267000008258,Correct
4,504,4,B,72.70414515943989,43.35376925574816,3.6352072579719947,0.6809994149964274,B,455.66150000013295,Correct
4,504,5,B,72.61399167613239,48.41239674071357,3.6306995838066194,0.7604601497165008,B,945.3193000008469,Correct
4,504,6,A,55.601959038377586,63.77773097565057,2.7800979519188793,1.00181825547865,A,816.2502999985009,Correct
4,504,7,A,22.540181995186934,44.55189177491086,1.1270090997593467,0.6998194795179373,A,655.9861000005185,Correct
4,504,8,A,63.13805456196589,75.78147163940943,3.156902728098294,1.1903725729029597,A,830.078400000275,Correct
4,504,9,A,41.37516139090516,73.93865745659852,2.0687580695452583,1.1614257154097105,A,513.1118000008428,Correct
4,504,10,A,66.06281984929177,84.33932352424358,3.3031409924645887,1.3247989959624824,A,451.34739999957674,Correct
4,504,11,B,80.58557453983927,51.76365032021441,4.029278726991964,0.8131015178448828,B,1474.258899999768,Correct
4,504,12,A,40.49520316942029,54.58746593259631,2.0247601584710146,0.8574579097596383,A,854.9729000005755,Correct
4,504,13,A,57.92672233047658,74.3158177037125,2.896336116523829,1.1673501347175073,A,591.5451000000758,Correct
4,504,14,A,54.48919751624388,62.117910853791265,2.7244598758121934,0.9757458619730816,A,572.2200000000157,Correct
4,504,15,B,35.834638482733325,15.92670235886581,1.7917319241366665,0.2501760556326203,B,528.1539999996312,Correct
4,504,16,B,83.32629034683033,63.15873409160203,4.166314517341516,0.9920950751610407,B,1517.9473999996844,Correct
4,504,17,B,57.57639660717267,27.728120848516422,2.8788198303586334,0.43555230377774584,B,558.7940000004892,Correct
4,504,18,A,46.43596565162715,78.53256453138508,2.3217982825813577,1.2335866389968284,A,620.0513000003411,Correct
4,504,19,A,29.736891357991404,50.129571410746124,1.48684456789957,0.7874334663580247,A,715.7895999989705,Correct
4,504,20,A,45.27582533853294,64.6409709395063,2.263791266926647,1.0153779971223216,A,569.0389999999752,Correct
4,504,21,A,47.27783215064134,73.19130481759426,2.3638916075320666,1.1496863276080267,A,513.0834999999934,Correct
4,504,22,B,55.78683173357826,37.405362333501934,2.7893415866789133,0.5875620575589703,B,656.800500000827,Correct
4,504,23,A,14.978396088729525,32.37730671106142,0.7489198044364762,0.5085815445324704,A,580.964299999323,Correct
4,504,24,A,32.787458916118666,43.9510891461628,1.6393729458059334,0.6903820938942757,A,443.88210000033723,Correct
4,504,25,A,15.385067174229366,36.104902246685654,0.7692533587114683,0.5671344782838262,A,471.2054999999964,Correct
4,504,26,B,43.9745094733769,28.04774595704121,2.1987254736688446,0.44057296324196743,B,1027.0853000001807,Correct
4,504,27,B,52.268120667704935,35.43069663174574,2.6134060333852465,0.5565440812493052,B,684.2110999987199,Correct
4,504,28,B,70.5073090437649,51.232152462269696,3.5253654521882454,0.8047527690152936,B,2111.5431999987777,Correct
4,504,29,A,61.99001142533007,85.67575987223282,3.0995005712665034,1.345791689026649,A,505.74820000110776,Correct
4,504,30,B,73.9505583091709,54.69115484486392,3.697527915458545,0.8590866513848314,B,1157.1000999992975,Correct
4,504,31,A,65.44387722178634,79.60634514439629,3.272193861089317,1.2504535454238441,A,548.8729999997304,Correct
4,504,32,B,86.76030377862068,60.085839896288334,4.338015188931035,0.9438261660147597,B,811.217200000101,Correct
4,504,33,A,54.25957864289659,81.01086129532572,2.7129789321448294,1.272515633531885,A,501.6880000002857,Correct
4,504,34,A,50.60124998062729,68.86273382248571,2.5300624990313647,1.0816932934141523,A,519.6694000005664,Correct
4,504,35,A,30.370521299409255,45.233379370419755,1.5185260649704628,0.7105242616357539,A,789.4739999992453,Correct
4,504,36,B,36.52521102175993,19.01236797939843,1.8262605510879966,0.2986455778571196,B,502.6061999997182,Correct
4,504,37,A,62.76846679377547,87.19103925943517,3.138423339688773,1.369593641981504,A,503.43319999956293,Correct
4,504,38,A,27.672582361669473,49.75825902953093,1.3836291180834737,0.7816009051129618,A,535.7284999990952,Correct
4,504,39,A,50.48979984645712,73.28585954579549,2.524489992322856,1.1511715898054227,A,476.9739000003028,Correct
4,504,40,B,77.62530119495426,51.95007098832455,3.881265059747713,0.8160298068519432,B,1696.842800000013,Correct
4,504,41,A,62.246044378839215,78.36688629625286,3.1123022189419607,1.2309841713650729,A,438.41539999993984,Correct
4,504,42,B,59.049107703994274,26.82295478975852,2.952455385199714,0.4213339885753826,B,507.94820000010077,Correct
4,504,43,B,62.61685787724767,38.874217020320046,3.130842893862383,0.6106347730254638,B,1155.3810000004887,Correct
4,504,44,A,59.82338054744105,72.56041917863453,2.9911690273720524,1.1397763991649708,B,2534.723799999483,Incorrect
4,504,45,A,40.93057280687134,65.87946501184615,2.046528640343567,1.0348322165182082,A,1543.055699999968,Correct
4,504,46,B,81.58381140920743,53.444974959662275,4.079190570460372,0.8395117035228273,B,1234.3588000003365,Correct
4,504,47,B,80.01012475903228,53.36395997766093,4.0005062379516145,0.8382391231613966,B,490.6715000015538,Correct
4,504,48,A,36.760813908510826,50.49159681687343,1.8380406954255415,0.7931201481395369,A,842.9825000002893,Correct
4,504,49,A,53.40700350428281,81.33573499674812,2.6703501752141405,1.2776187377005506,A,718.0029000010109,Correct
4,504,50,A,45.374994610486596,72.91345476396681,2.2687497305243296,1.1453218691716491,A,502.2986000003584,Correct
4,504,51,A,52.68465951004142,70.75269213426263,2.634232975502071,1.1113806891534992,A,557.1884000000864,Correct
4,504,52,B,73.50303028447684,61.0953227581154,3.675151514223842,0.9596830857279632,B,1501.7660000012256,Correct
4,504,53,A,53.617338336945,81.76295224065166,2.68086691684725,1.2843294504752218,A,543.9992999999959,Correct
4,504,54,A,13.633151267301518,35.15809129768212,0.6816575633650759,0.552262006675187,A,572.435600000972,Correct
4,504,55,A,36.95699247611772,58.504398650245065,1.847849623805886,0.9189849450114925,A,779.3557999993936,Correct
4,504,56,B,57.72670005100338,34.36389559974303,2.886335002550169,0.5397868098243966,B,517.3168000001169,Correct
4,504,57,A,41.1307366488576,64.87336555856325,2.05653683244288,1.019028443262137,A,1051.3967000006232,Correct
4,504,58,A,62.4742074012955,83.19769472955952,3.1237103700647753,1.3068663327899521,A,457.2085999989213,Correct
4,504,59,A,59.48286187602646,75.08780308514534,2.974143093801323,1.1794764527324482,A,689.4871000004059,Correct
4,504,60,A,19.89275196042385,36.795533627157134,0.9946375980211926,0.5779828906399652,A,533.3890000001702,Correct
4,504,61,B,32.735544370351796,14.539880856139334,1.6367772185175897,0.228391914408591,B,1038.7731000009808,Correct
4,504,62,B,75.0649971809292,50.23083150297008,3.75324985904646,0.7890240561671877,B,718.7926999995398,Correct
4,504,63,A,45.16002898655615,70.74433165391069,2.2580014493278076,1.1112493630352285,A,740.3324999995675,Correct
4,504,64,B,52.992138704640716,36.051910526522796,2.6496069352320357,0.5663020862900028,B,1295.3728000011324,Correct
4,504,65,A,46.99875726254848,57.968887453023854,2.349937863127424,0.9105731547959663,A,1761.0473000004276,Correct
4,504,66,B,89.13895591404943,69.1658073700364,4.456947795702472,1.0864539615665658,B,821.7625000015687,Correct
4,504,67,A,63.06271289015628,74.97930923235805,3.1531356445078136,1.177772235278067,A,751.4463999996224,Correct
4,504,68,B,34.23900026414816,17.96904099583352,1.711950013207408,0.282257035922822,B,749.8117000013735,Correct
4,504,69,B,58.45755719286993,26.413652076041856,2.922877859643496,0.4149046765828494,B,514.7701999994752,Correct
4,504,70,B,40.48362551496904,29.065813699469686,2.024181275748452,0.4565647339443177,B,467.89199999875564,Correct
4,504,71,B,60.277480857845994,51.36829063822637,3.0138740428922994,0.8068912224825866,B,1215.2494999991177,Correct
4,504,72,B,49.26022490508282,40.77083898761217,2.4630112452541413,0.6404268412208736,B,619.9536000003718,Correct
4,504,73,B,58.0047039555424,42.33030330007846,2.90023519777712,0.6649228493587714,B,489.21100000006845,Correct
4,504,74,B,33.665692017129345,18.288191952935435,1.6832846008564673,0.28727024743390966,B,570.3603000001749,Correct
4,504,75,B,60.75890990225611,41.81284812751113,3.0379454951128055,0.6567946825152736,B,414.22160000001895,Correct
4,504,76,B,46.60536912759845,19.743851639471053,2.3302684563799225,0.3101356963206453,B,479.32119999859424,Correct
4,504,77,B,58.41232308045439,39.83129796782865,2.92061615402272,0.6256685653933828,B,418.40070000034757,Correct
4,504,78,B,58.98392455333806,36.5356311792587,2.9491962276669033,0.5739003525351266,B,427.7544999986276,Correct
4,504,79,B,58.68990185138049,32.555864294975656,2.9344950925690245,0.5113863205018089,B,513.300699998581,Correct
4,504,80,A,25.527070309818967,54.21435684752706,1.2763535154909484,0.8515971259564326,A,503.129099999569,Correct
4,504,81,A,18.4953257230129,38.467826357252676,0.9247662861506449,0.6042512034175641,A,506.962299999941,Correct
4,504,82,A,57.87681788949655,82.86275872215002,2.893840894474828,1.3016051702884504,A,2264.233599998988,Correct
4,504,83,A,22.795053190346202,50.09339077066088,1.1397526595173102,0.7868651421925549,A,1627.5996000003943,Correct
4,504,84,A,12.696648583347077,34.46798385284649,0.6348324291673538,0.5414218242807707,A,463.73140000105195,Correct
4,504,85,A,35.83994467349973,50.05552146096677,1.7919972336749865,0.7862702924668972,A,1178.2461999991938,Correct
4,504,86,A,14.51266486361786,37.252465051565125,0.725633243180893,0.5851603526705376,A,587.3588000013115,Correct
4,504,87,B,53.92468461864235,22.25916939978283,2.696234230932118,0.3496462153068423,B,791.7672000003222,Correct
4,504,88,B,45.81579690250489,35.311196275312355,2.2907898451252446,0.5546669740399428,B,539.0862000003835,Correct
4,504,89,B,42.79611178572705,22.874442866579685,2.1398055892863526,0.3593109083230309,B,486.72199999964505,Correct
4,504,90,B,74.02598159502622,48.09355648239526,3.701299079751311,0.7554518186504936,B,1040.6836999991356,Correct
4,504,91,A,59.97417624015701,85.2068477331476,2.9987088120078504,1.3384260343700032,A,567.6034999996773,Correct
4,504,92,B,88.22630316754376,69.5329532732682,4.411315158377188,1.0922210759285087,A,1391.3448000002973,Incorrect
4,504,93,A,21.263946354021034,39.06258914326207,1.0631973177010516,0.6135937154133426,A,498.39090000023134,Correct
4,504,94,B,48.48410945320554,31.326529999328095,2.4242054726602773,0.492075982541747,B,1194.370600000184,Correct
4,504,95,A,17.657526956774035,37.467436485683216,0.8828763478387017,0.5885371160613229,A,536.2160000004224,Correct
4,504,96,A,11.005513528173882,35.96626167089154,0.550275676408694,0.5649567172118051,A,421.7475999994349,Correct
4,504,97,B,50.61091577130954,38.313588030842126,2.5305457885654774,0.6018284334517973,B,1030.330800000229,Correct
4,504,98,B,65.55837169915925,44.897033845079605,3.2779185849579626,0.7052409584783719,B,1062.6023999993777,Correct
4,504,99,A,32.43664328517978,58.42204105934123,1.6218321642589888,0.9176912749987384,A,617.1100999999908,Correct
4,504,100,A,32.12331344190795,47.3442179370137,1.6061656720953976,0.7436812363043818,A,576.3146999997844,Correct
4,504,101,A,42.832629276268726,51.82576666866678,2.1416314638134364,0.8140772391647115,A,918.1195000001026,Correct
4,504,102,B,67.09033852353028,33.854668616321646,3.3545169261765135,0.531787891073765,B,679.8434000011184,Correct
4,504,103,A,19.759225398516893,46.36567820544127,0.9879612699258447,0.7283103701446134,A,494.98419999872567,Correct
4,504,104,A,39.05256471102898,62.82356052602293,1.952628235551449,0.9868301811045369,A,618.8600000004953,Correct
4,504,105,B,35.850026979972405,22.10954402808347,1.7925013489986201,0.34729590546423555,B,571.4298999992025,Correct
4,504,106,B,73.71254413382746,43.680503959516145,3.685627206691373,0.6861317517215789,B,613.9050999991014,Correct
4,504,107,B,55.570010962244965,30.314616735445128,2.7785005481122482,0.47618088616232307,B,455.3446999998414,Correct
4,504,108,B,79.4619227452451,60.89725825273264,3.973096137262255,0.9565718957527262,B,1070.5125000004045,Correct
4,504,109,B,56.5462936397102,33.50458672596925,2.82731468198551,0.5262888175993355,B,609.0062000002945,Correct
4,504,110,A,54.55506390313462,73.98131300909482,2.7277531951567306,1.1620957472614963,A,546.3976999999431,Correct
4,504,111,A,39.103507543157626,66.10034581229193,1.9551753771578815,1.038301804018206,A,531.809300000532,Correct
4,504,112,A,43.7898299034223,74.00147742117889,2.189491495171115,1.1624124891058327,A,620.4018999997061,Correct
4,504,113,B,49.36326159153942,27.963526791385753,2.468163079576971,0.43925005168139414,B,489.0792000005604,Correct
4,504,114,B,69.13715044528205,42.14579414821056,3.456857522264102,0.66202458637863,B,476.4161000002787,Correct
4,504,115,B,49.93807658168152,20.119107970172063,2.496903829084076,0.31603020897936207,B,404.15889999894716,Correct
4,504,116,A,24.89843708046215,52.2174930047719,1.2449218540231073,0.820230462063339,A,517.2781999990548,Correct
4,504,117,A,56.29242558223598,67.87908476830614,2.814621279111799,1.066242170202547,A,915.6246000002284,Correct
4,504,118,B,51.71103162730002,44.27564504565973,2.585551581365001,0.6954802060419697,B,1873.4451000000263,Correct
4,504,119,B,40.73489923188832,17.684108653946286,2.036744961594416,0.27778132916260667,B,428.21770000045944,Correct
4,504,120,A,45.279288063098086,57.4549154707168,2.263964403154904,0.9024997017771322,A,746.3017000009131,Correct
4,504,121,A,28.193819492124508,40.33290726458527,1.4096909746062254,0.6335478258016976,A,501.64679999943473,Correct
4,504,122,A,52.466441087660606,66.63657555171672,2.6233220543830305,1.0467248810682723,A,672.13989999982,Correct
4,504,123,B,86.25894197247612,66.74289749008717,4.312947098623806,1.0483949821707728,B,634.9250999992364,Correct
4,504,124,A,42.42557053474884,60.80302455560271,2.121278526737442,0.9550916762996065,A,1153.8474000008136,Correct
4,504,125,A,27.681510112667013,57.967182205905296,1.3840755056333507,0.9105463688368652,A,522.4070999993273,Correct
4,504,126,A,52.51422330674761,75.84409145676099,2.6257111653373806,1.1913562026937636,A,548.0417999988276,Correct
4,504,127,A,19.084331875700727,35.85969610643699,0.9542165937850363,0.5632827892397247,A,653.7411999997857,Correct
4,504,128,B,89.319718999082,65.59244803239667,4.4659859499541,1.0303237643477385,B,1763.2568000008177,Correct
4,504,129,B,65.07697031093419,38.23329159147577,3.2538485155467094,0.6005671399316834,B,479.70580000037444,Correct
4,504,130,B,79.03842186014236,50.109389148158016,3.951921093007118,0.7871164441186267,B,412.72940000089875,Correct
4,504,131,B,50.67943504607577,43.01987645361934,2.5339717523037883,0.6757546391251552,B,769.1372999997839,Correct
4,504,132,B,53.58846612547341,26.6813831498364,2.6794233062736703,0.4191101864557026,B,512.2948000007455,Correct
4,504,133,A,12.38437960668427,35.55582636469156,0.6192189803342135,0.5585096144981463,A,555.6407999993098,Correct
4,504,134,A,47.97028314688639,75.05028627506208,2.3985141573443194,1.1788871400577297,A,658.0240999992384,Correct
4,504,135,B,76.06915387490618,54.4951168677586,3.803457693745309,0.8560072940413382,B,867.6832000001014,Correct
4,504,136,B,76.80227123897625,64.05915525153773,3.840113561948812,1.006238857666995,B,624.3725000003906,Correct
4,504,137,B,60.9861939606332,31.59609299298791,3.04930969803166,0.4963102681445538,B,556.5643000009004,Correct
4,504,138,B,44.10270684374516,27.944717383198416,2.205135342187258,0.43895459418849564,B,402.91309999884106,Correct
4,504,139,B,71.55623341610072,44.80833427950103,3.577811670805036,0.7038476689603806,B,415.9019000016997,Correct
4,504,140,A,33.64295749109435,43.71232824982107,1.6821478745547176,0.6866316465047172,A,694.5274999998219,Correct
4,504,141,A,14.84140237694153,37.71195426806347,0.7420701188470765,0.5923779924053122,A,488.47120000027644,Correct
4,504,142,A,60.54048966555209,86.41806964054163,3.027024483277604,1.3574518636006836,A,553.0046000003495,Correct
4,504,143,A,39.6161560752056,47.68030148836975,1.98080780376028,0.7489604243840443,A,914.1693000001396,Correct
4,504,144,A,49.28642020094239,56.06840503611391,2.4643210100471196,0.880720446799762,A,646.015799999077,Correct
4,504,145,B,69.95141997261157,54.69660807489504,3.4975709986305787,0.8591723105218522,A,1154.199399999925,Incorrect
4,504,146,A,54.494444311252465,64.14079870821061,2.724722215562623,1.007521310085481,B,737.626400001318,Incorrect
4,504,147,B,81.0402272287173,64.00780739576774,4.052011361435865,1.0054322874346717,B,647.7506999999605,Correct
4,504,148,A,45.50524151683351,57.13877654219866,2.2752620758416753,0.8975338031004007,A,1139.8826000004192,Correct
4,504,149,B,54.67826371497793,46.01781540541005,2.733913185748896,0.722846154059437,B,1134.4075000015437,Correct
4,504,150,A,35.05561785928387,49.72863940263086,1.7527808929641935,0.7811356411016052,A,1047.808299999815,Correct
4,504,151,A,41.606777924220026,58.11901788041158,2.080338896211001,0.9129313980347743,A,642.313300000751,Correct
4,504,152,A,56.335608198684724,68.20547287546495,2.8167804099342364,1.071369062600893,A,422.44509999909496,Correct
4,504,153,B,38.84626652036177,25.49618120393663,1.9423133260180887,0.4004930778244074,B,599.2704999989655,Correct
4,504,154,B,81.9339167681799,68.03807893759986,4.096695838408994,1.068739644773631,B,1027.18939999977,Correct
4,504,155,B,70.56633920461351,50.38466777543212,3.528316960230676,0.7914405106842997,B,833.8242999998329,Correct
4,504,156,A,42.72738231099441,52.940313653008616,2.1363691155497206,0.8315845022551565,A,1168.7496000013198,Correct
4,504,157,B,71.43690884910356,53.26511437285019,3.5718454424551784,0.8366864600318314,B,743.3279999986553,Correct
4,504,158,B,69.22769044924594,47.84390624753535,3.4613845224622968,0.7515303219314793,B,482.984000000215,Correct
4,504,159,B,30.820973040766404,16.536382745211164,1.5410486520383202,0.2597528927465221,B,470.0561999998172,Correct
4,504,160,A,41.693854599552616,60.00921018962263,2.0846927299776308,0.9426224693972209,A,937.8995999995823,Correct
4,504,161,B,61.62013734297199,49.07103250121596,3.0810068671485995,0.77080597604943,B,1104.834200001278,Correct
4,504,162,B,48.33584259230163,31.06122454720206,2.4167921296150814,0.48790857424496464,B,681.9541000004392,Correct
4,504,163,B,67.36207952678637,55.11913009225968,3.368103976339319,0.8658092708505154,B,589.271099999678,Correct
4,504,164,B,68.27310414766143,50.48808111523138,3.4136552073830715,0.7930649236272823,B,448.61979999950563,Correct
4,504,165,B,47.297035859711116,28.55887237831589,2.3648517929855557,0.44860171829262835,B,440.6119999985094,Correct
4,504,166,B,37.83829812899061,18.940823490907988,1.8919149064495304,0.2975217596598876,B,406.76579999853857,Correct
4,504,167,A,52.47748558144792,67.4711701474418,2.623874279072396,1.0598346623215504,A,2215.299199999208,Correct
4,504,168,B,51.19303038447101,28.74457255255726,2.5596515192235505,0.45151868980846344,B,431.29880000014964,Correct
4,504,169,B,79.99201432279902,48.66714277663672,3.9996007161399514,0.7644616910914375,B,557.951700000558,Correct
4,504,170,B,66.58128600603177,43.055015672837925,3.3290643003015883,0.6763066046899051,B,452.8250000003027,Correct
4,504,171,B,65.60982887790104,45.70759075793297,3.2804914438950514,0.7179731566920547,B,466.1063000003196,Correct
4,504,172,B,72.60844530330817,59.68436983858376,3.6304222651654086,0.9375198890951548,B,607.9420999994909,Correct
4,504,173,A,42.30446594567759,66.09891019030621,2.1152232972838796,1.0382792533207876,A,749.4662000008248,Correct
4,504,174,B,78.10428130222887,64.5091996007718,3.9052140651114433,1.0133081377737114,B,558.8277999995626,Correct
4,504,175,A,49.24944858939703,67.24905701887623,2.4624724294698517,1.0563457174567135,A,1397.7614000014,Correct
4,504,176,A,40.6945389204872,71.19428254120935,2.0347269460243598,1.1183171750452967,A,576.8212999992102,Correct
4,504,177,B,47.83666249320805,20.83436187597223,2.3918331246604025,0.32726539105892805,B,426.2098999988666,Correct
4,504,178,B,71.81312735044617,49.64941609442405,3.590656367522308,0.7798912042863273,B,700.9731999987707,Correct
4,504,179,A,18.316292493165253,43.1851351796101,0.9158146246582626,0.6783505171227262,A,586.7581000002247,Correct
4,504,180,B,36.907799380144965,18.915879702703513,1.8453899690072484,0.2971299435510082,B,502.12869999995746,Correct
4,504,181,A,34.78535282617633,61.31763973546898,1.7392676413088166,0.9631752326420746,A,931.9451000010304,Correct
4,504,182,A,33.7922283136359,52.92235630201289,1.6896114156817952,0.831302428845326,A,899.6846999998525,Correct
4,504,183,A,49.31817154954793,67.43886869568462,2.4659085774773963,1.0593272723038474,A,775.0196000015421,Correct
4,504,184,A,46.74172195894879,72.88173512635151,2.3370860979474397,1.1448236182691154,A,505.478300001414,Correct
4,504,185,B,55.27600530834603,23.501248857260368,2.7638002654173017,0.3691567538007734,B,545.4943999993702,Correct
4,504,186,B,59.62466309393055,37.739906164196206,2.9812331546965276,0.5928170597630347,B,688.1689999991067,Correct
4,504,187,B,43.867882294406236,33.55707538991979,2.1933941147203115,0.5271133076046542,B,726.8137000010029,Correct
4,504,188,B,38.32251760542591,28.235820375250384,1.9161258802712953,0.443527229294838,B,540.8793000005971,Correct
4,504,189,B,69.71771004610461,53.85108755398489,3.485885502305231,0.8458909052370984,B,905.8560999983456,Correct
4,504,190,A,67.84286148589882,86.09212630708558,3.392143074294941,1.352331957691323,A,784.4874000002164,Correct
4,504,191,B,63.392329089986,43.417778314569034,3.1696164544993,0.6820048669412015,B,590.6128000005992,Correct
4,504,192,A,34.30975692207953,42.138672626897716,1.7154878461039766,0.661912721783436,B,1108.955400000923,Incorrect
4,504,193,B,70.22870546593307,61.432512440716735,3.511435273296654,0.9649796488765964,B,732.9411999999138,Correct
4,504,194,A,18.945651956289172,43.33574144470309,0.9472825978144586,0.6807162348027298,A,529.9630999998044,Correct
4,504,195,B,46.92618807467697,25.96224010374196,2.3463094037338488,0.4078139139032502,B,558.9440999992803,Correct
4,504,196,B,64.42897042918749,48.49174981862071,3.221448521459374,0.7617066249494651,B,1170.2633000004425,Correct
4,504,197,B,52.01682406716174,38.35779519822073,2.600841203358087,0.6025228380131605,B,485.6345999996847,Correct
4,504,198,A,24.629439456127727,39.69270790140409,1.2314719728063863,0.6234915977206832,A,698.5832000009395,Correct
4,504,199,A,18.05111176887071,31.660358082620654,0.9025555884435356,0.4973197418119164,A,548.4922999985429,Correct
4,504,200,A,37.10987777674045,52.557661404268586,1.8554938888370225,0.8255738147875499,A,829.3632999993861,Correct
4,504,201,B,83.48904616400606,57.47918562270658,4.174452308200302,0.9028809364330952,B,807.2907000005216,Correct
4,504,202,A,51.02054604249134,59.71509318321624,2.551027302124567,0.9380024902641104,B,789.6567999996478,Incorrect
4,504,203,A,28.145926956816382,55.68785034283597,1.407296347840819,0.8747427076563066,A,610.3681999993569,Correct
4,504,204,B,64.23961374543678,44.27870193329304,3.211980687271839,0.6955282235206279,B,603.2187999990128,Correct
4,504,205,B,60.79953469496153,31.455823209033515,3.0399767347480764,0.49410691553059505,B,609.0598999999202,Correct
4,504,206,B,30.69697547626217,15.016438366941404,1.5348487738131087,0.23587766228333512,B,721.3427999995474,Correct
4,504,207,B,73.13373551559299,43.767145494857104,3.6566867757796495,0.6874927137761934,B,500.37279999924067,Correct
4,504,208,B,55.510033972579286,25.59717139489303,2.7755016986289642,0.4020794280343737,B,442.44980000075884,Correct
4,504,209,A,35.359418896022476,49.544938468491424,1.7679709448011238,0.778250073575855,A,1263.9976000009483,Correct
4,504,210,B,78.30347229812699,50.810867790284306,3.915173614906349,0.7981352448623971,B,501.27269999939017,Correct
4,504,211,A,49.88551283335197,63.231200665240856,2.4942756416675986,0.9932333774379136,A,1055.2016999990883,Correct
4,504,212,B,76.01018229847375,56.242098951641694,3.8005091149236874,0.8834488244447387,B,819.9340000010125,Correct
4,504,213,A,10.861438076420686,35.05226986735694,0.5430719038210343,0.5505997675346772,A,542.9782999999588,Correct
4,504,214,B,73.99347430047865,59.86985187309573,3.6996737150239323,0.9404334340801331,B,574.4326999993064,Correct
4,504,215,A,20.637394989798526,41.66598210017972,1.0318697494899263,0.654487716352642,A,841.2146999999095,Correct
4,504,216,B,73.63260578955364,41.48238217284733,3.6816302894776816,0.6516037354381069,B,499.7352000009414,Correct
4,504,217,A,45.277843992239795,65.11729623887098,2.26389219961199,1.0228600974283366,A,602.6549999987765,Correct
4,504,218,A,66.65364994778616,83.1586478371241,3.332682497389308,1.3062529856378489,A,492.5781999991159,Correct
4,504,219,B,60.07861380435003,36.23031220780779,3.0039306902175014,0.5691044133465678,B,451.2229000010848,Correct
4,504,220,A,34.73165202581465,60.834133010818896,1.7365826012907322,0.9555803267714649,A,497.04039999960514,Correct
4,504,221,A,14.06568961631093,31.203523422703196,0.7032844808155465,0.49014379975440703,A,553.6107000007178,Correct
4,504,222,B,41.763259924354074,16.27233959836445,2.088162996217704,0.25560531269470016,B,471.12880000167934,Correct
4,504,223,A,22.299070780071954,50.859065909709024,1.1149535390035978,0.7988923391519048,A,542.3403000004328,Correct
4,504,224,B,60.529214012851,34.85090609114453,3.0264607006425503,0.5474367527344371,B,515.0131000009424,Correct
4,504,225,B,35.280547918746564,15.835400916696177,1.764027395937328,0.2487418959327089,B,444.1387000006216,Correct
4,504,226,A,43.92341262254146,53.67293625504656,2.1961706311270732,0.8430925111772376,A,1410.2383000008558,Correct
4,504,227,A,23.522428989814717,38.42482039268093,1.1761214494907357,0.6035756673057684,A,592.6037000008364,Correct
4,504,228,B,64.42709959306313,55.14234571468322,3.2213549796531566,0.8661739409947872,B,643.9322999995056,Correct
4,504,229,A,67.65791336851997,86.60805068980385,3.3828956684259985,1.360436078944101,A,740.8097000006819,Correct
4,504,230,B,73.22898297761245,61.19080414840778,3.6614491488806222,0.9611829038994485,B,1006.1364000011963,Correct
4,504,231,A,38.19948113608193,47.438057765095635,1.9099740568040966,0.7451552688769635,A,1010.8708999996452,Correct
4,504,232,A,61.67071055767116,82.2555976202686,3.0835355278835577,1.2920679060023694,A,796.5430999993259,Correct
4,504,233,A,50.39652792135317,67.53990232629033,2.5198263960676583,1.0609143048622296,A,534.497000000556,Correct
4,504,234,B,60.04350814983841,38.0642476574093,3.0021754074919205,0.5979118040246978,B,711.350699999457,Correct
4,504,235,B,66.91426481494412,37.21319443309923,3.3457132407472057,0.5845434912381656,B,463.86290000009467,Correct
4,504,236,A,28.859912826136988,58.13372111881035,1.4429956413068492,0.9131623559634621,A,776.7561000000569,Correct
4,504,237,B,63.68175854269122,50.19445830889115,3.184087927134561,0.7884527073706581,B,818.1143000001612,Correct
4,504,238,A,36.2320284476729,47.27867065260064,1.8116014223836452,0.7426516219685078,A,1166.5790000006382,Correct
4,504,239,B,66.09863700767622,38.89291132091733,3.3049318503838108,0.6109284224125658,B,623.9866999985679,Correct
4,504,240,B,31.91050778164153,13.399558200501492,1.5955253890820764,0.21047976802022178,B,494.067300000097,Correct
4,504,241,A,49.552354903094184,80.87151596061042,2.477617745154709,1.2703268021326173,A,775.7266999997228,Correct
4,504,242,B,85.82186571565214,68.00229222749627,4.291093285782607,1.068177508445843,B,705.6856999988668,Correct
4,504,243,B,48.48740783371453,29.60297715778426,2.4243703916857267,0.46500247781640736,B,757.8295000002981,Correct
4,504,244,B,57.137075014112554,42.83907969380228,2.8568537507056275,0.6729146902629846,B,1022.9780999998184,Correct
4,504,245,A,52.05898312864577,63.08158841738234,2.6029491564322886,0.9908832737441167,A,889.1923999999563,Correct
4,504,246,A,49.60380851714639,77.36759063527307,2.4801904258573195,1.2152872718285819,A,600.6541000006109,Correct
4,504,247,A,54.129785630808314,63.85093898615047,2.706489281540416,1.002968204218502,A,622.7419999995618,Correct
4,504,248,B,77.53107591232896,64.62038735695398,3.8765537956164478,1.0150546709636667,A,787.98309999911,Incorrect
4,504,249,B,51.140059671540016,29.89670747810246,2.557002983577001,0.4696163828986486,B,452.01669999914884,Correct
4,504,250,B,67.6619109539051,48.99639831845461,3.383095547695256,0.7696336250480816,B,519.3366000003152,Correct
4,504,251,B,67.06233393031506,49.228358223927074,3.353116696515753,0.7732772427228798,B,406.51749999960884,Correct
4,504,252,B,61.66649969078414,31.551949454067632,3.0833249845392072,0.4956168630566768,B,469.9956000004022,Correct
4,504,253,B,61.69141705887687,40.92143555893154,3.0845708529438434,0.6427924066314372,B,1456.48970000002,Correct
4,504,254,B,66.43908438835115,44.32447835644711,3.3219542194175573,0.6962472778940701,B,431.4204000002064,Correct
4,504,255,B,62.08038936652287,35.72229738293385,3.1040194683261437,0.5611245351378744,B,1168.530800001463,Correct
4,504,256,A,49.06207063768608,71.33317970426435,2.4531035318843037,1.1204989665805871,A,576.0222000008071,Correct
4,504,257,A,15.244143006199884,36.39114458183323,0.7622071503099943,0.5716307623700565,A,524.4165000003704,Correct
4,504,258,A,21.434347633512957,47.730521217786965,1.0717173816756478,0.7497492740490566,A,651.0481000004802,Correct
4,504,259,A,52.699797127569006,60.88319482488576,2.63498985637845,0.9563509879446863,A,524.7545000001992,Correct
4,504,260,A,55.07548478254684,78.90755032968698,2.753774239127342,1.2394769021425573,A,477.03459999866027,Correct
4,504,261,B,76.54496071077018,63.779755025088875,3.827248035538509,1.0018500491728797,B,583.7932999984332,Correct
4,504,262,B,45.53207290904383,33.8738924626803,2.276603645452192,0.5320898585462355,B,405.82809999978053,Correct
4,504,263,B,82.19032158437459,56.5215868042023,4.1095160792187295,0.8878390093665988,B,541.9205000016518,Correct
4,504,264,B,42.68681061959808,20.61829791913847,2.134340530979904,0.3238714663614557,B,482.08169999998063,Correct
4,504,265,B,47.020056171637826,31.873150454083508,2.3510028085818915,0.5006622765665546,B,526.4982999997301,Correct
4,504,266,A,51.62492020305021,75.25690196946455,2.5812460101525105,1.1821326517959854,A,587.7509999991162,Correct
4,504,267,B,30.288933689253955,14.735370861738883,1.5144466844626978,0.23146266423579986,B,405.71060000002035,Correct
4,504,268,B,51.001871798457,41.712951682970946,2.55009358992285,0.6552255128338377,B,668.0639000005613,Correct
4,504,269,A,44.046186201059,65.10125730911294,2.20230931005295,1.0226081585088402,A,1146.9728000010946,Correct
4,504,270,A,39.73764697954607,58.869539319379,1.9868823489773035,0.9247205612298828,A,1058.7149999992107,Correct
4,504,271,A,18.895406120833968,34.4402888227295,0.9447703060416984,0.5409867917649882,A,522.4605000003066,Correct
4,504,272,B,39.813578125073064,27.87113125935958,1.9906789062536532,0.4377987060582044,B,882.1936999993341,Correct
4,504,273,B,79.37507079900139,56.15593757840759,3.9687535399500695,0.8820954047588614,B,616.5302999997948,Correct
4,504,274,B,47.91596537145325,23.62059954990126,2.3957982685726624,0.3710315100967808,B,539.3098000004102,Correct
4,504,275,A,50.05866725214828,59.72047007918885,2.502933362607414,0.9380869503485436,A,675.9105000001,Correct
4,504,276,B,73.49336044418567,58.35729449688,3.6746680222092833,0.9166742383738714,B,541.563300001144,Correct
4,504,277,B,72.20268905769163,61.58717022638382,3.6101344528845813,0.9674090076929573,B,1961.750700000266,Correct
4,504,278,B,71.86202407657184,61.39614519637307,3.593101203828592,0.9644083935382894,B,1976.9008999992366,Correct
4,504,279,B,50.19947785732462,33.31733087202335,2.5099738928662307,0.5233474095238447,B,452.8009999994538,Correct
4,504,280,B,60.58736520353356,29.301906882474658,3.029368260176678,0.460273276990773,B,349.9184000011155,Correct
4,504,281,A,32.50622937899422,59.08380579294585,1.625311468949711,0.9280862511262238,A,769.2535999995016,Correct
4,504,282,A,33.610525505392836,49.66689551316478,1.680526275269642,0.7801657703538518,A,832.6945000007981,Correct
4,504,283,A,42.95272223465903,52.52239733443556,2.1476361117329517,0.8250198880739344,A,757.1534000016982,Correct
4,504,284,B,64.39884416813084,56.44428389403552,3.219942208406542,0.8866247380931933,B,1113.5947999991913,Correct
4,504,285,A,41.06908281103502,67.8306204897202,2.0534541405517506,1.0654808950947114,A,765.1841999995668,Correct
4,504,286,A,19.60120274732494,35.38481846835829,0.9800601373662471,0.5558234287440141,B,460.6506000000081,Incorrect
4,504,287,B,60.29567712356013,36.51409394364116,3.0147838561780067,0.5735620464291531,B,452.6480000004085,Correct
4,504,288,A,58.34581457202127,75.35733095230282,2.9172907286010634,1.1837101865694462,A,715.5861999999615,Correct
4,504,289,A,17.272097337185276,33.531616386802725,0.8636048668592637,0.5267133985188528,A,751.188700000057,Correct
4,504,290,A,35.349671971172725,61.42637257659314,1.7674835985586361,0.9648832041164727,A,1714.2401000000973,Correct
4,504,291,B,83.81217902581857,54.74266343098697,4.190608951290929,0.8598957463636365,B,546.2803999998869,Correct
4,504,292,B,79.64879462782338,51.14991543499393,3.982439731391169,0.8034609928115806,B,534.4361999996181,Correct
4,504,293,A,67.01562913944406,78.97445378047914,3.3507814569722028,1.2405278190900995,A,1585.7550000000629,Correct
4,504,294,B,43.21708278180663,23.936486567631412,2.1608541390903313,0.37599345176810806,B,455.0116000009439,Correct
4,504,295,B,56.614504890189274,33.64560851581415,2.830725244509464,0.5285039826941996,B,1397.6352000008774,Correct
4,504,296,B,70.98682898923389,40.71241475279418,3.5493414494616946,0.6395091154863946,B,453.11389999915264,Correct
4,504,297,B,58.389266040942466,46.78865964596328,2.9194633020471237,0.7349545470753573,B,462.2276999998576,Correct
4,504,298,B,47.71037041647274,32.931299314058734,2.3855185208236374,0.5172836399910675,B,1119.6208000001207,Correct
4,504,299,B,78.28352466244228,62.35874956020362,3.914176233122114,0.9795289475269072,B,1354.9518999989232,Correct
4,504,300,B,53.61557954298816,22.886592309882584,2.6807789771494077,0.3595017513321589,B,465.5925999995816,Correct
4,504,301,B,51.85424028055338,39.12530432409967,2.592712014027669,0.6145788431702826,B,634.1491000002861,Correct
4,504,302,B,39.3070459401458,19.80436917339407,1.9653522970072899,0.3110863035205748,B,405.5007000006299,Correct
4,504,303,A,37.94419683174486,60.175626592457725,1.8972098415872432,0.9452365321401389,A,1680.5379999987053,Correct
4,504,304,B,81.34167432418667,58.12740391574159,4.067083716209334,0.9130631255697017,B,1445.8247999991727,Correct
4,504,305,A,34.50223370550697,55.706228641909185,1.7251116852753483,0.8750313933030761,A,711.7768000007345,Correct
4,504,306,A,32.955487086333996,61.82695557835741,1.6477743543166996,0.9711755471939507,A,417.98650000055204,Correct
4,504,307,A,63.84724159286873,79.69238939031888,3.1923620796434364,1.251805125278215,A,472.6136999997834,Correct
4,504,308,A,63.12677661268465,72.957171966281,3.1563388306342324,1.146008577379778,A,714.0196000000287,Correct
4,504,309,A,42.323902307391585,72.31433600168128,2.1161951153695795,1.135910933660529,A,536.6414999989502,Correct
4,504,310,A,38.05752226456826,67.02339485945764,1.902876113228413,1.0528010245456,A,588.530200000605,Correct
4,504,311,A,63.35331476634653,77.18102833766287,3.167665738317327,1.2123567581105363,A,392.402100000254,Correct
4,504,312,A,37.88517689724549,69.09047424581549,1.8942588448622746,1.0852706316184437,A,737.491099998806,Correct
4,504,313,B,43.346717095130245,27.935992734561278,2.1673358547565122,0.4388175477281777,B,1247.8788000007626,Correct
4,504,314,A,25.831259731739838,52.70830866058227,1.291562986586992,0.8279401763561426,A,709.1545000002952,Correct
4,504,315,A,31.81120565209263,59.53022492933038,1.5905602826046317,0.9350985865226613,A,926.2705000001006,Correct
4,504,316,A,49.430080358680534,77.53066098067272,2.4715040179340266,1.217848774824211,A,477.2077999987232,Correct
4,504,317,A,37.72229026067541,66.67370573956758,1.8861145130337704,1.0473081206951658,A,513.6060999993788,Correct
4,504,318,B,37.09646497181956,13.449404084552292,1.854823248590978,0.21126274533595016,B,579.5691000002989,Correct
4,504,319,B,78.93145280420838,55.87023356678509,3.946572640210419,0.8776075766387895,B,602.1923999996943,Correct
4,504,320,B,54.635950590885635,27.544492348093755,2.731797529544282,0.43266787403815804,B,427.87029999999504,Correct
4,504,321,B,54.009660674495635,37.0893290936205,2.700483033724782,0.5825978190354616,B,503.4914999996545,Correct
4,504,322,B,35.26607495323648,15.59654111037051,1.763303747661824,0.24498989486875591,B,3366.94770000031,Correct
4,504,323,A,23.20007205251145,47.36679390356363,1.1600036026255724,0.7440358587576867,A,552.0685000010417,Correct
4,504,324,A,30.860737015220593,58.62051912117219,1.5430368507610297,0.9208089611034728,A,436.7803000004642,Correct
4,504,325,A,34.67315870238765,57.22520675466085,1.7336579351193826,0.8988914457029977,A,482.8847000007954,Correct
4,504,326,A,28.06507042137374,44.39833931755164,1.4032535210686872,0.6974074831580356,A,539.720099999613,Correct
4,504,327,B,63.58470087234957,32.98481422509794,3.1792350436174788,0.518124250247959,B,497.5407999991148,Correct
4,504,328,A,13.924566881754387,31.627503884192997,0.6962283440877194,0.4968036692698169,A,453.1314999985625,Correct
4,504,329,A,62.735058966610055,82.68475379054786,3.1367529483305026,1.29880907536133,A,494.80039999980363,Correct
4,504,330,B,47.50956867405435,25.216703125791163,2.3754784337027175,0.39610304643870153,B,430.2636000011262,Correct
4,504,331,B,80.0313770541294,65.4073482696901,4.00156885270647,1.0274162240742373,B,701.4607999990403,Correct
4,504,332,A,55.308990621623245,81.7359233669476,2.765449531081162,1.2839048819199046,A,1768.4422000002087,Correct
4,504,333,A,21.024407852028187,34.63522970851176,1.0512203926014094,0.5440489160382775,A,679.9799000000348,Correct
4,504,334,A,60.20789266650841,71.66110631435595,3.0103946333254203,1.1256500257264888,A,1499.568499999441,Correct
4,504,335,A,59.784073118911685,70.24162877225957,2.989203655945584,1.1033529246355607,B,1412.9575999995723,Incorrect
4,504,336,B,87.34492092975302,65.96393079225882,4.367246046487651,1.0361590018943294,B,576.2785999995685,Correct
4,504,337,A,56.88157950690898,70.91870478689718,2.8440789753454485,1.1139884098030972,A,2251.903600001242,Correct
4,504,338,A,51.67612432453562,68.13927879361717,2.5838062162267814,1.0703292883946725,A,754.2714999999589,Correct
4,504,339,B,79.34221866078384,62.62944722137435,3.967110933039192,0.9837810564452967,B,588.5078999999678,Correct
4,504,340,A,62.619348252605285,76.6434273162421,3.1309674126302642,1.2039121410132472,A,2213.6322999995173,Correct
4,504,341,A,18.66350833566229,46.60136683575946,0.9331754167831144,0.7320125584923247,A,571.7256999996607,Correct
4,504,342,B,50.68480279515684,42.72276981801934,2.534240139757842,0.6710876990064865,B,3336.3977999997587,Correct
4,504,343,A,10.58990853280984,32.64740465535222,0.5294954266404921,0.5128242331201387,A,599.0924000016093,Correct
4,504,344,A,30.883524100443744,47.84951546611757,1.544176205022187,0.7516184313309306,A,854.0110000012646,Correct
4,504,345,A,16.08874071762457,40.915915166337996,0.8044370358812286,0.6427056925073532,A,651.5249999993102,Correct
4,504,346,B,49.53524711642237,33.04332211023629,2.4767623558211183,0.5190432899585975,B,967.6873999997042,Correct
4,504,347,A,49.812134445310875,69.57599295936512,2.490606722265544,1.0928971417367832,A,661.7665000012494,Correct
4,504,348,B,48.35688831421602,40.06721618811512,2.417844415710801,0.6293743601318825,A,748.1313999996928,Incorrect
4,504,349,B,53.759260411438134,29.836474286963295,2.687963020571907,0.46867024214472325,B,447.18030000149156,Correct
4,504,350,A,24.08298656325516,34.83630259412731,1.204149328162758,0.5472073615397071,A,530.7840000004944,Correct
4,504,351,A,19.932333173390358,50.22581318235998,0.996616658669518,0.7889452285713775,A,419.64069999994535,Correct
4,504,352,A,48.34135655471185,62.31254740581923,2.417067827735593,0.9788032057829371,A,852.7340999989974,Correct
4,504,353,B,77.8725264590397,48.95587967449136,3.8936263229519854,0.7689971596770396,B,501.8283000008523,Correct
4,504,354,A,42.41146747355615,57.79802581037474,2.1205733736778076,0.9078892663893326,A,1415.5300000002171,Correct
4,504,355,A,65.73836062636832,78.36154745102885,3.286918031318416,1.2309003089804011,A,876.7791999998735,Correct
4,504,356,A,40.11335167555423,68.65317811165446,2.0056675837777114,1.078401600005826,A,461.3673999992898,Correct
4,504,357,A,29.504999045740938,51.86209812584308,1.4752499522870468,0.8146479323595079,A,679.3149000004632,Correct
4,504,358,B,88.93647175146958,68.0654576237314,4.446823587573479,1.0691697081697098,B,1082.0882999996684,Correct
4,504,359,B,34.02753045748463,14.62217654527985,1.7013765228742315,0.22968461207072075,B,767.9107999992993,Correct
4,504,360,A,44.43241670460702,51.6977816905393,2.2216208352303513,0.8120668558294359,A,2183.102399998461,Correct
4,504,361,A,52.218401948305285,63.11555389129185,2.6109200974152644,0.991416802160666,A,726.2924999995448,Correct
4,504,362,A,53.08330035986877,74.34712956487309,2.6541650179934386,1.1678419802824689,A,527.9437999997754,Correct
4,504,363,A,56.69280955817807,76.28518182570373,2.8346404779089034,1.198284834006962,A,891.0001999993256,Correct
4,504,364,B,73.5161056724387,57.44129786094727,3.675805283621935,0.9022857968630752,B,976.8199999998615,Correct
4,504,365,B,71.53495724221152,53.87302575640628,3.576747862110576,0.8462355097148985,B,644.7090999990905,Correct
4,504,366,A,17.44648929808385,32.99063939742926,0.8723244649041925,0.5182157518409689,A,568.8622999987274,Correct
4,504,367,A,38.748013512521524,68.18879755603677,1.9374006756260764,1.0711071272958337,A,1055.515000000014,Correct
4,504,368,A,12.492290655848983,38.5056052027636,0.6246145327924492,0.6048446321351552,A,499.648499999239,Correct
4,504,369,B,35.39425378580464,19.46768240096722,1.7697126892902322,0.3057976400664896,B,691.4020999993227,Correct
4,504,370,B,59.23762119711931,35.60476188032673,2.9618810598559655,0.5592782917802418,B,607.5669000001653,Correct
4,504,371,B,64.42648098601786,34.508881098809795,3.221324049300893,0.5420642367181225,B,428.81089999900723,Correct
4,504,372,B,63.809247954331184,40.869972102129495,3.190462397716559,0.641984020542349,B,512.6909999999043,Correct
4,504,373,A,50.20065135314215,71.81615041269305,2.5100325676571074,1.1280854527280804,A,479.30640000049607,Correct
4,504,374,B,38.250373138915236,14.084034153210553,1.9125186569457617,0.22123149114317006,B,441.2990000000718,Correct
4,504,375,B,64.28085935618255,53.61656824837283,3.214042967809127,0.8422070845989194,B,758.2514999994601,Correct
4,504,376,B,68.82521599069982,54.77700069635796,3.441260799534991,0.8604351148668057,B,473.88839999985066,Correct
4,504,377,A,16.18703276143421,35.76601926434547,0.8093516380717105,0.5618113168450937,A,492.64469999980065,Correct
4,504,378,A,41.873743803919815,69.22903733693073,2.0936871901959906,1.0874471755639754,A,1103.9665000007517,Correct
4,504,379,B,66.81224185656546,52.315972968247536,3.3406120928282736,0.8217773817122433,B,597.2309999997378,Correct
4,504,380,A,27.172064536661924,46.4109137837489,1.358603226833096,0.7290209289470742,A,874.7505999999703,Correct
4,504,381,B,76.84227045240232,49.24812848615404,3.842113522620116,0.7735877932757387,B,487.45290000078967,Correct
4,504,382,B,61.66086849537979,28.909713723387675,3.0830434247689893,0.4541127212538938,B,388.7275999986741,Correct
4,504,383,A,58.89723283475804,75.16728593142179,2.944861641737902,1.1807249663621906,A,984.5841000005748,Correct
4,504,384,B,60.60235007700129,37.67527312302321,3.0301175038500645,0.5918018063263935,B,380.4655999992974,Correct
4,504,385,B,50.59605891122847,40.52643395522254,2.529802945561423,0.6365877359495953,B,931.9042999995872,Correct
4,504,386,A,44.179402407007196,63.12263555945721,2.20897012035036,0.991528040744083,A,577.4755000002187,Correct
4,504,387,A,55.57136886113074,72.99084163227457,2.778568443056537,1.1465374592564488,A,860.8066000015242,Correct
4,504,388,B,84.35945624946828,68.64252226017732,4.217972812473414,1.0782342182822346,B,809.5020999990084,Correct
4,504,389,B,37.15136815120758,13.57506327494065,1.8575684075603789,0.21323659528285074,B,589.1117000010127,Correct
4,504,390,A,43.11697010391597,64.47710950777554,2.1558485051957983,1.012804067771661,A,801.545399999668,Correct
4,504,391,A,16.828322661628075,44.86708436172721,0.8414161330814038,0.7047705130939784,A,678.237000000081,Correct
4,504,392,B,50.69513011619337,26.087600567882447,2.534756505809668,0.4097830714692221,B,482.66680000051565,Correct
4,504,393,A,28.841050567009745,39.01392087300786,1.4420525283504873,0.612829236011875,A,1307.5259999986883,Correct
4,504,394,B,66.31967539549316,42.05371647885291,3.3159837697746584,0.6605782337305617,B,2293.9990000013495,Correct
4,504,395,B,66.13697142008041,52.89208785759675,3.3068485710040205,0.8308269732322594,B,680.2556000002369,Correct
4,504,396,A,55.42341375488075,68.92925166634453,2.7711706877440374,1.08273815326215,A,2908.9192999999796,Correct
4,504,397,B,43.09727075350553,14.542374457028387,2.154863537675277,0.22843108379976118,B,446.632099999988,Correct
4,504,398,B,75.76770776010909,43.63422130810154,3.7883853880054543,0.685404745533215,B,427.3501000006945,Correct
4,504,399,A,45.184607443443085,56.57276369324718,2.2592303721721545,0.8886428940598836,A,785.1365000005899,Correct
4,504,400,A,59.12732343338226,84.9303542807749,2.9563661716691128,1.3340828853763045,A,703.8152999994054,Correct
4,504,401,A,50.22371955828525,64.81779488899616,2.5111859779142622,1.0181555412258019,A,3658.5661999997683,Correct
4,504,402,B,57.047314315344,38.378673435293344,2.8523657157672,0.6028507925941966,B,762.8922999992938,Correct
4,504,403,A,26.40050261309179,38.866781048581096,1.3200251306545894,0.6105179690545268,A,1711.0334999997576,Correct
4,504,404,B,86.63955197108181,65.84365237153185,4.331977598554091,1.0342696728796232,B,655.3361999995104,Correct
4,504,405,A,17.479778950226205,46.888895803888644,0.8739889475113103,0.7365290529621692,A,582.5401000001875,Correct
4,504,406,B,30.90041013489663,14.86815554025474,1.5450205067448315,0.23354844108847336,B,415.3855999993539,Correct
4,504,407,A,56.740770429029396,71.40161233495245,2.8370385214514697,1.121573903829765,A,3106.4186000003247,Correct
4,504,408,A,41.6403195093996,51.37424473613997,2.08201597546998,0.8069847492339071,A,2580.6623000007676,Correct
4,504,409,B,59.813412450964385,34.288296017093685,2.990670622548219,0.5385992943570684,B,606.8921000005503,Correct
4,504,410,B,70.03288665934694,57.22551412627397,3.5016443329673472,0.8988962738850061,B,603.0281000003015,Correct
4,504,411,A,58.405515701836705,78.24940159099897,2.9202757850918353,1.2291387259303992,A,1041.1301999993157,Correct
4,504,412,B,73.73627816719137,55.6070363075886,3.6868139083595683,0.8734732837591063,B,662.3801000005187,Correct
4,504,413,B,59.98443775877328,37.336649472580824,2.9992218879386643,0.5864827184635857,B,2852.1988000011333,Correct
4,504,414,A,37.57780695074988,51.19119480410995,1.878890347537494,0.804109407625379,A,1273.2145999998465,Correct
4,504,415,A,55.89529762797024,67.98198568618366,2.794764881398512,1.0678585340408053,A,550.4433999994944,Correct
4,504,416,A,54.01843973774423,83.86624280646684,2.7009219868872116,1.3173678614248703,A,671.0385999995196,Correct
4,504,417,B,39.41751545936256,17.90417782154467,1.970875772968128,0.2812381675636502,B,559.0361000013218,Correct
4,504,418,B,74.2993174145304,51.63480122702089,3.71496587072652,0.8110775610218902,B,576.4449999987846,Correct
4,504,419,A,53.71987105404885,80.17179390068577,2.6859935527024423,1.259335593717547,A,567.0798999999533,Correct
4,504,420,B,36.27703331138426,12.152782418999728,1.813851665569213,0.19089545984102368,B,586.1175999998522,Correct
4,504,421,A,27.420309061029055,49.3929645298752,1.3710154530514527,0.7758628725303859,A,2101.1379999999917,Correct
4,504,422,A,23.31534106575973,45.4726089423481,1.1657670532879865,0.7142820709642117,A,703.1308000005083,Correct
4,504,423,A,43.06155038961941,60.580943140439615,2.153077519480971,0.9516032295877305,A,1425.6349999996019,Correct
4,504,424,B,80.63352868806798,60.66458977552308,4.0316764344033995,0.952917147859109,B,588.3912000008422,Correct
4,504,425,A,35.41800859526496,66.74389333728817,1.7709004297632478,1.0484106249020262,A,553.1280999985029,Correct
4,504,426,B,87.53639563429034,62.3794968117654,4.376819781714517,0.9798548445923506,B,587.9089999998541,Correct
4,504,427,A,66.5726920976501,85.64700613401718,3.3286346048825055,1.3453400263629414,A,607.5139000004128,Correct
4,504,428,B,39.75937892578673,29.263068245920913,1.9879689462893364,0.45966320111440945,B,679.823899999974,Correct
4,504,429,A,44.22211708105077,57.0860659253042,2.211105854052539,0.8967058266663915,A,1703.5237999989477,Correct
4,504,430,B,83.90744753379025,67.80216004122833,4.195372376689512,1.065033839415212,B,506.31070000054024,Correct
4,504,431,B,51.512034139274206,28.191578430477414,2.57560170696371,0.4428322784514416,B,562.3123999994277,Correct
4,504,432,A,32.42446800744099,64.84178466388258,1.6212234003720496,1.0185323717285242,A,513.7890000005427,Correct
4,504,433,B,43.991162640020804,14.678035814120474,2.19955813200104,0.23056204741384378,B,469.94509999967704,Correct
4,504,434,B,54.309937895116185,38.42491729109242,2.7154968947558094,0.6035771893824569,B,761.2808000012592,Correct
4,504,435,A,55.30954351887785,77.26558742677234,2.7654771759438925,1.2136850091762394,A,461.70559999882244,Correct
4,504,436,B,77.70838610893766,48.3624070120366,3.8854193054468826,0.7596749128946684,B,615.1368999999249,Correct
4,504,437,B,48.95135914703553,20.337430363391885,2.447567957351777,0.3194596091126297,B,447.126400000343,Correct
4,504,438,B,57.729710353096905,47.84840065444544,2.886485517654845,0.7516009199101342,B,1625.3522000006342,Correct
4,504,439,A,42.10457292820191,64.55781076034236,2.1052286464100955,1.0140717200826583,A,646.8791999996029,Correct
4,504,440,B,64.1982885959009,42.51898707122898,3.2099144297950453,0.6678866871052617,B,450.75639999959094,Correct
4,504,441,A,37.302183729201296,69.4551586368893,1.8651091864600646,1.0909990806378254,A,769.1331000005448,Correct
4,504,442,A,46.178360979801326,77.66226621055459,2.308918048990066,1.2199160249410659,A,527.203699999518,Correct
4,504,443,B,79.50761559613333,51.19043748549929,3.9753807798066667,0.8040975116924607,B,1359.8034999995434,Correct
4,504,444,A,17.190590414030215,36.56909463191633,0.8595295207015107,0.5744259952202914,A,754.2819000009331,Correct
4,504,445,B,56.610541029783754,42.619809428745086,2.830527051489188,0.6694704009937128,B,580.7777999998507,Correct
4,504,446,A,39.95953566263992,57.573132916300764,1.9979767831319961,0.9043566570699959,A,841.2243000002491,Correct
4,504,447,B,57.03451262426814,49.75352784338473,2.851725631213407,0.7815265878147636,B,534.4932000007248,Correct
4,504,448,A,60.238524683703886,68.73078518903192,3.0119262341851942,1.0796206491266043,A,1222.2138000015548,Correct
4,504,449,A,20.291735282610606,52.118394225414306,1.0145867641305302,0.8186738220772914,A,525.6638999999268,Correct
4,504,450,A,24.607018087513886,38.117401898869446,1.2303509043756944,0.5987467488970896,A,681.280799999513,Correct
4,504,451,B,57.29542732294569,49.20546973675168,2.8647713661472847,0.7729177112070698,A,979.7870000002149,Incorrect
4,504,452,A,29.139813143231002,47.38035919290748,1.4569906571615503,0.7442489418244188,A,967.1173999995517,Correct
4,504,453,A,62.9916223211774,76.26227919319533,3.14958111605887,1.197925080296781,A,440.2436000000307,Correct
4,504,454,A,36.8069994934544,49.57010247524361,1.8403499746727199,0.7786453488695926,A,1220.6662999997206,Correct
4,504,455,B,78.05432981561427,58.791595159762096,3.9027164907807133,0.9234962172336693,B,700.6617000006372,Correct
4,504,456,B,54.16520817606523,24.893728082872002,2.7082604088032616,0.391029766328063,B,689.1317000008712,Correct
4,504,457,A,29.490884425719585,43.788992776444914,1.4745442212859792,0.6878358900728793,A,1130.4930000005697,Correct
4,504,458,A,48.67236564965094,62.53522867386598,2.433618282482547,0.9823010749618758,A,504.3055000005552,Correct
4,504,459,A,25.1400148065691,54.174548346105254,1.2570007403284549,0.8509718154783468,A,717.8504999992583,Correct
4,504,460,B,39.9831337552347,31.077841716098014,1.9991566877617348,0.48816959612359967,B,2456.305900001098,Correct
4,504,461,B,88.3014832561606,67.0140560802823,4.41507416280803,1.0526543313453465,B,761.2183000001096,Correct
4,504,462,B,63.9571514028086,52.20143805834219,3.19785757014043,0.8199782715545523,B,760.655099998985,Correct
4,504,463,B,77.46288224321088,49.26339190595728,3.873144112160544,0.7738275505133514,B,473.52630000023055,Correct
4,504,464,A,26.696360953125833,45.44267941010209,1.3348180476562916,0.7138119389710644,A,679.0600000003906,Correct
4,504,465,B,66.63303003684703,35.4638420902456,3.331651501842351,0.5570647288939203,B,604.5838999998523,Correct
4,504,466,B,74.28495276005242,59.24032658795429,3.714247638002621,0.9305448740248866,B,1594.434500000716,Correct
4,504,467,A,54.18470385272077,83.52003816784733,2.7092351926360383,1.3119296916782415,A,721.0121000007348,Correct
4,504,468,B,42.63938936613938,23.114256036915382,2.131969468306969,0.3630778847938344,B,551.9667000007757,Correct
4,504,469,A,35.45449165764515,50.816462106531546,1.7727245828822575,0.798223120176518,A,854.0202000003774,Correct
4,504,470,B,58.34860550934768,49.55925254350099,2.917430275467384,0.7784749185403198,B,1842.4635000010312,Correct
4,504,471,B,87.18121011880112,64.4584982051262,4.359060505940056,1.0125117221132767,B,1212.393299998439,Correct
4,504,472,B,70.72703235302852,51.75383978523281,3.536351617651426,0.812947414321753,B,629.7997000001487,Correct
4,504,473,A,42.6708050646697,57.078990419586596,2.1335402532334853,0.8965946848824771,A,1273.6738000003243,Correct
4,504,474,A,48.60478600736444,73.12285761297848,2.430239300368222,1.1486111614321284,A,620.2204999990499,Correct
4,504,475,A,21.977486921977246,53.25391327021953,1.0988743460988624,0.8365105135231483,A,460.7616999983293,Correct
4,504,476,A,50.8372252206635,81.54701020850602,2.541861261033175,1.280937440966272,A,504.6535000001313,Correct
4,504,477,B,50.01018245341385,38.5040268959157,2.5005091226706924,0.6048198401491629,B,1503.5557999999583,Correct
4,504,478,A,21.42344689173334,44.78752551642996,1.071172344586667,0.7035208056744088,A,553.2246999991912,Correct
4,504,479,A,63.67832567102831,82.57389372001045,3.1839162835514156,1.297067689445446,A,564.5828999986406,Correct
4,504,480,A,41.31429800507905,62.57086246326465,2.0657149002539525,0.9828608092168478,A,668.3155999999144,Correct
4,504,481,A,47.32094202949399,61.84002659505302,2.3660471014746998,0.97138086624408,A,643.2292999998026,Correct
4,504,482,A,29.379266690573033,47.024367678955265,1.4689633345286517,0.7386570401995559,A,1037.7212000003055,Correct
4,504,483,B,42.86764001461942,24.654592057199146,2.1433820007309707,0.38727342642075047,B,584.7534999993513,Correct
4,504,484,B,65.60473914957218,48.325422678919246,3.280236957478609,0.7590939643485713,B,553.013099999589,Correct
4,504,485,B,63.52534621700034,41.30615444192755,3.176267310850017,0.648835556714025,B,566.2852999994357,Correct
4,504,486,A,43.13265544788727,57.762419151920454,2.1566327723943632,0.9073299583062384,A,627.3145000013756,Correct
4,504,487,A,57.24092517907795,77.38761825816546,2.8620462589538977,1.2156018649933196,A,891.8522000003577,Correct
4,504,488,A,54.645229430598896,66.97498156974923,2.7322614715299447,1.0520405503691799,A,4042.225300001519,Correct
4,504,489,B,70.66708388084021,59.90144294465375,3.5333541940420106,0.9409296654717617,A,1317.5903999999719,Incorrect
4,504,490,B,61.668994348904526,49.795325795490186,3.0834497174452262,0.7821831485111116,B,421.3313999989623,Correct
4,504,491,A,50.00403567585369,65.03807083984545,2.5002017837926847,1.021615627770555,A,882.0292000000336,Correct
4,504,492,A,43.84866108623018,70.5529210143592,2.192433054311509,1.108242691740059,A,605.0782000002073,Correct
4,504,493,A,65.84119357501935,87.66920265776169,3.2920596787509675,1.3771046150784945,A,566.2074000010762,Correct
4,504,494,A,32.02629315260069,46.43381463285672,1.6013146576300343,0.7293806546436646,A,1245.1126000014483,Correct
4,504,495,A,28.249039954139903,48.289862562378765,1.4124519977069951,0.7585353873441496,A,501.6779999987193,Correct
4,504,496,A,48.09677024842543,56.68396816058099,2.4048385124212714,0.8903896897479948,A,1118.8062999990507,Correct
4,504,497,B,52.33670676734761,21.543482591629722,2.6168353383673804,0.33840423321301766,B,398.2830999993894,Correct
4,504,498,B,66.90078178372893,54.86484544526787,3.3450390891864465,0.8618149769559648,B,651.5389999985928,Correct
4,504,499,A,50.23664145364434,70.53404051274013,2.5118320726822168,1.1079461175141463,A,2485.196300000098,Correct
4,504,500,A,39.144616042658505,53.66699025507836,1.9572308021329252,0.8429991116281458,A,1500.9577000000718,Correct
4,504,501,A,39.054840171524056,57.27630873108935,1.9527420085762028,0.8996941536716563,A,568.8331000001199,Correct
4,504,502,A,67.68157805740292,86.24097634319969,3.384078902870146,1.3546700885910365,A,555.0715999997919,Correct
4,504,503,A,29.612223546433846,51.545045992000816,1.4806111773216923,0.809667689087089,A,644.426900000326,Correct
4,504,504,B,47.69804951292056,28.704160289203863,2.384902475646028,0.4508838954601336,B,560.6164999990142,Correct
4,504,505,B,51.375880075303954,26.354374654542642,2.5687940037651975,0.41397354902332106,B,411.955499999749,Correct
4,504,506,B,59.389648451957406,50.452779120584424,2.96948242259787,0.7925104011920827,B,990.7368999993196,Correct
4,504,507,B,65.16843649935973,51.644014779941855,3.258421824967986,0.81122228717274,B,669.9205999993865,Correct
4,504,508,B,43.6886486724553,25.569566330414506,2.1844324336227654,0.4016458086955356,B,1226.3580999988335,Correct
4,504,509,A,30.029624028136084,55.106126385375404,1.5014812014068042,0.86560500910043,A,2203.7192000007053,Correct
4,504,510,B,39.323182925994246,14.856119476311335,1.9661591462997123,0.23335937903815965,B,938.6632000005193,Correct
4,504,511,A,45.55468862882953,72.46642871775373,2.2777344314414765,1.1383000004579178,A,654.2762000008224,Correct
4,504,512,B,61.682080151415924,34.41232246655329,3.0841040075707964,0.5405474972694341,B,1287.93880000012,Correct
4,504,513,B,59.77614795338499,49.845779537043,2.98880739766925,0.7829756740301537,B,865.0557000000845,Correct
4,504,514,A,57.91704642011186,75.2391174797221,2.8958523210055933,1.1818532936843718,A,1033.0770000000484,Correct
4,504,515,B,35.78781914037857,21.146130791230593,1.7893909570189288,0.3321626457278948,B,627.019499999733,Correct
4,504,516,B,53.53739787635949,43.69440878337918,2.6768698938179742,0.6863501681840668,B,637.7969000004668,Correct
4,504,517,A,44.204928523110596,70.55474921646689,2.2102464261555297,1.1082714090716128,A,1193.9445999996678,Correct
4,504,518,B,62.270053278545014,53.332233505985855,3.113502663927251,0.8377407649097027,B,830.4095000003144,Correct
4,504,519,B,69.34409966270113,55.88329820338038,3.467204983135056,0.8778127954705375,B,757.2880999996414,Correct
4,504,520,B,40.56689820606161,17.174294671642027,2.0283449103030806,0.2697731898550846,B,582.729499999914,Correct
4,504,521,A,30.11534403243546,47.59583362560974,1.5057672016217731,0.747633606298488,A,857.7138999989984,Correct
4,504,522,A,61.56597461490942,81.56004934415716,3.078298730745471,1.2811422592301258,A,1186.8610999990779,Correct
4,504,523,A,51.325238098546734,61.53218424423388,2.5662619049273365,0.9665452899050938,A,1169.2122999993444,Correct
4,504,524,A,64.04800804407347,74.36770976726383,3.2024004022036734,1.16816525334567,A,1298.3675000014046,Correct
4,504,525,A,28.06077374798732,42.05432720798518,1.403038687399366,0.660587827041338,A,724.5683000001009,Correct
4,504,526,B,56.83060361626018,39.688852149821614,2.841530180813009,0.6234310317164553,B,834.1205999986414,Correct
4,504,527,B,79.14497988872294,49.37354136133884,3.9572489944361475,0.7755577741124695,B,1185.8422000004794,Correct
4,504,528,B,37.610207838903435,24.54614974783003,1.8805103919451716,0.3855700186084888,B,521.0581999999704,Correct
4,504,529,A,41.5290809216924,64.09873734390655,2.07645404608462,1.0068606117199925,A,902.5731000001542,Correct
4,504,530,A,38.14454601596452,56.34406359089929,1.907227300798226,0.8850504812528267,A,550.6184000005305,Correct
4,504,531,B,55.890773832228334,41.69820492879895,2.7945386916114163,0.6549938713609825,B,1192.825999998604,Correct
4,504,532,A,27.075004341178605,51.36062759963902,1.3537502170589304,0.8067708517539354,A,683.9093999988108,Correct
4,504,533,B,88.18443280368291,68.65673432922028,4.409221640184145,1.0784574609407231,B,727.4874999984604,Correct
4,504,534,B,40.472620294216796,14.70854083337358,2.0236310147108396,0.23104121913575967,B,630.9701999998651,Correct
4,504,535,A,50.32309406971609,81.32854229515517,2.5161547034858045,1.2775057550081315,A,550.1507999997557,Correct
4,504,536,A,37.842181884055684,48.35080280879811,1.8921090942027843,0.7594926344964444,A,675.3820000012638,Correct
4,504,537,B,39.37812648298426,29.00494700756221,1.968906324149213,0.4556086421835935,B,520.3617000006489,Correct
4,504,538,B,85.31425736302745,56.603732243644416,4.265712868151372,0.8891293469119851,B,650.3235000000132,Correct
4,504,539,A,30.58333908119017,55.59660651490718,1.5291669540595085,0.873309452958774,A,563.1533000014315,Correct
4,504,540,B,77.38460043043108,65.40364356427105,3.869230021521554,1.0273580306975965,B,837.1270000006916,Correct
4,504,541,B,89.2491506217199,65.02414403687567,4.462457531085995,1.0213968660610655,B,515.4787999999826,Correct
4,504,542,B,41.08397510976202,14.049416556356348,2.0541987554881014,0.22068771920335956,B,620.8965999994689,Correct
4,504,543,A,26.999739863850884,53.57993466432328,1.3499869931925443,0.8416316456062957,A,682.1493999996164,Correct
4,504,544,B,76.38669409868878,48.287948169232045,3.8193347049344393,0.7585053161269204,B,589.2067999993742,Correct
4,504,545,A,23.21835801834629,55.32260730830791,1.1609179009173145,0.8690054834860658,A,798.8580000001093,Correct
4,504,546,A,34.28643578493052,64.62608786252653,1.714321789246526,1.0151442142958091,A,568.5504000011861,Correct
4,504,547,A,39.850647480137845,63.07179917208384,1.992532374006892,0.9907295046385471,A,672.0162000001437,Correct
4,504,548,B,44.434209681249065,28.05908542929774,2.221710484062453,0.4407510832556509,B,648.0068999990181,Correct
4,504,549,B,62.71562297749689,55.268176507945995,3.1357811488748446,0.8681504864733357,B,800.0245000002906,Correct
