subject,day,trial,cat,x,y,xt,yt,resp,rt,fb
16,116,0,A,19.520620543577362,46.00824686729169,0.9760310271788681,0.7226958518141459,A,7565.120100000058,Correct
16,116,1,A,35.98125217072489,55.838803400781295,1.7990626085362447,0.8771138727456964,B,1511.9641999999658,Incorrect
16,116,2,A,21.626725511042547,46.6204111518635,1.0813362755521274,0.7323117059101503,A,891.3162000001194,Correct
16,116,3,A,29.41774211077182,57.664578685971435,1.470887105538591,0.9057930838609921,A,1101.271099999849,Correct
16,116,4,A,37.2642477144918,53.69893169067981,1.8632123857245901,0.8435008465252991,A,1383.2261000000017,Correct
16,116,5,B,68.34659257230358,46.863921407313285,3.4173296286151786,0.7361367560581243,A,1644.7528999999577,Incorrect
16,116,6,B,49.08728052246279,41.123923713049145,2.454364026123139,0.6459730831185114,B,597.3347999999987,Correct
16,116,7,B,30.315914731048554,13.268065416888238,1.5157957365524277,0.20841428420522443,A,1172.2345999999106,Incorrect
16,116,8,B,66.09271516291878,43.69872698247987,3.304635758145939,0.6864179982969241,B,719.6099000000231,Correct
16,116,9,B,48.73964707249807,38.34865643041849,2.436982353624904,0.6023792865842085,B,521.5350999999373,Correct
16,116,10,A,15.351565927637711,35.56053192056679,0.7675782963818856,0.5585835291969897,A,732.8500999999505,Correct
16,116,11,A,38.476663532747004,70.22205307060246,1.9238331766373502,1.1030454302329862,B,1547.5031000000854,Incorrect
16,116,12,B,54.678802601030824,25.685309937164224,2.7339401300515416,0.4034639050188602,B,1594.1373999999087,Correct
16,116,13,B,60.95373669635475,42.90918158415755,3.0476868348177377,0.674015848181699,B,2101.5153000000737,Correct
16,116,14,A,20.492363521585425,43.11416979112201,1.0246181760792712,0.6772357954070595,A,1352.2522000000663,Correct
16,116,15,A,57.81925885974876,86.33971236422455,2.8909629429874375,1.3562210303825184,B,1423.1760000000122,Incorrect
16,116,16,A,50.4591761084059,81.29884087402357,2.522958805420295,1.27703920617599,A,1723.8886000000093,Correct
16,116,17,A,38.73308266241147,68.53126808509933,1.9366541331205736,1.0764866417867034,A,930.5718000000525,Correct
16,116,18,B,33.84767541164206,19.417509615590408,1.692383770582103,0.30500952779673995,B,1478.400400000055,Correct
16,116,19,A,52.87805000835291,65.99460234099698,2.6439025004176453,1.0366407894552794,A,1566.459200000054,Correct
16,116,20,A,24.800652471700438,38.31970267351816,1.2400326235850219,0.601924482034349,B,2304.9548999999843,Incorrect
16,116,21,B,66.05056117776905,41.790690208932304,3.302528058888453,0.6564466267441431,B,981.1028000001443,Correct
16,116,22,A,40.40905152524885,56.49239423589236,2.0204525762624423,0.8873804535758891,B,1510.5232999999316,Incorrect
16,116,23,A,48.433947498466694,72.74676207145751,2.4216973749233346,1.1427034664806774,A,791.3459999999759,Correct
16,116,24,A,12.158485038127214,30.33642425316234,0.6079242519063607,0.4765234378495902,B,1899.818200000027,Incorrect
16,116,25,B,42.31633941384702,21.134739604965496,2.1158169706923506,0.3319837133924643,B,1448.8113999998404,Correct
16,116,26,A,34.089068089942025,47.581264526607086,1.7044534044971014,0.7474047554265072,A,2252.113300000019,Correct
16,116,27,A,47.776757200083985,55.31330919456551,2.388837860004199,0.8688594290569388,B,1085.5329999999412,Incorrect
16,116,28,B,36.62472243230002,23.778778213704282,1.8312361216150008,0.3735161747375719,B,1567.7758000001631,Correct
16,116,29,B,59.56249771409819,42.65829575281507,2.9781248857049096,0.6700749427585225,B,1728.631999999834,Correct
16,116,30,A,24.32685804043531,45.36572478668219,1.2163429020217655,0.7126031385730858,A,445.56710000006206,Correct
16,116,31,A,38.94378834204172,49.20150506194901,1.947189417102086,0.7728554342409001,A,1619.1665999999714,Correct
16,116,32,B,54.41178414970856,32.44038761456921,2.720589207485428,0.5095724170476797,B,537.7941000001556,Correct
16,116,33,B,80.36054991693058,61.94214702848355,4.018027495846529,0.9729849702613137,B,551.0461000001214,Correct
16,116,34,B,76.96445081520491,63.01881975874808,3.8482225407602457,0.9898973059599113,B,588.0604999999832,Correct
16,116,35,B,60.895151863125214,42.5301126262797,3.0447575931562607,0.6680614469153341,B,560.4599999999209,Correct
16,116,36,B,34.35455327750685,22.007883088837,1.7177276638753427,0.34569901916476686,A,1733.1652000000304,Incorrect
16,116,37,A,65.85666726449206,81.23059487815718,3.2928333632246027,1.2759672005797364,B,557.2148000001107,Incorrect
16,116,38,A,31.5866406579687,54.88718644808904,1.579332032898435,0.8621659086076487,A,704.2486000000281,Correct
16,116,39,B,37.12268096722856,27.828440575164336,1.8561340483614281,0.4371281223589819,B,1159.9837000001116,Correct
16,116,40,A,28.218104785653153,41.13607501543083,1.4109052392826578,0.6461639553299806,A,1313.6865000001308,Correct
16,116,41,A,35.98118802791291,53.32574103288862,1.7990594013956454,0.8376387813807734,A,1423.195699999951,Correct
16,116,42,B,82.94157815023695,54.31628600332135,4.1470789075118475,0.8531982253915822,B,613.0727000002025,Correct
16,116,43,A,51.4749397933727,79.79309384498208,2.573746989668635,1.2533869871529832,A,1494.6948000001612,Correct
16,116,44,A,63.850993547155056,85.9532672715599,3.1925496773577526,1.350150765061863,A,843.1012999999439,Correct
16,116,45,A,43.63614553972889,63.50667274350239,2.1818072769864445,0.9975604827245912,B,847.8758999999627,Incorrect
16,116,46,B,78.2905154075666,48.22113185517906,3.9145257703783303,0.7574557679200764,B,959.8524999998972,Correct
16,116,47,A,54.859156855768056,68.63835601988737,2.742957842788403,1.0781687751327944,B,906.3668999999663,Incorrect
16,116,48,B,44.20643449196805,32.283344972540846,2.2103217245984026,0.5071055969951966,B,1117.7077999998346,Correct
16,116,49,B,84.39047664424453,68.94780118998537,4.219523832212227,1.0830295284981382,B,689.29049999997,Correct
16,116,50,B,57.49699136748601,28.7731242618897,2.8748495683743003,0.45196717900989464,B,1694.2956999998842,Correct
16,116,51,A,16.23024731334571,45.80802036757059,0.8115123656672856,0.7195507013112569,A,493.19229999991876,Correct
16,116,52,A,48.649811581226274,60.74540227627386,2.432490579061314,0.9541865476524931,B,1444.6672999999919,Incorrect
16,116,53,B,88.6829193993238,64.56539332107297,4.43414596996619,1.0141908266680917,B,449.9702000000525,Correct
16,116,54,A,22.20027678646202,39.99168528622102,1.110013839323101,0.6281879234993349,A,572.4493000000166,Correct
16,116,55,B,56.56400279435215,24.10300959371837,2.8282001397176075,0.3786091893451496,B,1747.9306000000179,Correct
16,116,56,A,42.95687564268478,49.65443144945155,2.147843782134239,0.7799699852988748,A,1407.2366999998849,Correct
16,116,57,A,59.32723705156077,85.13553800891205,2.9663618525780384,1.3373059038410635,A,2564.514200000076,Correct
16,116,58,B,48.47202185411853,39.89814259858472,2.4236010927059266,0.6267185583979588,B,1865.4891000001044,Correct
16,116,59,B,78.46996575525276,49.13000629112865,3.923498287762638,0.7717323341751506,B,1640.4399000000467,Correct
16,116,60,A,23.58609767335059,41.90811016866148,1.1793048836675295,0.6582910551584931,A,1445.956600000045,Correct
16,116,61,B,33.63465754120952,21.270653789502457,1.681732877060476,0.33411864841076405,B,2268.8743999999588,Correct
16,116,62,A,47.313818792069924,68.84487601078837,2.365690939603496,1.0814127835639646,A,888.5078000000703,Correct
16,116,63,B,49.60089485798964,31.767115689330925,2.480044742899482,0.49899668637669553,B,2075.820700000122,Correct
16,116,64,A,12.846839018988938,36.663152658096344,0.6423419509494468,0.575903455240583,A,602.2097000000031,Correct
16,116,65,B,81.60072829458673,61.76109284347256,4.080036414729336,0.9701409777736528,B,852.4176999999327,Correct
16,116,66,A,30.902768190316387,61.81148106464048,1.5451384095158192,0.9709324741008956,B,1145.4029999999875,Incorrect
16,116,67,B,71.58921605770152,41.82837716718213,3.579460802885076,0.6570386121000121,B,819.3853000000217,Correct
16,116,68,A,54.63390032562402,73.48587969613257,2.731695016281201,1.1543134989797672,A,2372.2195000000283,Correct
16,116,69,A,13.666340469202321,39.88887285524331,0.6833170234601161,0.6265729496100484,A,1714.3484000000626,Correct
16,116,70,B,49.700077676228155,24.027402683538106,2.4850038838114075,0.37742155877723504,B,1405.62819999991,Correct
16,116,71,A,19.710432616771175,50.24771957545512,0.9855216308385587,0.7892893333894493,A,1356.548900000007,Correct
16,116,72,B,57.11101938501129,40.52553764071366,2.8555509692505643,0.6365736566742134,B,1191.5949000001547,Correct
16,116,73,B,83.38432607350317,68.99020254815625,4.169216303675159,1.0836955674747974,B,1625.0241000000187,Correct
16,116,74,B,71.28900107200434,42.45981347538972,3.564450053600217,0.6669571904353863,A,1331.2537000001612,Incorrect
16,116,75,B,61.027456874057684,45.57174810542213,3.051372843702884,0.7158393452961936,B,742.6000999998905,Correct
16,116,76,B,66.4863225907333,34.07293986594082,3.3243161295366646,0.5352164878452322,B,647.95909999998,Correct
16,116,77,B,69.44828204081998,59.686819033041175,3.472414102040999,0.937558360951728,B,486.9053999998414,Correct
16,116,78,A,58.260408211244496,81.10675568314451,2.913020410562225,1.2740219390533452,B,2830.0658999999087,Incorrect
16,116,79,A,22.706271914215563,40.134509364493276,1.135313595710778,0.6304313988746141,A,901.563699999997,Correct
16,116,80,A,46.63517762296674,55.38966257574448,2.331758881148337,0.8700587851638817,B,1674.5195999999396,Incorrect
16,116,81,B,60.850885142806405,32.58199050466116,3.0425442571403205,0.5117967100438795,B,1246.1398000000372,Correct
16,116,82,B,61.565644875560224,36.26072827592894,3.0782822437780113,0.5695821878273702,B,860.2639000000636,Correct
16,116,83,B,62.76478867733013,45.562678319739916,3.1382394338665063,0.7156968774358492,B,1199.8858999997992,Correct
16,116,84,B,53.76738623148394,26.439526359536096,2.6883693115741973,0.41531110887756145,B,1079.8597000000427,Correct
16,116,85,B,83.00410179507539,61.38969292666708,4.1502050897537694,0.9643070415227528,B,728.1590000000051,Correct
16,116,86,A,41.5499693241492,73.56613628985917,2.07749846620746,1.155574166606035,A,1261.6961000001083,Correct
16,116,87,B,67.58018062871254,45.67024848239927,3.379009031435627,0.7173865855996299,B,1237.4368000000686,Correct
16,116,88,B,65.31608878785823,55.35785295491591,3.2658044393929115,0.8695591208083392,B,1782.5654999999188,Correct
16,116,89,B,86.32432472848981,64.11778058789557,4.316216236424491,1.0071597422970748,B,542.0553000001291,Correct
16,116,90,B,65.77349313828529,57.041752251849374,3.2886746569142646,0.8960097491114952,A,2913.6334999998326,Incorrect
16,116,91,A,26.330445773587556,42.40663057544033,1.3165222886793777,0.6661217953964983,A,719.2015000000538,Correct
16,116,92,B,38.985113593984906,22.39461976841171,1.9492556796992455,0.3517738647218949,A,2508.7287999999717,Incorrect
16,116,93,A,24.13095655462005,52.407849026934564,1.2065478277310024,0.823220567467303,A,676.7456000000038,Correct
16,116,94,A,61.75438862157465,78.98927117643973,3.0877194310787326,1.2407605702015752,B,1162.0069999999032,Incorrect
16,116,95,A,50.45587338644076,62.51585117911273,2.522793669322038,0.9819966939860669,A,2776.100900000074,Correct
16,116,96,B,34.84239205284966,15.408254637041157,1.7421196026424832,0.24203229786184677,A,1219.1746000000876,Incorrect
16,116,97,A,21.08899518851714,33.821925368227575,1.054449759425857,0.53127356133543,A,703.0609000000823,Correct
16,116,98,B,58.86594398623702,29.865947504655125,2.943297199311851,0.46913320636561473,B,2554.9242999998114,Correct
16,116,99,B,35.047031585426254,20.962555323745747,1.7523515792713127,0.32927904902774624,A,1186.9970000000194,Incorrect
16,116,100,A,61.884188626005155,84.43676228032366,3.0942094313002575,1.326329560363863,B,2426.701600000115,Incorrect
16,116,101,B,51.47739639261716,41.43601691554331,2.573869819630858,0.6508754316794664,B,697.6204000000052,Correct
16,116,102,B,84.8277181272442,69.5897167258482,4.24138590636221,1.0931127141565973,B,882.756900000004,Correct
16,116,103,A,35.10177869630532,55.76798671065701,1.7550889348152656,0.8760014867784665,A,633.1104000000778,Correct
16,116,104,A,20.559353104066794,46.221962464200125,1.0279676552033397,0.7260528885601714,A,496.8656999999439,Correct
16,116,105,A,25.894406116411083,36.103274364993226,1.2947203058205543,0.567108907577997,A,686.3884999997936,Correct
16,116,106,B,61.379418461084136,51.63172449894822,3.068970923054207,0.8110292318903395,B,658.8197999999466,Correct
16,116,107,A,16.539888835957854,31.270364990211917,0.8269944417978927,0.4911937446416061,A,579.671099999814,Correct
16,116,108,A,52.369019339453466,81.59535886415115,2.618450966972673,1.2816968998732003,A,1781.077600000117,Correct
16,116,109,A,18.16915351807713,45.41303694885931,0.9084576759038566,0.7133463162786912,A,568.4039999998731,Correct
16,116,110,B,52.894042627419786,29.188221504177356,2.6447021313709893,0.45848751124437603,B,2126.7817000000377,Correct
16,116,111,A,51.47807611114591,64.24705006773014,2.5739038055572956,1.0091903025379831,B,1249.2706000000453,Incorrect
16,116,112,A,47.10259441412181,71.58645302433494,2.3551297207060906,1.1244773745890073,B,1502.2950999998557,Incorrect
16,116,113,B,40.73111296902586,24.042361072713256,2.0365556484512926,0.37765652460494586,B,617.5742000000355,Correct
16,116,114,A,56.822748405789085,67.21839199598746,2.841137420289454,1.0558640324035657,B,638.3037000000513,Incorrect
16,116,115,B,73.85580701930547,60.5988117039354,3.6927903509652737,0.951883908326773,B,600.5417999999736,Correct
16,116,116,B,86.79662413338059,61.63529215250611,4.33983120666903,0.9681649051408692,B,621.4996000001065,Correct
16,116,117,B,60.3222546340097,47.07818994503827,3.0161127317004848,0.7395024783781854,B,520.5587000000378,Correct
16,116,118,A,28.707769715456724,45.080277134512905,1.4353884857728363,0.7081193373378883,A,669.8042999998961,Correct
16,116,119,A,52.69011578848757,73.61290302437965,2.6345057894243786,1.156308776754045,A,1793.4348999999656,Correct
16,116,120,A,39.9163442496636,71.04922060929492,1.9958172124831801,1.1160385475472074,A,662.9508000000897,Correct
16,116,121,A,25.138276675763393,35.393853880300384,1.2569138337881696,0.5559653566629114,A,629.6304999998483,Correct
16,116,122,A,12.54185234490831,37.486385843883724,0.6270926172454154,0.5888347718838877,A,856.1467000001812,Correct
16,116,123,B,63.21269342655492,41.32891663685507,3.160634671327746,0.6491931044358442,B,773.0867000000217,Correct
16,116,124,B,79.17404537262513,55.48370581689053,3.9587022686312565,0.8715360129414026,B,572.03010000012,Correct
16,116,125,B,32.359811428758825,15.856006240516798,1.6179905714379412,0.24906556360240745,B,1536.7307999999866,Correct
16,116,126,A,34.72265669725762,50.0774199198873,1.7361328348628808,0.7866142726552455,A,1697.6053999999294,Correct
16,116,127,A,49.11407616621943,61.869376342524944,2.4557038083109712,0.9718418909992926,A,606.843900000058,Correct
16,116,128,B,54.19679559203459,30.468240780830897,2.70983977960173,0.4785940070243164,B,612.1012999999493,Correct
16,116,129,B,66.26598175686182,43.513392673354005,3.3132990878430912,0.6835067737768843,B,523.2759999998962,Correct
16,116,130,B,69.4044207287982,38.9725165407745,3.4702210364399098,0.6121788582820192,B,903.9798000001156,Correct
16,116,131,B,35.68258876178473,24.14174347606856,1.7841294380892365,0.3792176197463315,B,1340.4100000000199,Correct
16,116,132,B,47.59469726843719,37.896350659192386,2.3797348634218594,0.5952744841439076,B,489.70230000008996,Correct
16,116,133,B,48.582861040199184,36.39830814075193,2.4291430520099593,0.571743287290419,B,642.270599999847,Correct
16,116,134,B,62.08333485620723,33.99712645829662,3.1041667428103614,0.5340256136227391,B,547.0680999999331,Correct
16,116,135,A,51.89554556052363,60.93737711210825,2.5947772780261813,0.9572020813221506,A,1003.6681999999928,Correct
16,116,136,B,64.99540492656422,43.049552221265415,3.249770246328211,0.6762207849932881,B,527.2742999998172,Correct
16,116,137,B,77.00857806281553,57.8510070314947,3.850428903140777,0.9087214934645762,B,461.0739999998259,Correct
16,116,138,A,51.75881523954297,81.64230202068407,2.5879407619771486,1.282434281251701,A,839.0228000000661,Correct
16,116,139,A,53.26635969948336,80.16413325438197,2.663317984974168,1.2592152605667981,A,726.5356000000338,Correct
16,116,140,A,61.26970127512764,86.04150552473394,3.063485063756382,1.3515368083015489,A,631.890999999996,Correct
16,116,141,B,58.51866315431212,25.638321877323776,2.925933157715606,0.40272581830085424,B,1544.194300000072,Correct
16,116,142,B,70.15568171357575,58.24969082455959,3.507784085678787,0.914984003841566,A,654.2699999999968,Incorrect
16,116,143,B,70.73277526916235,51.084573211888184,3.536638763458117,0.8024345995711895,B,622.3179999999502,Correct
16,116,144,A,46.93831278145518,64.22185454937713,2.3469156390727592,1.008794532261177,B,951.719599999933,Incorrect
16,116,145,A,58.28639852919454,69.89793315945893,2.9143199264597275,1.0979541665743329,B,682.1857000002183,Incorrect
16,116,146,A,15.171606947679258,43.236042773140326,0.758580347383963,0.6791501717319586,A,724.7208999999657,Correct
16,116,147,A,54.7614476415394,64.62900496126377,2.73807238207697,1.0151900359756227,A,1164.1826000000037,Correct
16,116,148,A,32.85660538217666,45.1774310494312,1.642830269108833,0.7096454274647623,A,598.1077999999798,Correct
16,116,149,A,65.28469671925315,75.93345356695863,3.2642348359626574,1.1927598994382946,B,1837.3344999999972,Incorrect
16,116,150,A,41.264059222225086,59.708623697953435,2.063202961111254,0.9379008678272397,A,418.0296999998063,Correct
16,116,151,A,43.86467665704747,66.62209206994093,2.1932338328523735,1.0464973750685462,A,561.78419999992,Correct
16,116,152,B,47.77289226174997,25.440037036583803,2.3886446130874988,0.39961116730591967,B,804.8248000000058,Correct
16,116,153,B,84.9590470786157,68.32492514344233,4.247952353930785,1.0732454144385548,A,1149.9615000000176,Incorrect
16,116,154,B,58.510531976443524,50.737358652288755,2.925526598822176,0.7969805660229043,A,955.2095000001373,Incorrect
16,116,155,A,21.134446718543064,51.19298810478168,1.0567223359271531,0.8041375767264589,A,861.7119999998977,Correct
16,116,156,B,87.96876592640534,63.67938106345695,4.3984382963202675,1.0002733786705067,B,590.5780000000505,Correct
16,116,157,A,16.504223368621922,42.23523517921498,0.8252111684310961,0.6634295228082949,A,842.1647000000121,Correct
16,116,158,B,77.67599066678771,63.566907204051496,3.8837995333393853,0.9985066434183614,B,571.0123999999723,Correct
16,116,159,B,58.66888871970202,48.89138230875444,2.933444435985101,0.7679840374251646,B,2488.277200000084,Correct
16,116,160,A,25.803224252133163,46.126607668960105,1.2901612126066582,0.7245550589391183,A,706.7775999998958,Correct
16,116,161,A,62.61506101899984,83.62056934195306,3.1307530509499917,1.3135088316683778,B,869.26799999992,Incorrect
16,116,162,B,64.50743902671137,35.84296630326836,3.2253719513355685,0.563019998106072,A,641.9528000001264,Incorrect
16,116,163,A,20.29048797388749,43.12986747884753,1.0145243986943746,0.6774823741092436,A,742.7150000000893,Correct
16,116,164,A,17.123257077539435,45.58043780893777,0.8561628538769718,0.7159758428398267,A,671.5237000000798,Correct
16,116,165,A,27.625094516183747,47.376844864174096,1.3812547258091874,0.7441937388777633,B,1626.589499999909,Incorrect
16,116,166,B,76.02431784556534,60.82545606917917,3.801215892278267,0.9554440296909099,B,578.6036000001786,Correct
16,116,167,A,57.641087065683536,74.84317071265482,2.882054353284177,1.175633776411216,B,1046.2231999999858,Incorrect
16,116,168,A,35.39842251246909,53.04759643353647,1.7699211256234546,0.8332696962309715,B,3356.835799999999,Incorrect
16,116,169,B,41.452304140659265,29.86421049885798,2.072615207032963,0.469105921542357,A,945.2898000001824,Incorrect
16,116,170,B,56.66092674382719,32.525930132056985,2.8330463371913597,0.5109161157702256,B,1141.7507000001024,Correct
16,116,171,A,19.824912862664696,37.39396337742735,0.9912456431332347,0.5873830031756577,A,611.864100000048,Correct
16,116,172,B,60.25528530865128,46.16391758726959,3.012764265432564,0.725141121765454,B,770.1748999998017,Correct
16,116,173,B,79.07196181670241,58.99997638443372,3.9535980908351207,0.9267694618565413,B,470.9235999998782,Correct
16,116,174,A,50.72437691377915,78.73939643252993,2.536218845688958,1.2368355469026522,A,782.9056000000492,Correct
16,116,175,A,44.609513711792225,51.59312622067112,2.2304756855896115,0.8104229315529565,B,615.75629999993,Incorrect
16,116,176,A,39.518252334577795,66.62786554979606,1.9759126167288898,1.0465880646780388,A,1104.8981999999796,Correct
16,116,177,B,78.08701441140398,62.284526091782745,3.904350720570199,0.9783630480113323,B,371.0908999998992,Correct
16,116,178,A,61.71166088988835,71.43507485712925,3.0855830444944172,1.122099531898971,A,2109.320300000036,Correct
16,116,179,A,54.97972302984074,81.10758778119177,2.748986151492037,1.2740350096189066,B,804.2831000000206,Incorrect
16,116,180,A,42.404649879860514,73.80758245819644,2.1202324939930257,1.1593667941494643,A,651.4577000000372,Correct
16,116,181,A,20.278453826072205,32.497141250848145,1.0139226913036103,0.5104639010816718,A,994.3594000001212,Correct
16,116,182,B,38.91473260051651,20.48148341762942,1.9457366300258254,0.32172238919722873,A,2340.3007000001708,Incorrect
16,116,183,A,17.303693127816985,35.33020551075903,0.8651846563908492,0.5549655704120909,B,1907.789300000104,Incorrect
16,116,184,A,52.01681871291767,59.32954760626672,2.6008409356458833,0.9319463545032671,B,1346.44789999993,Incorrect
16,116,185,B,32.55731934401878,11.961647623375995,1.6278659672009388,0.1878931214921392,B,1491.559000000052,Correct
16,116,186,B,67.06214127161942,56.90564065719502,3.3531070635809717,0.8938717131823226,A,955.0437000000329,Incorrect
16,116,187,B,83.4713585028412,62.85118201217689,4.17356792514206,0.9872640583944494,B,555.6151999999202,Correct
16,116,188,A,49.10352621905561,64.64362647986539,2.45517631095278,1.0154197102527387,B,471.4673999999377,Incorrect
16,116,189,B,87.27060999805042,61.30912565377578,4.363530499902521,0.9630414937595777,B,599.7637000000395,Correct
16,116,190,A,43.392505704818504,74.19134345607493,2.1696252852409255,1.165394897807811,B,564.7768999999698,Incorrect
16,116,191,B,47.74436241142595,40.22018341002854,2.3872181205712977,0.6317771636348987,A,844.5136999998795,Incorrect
16,116,192,A,44.9913866766636,63.22552926400559,2.2495693338331804,0.9931442912756323,B,579.7134000001734,Incorrect
16,116,193,B,64.84062824345507,40.195870410586856,3.2420314121727536,0.631395255932735,B,620.5598000001373,Correct
16,116,194,A,16.258335494049163,45.58084832308566,0.8129167747024582,0.7159822911809828,A,482.60879999997996,Correct
16,116,195,B,36.33010337364161,17.000657949443926,1.8165051686820806,0.26704571060082977,B,645.9654000000228,Correct
16,116,196,A,28.628046515992935,40.59383114355893,1.4314023257996467,0.6376464085083464,B,822.2477000001618,Incorrect
16,116,197,A,18.87083063350469,34.468413657351604,0.9435415316752344,0.5414285756341495,A,570.4197000000022,Correct
16,116,198,A,26.956069768832723,43.66224106966351,1.3478034884416363,0.6858448789186072,A,450.98810000013145,Correct
16,116,199,A,24.917115230864212,45.60176451585896,1.2458557615432106,0.716310841968771,A,471.6662999999244,Correct
16,116,200,B,61.37697100686546,53.414512912248924,3.068848550343273,0.8390332068009919,B,547.849099999894,Correct
16,116,201,B,54.158372563512415,23.30111415699637,2.707918628175621,0.3660130452803846,B,503.13679999999295,Correct
16,116,202,A,40.07691074235619,47.66941584497031,2.0038455371178094,0.7487894330973781,A,2361.6487999997844,Correct
16,116,203,B,82.15222606235753,62.379040010665975,4.107611303117876,0.97984766917746,B,520.8452000001671,Correct
16,116,204,A,38.98664693655787,50.3821987930497,1.9493323468278934,0.7914017279997275,A,1247.2004999999626,Correct
16,116,205,B,42.94499049556772,23.84165460116265,2.147249524778386,0.3745038347221893,A,1285.0388000001658,Incorrect
16,116,206,A,19.293811553363096,35.683749857956755,0.9646905776681548,0.5605190320314638,A,659.6707000003335,Correct
16,116,207,B,49.39165595641908,28.05214641903219,2.4695827978209537,0.44064208553728373,B,957.6246000001447,Correct
16,116,208,B,46.16052571211184,34.74385793335776,2.308026285605592,0.545755244204021,B,1892.015800000081,Correct
16,116,209,A,43.254446616081296,61.339578439725855,2.1627223308040646,0.9635198450026882,B,629.6694999996362,Incorrect
16,116,210,A,34.829559578425325,50.426871606408355,1.7414779789212662,0.7921034469110412,A,1092.29490000007,Correct
16,116,211,B,46.007568632935374,18.319135720140945,2.300378431646769,0.2877563109925458,B,1042.9301000003761,Correct
16,116,212,B,64.46445447416126,51.301165735543364,3.2232227237080626,0.8058368269768773,B,706.7047999998977,Correct
16,116,213,B,63.30641165341893,37.56800848621053,3.165320582670946,0.5901168973513901,B,426.4418999996451,Correct
16,116,214,B,58.43581101974008,35.837817535314464,2.921790550987004,0.5629391214481769,B,442.1646000000692,Correct
16,116,215,A,44.92799301115426,74.30492244936642,2.246399650557713,1.167178992462444,A,971.8477999999777,Correct
16,116,216,B,40.81951891772894,31.216987065904842,2.040975945886447,0.49035528616727125,A,510.89500000034604,Incorrect
16,116,217,A,29.655829589053674,61.070887408232224,1.4827914794526835,0.9592992561495587,A,660.7177000000775,Correct
16,116,218,B,68.06891517723454,56.35474419616044,3.4034457588617273,0.8852182518079483,B,454.667900000004,Correct
16,116,219,A,25.602001797763123,57.35251423008061,1.2801000898881563,0.9008911868506266,A,531.094899999971,Correct
16,116,220,B,38.66484167542852,20.223784238460333,1.9332420837714261,0.31767445995666016,A,1047.5137000003087,Incorrect
16,116,221,B,62.810031779839164,31.301015326678126,3.1405015889919583,0.4916751990009675,B,1200.6640999998126,Correct
16,116,222,A,18.9375336273674,32.152703225543746,0.94687668136837,0.5050534812321054,A,624.3847000000642,Correct
16,116,223,A,32.26856956960703,61.55303769986602,1.6134284784803514,0.9668728552201732,B,623.8597999999911,Incorrect
16,116,224,A,66.36571197263933,81.24771275361284,3.318285598631967,1.2762360875386194,B,557.3927999998887,Incorrect
16,116,225,B,57.233603375435905,32.686386799612016,2.8616801687717954,0.5134365632102775,B,1446.2170000001606,Correct
16,116,226,A,24.687508472651338,52.36668094385706,1.2343754236325668,0.8225739007305097,A,500.59669999973266,Correct
16,116,227,B,64.02459328390536,30.828431168514456,3.2012296641952678,0.48425186440351814,B,965.2027000001908,Correct
16,116,228,B,36.17927528371557,21.426204920261103,1.8089637641857785,0.3365620398590088,B,1437.7564000001257,Correct
16,116,229,B,52.025918696118225,45.31548807396866,2.601295934805911,0.7118140221350792,B,609.9033999998937,Correct
16,116,230,B,34.9511889257013,15.161258418369606,1.7475594462850652,0.23815249033163177,B,907.0254999996905,Correct
16,116,231,A,30.276680405998533,63.22916686953462,1.5138340202999268,0.9932014306496656,B,1875.8922000001803,Incorrect
16,116,232,A,30.9008222911481,58.43737168281422,1.5450411145574048,0.9179320878691267,A,469.5555999996941,Correct
16,116,233,A,64.78397650908005,88.44707515225852,3.2391988254540025,1.3893234076491985,A,2250.812499999938,Correct
16,116,234,B,44.57419425919589,18.6606195957914,2.2287097129597946,0.29312032716785996,B,1223.2453999999962,Correct
16,116,235,B,63.660839658284544,48.9346269639904,3.183041982914227,0.768663322881146,B,1286.161600000014,Correct
16,116,236,B,53.26305356334058,27.040601342137936,2.663152678167029,0.42475277262555416,B,619.9824999998782,Correct
16,116,237,B,43.69561813058101,15.318734889226633,2.1847809065290504,0.24062612495142024,B,736.3921999999548,Correct
16,116,238,A,61.664217294043,86.89294404367111,3.08321086470215,1.3649111732819306,B,744.4126999998844,Incorrect
16,116,239,B,50.11141561778899,30.190718599240675,2.5055707808894496,0.4742346987898562,B,1683.207399999901,Correct
16,116,240,A,47.09938229833281,57.40117519153525,2.3549691149166407,0.9016555514457393,B,1701.182499999959,Incorrect
16,116,241,A,23.96170544267657,39.00118280543373,1.1980852721338286,0.6126291469143158,B,525.4644999999982,Incorrect
16,116,242,A,30.50285699328942,47.026774525347015,1.525142849664471,0.7386948468542689,A,508.9258000002701,Correct
16,116,243,A,38.31677998053302,57.12754563122148,1.9158389990266511,0.8973573883633055,A,502.63349999977436,Correct
16,116,244,A,53.35934215451992,65.84304241665875,2.667967107725996,1.0342600917308813,A,804.1403000001992,Correct
16,116,245,B,70.25092357853428,55.34511177235141,3.5125461789267143,0.8693589827806257,B,737.9366999998638,Correct
16,116,246,A,44.934325740971,62.447325759656316,2.24671628704855,0.9809202992143248,A,2196.4437000001453,Correct
16,116,247,B,76.78927119891158,50.65316012404002,3.839463559945579,0.795657978633958,B,586.5439999997761,Correct
16,116,248,A,45.91317020410121,58.0753683515691,2.295658510205061,0.9122457528390533,B,988.5124000002179,Incorrect
16,116,249,B,46.287889627957156,29.9492634681611,2.3143944813978576,0.4704419304600003,B,602.8602999999748,Correct
16,116,250,B,52.90515997385506,38.081993388877045,2.6452579986927534,0.598190553322756,B,583.2978000003095,Correct
16,116,251,A,20.28580501489268,41.218016778657976,1.0142902507446339,0.6474510935368636,A,619.4489999998041,Correct
16,116,252,B,82.95325128930504,55.26718021480863,4.147662564465253,0.8681348367373297,B,549.1197000001193,Correct
16,116,253,B,77.86098932281331,47.73770536321249,3.8930494661406656,0.7498621223415122,B,611.4674000000377,Correct
16,116,254,A,65.41511821155368,88.06965763112052,3.2707559105776842,1.3833949470904825,A,1304.1874999998981,Correct
16,116,255,A,23.282064119969082,53.4605504119639,1.164103205998454,0.8397563621554628,A,554.9651000001177,Correct
16,116,256,A,17.51544580085112,42.39523184294079,0.875772290042556,0.6659427445250943,A,719.1272999998546,Correct
16,116,257,B,61.31612595495756,49.35989073109663,3.065806297747878,0.7753433505140404,B,577.0526000001155,Correct
16,116,258,B,42.11807957367051,15.749217584786777,2.1059039786835254,0.24738813132076662,B,2284.396000000015,Correct
16,116,259,B,40.24920908498011,26.16040618446773,2.0124604542490054,0.41092669942024407,B,1419.603399999687,Correct
16,116,260,B,52.594865019714376,23.5095268581726,2.6297432509857184,0.36928678433503476,B,624.0680000000793,Correct
16,116,261,A,36.29974020739223,66.29926700683049,1.8149870103696117,1.0414264508352342,A,789.0190999996776,Correct
16,116,262,A,54.45230584264684,76.17587036251388,2.722615292132342,1.1965677735584102,B,730.0121999996918,Incorrect
16,116,263,B,73.62461367226182,55.2436122844757,3.681230683613091,0.8677646325533587,B,597.3509000000377,Correct
16,116,264,B,59.48579010280314,37.09245113793969,2.974289505140157,0.5826468599929485,A,771.6793999998117,Incorrect
16,116,265,A,55.8346591870772,69.33884682718838,2.79173295935386,1.0891720590034146,B,395.7457000001341,Incorrect
16,116,266,A,20.827369234783767,38.69130045988565,1.0413684617391883,0.6077615264130608,A,896.6752000001179,Correct
16,116,267,B,65.38005770198058,44.27553006434798,3.269002885099029,0.6954783999197482,B,491.4715999998407,Correct
16,116,268,B,86.31918456307649,68.95179252638967,4.315959228153824,1.0830922242637668,B,1611.7936999999074,Correct
16,116,269,A,11.515103406204805,34.00798241335531,0.5757551703102401,0.5341961385660395,A,427.8023000001667,Correct
16,116,270,A,25.26942062279192,48.56915209118727,1.263471031139596,0.7629224570037964,B,1603.2598000001599,Incorrect
16,116,271,A,20.979010511623226,39.3843145946727,1.0489505255811613,0.6186473669864653,A,632.5308000000405,Correct
16,116,272,B,56.477949455293825,34.08500793881811,2.823897472764691,0.5354060526907037,A,964.6620000003168,Incorrect
16,116,273,B,76.26591063133911,58.75933231075588,3.813295531566956,0.9229894335865603,B,686.6531000000577,Correct
16,116,274,A,22.24125906180482,39.30433535889285,1.1120629530902408,0.6173910560886365,A,1060.1424999999836,Correct
16,116,275,A,22.851087177386116,47.43741399231591,1.142554358869306,0.7451451565177867,A,658.2602000003135,Correct
16,116,276,B,66.14581561323769,47.38939547909798,3.3072907806618845,0.7443908834759778,B,692.1889000000192,Correct
16,116,277,B,57.8722042661818,47.12129101687649,2.89361021330909,0.7401795084314295,B,558.4794999999758,Correct
16,116,278,B,64.22936834727842,55.94132653421193,3.211468417363921,0.8787243023597398,B,1054.46720000009,Correct
16,116,279,B,50.63532130898355,40.7309129765187,2.5317660654491774,0.6397996849051816,B,2274.115900000197,Correct
16,116,280,B,58.21757128429172,40.26940706387391,2.910878564214586,0.632550366981416,B,626.9053000000895,Correct
16,116,281,B,60.4581446143047,52.14532494298605,3.0229072307152354,0.8190968487996877,B,582.5141000000258,Correct
16,116,282,B,73.10126056417005,50.69904080623117,3.6550630282085024,0.796378670704525,B,751.6178000000764,Correct
16,116,283,A,44.83365073202676,73.6877278534615,2.241682536601338,1.157484122420793,A,1745.8513999999923,Correct
16,116,284,A,22.316250727674905,54.2744880807783,1.1158125363837454,0.8525416651595994,A,531.7933999999696,Correct
16,116,285,B,62.40744943387384,42.294216054687425,3.1203724716936923,0.6643559922337274,B,710.853600000064,Correct
16,116,286,A,64.95208522440308,75.8648322349698,3.2476042612201534,1.191681998076016,B,1349.7514000000592,Incorrect
16,116,287,A,11.591682639247924,33.273344051701784,0.5795841319623962,0.5226564661659598,A,1231.4731999999822,Correct
16,116,288,B,51.159478480329426,38.934589495348575,2.5579739240164714,0.611583101645607,B,2189.8090999998203,Correct
16,116,289,A,68.75954992269408,82.66508671747516,3.437977496134704,1.2985001456999157,B,1196.1676999999327,Incorrect
16,116,290,B,46.805645064037705,34.93290877153583,2.3402822532018854,0.548724847825897,B,846.9708000002356,Correct
16,116,291,B,49.573471015053265,41.58300629486029,2.478673550752663,0.653184335450556,A,840.0624000000789,Incorrect
16,116,292,B,64.75101259178491,35.30865293760507,3.2375506295892453,0.5546270233846587,B,625.233599999774,Correct
16,116,293,B,64.70144317841111,45.99016465279729,3.2350721589205556,0.7224118170530648,A,656.382499999836,Incorrect
16,116,294,B,33.63725817038609,19.249168500727425,1.6818629085193044,0.3023652317479867,A,754.8762999999781,Incorrect
16,116,295,A,61.54139395628964,76.74052949129836,3.077069697814482,1.205437418412269,A,1031.6265999999814,Correct
16,116,296,A,27.761511333717195,45.87619769653418,1.3880755666858595,0.7206216282903238,A,747.2281000000294,Correct
16,116,297,B,39.41381982281278,26.982550850818793,1.9706909911406394,0.42384091764022674,B,2121.3103000000046,Correct
16,116,298,A,67.93500741045472,85.60698143877566,3.396750370522736,1.344711319920277,A,1885.740100000021,Correct
16,116,299,A,14.871054723404125,36.20636664800729,0.7435527361702063,0.5687282773727911,A,850.1740000001519,Correct
16,116,300,B,45.52191391942242,29.718783134410856,2.276095695971121,0.46682155384346696,A,1381.7962000002808,Incorrect
16,116,301,B,44.68998262100748,28.427504394493134,2.234499131050374,0.44653819482815593,B,1112.5581999999667,Correct
16,116,302,A,58.91838559775603,69.96731852542202,2.9459192798878013,1.0990440693542143,B,1217.960800000128,Incorrect
16,116,303,A,48.32195326899458,58.52546337099823,2.4160976634497286,0.919315828871333,B,1466.8341999999939,Incorrect
16,116,304,A,41.56599555969565,51.08237036874505,2.0782997779847823,0.8023999973920118,A,564.2241000000467,Correct
16,116,305,A,47.96900460006945,73.21940850360755,2.3984502300034722,1.1501277792756175,A,558.980000000247,Correct
16,116,306,B,40.210821047738776,30.286985850118832,2.0105410523869387,0.47574686123055665,A,643.1329000001824,Incorrect
16,116,307,B,84.24792685476254,65.05546247534677,4.212396342738128,1.0218888149421792,B,1141.105200000311,Correct
16,116,308,A,61.29002410887196,78.44369776785211,3.0645012054435985,1.2321907231395113,A,797.3774000001868,Correct
16,116,309,B,59.4680508157879,42.59728586946575,2.973402540789395,0.6691166017518895,B,2713.825799999995,Correct
16,116,310,B,67.6767523770068,34.91259053437646,3.38383761885034,0.5484056897029282,B,628.0592000002798,Correct
16,116,311,B,85.60320019210137,64.5938001905088,4.280160009605068,1.0146370407297474,B,476.5913000001092,Correct
16,116,312,B,43.80135326966106,31.29001992879023,2.190067663483053,0.49150248369482796,A,662.2817000002215,Incorrect
16,116,313,A,41.862607050041355,72.5560326867027,2.093130352502068,1.1397074963108302,A,853.4905999999864,Correct
16,116,314,A,48.572952384385125,73.41416455242977,2.4286476192192565,1.1531870001367277,A,1411.280799999986,Correct
16,116,315,B,84.84309660861179,65.22475442001358,4.242154830430589,1.0245480465905654,B,442.19909999992524,Correct
16,116,316,A,23.55270061566385,36.65953827907889,1.1776350307831924,0.5758466807077403,A,648.0426000002808,Correct
16,116,317,B,70.42373158264327,45.89977755664595,3.5211865791321633,0.7209920198668229,B,466.52180000000953,Correct
16,116,318,A,51.207898674459926,74.73668150711879,2.560394933722996,1.1739610478822227,B,568.6309999996411,Incorrect
16,116,319,A,39.59608200654516,52.918061448845656,1.979804100327258,0.8312349654495337,A,517.0536999999058,Correct
16,116,320,B,65.24631722677358,32.15245393137048,3.2623158613386796,0.5050495653283888,B,859.6917999998368,Correct
16,116,321,A,27.583461153022554,47.3581850295561,1.3791730576511276,0.7439006308809978,B,828.550499999892,Incorrect
16,116,322,A,57.48711511958657,78.02076642665585,2.8743557559793285,1.225547333167136,A,475.73770000008153,Correct
16,116,323,B,77.53732246985572,65.66555794470742,3.8768661234927864,1.0314721721648383,B,1013.3973000001788,Correct
16,116,324,A,40.86544858182088,51.635550940140504,2.043272429091044,0.8110893374880347,A,683.2125999999334,Correct
16,116,325,B,35.47652099255181,19.540279257844187,1.7738260496275904,0.3069379888276816,B,578.9551000002575,Correct
16,116,326,A,41.35016671063262,59.440662748759465,2.067508335531631,0.9336917470800561,B,1102.5950000002922,Incorrect
16,116,327,A,34.33918903162353,59.25263932524722,1.7169594515811766,0.9307382820500117,A,627.2723999995833,Correct
16,116,328,B,76.14120684819694,56.57777412573043,3.807060342409847,0.888721597749287,B,449.3603000000803,Correct
16,116,329,B,65.18680087723666,56.24141701489405,3.2593400438618336,0.8834381126073557,B,551.9977999997536,Correct
16,116,330,B,66.36555079024225,50.49821277863858,3.3182775395121125,0.7932240714239259,A,1335.4905999999573,Incorrect
16,116,331,A,35.84418648613311,67.884938121144,1.7922093243066555,1.0663341144539185,A,604.9812999999631,Correct
16,116,332,A,26.346626939707377,44.61320111481608,1.317331346985369,0.7007825243771507,B,701.5559999999823,Incorrect
16,116,333,B,76.02502392706522,49.836333064459026,3.801251196353261,0.7828272891857929,B,772.5010999997721,Correct
16,116,334,A,39.17967889319105,48.8392306883977,1.9589839446595527,0.7671648416882368,A,644.4989000001442,Correct
16,116,335,B,59.2963984844489,29.2339891420623,2.964819924222445,0.4592064276191335,B,1050.32379999966,Correct
16,116,336,A,27.538143306304388,60.13495766048673,1.3769071653152194,0.9445977060505919,A,592.6656000001458,Correct
16,116,337,A,60.15051214914723,76.51175775143874,3.0075256074573615,1.2018438803258094,B,799.0505999996458,Incorrect
16,116,338,B,32.48759068525132,16.418488575506654,1.624379534262566,0.2579010154592983,A,520.6814000002851,Incorrect
16,116,339,A,40.46449222253306,69.46159141428359,2.023224611126653,1.091100126468846,A,663.9172000000144,Correct
16,116,340,A,55.362682776086466,84.2671222890578,2.7681341388043235,1.3236648616122833,A,677.992599999925,Correct
16,116,341,B,52.61385159077311,30.702333285189574,2.630692579538655,0.4822711234840848,B,466.96250000013606,Correct
16,116,342,B,48.910751482157245,36.99637893005752,2.4455375741078624,0.5811377612804646,B,467.5438000003851,Correct
16,116,343,B,46.59972699323674,23.325985797344075,2.329986349661837,0.36640372809338,B,564.3737999998848,Correct
16,116,344,A,24.306814908663767,40.13486098578682,1.2153407454331884,0.6304369221289774,B,482.74529999980587,Incorrect
16,116,345,B,56.47683287769089,33.543363863875435,2.8238416438845446,0.526897927457202,B,778.4797999997863,Correct
16,116,346,A,21.033272951767355,45.77537960358685,1.0516636475883678,0.7190379813895625,A,509.83709999991333,Correct
16,116,347,A,56.78403653482948,67.89792757100622,2.8392018267414745,1.066538152255225,B,720.8682000000408,Incorrect
16,116,348,A,11.005274754986601,36.52224541626447,0.55026373774933,0.5736900894616997,A,616.6230999997424,Correct
16,116,349,B,46.13659999989261,36.25212901819998,2.3068299999946307,0.5694471110028321,A,1506.5647000001263,Incorrect
16,116,350,B,87.9557999928823,63.30995065003216,4.397789999644115,0.9944703793063668,B,452.7842000002238,Correct
16,116,351,A,47.529248466340036,74.25175923609159,2.376462423317002,1.166343906661117,B,475.7153999998991,Incorrect
16,116,352,A,42.54225699144892,74.09793782583534,2.1271128495724465,1.163927685598988,A,420.82310000023426,Correct
16,116,353,A,49.06910785298915,59.6276841730841,2.4534553926494573,0.936629472743667,A,571.4831000000231,Correct
16,116,354,A,41.75264603276083,62.10503558320005,2.0876323016380414,0.9755436176955697,B,722.1164000002318,Incorrect
16,116,355,B,49.30544387459201,35.48511982577267,2.4652721937296005,0.5573989587820047,A,816.7312999999012,Incorrect
16,116,356,A,22.43938557274902,35.43924599322426,1.121969278637451,0.5566783743053743,A,1125.4558999999063,Correct
16,116,357,B,53.815848125451915,36.57451684304632,2.690792406272596,0.5745111671135523,B,1829.9987000000328,Correct
16,116,358,B,45.006957990514415,26.230771642255718,2.2503478995257207,0.41203199744651015,A,755.5514000000585,Incorrect
16,116,359,A,52.42606811037059,69.36760692731451,2.6213034055185296,1.0896238215997784,B,508.690199999819,Incorrect
16,116,360,A,17.78377897013325,32.073648948843825,0.8891889485066625,0.5038116995575288,A,678.3467000000201,Correct
16,116,361,B,48.487246666886904,19.990652272624157,2.4243623333443454,0.31401243160072073,A,1233.9463999996951,Incorrect
16,116,362,A,48.10811555981233,77.388119460562,2.405405777990617,1.2156097378621544,A,914.2439000002014,Correct
16,116,363,A,27.254441118839623,50.55181648360234,1.362722055941981,0.7940660764525226,A,677.2860999999466,Correct
16,116,364,A,54.05238309090247,83.37662941724419,2.7026191545451237,1.3096770322914648,B,605.0662999996348,Incorrect
16,116,365,B,82.73957300683864,59.88179671815615,4.136978650341932,0.9406210632675839,B,522.5965999998152,Correct
16,116,366,B,40.34637425292992,27.89614631751118,2.017318712646496,0.43819164167279545,A,838.4705999997095,Incorrect
16,116,367,B,71.73457412904334,50.75737698538723,3.586728706452167,0.7972950132639008,B,511.6171999998187,Correct
16,116,368,B,85.76590190876857,64.32045962337023,4.2882950954384285,1.010343417141494,B,678.7693000001127,Correct
16,116,369,A,38.59717947471285,51.31370971179771,1.9298589737356426,0.8060338672951145,A,1281.0279000000264,Correct
16,116,370,B,47.99545525110835,39.14375592262661,2.3997727625554175,0.6148686802021784,A,708.8718999998491,Incorrect
16,116,371,A,26.473697056482024,55.91101256180876,1.3236848528241012,0.8782481315947251,A,616.7849999997088,Correct
16,116,372,A,45.85648948163907,67.15697570750719,2.2928244740819537,1.054899307600064,A,1060.8909000002313,Correct
16,116,373,A,67.89810407533182,81.93095548340776,3.394905203766591,1.286968439241331,A,2131.0256000001573,Correct
16,116,374,B,39.39097657704757,27.300431904368978,1.9695488288523786,0.42883418155296993,B,1700.434800000039,Correct
16,116,375,B,70.72051327618802,37.55475432538486,3.5360256638094008,0.589908701479993,B,2463.7407000000167,Correct
16,116,376,B,48.27699469682322,36.130125873694425,2.413849734841161,0.5675306900903646,B,651.3804000001073,Correct
16,116,377,B,79.14188896588176,64.21325393536677,3.957094448294088,1.0086594341322206,B,542.4164000000928,Correct
16,116,378,B,53.19918442103134,42.131448328096845,2.659959221051567,0.6617992427632351,B,744.8983999997836,Correct
16,116,379,B,83.78270415063821,62.68682695322583,4.18913520753191,0.9846823751655447,B,396.79019999994125,Correct
16,116,380,B,39.39024517960767,14.924648346322286,1.9695122589803833,0.23443582801108573,A,1532.5429000004078,Incorrect
16,116,381,B,58.96091635229501,32.14440150143383,2.9480458176147506,0.5049230780547262,B,499.74680000013905,Correct
16,116,382,B,64.57638779358578,39.40236243187428,3.2288193896792894,0.6189308617502935,B,443.7550000002375,Correct
16,116,383,B,75.03677529441077,62.32451499371754,3.7518387647205382,0.9789911922140496,B,747.5069000001895,Correct
16,116,384,A,56.3000291847928,70.64153788127108,2.81500145923964,1.1096346822304315,B,514.4082000001617,Incorrect
16,116,385,B,66.34576570484023,42.3075227907392,3.317288285242012,0.6645650139548451,A,694.5467999998982,Incorrect
16,116,386,B,83.98411019255414,68.91730881665093,4.199205509627706,1.0825505554178483,B,571.8317000000752,Correct
16,116,387,A,46.57914720318451,55.44487181447263,2.3289573601592255,0.8709260098578749,B,649.3857000000389,Incorrect
16,116,388,B,54.36268555773252,28.141652429973853,2.7181342778866258,0.44204804266941605,B,1186.7495000001327,Correct
16,116,389,A,37.59912718590761,54.199904642534,1.8799563592953805,0.8513701112512608,A,947.5923999998486,Correct
16,116,390,B,42.68981747869404,32.79846326910168,2.134490873934702,0.5151970562762226,B,720.5768000003445,Correct
16,116,391,A,51.97157922435499,75.51595170482,2.5985789612177497,1.1862017955235207,A,643.6450000001059,Correct
16,116,392,A,37.15862991089855,50.9404146537333,1.8579314955449275,0.8001701622349319,B,624.896599999829,Incorrect
16,116,393,B,83.8354488746248,64.08597672855925,4.1917724437312405,1.0066601684428407,B,560.3621999998722,Correct
16,116,394,B,33.435584390758564,10.434923645439202,1.671779219537928,0.1639113973264111,A,704.6424000000115,Incorrect
16,116,395,A,44.025580235989494,69.88042990243218,2.2012790117994747,1.0976792260558872,B,1407.2971000000507,Incorrect
16,116,396,B,32.49434167496689,14.984498050939848,1.6247170837483447,0.235375944972816,A,691.4682999999968,Incorrect
16,116,397,A,69.59512733033856,88.42681143431652,3.4797563665169275,1.3890051059120936,B,875.467899999876,Incorrect
16,116,398,B,66.54303800956583,39.242836584313,3.327151900478292,0.6164250355965124,A,627.2127000002001,Incorrect
16,116,399,B,69.27234669806668,55.81372882707305,3.4636173349033346,0.8767200022629278,B,535.6606999998803,Correct
16,116,400,A,33.81668602772893,62.341169318439235,1.6908343013864464,0.9792527977350305,A,637.7293000000464,Correct
16,116,401,A,42.48385915195188,66.9761360059388,2.1241929575975944,1.052058684210441,B,1836.9238999998743,Incorrect
16,116,402,B,80.09496790992219,54.29982110058079,4.004748395496109,0.8529395953041232,B,551.4213000001291,Correct
16,116,403,A,19.510709272086817,44.517973937606996,0.9755354636043408,0.6992866993754401,A,610.7473000001846,Correct
16,116,404,B,71.88172815901423,41.90965783817382,3.5940864079507118,0.6583153658943438,B,924.4299000001774,Correct
16,116,405,B,31.420298986852714,17.51296902005395,1.5710149493426357,0.27509307407973566,B,1662.9174999998213,Correct
16,116,406,B,53.076386744367305,34.76408162701675,2.653819337218365,0.5460729172411587,B,751.2252999999873,Correct
16,116,407,A,29.698409666559293,49.310037437315636,1.4849204833279646,0.7745602568065424,A,1547.3943000001782,Correct
16,116,408,B,63.633756278652974,36.9891868723947,3.1816878139326485,0.581024788702876,B,587.9838000000746,Correct
16,116,409,A,29.248792638773935,55.57383105385622,1.4624396319386965,0.872951696853175,A,476.7930000002707,Correct
16,116,410,A,51.014758205744016,78.14382156708356,2.550737910287201,1.2274802787929067,B,466.8941999998424,Incorrect
16,116,411,B,40.39269166490635,19.918299520072072,2.0196345832453177,0.3128759172212976,B,828.8469999997687,Correct
16,116,412,B,76.2094434903712,57.48096337795428,3.81047217451856,0.9029088613472256,B,536.1588000000665,Correct
16,116,413,B,31.334051184155047,16.405314494579176,1.5667025592077524,0.25769407748000045,B,1772.613099999944,Correct
16,116,414,A,25.5599736781987,49.90858188061378,1.2779986839099349,0.7839621709361045,B,1402.684700000009,Incorrect
16,116,415,B,79.36530067252428,57.485676140455055,3.9682650336262144,0.9029828892474783,B,686.3312999998925,Correct
16,116,416,B,64.92112623229667,48.052476638186796,3.2460563116148338,0.754806537966614,B,1152.0063999996637,Correct
16,116,417,B,45.53563501655145,27.843127575750504,2.2767817508275727,0.43735882522470587,B,1063.182599999891,Correct
16,116,418,A,40.66621218902803,66.61893547790372,2.0333106094514015,1.0464477914367738,A,931.6157999996904,Correct
16,116,419,B,83.72566232549255,57.96322080404278,4.186283116274627,0.9104841432819192,B,542.3776999996335,Correct
16,116,420,B,42.79925528250351,25.812034712941625,2.1399627641251753,0.4054544931419107,A,615.2055999996264,Incorrect
16,116,421,B,30.521900671912707,12.778444865946991,1.5260950335956354,0.20072334257580637,B,607.2705000001406,Correct
16,116,422,A,55.46920466563995,73.50187644168952,2.7734602332819973,1.1545647752713823,B,612.2094999996079,Incorrect
16,116,423,A,30.061519572170965,51.243071229120496,1.5030759786085484,0.8049242806039172,A,619.427000000087,Correct
16,116,424,A,16.855948754236298,38.971184803065725,0.8427974377118148,0.6121579393950073,B,564.5690000001196,Incorrect
16,116,425,A,24.373605037842786,43.937366262702696,1.2186802518921394,0.6901665353449541,A,431.5545999997994,Correct
16,116,426,A,45.00075150579522,70.99288615970437,2.250037575289761,1.1151536480823188,B,590.507400000206,Incorrect
16,116,427,A,24.384544583481066,56.070704499277284,1.2192272291740534,0.8807565666826684,A,394.68769999984943,Correct
16,116,428,A,32.90189659265216,44.60921847572608,1.6450948296326078,0.7007199652286157,A,468.35009999995236,Correct
16,116,429,B,67.60385122589203,40.88881484350472,3.380192561294601,0.6422800016317385,B,501.4525000001413,Correct
16,116,430,B,40.372199214517586,27.34030770597228,2.0186099607258794,0.42946054917983456,B,825.3294999999525,Correct
16,116,431,A,49.37941465419499,60.359414120314376,2.4689707327097494,0.9481234598768183,B,703.7026000002697,Incorrect
16,116,432,A,39.889142551587334,53.90029257751788,1.9944571275793666,0.846663815939353,A,588.1203000003552,Correct
16,116,433,B,71.85971830144159,58.484677913347255,3.5929859150720795,0.9186751724006847,B,564.6629000002577,Correct
16,116,434,A,54.895389324414495,79.59881494443212,2.744769466220725,1.250335261319407,B,654.907699999967,Incorrect
16,116,435,B,51.59906434714244,24.55382193543741,2.579953217357122,0.3856905330496104,B,727.747900000395,Correct
16,116,436,B,36.28952283401118,11.336897776968929,1.8144761417005588,0.1780795738531202,A,760.6212000000596,Incorrect
16,116,437,A,18.428909984708625,31.655571798204754,0.9214454992354313,0.49724455903212145,A,721.7310000000907,Correct
16,116,438,A,13.083784969989072,36.40400718924063,0.6541892484994536,0.5718328077347419,A,408.1113999995978,Correct
16,116,439,A,15.536615224042713,40.88973972681838,0.7768307612021357,0.6422945296648566,A,1297.5128999996741,Correct
16,116,440,B,39.86727790154737,17.044405652097904,1.9933638950773684,0.26773289790717564,B,664.1454999999041,Correct
16,116,441,A,64.58441183360473,89.37278861381569,3.229220591680237,1.4038644806999843,B,567.5905000002786,Incorrect
16,116,442,A,60.25679394388903,77.85753290301554,3.0128396971944515,1.222983266973696,A,1451.1624000001575,Correct
16,116,443,B,60.687678397000816,47.57920599189778,3.034383919850041,0.7473724200389078,B,717.6963000001706,Correct
16,116,444,B,59.99464454367913,45.291147414325735,2.9997322271839564,0.7114316799474905,B,583.3725000002232,Correct
16,116,445,B,68.74851369028137,53.72176518049828,3.4374256845140683,0.8438595141446467,B,1140.0911999999153,Correct
16,116,446,A,50.32292928362267,73.58356726018063,2.5161464641811335,1.1558479716475696,B,607.7078000002984,Incorrect
16,116,447,A,41.439254042993134,73.00132790687812,2.0719627021496567,1.1467021772727393,B,1386.2017000001288,Incorrect
16,116,448,B,56.70494888229362,46.16894979441965,2.835247444114681,0.725220167490524,B,910.3860000000168,Correct
16,116,449,B,82.35164822319533,53.038917571860516,4.117582411159766,0.833133368990558,B,679.203900000175,Correct
16,116,450,B,51.670390731604186,40.983610735911476,2.5835195365802095,0.6437690520276164,A,1085.5467000001227,Incorrect
16,116,451,B,70.6959726374051,38.88864049583172,3.5347986318702556,0.6108613364489973,B,569.1729999998643,Correct
16,116,452,A,49.679974992802535,65.44572000565712,2.4839987496401266,1.0280189658933347,A,1461.305700000139,Correct
16,116,453,A,51.86460809915626,59.109431682508486,2.593230404957813,0.9284887816581819,A,716.2979999998242,Correct
16,116,454,A,30.85513435665826,41.75350669886762,1.542756717832913,0.6558625495338737,A,576.9488999999339,Correct
16,116,455,B,80.11754736413872,49.51272014306785,4.005877368206936,0.7777439893035467,B,517.6701000000321,Correct
16,116,456,A,43.45878461788954,58.806149091965565,2.172939230894477,0.9237248298661255,A,568.1450999995832,Correct
16,116,457,B,75.63085265623594,50.77624795393118,3.7815426328117976,0.7975914377446198,B,831.9064000002072,Correct
16,116,458,B,48.43063984631654,25.742543671495792,2.4215319923158267,0.40436293041542803,B,1606.56519999975,Correct
16,116,459,A,12.81182550740786,33.392591923519085,0.6405912753703931,0.5245296073562471,A,436.36049999986426,Correct
16,116,460,A,64.07710459282272,75.90426667005612,3.203855229641136,1.1923014327338446,A,1965.4635999995662,Correct
16,116,461,A,25.21149132435209,57.39508994654962,1.2605745662176044,0.9015599646410283,A,606.5966000001026,Correct
16,116,462,B,81.80727929500539,66.1086734128396,4.09036396475027,1.0384326136617188,B,975.4745000000185,Correct
16,116,463,A,62.250417922981455,87.0284160258314,3.1125208961490727,1.367039162201541,A,735.7558999997309,Correct
16,116,464,A,30.237999039820927,62.332830150300126,1.5118999519910463,0.9791218063882161,A,2926.115799999934,Correct
16,116,465,B,72.87022505638936,50.59010166728106,3.6435112528194677,0.7946674587114546,B,478.145499999755,Correct
16,116,466,B,79.49882325269924,67.00086512814251,3.974941162634962,1.0524471283536652,A,672.0768000000135,Incorrect
16,116,467,A,57.67231022861188,66.5738000581867,2.8836155114305937,1.0457388059217756,B,367.53429999998843,Incorrect
16,116,468,A,31.257897650255053,55.44395476088757,1.5628948825127527,0.8709116048138461,A,565.9371000001556,Correct
16,116,469,A,31.212059891453386,55.37775070785496,1.5606029945726692,0.8698716739806206,A,620.2653999998802,Correct
16,116,470,A,64.3037738639908,86.46363097151921,3.21518869319954,1.3581675393141182,A,1837.9455000003873,Correct
16,116,471,B,55.025217423868504,28.383239258112344,2.751260871193425,0.4458428796918358,B,574.8100000000704,Correct
16,116,472,B,61.844219949689354,43.47846673633056,3.0922109974844676,0.6829581584410214,B,1283.5000000000036,Correct
16,116,473,A,33.21917677923772,66.29122375218623,1.6609588389618861,1.0413001076867272,A,672.2161999996388,Correct
16,116,474,B,54.79187546224901,38.64192349022199,2.7395937731124502,0.6069859147873014,B,710.8868999998776,Correct
16,116,475,A,45.09185050330866,61.20603688651526,2.254592525165433,0.9614221791901111,A,1060.4005000000143,Correct
16,116,476,A,57.023219008950164,74.07691206081792,2.851160950447508,1.1635974136544136,A,1748.1340999997883,Correct
16,116,477,B,68.24043696319461,51.262601535090255,3.4120218481597306,0.805231061932702,B,1113.4176999999,Correct
16,116,478,A,63.15256425692591,78.84069495582162,3.157628212846296,1.2384267403856153,B,743.4898999999859,Incorrect
16,116,479,A,47.98680620241794,54.803013373152304,2.399340310120897,0.8608437210383925,B,928.6293999998634,Incorrect
16,116,480,A,62.854424096402695,73.02945002689536,3.1427212048201345,1.1471439185009868,A,614.9828000002344,Correct
16,116,481,A,39.44260962386613,49.944352099822304,1.9721304811933067,0.7845240482255185,A,1614.9851000000126,Correct
16,116,482,A,61.44839130821399,75.16598673465788,3.0724195654106996,1.1807045586271454,A,660.5167000002439,Correct
16,116,483,B,55.35843597835711,25.467119274663474,2.7679217989178553,0.4000365741068889,B,683.4608999997727,Correct
16,116,484,A,26.856461614379793,51.63068512341299,1.3428230807189896,0.8110129054176104,A,615.6203999998979,Correct
16,116,485,B,79.89999974613144,67.05623318458422,3.9949999873065725,1.0533168477504693,B,606.236799999806,Correct
16,116,486,A,23.70615692065408,47.81213850024761,1.185307846032704,0.7510313153239779,A,663.3500999996613,Correct
16,116,487,B,86.64805179851221,63.087028904860915,4.332402589925611,0.9909687327215899,B,625.5977000000712,Correct
16,116,488,A,56.78707732188554,78.56262549320901,2.839353866094277,1.234058835480958,B,795.8078999999998,Incorrect
16,116,489,A,68.62784492282987,85.36561265733394,3.431392246141493,1.340919907967361,A,825.0566000001527,Correct
16,116,490,B,44.717574163773236,31.116116935450357,2.235878708188662,0.48877082186325893,B,562.468600000102,Correct
16,116,491,A,38.175715784463435,56.63995628629823,1.9087857892231717,0.8896983528434076,B,1270.9202000000914,Incorrect
16,116,492,A,55.28562902128688,67.82364362163607,2.7642814510643436,1.0653713027071205,A,556.7226000002847,Correct
16,116,493,B,73.98326126149617,45.46635967600775,3.6991630630748085,0.7141839077180857,B,649.7140000001309,Correct
16,116,494,B,74.00656899743602,53.651521727054444,3.700328449871801,0.842756132558137,B,592.8819000000658,Correct
16,116,495,B,69.11368866676231,47.51065684681842,3.4556844333381154,0.7462956525859517,B,588.4876000000077,Correct
16,116,496,A,44.250227604232,59.904410045872034,2.2125113802116,0.9409762725887109,A,1826.5666000002057,Correct
16,116,497,B,64.1687811461044,37.35550842761839,3.2084390573052195,0.5867789542365877,B,935.564500000055,Correct
16,116,498,B,42.07137030431461,32.555651275398226,2.1035685152157306,0.5113829743981112,A,589.6357000001444,Incorrect
16,116,499,B,48.62653519307319,19.874479846698055,2.4313267596536594,0.3121875994015251,B,1308.5947999998098,Correct
16,116,500,B,58.02364760965566,30.47687246579833,2.9011823804827834,0.47872959321472536,B,779.7580999999809,Correct
16,116,501,A,48.22276422861866,70.5018957539607,2.4111382114309325,1.1074411888239817,A,1216.7586000000483,Correct
16,116,502,B,56.868113658739354,35.494621099828755,2.8434056829369676,0.5575482044458765,B,1340.3448000003664,Correct
16,116,503,A,33.73503314694821,66.09845638569651,1.6867516573474106,1.0382721249746476,A,565.2271999997538,Correct
16,116,504,A,33.22627309612105,65.98243961691828,1.6613136548060523,1.036449737832213,A,819.3148000000292,Correct
16,116,505,B,81.26322566144133,67.76523703944426,4.063161283072066,1.064453854259445,B,552.5698999999804,Correct
16,116,506,A,42.317625717185194,72.89518392901358,2.1158812858592597,1.1450348715673293,A,750.3652000000329,Correct
16,116,507,A,39.3337770345017,54.40597162807418,1.9666888517250851,0.8546070038908629,A,568.8398000002053,Correct
16,116,508,B,79.30854985275866,56.920860050172834,3.965427492637933,0.8941107788481787,B,486.38640000035593,Correct
16,116,509,A,34.22691893411186,63.803389882418244,1.711345946705593,1.0022213046436523,A,433.9927999999418,Correct
16,116,510,A,45.85971910779351,75.82460550695687,2.2929859553896756,1.1910501181099995,A,1187.6895000000331,Correct
16,116,511,A,21.09049304996461,52.72452882179284,1.0545246524982306,0.8281949620526384,A,623.5551999998279,Correct
16,116,512,A,37.582633610176856,49.35631255619923,1.8791316805088427,0.7752871446741859,A,687.3243000000002,Correct
16,116,513,A,25.282409090832324,39.705114076023136,1.264120454541616,0.6236864734558948,A,607.8408999997009,Correct
16,116,514,A,44.13990400978097,61.19482898851891,2.2069952004890485,0.9612461259400736,A,577.528500000426,Correct
16,116,515,B,56.493811113175944,32.325098915761124,2.824690555658797,0.5077614664015927,B,2467.774599999757,Correct
16,116,516,A,51.3541923678237,59.47217789971255,2.567709618391185,0.9341867859136109,A,804.6024000000216,Correct
16,116,517,B,81.7312213712576,54.117912781315404,4.08656106856288,0.8500821861069683,B,562.9767999998876,Correct
16,116,518,B,59.92501640188319,42.78228508534892,2.9962508200941596,0.6720225626395818,A,537.3473999998168,Incorrect
16,116,519,B,66.25206485384922,50.88267919518507,3.312603242692461,0.7992632557727981,B,582.8896999996687,Correct
16,116,520,B,53.90716367297474,46.46083904516151,2.6953581836487372,0.7298051531194861,A,740.4475999996976,Incorrect
16,116,521,B,78.10991037073433,58.24526796323737,3.9054955185367164,0.9149145296983772,B,567.4800000001596,Correct
16,116,522,A,27.828838238314944,44.57096726182488,1.3914419119157473,0.7001191165657012,A,689.9970999998004,Correct
16,116,523,B,82.4545838905375,65.67148469399477,4.122729194526875,1.0315652693249424,B,577.7130000001307,Correct
16,116,524,B,80.82098626207326,62.604562226391494,4.041049313103663,0.9833901638581828,B,559.2431000000033,Correct
16,116,525,B,64.49344854007421,41.09069645393814,3.2246724270037106,0.6454511505529011,A,535.538600000109,Incorrect
16,116,526,A,47.86620356088617,59.15478169991868,2.3933101780443082,0.9292011380658621,B,581.9089000001441,Incorrect
16,116,527,A,31.28300857189009,59.02966014170935,1.5641504285945045,0.9272357332254817,A,711.5475000000515,Correct
16,116,528,B,51.90155716454685,32.66792435655073,2.595077858227343,0.5131465558328342,B,866.1066999998184,Correct
16,116,529,A,35.086658313815455,50.37030120907612,1.7543329156907728,0.7912148411876929,B,692.5866999999926,Incorrect
16,116,530,A,67.90724949073153,83.08270810851529,3.3953624745365767,1.305060127170284,A,1230.485999999928,Correct
16,116,531,B,51.168005865661684,43.10149034998411,2.5584002932830843,0.6770366272114072,B,682.4129999999968,Correct
16,116,532,A,27.360054096681324,52.35559975937908,1.3680027048340662,0.8223998378917642,B,482.9537000000528,Incorrect
16,116,533,A,47.47355018790106,68.18687659163507,2.373677509395053,1.071076952857573,B,897.6069999998799,Incorrect
16,116,534,B,59.05800961612532,28.333049991781003,2.952900480806266,0.44505450853985784,B,587.8498000001855,Correct
16,116,535,B,77.76592510885133,58.17734564549424,3.8882962554425666,0.9138476084261942,B,566.6188999998667,Correct
16,116,536,B,72.1243949314886,39.20260698972665,3.60621974657443,0.6157931106024654,B,596.6953000001922,Correct
16,116,537,A,38.2427283606219,51.140652022474946,1.9121364180310951,0.8033154834679964,A,1351.7155000004095,Correct
16,116,538,B,62.7007234623659,43.38408297155304,3.1350361731182947,0.6814755817308054,B,550.971699999991,Correct
16,116,539,B,80.09399793358718,51.26433146871513,4.004699896679359,0.8052582356665374,B,576.3393000001997,Correct
16,116,540,B,56.80955037281131,45.25079328976329,2.840477518640565,0.7107977988411531,B,934.4571999999971,Correct
16,116,541,B,43.854273237925426,14.736551171807953,2.1927136618962715,0.23148120450300963,A,599.0223999997397,Incorrect
16,116,542,A,49.262948970338925,60.40030718822918,2.4631474485169464,0.9487658066855379,A,771.7029000000366,Correct
16,116,543,A,57.411885475913806,86.20055374757544,2.87059427379569,1.3540351319437753,A,907.4680999997327,Correct
16,116,544,B,74.12712446074491,61.89165972630295,3.706356223037245,0.9721919175731631,A,548.3110999998644,Incorrect
16,116,545,A,16.692263381648363,39.9043102724529,0.8346131690824181,0.6268154399925288,A,570.3714999999647,Correct
16,116,546,B,50.61915651002404,36.357369670420496,2.530957825501202,0.5711002273022069,B,559.6640999997362,Correct
16,116,547,B,48.6735914790073,18.422867925935666,2.433679573950365,0.2893857326708726,B,1164.8818999997275,Correct
16,116,548,A,16.624930596678684,32.9828668563749,0.8312465298339342,0.5180936610515883,A,517.4704999999449,Correct
16,116,549,A,33.17668781278054,62.61666772341469,1.658834390639027,0.9835803165607635,A,829.7764999997526,Correct
