subject,day,trial,cat,x,y,xt,yt,resp,rt,fb
2,102,0,B,72.7887431109501,43.34937179325789,3.639437155547505,0.6809303398171578,B,2043.3558999993693,Correct
2,102,1,B,84.41827977786696,60.85772577157324,4.220913988893347,0.9559509209907836,B,768.3381999995618,Correct
2,102,2,B,62.107478608642886,38.389440000154224,3.1053739304321444,0.6030199133995532,B,949.0470999990066,Correct
2,102,3,B,72.74767860431434,46.336354440208495,3.637383930215717,0.7278497535174591,B,520.1438000003691,Correct
2,102,4,A,51.25027270197497,62.884598251099334,2.5625136350987487,0.987788959447996,A,1169.563699999344,Correct
2,102,5,A,23.710565407172464,46.97985857409957,1.1855282703586232,0.7379578928153933,A,549.1196000002674,Correct
2,102,6,B,40.528018978686426,13.997629089185587,2.026400948934321,0.21987424357130111,B,658.654300001217,Correct
2,102,7,B,54.28209787270164,29.973621800280682,2.714104893635082,0.4708245502462033,B,589.4184999997378,Correct
2,102,8,A,58.65258697110052,82.96536837103181,2.9326293485550257,1.3032169588840228,A,1057.2988999992958,Correct
2,102,9,A,14.791392551065499,38.83077370905493,0.7395696275532749,0.6099523670878734,A,463.69810000032885,Correct
2,102,10,B,62.599509311935236,53.97052322197432,3.1299754655967615,0.8477669963227593,B,757.7470000014728,Correct
2,102,11,A,12.199614650941822,32.8014995006195,0.6099807325470912,0.5152447492893774,A,510.09180000073684,Correct
2,102,12,A,56.08292382190787,84.56517256872495,2.804146191095393,1.3283466244572972,B,527.4778000002698,Incorrect
2,102,13,B,80.1189007264931,52.730298663521545,4.005945036324655,0.8282855945145748,B,680.5889000006573,Correct
2,102,14,B,55.032804399335234,33.56063120351625,2.751640219966762,0.5271691621940152,B,503.47429999965243,Correct
2,102,15,B,40.96542812988461,29.68801465583659,2.0482714064942305,0.46633824371221166,B,424.3502000008448,Correct
2,102,16,B,58.86878154278654,48.89660857657278,2.943439077139327,0.7680661314480836,B,661.0515000011219,Correct
2,102,17,B,70.45649946681982,45.062851644446695,3.522824973340991,0.7078456183800023,B,469.05660000084026,Correct
2,102,18,B,73.91144495225139,44.964533903838664,3.695572247612569,0.7063012469219435,B,405.07810000053723,Correct
2,102,19,B,48.308337884035055,31.203373124614355,2.4154168942017527,0.49014143887754824,B,482.095000001209,Correct
2,102,20,B,41.390587567390384,23.5780201997203,2.069529378369519,0.37036267522816524,A,423.32270000042627,Incorrect
2,102,21,A,59.4943059384526,69.19029688501364,2.9747152969226303,1.0868386419682778,B,471.6287999999622,Incorrect
2,102,22,A,29.551897612521948,56.394964779813726,1.4775948806260972,0.8858500352585895,A,1025.0228000004427,Correct
2,102,23,B,80.0084158637753,61.330089094402524,4.000420793188765,0.9633707867149123,B,476.05880000082834,Correct
2,102,24,B,39.669110560169486,20.90159212749067,1.9834555280084742,0.3283214413802747,A,2219.818999999916,Incorrect
2,102,25,A,67.08256492998855,81.69565253689599,3.3541282464994278,1.283272309200684,B,827.016299999741,Incorrect
2,102,26,A,65.38971939150683,85.61593164481042,3.2694859695753418,1.3448519094279112,A,879.158700001426,Correct
2,102,27,A,29.873193009235926,52.01075242028787,1.4936596504617965,0.8169829885562695,A,1148.433300000761,Correct
2,102,28,B,39.42462977472661,22.038771895763688,1.9712314887363305,0.346184219409362,B,1113.155099999858,Correct
2,102,29,A,32.90084217648973,44.20742024983632,1.6450421088244866,0.6944085334552121,B,932.7442000012525,Incorrect
2,102,30,B,65.99119740004686,54.16582245543057,3.299559870002343,0.8508347495081486,B,558.1492000001163,Correct
2,102,31,A,27.290010337560588,41.013771266143344,1.3645005168780295,0.6442428125286405,A,828.8105999999971,Correct
2,102,32,B,58.847628456488906,29.169517013421327,2.9423814228244454,0.4581937017906346,A,753.7561000008282,Incorrect
2,102,33,A,17.19598237688377,47.59084451445243,0.8597991188441884,0.7475552375236894,A,631.5787000003183,Correct
2,102,34,A,31.43442386602772,49.78051091343734,1.571721193301386,0.7819504368880063,A,555.9894999987591,Correct
2,102,35,B,73.53495066900952,56.601650813538484,3.6767475334504756,0.8890966518843363,B,490.1156000014453,Correct
2,102,36,A,59.29493321877038,71.47628474932762,2.964746660938519,1.122746855371899,B,475.769600001513,Incorrect
2,102,37,B,64.8802000432301,52.16802371980031,3.244010002161505,0.8194534003521137,B,562.6986999996006,Correct
2,102,38,A,25.023541710351502,49.27486956960348,1.2511770855175752,0.7740078412323077,A,552.2217999987333,Correct
2,102,39,A,55.35397460133423,81.54562489602192,2.7676987300667117,1.2809156805286568,B,1584.491200001139,Incorrect
2,102,40,B,74.71590743721936,46.5362840905252,3.7357953718609678,0.7309902411208076,B,2238.867300000493,Correct
2,102,41,A,49.913143281389324,69.8639351750296,2.495657164069466,1.0974201274837325,B,912.287600000127,Incorrect
2,102,42,B,48.2160920085232,21.590073063451005,2.4108046004261596,0.3391360746330228,B,1273.6566000003222,Correct
2,102,43,A,26.04272938800778,46.80739965519663,1.302136469400389,0.7352489144520358,A,608.6210000012215,Correct
2,102,44,B,67.84726196743797,35.73169994495628,3.3923630983718986,0.5612722302367474,B,702.9933000012534,Correct
2,102,45,A,24.865821074652665,45.216329062507874,1.2432910537326334,0.710256436025367,A,679.2464999998629,Correct
2,102,46,B,76.90436120514399,47.991335758061524,3.8452180602571993,0.753846139267436,B,467.1180000004824,Correct
2,102,47,A,18.18831551826234,40.01572837670848,0.909415775913117,0.6285655914815599,A,512.0898000004672,Correct
2,102,48,A,29.436593169456295,41.37646266831467,1.4718296584728148,0.6499399557515485,A,628.831199999695,Correct
2,102,49,B,45.7038927849534,19.82298573951318,2.28519463924767,0.31137873185734916,B,2118.4990000001562,Correct
2,102,50,A,19.077484956529013,42.60185940473911,0.9538742478264507,0.6691884426759681,A,596.8680000005406,Correct
2,102,51,A,38.37171941287693,66.05831957535462,1.9185859706438464,1.0376416574321043,B,1561.830700000428,Incorrect
2,102,52,A,31.24537714318447,54.445063391620344,1.5622688571592236,0.8552210558767253,A,520.7494999995106,Correct
2,102,53,A,49.23218289948838,59.04302684080024,2.461609144974419,0.9274456968438151,B,686.0431999994034,Incorrect
2,102,54,B,72.61489014482036,46.65643027828683,3.6307445072410185,0.7328774930249513,B,532.6359999999113,Correct
2,102,55,A,25.904284471581725,46.97211973822913,1.2952142235790862,0.7378363314658037,A,543.9532000000327,Correct
2,102,56,A,49.36382342762953,66.6742303760131,2.4681911713814766,1.0473163616651808,A,477.51070000049367,Correct
2,102,57,A,48.30416779998263,77.80481262181485,2.4152083899991315,1.2221551387331198,A,737.9583999991155,Correct
2,102,58,B,81.45566099879346,68.35281195754254,4.072783049939673,1.073683459490101,B,490.5256999991252,Correct
2,102,59,A,30.922926739998978,60.521368860272894,1.546146336999949,0.9506674389831569,A,352.3198000002594,Correct
2,102,60,B,53.09531184489215,33.687772372951954,2.6547655922446074,0.5291662910133553,A,926.4290999999503,Incorrect
2,102,61,A,58.79609200568822,77.54523530164266,2.9398046002844116,1.2180777077226623,A,895.8368000003247,Correct
2,102,62,B,50.1343826039038,33.0501537457492,2.50671913019519,0.5191506010382944,B,864.3628999998327,Correct
2,102,63,B,31.992214394010237,12.44996467646715,1.5996107197005118,0.19556358782520813,A,586.6108000009262,Incorrect
2,102,64,B,66.73286183492218,45.50989583526655,3.336643091746109,0.7148677721085506,B,823.0229000000691,Correct
2,102,65,A,50.72004849803308,77.55871391819264,2.5360024249016537,1.218289429336332,A,885.1237999988371,Correct
2,102,66,A,37.98060459486024,48.10302349980259,1.899030229743012,0.755600526212185,A,1106.1303000005864,Correct
2,102,67,B,55.50302720717428,24.903597662434827,2.7751513603587137,0.39118479732130595,B,547.5334000002476,Correct
2,102,68,B,82.32021767358282,66.97694449423787,4.116010883679141,1.0520713839149451,B,523.5139000014897,Correct
2,102,69,B,73.82428598805822,51.32263760607982,3.6912142994029113,0.806174106330558,B,532.087200001115,Correct
2,102,70,A,30.496145924769483,61.92163511592723,1.5248072962384742,0.9726627698923237,A,436.90740000056394,Correct
2,102,71,B,70.75895505181433,46.144549937537846,3.5379477525907164,0.7248368954348814,B,443.3100000005652,Correct
2,102,72,A,26.56540446305948,58.34021203577271,1.328270223152974,0.9164059077022718,A,506.20039999921573,Correct
2,102,73,B,61.85680140469177,50.49805968551578,3.0928400702345886,0.7932216666427763,B,418.5284999985015,Correct
2,102,74,A,40.840872189224,63.530337454986885,2.0420436094612002,0.9979322071433365,A,881.1637999988307,Correct
2,102,75,B,60.05999738815647,32.32347564373823,3.0029998694078235,0.5077359681042831,B,564.7719999997207,Correct
2,102,76,A,33.460642627733016,64.95238544116808,1.673032131386651,1.0202696846755315,A,448.0665000010049,Correct
2,102,77,B,62.49078952679252,32.084383216942115,3.124539476339626,0.503980313046525,B,315.9624999989319,Correct
2,102,78,B,31.00775141842807,15.507791919847712,1.5503875709214037,0.24359582584396364,A,390.44560000002093,Incorrect
2,102,79,A,28.963383263504923,39.29560761438684,1.448169163175246,0.6172539609985243,A,920.1655000015307,Correct
2,102,80,A,35.857489581461536,44.639242276270565,1.7928744790730768,0.7011915779847325,A,618.0733000001055,Correct
2,102,81,B,59.46634147533406,29.121031462924805,2.9733170737667027,0.457432092544409,B,661.9599999994534,Correct
2,102,82,A,44.679164564229346,60.19989211984687,2.2339582282114674,0.945617694153045,A,643.1988999993337,Correct
2,102,83,B,63.4889195762262,36.03979542732008,3.17444597881131,0.5661117827567389,B,458.13259999886213,Correct
2,102,84,B,61.75691861492603,41.378516561483075,3.0878459307463015,0.6499722182299941,B,736.7854000003717,Correct
2,102,85,B,64.99448423890696,43.395078496957005,3.2497242119453484,0.6816482990399626,B,423.97429999982705,Correct
2,102,86,A,45.72713872941866,74.25579654099222,2.2863569364709333,1.1664073244981976,B,329.0735999999015,Incorrect
2,102,87,B,71.8801261198711,41.16361188143638,3.5940063059935543,0.6465965034097103,B,632.2713000008662,Correct
2,102,88,B,68.86666035569378,58.09184697658722,3.4433330177846893,0.9125045984755442,B,456.008600000132,Correct
2,102,89,A,54.879949156453506,71.30265393028773,2.743997457822675,1.1200194688442366,B,822.6273000000219,Incorrect
2,102,90,B,69.3283204987916,45.38438111790772,3.46641602493958,0.7128961915386911,B,340.43889999884414,Correct
2,102,91,A,26.280685029594096,37.93293680304982,1.314034251479705,0.595849177947736,A,290.8379000000423,Correct
2,102,92,A,48.668794106076064,63.48736085691069,2.4334397053038033,0.997257132319374,A,820.2383999996528,Correct
2,102,93,B,69.96717198562992,39.25809664257838,3.498358599281496,0.6166647400312119,B,464.6653999989212,Correct
2,102,94,B,65.73516741988865,50.57580118108795,3.2867583709944324,0.7944428271996196,B,639.5591999989847,Correct
2,102,95,A,65.25032115828286,80.5918817150428,3.262516057914143,1.2659343176747804,A,817.7753999989363,Correct
2,102,96,B,56.34801397801607,44.95667586279128,2.8174006989008036,0.7061778131018133,B,1457.5428000007378,Correct
2,102,97,A,49.726630764303735,70.41115473097805,2.486331538215187,1.1060158321680744,A,1319.609500000297,Correct
2,102,98,B,54.757218589917066,39.24450981500804,2.7378609294958536,0.6164513186428089,B,809.0003000015713,Correct
2,102,99,B,72.27087173402305,41.697148365406875,3.6135435867011525,0.6549772749020294,B,620.6126000015502,Correct
2,102,100,B,76.34273846915951,50.762781481598736,3.8171369234579755,0.7973799068918728,B,559.951600000204,Correct
2,102,101,B,68.64740275270516,56.072906383530395,3.432370137635258,0.8807911537996366,B,326.28440000007686,Correct
2,102,102,B,54.528568413454316,32.3605528222769,2.726428420672716,0.5083183750628477,A,873.3402999987447,Incorrect
2,102,103,B,82.79660869485757,52.08281198958906,4.139830434742879,0.818114897623957,B,513.6524000008649,Correct
2,102,104,A,27.64817100492407,60.2128462481685,1.3824085502462033,0.9458211771248894,A,508.4227000006649,Correct
2,102,105,A,52.86773221982074,74.18123877598026,2.6433866109910364,1.1652361738640495,B,540.1844000007259,Incorrect
2,102,106,A,47.47211342188585,64.93652241101246,2.3736056710942925,1.0200205087805283,A,613.5434000007081,Correct
2,102,107,A,15.812484079931554,45.95815416594941,0.7906242039965776,0.7219089975014691,A,480.06119999990915,Correct
2,102,108,B,67.5666000046378,57.23018739533741,3.37833000023189,0.898969681423796,B,387.388799999826,Correct
2,102,109,A,63.348506949701544,80.34467493180324,3.1674253474850773,1.2620512026040656,B,483.38129999865487,Incorrect
2,102,110,B,59.23449318234144,31.67908780298155,2.9617246591170723,0.4976139475713643,A,1742.4661000004562,Incorrect
2,102,111,B,80.60458816185931,52.0357817255807,4.030229408092965,0.8173761479644317,B,509.09260000116774,Correct
2,102,112,A,47.27553805910688,59.163718731626425,2.363776902955344,0.929341520631652,A,1158.7631999991572,Correct
2,102,113,A,15.491379128932344,33.58497367291076,0.7745689564466173,0.5275515328091153,A,456.7328999983147,Correct
2,102,114,A,60.44382912577015,79.19575372193819,3.0221914562885077,1.2440039904417377,A,1388.8757999993686,Correct
2,102,115,B,52.29845604867513,40.95453413741324,2.6149228024337567,0.6433123178864492,B,741.2015999998403,Correct
2,102,116,A,51.52789021298451,77.62219805906005,2.576394510649225,1.219286635889175,B,530.4152999997314,Incorrect
2,102,117,A,47.89393845688643,72.99180322706567,2.3946969228443216,1.1465525639521064,A,859.566499999346,Correct
2,102,118,A,28.63969860852995,45.32310141434523,1.4319849304264975,0.7119336122060607,A,396.1461999988387,Correct
2,102,119,A,63.39935532340951,79.92063300808144,3.1699677661704753,1.255390367642173,A,924.9956000003294,Correct
2,102,120,B,80.17300752717333,53.72348550309532,4.008650376358666,0.84388653690881,B,531.6118999999162,Correct
2,102,121,B,64.75238933252048,56.66595171906765,3.2376194666260236,0.8901066881464843,B,444.72569999925327,Correct
2,102,122,B,46.43724739665014,26.98775193186086,2.321862369832507,0.4239226160301891,A,816.5883000001486,Incorrect
2,102,123,B,71.8868273538552,45.25902124400173,3.59434136769276,0.710927043244101,B,503.26850000055856,Correct
2,102,124,B,37.6129214664803,16.12236574841373,1.8806460733240151,0.25324952896852143,A,1467.393800001446,Incorrect
2,102,125,B,35.80138918241393,24.870148101497165,1.7900694591206963,0.3906593728467682,B,478.1593999996403,Correct
2,102,126,A,13.500764586740047,31.86732431808383,0.6750382293370023,0.5005707598362776,A,712.6650999998674,Correct
2,102,127,A,11.449774583075918,35.02489793495445,0.5724887291537959,0.5501698102259261,A,563.4726999996928,Correct
2,102,128,A,18.44928105103337,31.883984930361482,0.9224640525516685,0.5008324641219565,A,431.0334999991028,Correct
2,102,129,B,37.90082954080035,23.925327702990693,1.8950414770400175,0.37581816873221957,A,979.7493000005488,Incorrect
2,102,130,A,19.59248557733491,38.75491009708993,0.9796242788667455,0.6087607042577531,A,629.9864000011439,Correct
2,102,131,A,25.02893968385425,42.739793061969166,1.2514469841927125,0.6713550994971518,A,518.8200999982655,Correct
2,102,132,B,44.43076616280141,31.301087665186735,2.2215383081400706,0.4916763352916037,B,631.3730999991094,Correct
2,102,133,B,54.44126945982634,35.946323235915145,2.7220634729913167,0.5646435250075754,B,696.7994000006001,Correct
2,102,134,A,12.643191793468652,31.27566551387109,0.6321595896734327,0.4912770050725453,A,358.34450000038487,Correct
2,102,135,B,73.52978452675828,52.800427007211546,3.6764892263379134,0.8293871679612995,B,488.8543999986723,Correct
2,102,136,B,75.75796406115094,51.17845038636483,3.787898203057547,0.8039092187795672,B,448.31560000056925,Correct
2,102,137,B,81.60211213791099,61.14870357327393,4.0801056068955495,0.9605215896116864,B,470.13280000101076,Correct
2,102,138,A,23.96353704731808,48.82699844500879,1.198176852365904,0.7669726980583993,A,402.51030000035826,Correct
2,102,139,B,39.566860737868524,29.467067942454758,1.9783430368934263,0.46286762085423583,A,300.51709999861487,Incorrect
2,102,140,A,46.289709660994376,65.00203692840611,2.314485483049719,1.0210496084132654,B,963.390699998854,Incorrect
2,102,141,B,62.2140772646086,51.16885488998025,3.1107038632304302,0.8037584930748205,B,552.9513000001316,Correct
2,102,142,B,59.859827626729476,35.91664367894599,2.992991381336474,0.5641773196168949,B,408.13059999891266,Correct
2,102,143,A,34.79686160194339,50.308641160522406,1.7398430800971696,0.7902462874099114,A,452.01410000117903,Correct
2,102,144,A,36.42280640369213,56.20937808277156,1.8211403201846066,0.8829348462384312,A,564.8455999998987,Correct
2,102,145,A,60.81019342512846,81.39120475150024,3.0405096712564226,1.278490054570679,B,429.68479999944975,Incorrect
2,102,146,A,58.08151969452037,67.30299850227722,2.9040759847260182,1.057193028296595,A,667.5102000008337,Correct
2,102,147,A,29.344745125483882,52.29606113916783,1.4672372562741942,0.8214646074324616,A,423.12979999951494,Correct
2,102,148,B,64.05098460542817,39.133011832477614,3.202549230271409,0.6146999124287706,B,516.6542999995727,Correct
2,102,149,B,54.070346598772,33.274124031186226,2.7035173299385997,0.5226687180550512,B,335.9722999994119,Correct
2,102,150,A,17.15776663688164,46.80828732019907,0.8578883318440819,0.7352628578612883,A,382.8888000007282,Correct
2,102,151,A,65.87527754466072,87.03575086177841,3.2937638772330358,1.3671543775351729,A,504.2761000004248,Correct
2,102,152,B,42.8677478109701,26.211273668004775,2.1433873905485052,0.411725723983177,A,480.2956000003178,Incorrect
2,102,153,A,46.664675663034316,66.18569082252154,2.333233783151716,1.0396424003039955,A,432.8713999984757,Correct
2,102,154,B,61.94177572794921,36.16091802778001,3.0970887863974603,0.5680143721156821,B,361.1399999990681,Correct
2,102,155,A,32.2928123205139,56.24767325619095,1.6146406160256952,0.8835363854158429,A,283.894500000315,Correct
2,102,156,B,54.09094893496142,29.551650406689312,2.7045474467480712,0.4641962390955448,B,549.0071000003809,Correct
2,102,157,B,59.56640005975721,50.135854864603246,2.9783200029878607,0.7875321666204083,B,486.7171000005328,Correct
2,102,158,A,23.066612880065474,46.122114763843044,1.1533306440032738,0.7244844845505732,A,390.1541000013822,Correct
2,102,159,B,57.055837205892075,47.7113247088566,2.852791860294604,0.7494477359919054,B,229.38690000046336,Correct
2,102,160,A,23.982773116284815,51.26943390983013,1.1991386558142407,0.8053383846241488,A,316.0404999998718,Correct
2,102,161,A,69.14897036371988,86.66771216063151,3.457448518185994,1.3613732391363735,B,293.68049999902723,Incorrect
2,102,162,A,15.619472901942398,40.22858236308396,0.78097364509712,0.6319090940809825,A,403.2201999998506,Correct
2,102,163,A,47.941863805892936,67.45932211622522,2.3970931902946466,1.0596485538824032,B,321.5757999987545,Incorrect
2,102,164,A,16.22782507659932,41.59380199834426,0.8113912538299659,0.6533539139643338,A,412.62620000088646,Correct
2,102,165,B,70.63882199830911,42.555526979132125,3.5319410999154557,0.6684606546364186,B,388.9292000003479,Correct
2,102,166,B,35.141641231893914,21.360344245388315,1.7570820615946956,0.3355275027973047,A,563.5492999990674,Incorrect
2,102,167,A,37.083073957412374,57.983622784126055,1.8541536978706188,0.9108046168356608,A,1160.2633000002243,Correct
2,102,168,B,50.40471964358234,26.551680195341405,2.5202359821791167,0.41707281721075085,B,699.8720999999932,Correct
2,102,169,A,54.75515714874405,68.5041740533562,2.7377578574372023,1.0760610497313017,A,924.7030999995332,Correct
2,102,170,B,48.55615918060623,37.01161703319018,2.4278079590303117,0.5813771208447456,B,1212.1547000006103,Correct
2,102,171,B,76.58830673066666,56.278360277208925,3.8294153365333328,0.884018416014796,B,547.1046000002389,Correct
2,102,172,A,19.79041724144049,35.84029237447892,0.9895208620720246,0.5629779961308663,A,424.0804000000935,Correct
2,102,173,A,33.29008195894379,43.24730170588515,1.6645040979471895,0.6793270266339506,A,463.5471999990841,Correct
2,102,174,B,47.18202450869057,20.939222929176328,2.3591012254345283,0.32891254463089653,B,376.6694000005373,Correct
2,102,175,A,59.11152358038036,74.7789028591249,2.9555761790190176,1.1746242593286575,A,235.17700000047626,Correct
2,102,176,A,47.29406913434419,55.45364252586841,2.36470345671721,0.8710637798703137,A,1026.8875999990996,Correct
2,102,177,B,38.60700170454649,21.678317683747608,1.9303500852273245,0.3405222178872359,B,806.5050000004703,Correct
2,102,178,A,36.34101935027876,64.6449712784765,1.8170509675139384,1.0154408342999248,A,623.8852999995288,Correct
2,102,179,A,38.71231548688722,67.84448034904642,1.9356157743443612,1.0656986052559065,A,475.18809999928635,Correct
2,102,180,A,56.51554525149528,71.00242317955049,2.825777262574764,1.1153034552397474,B,729.3067999999039,Incorrect
2,102,181,B,54.37397423154138,40.57771423373418,2.7186987115770695,0.6373932446808264,B,722.1044000016263,Correct
2,102,182,B,63.28185469718364,50.265837797399755,3.164092734859182,0.789573933754236,B,646.8628000002354,Correct
2,102,183,B,66.71059185173986,58.026653663018955,3.3355295925869934,0.911480544300698,B,488.2420000012644,Correct
2,102,184,B,53.15843938514887,45.20578267249622,2.6579219692574436,0.7100907737184545,B,633.6804000002303,Correct
2,102,185,A,61.13328718965114,81.01949154376861,3.056664359482557,1.272651197157419,A,904.0357999983826,Correct
2,102,186,A,41.384183591106634,54.22302620754111,2.069209179555332,0.85173330394509,A,603.0701999989105,Correct
2,102,187,A,37.55635685073155,65.79661858627958,1.8778178425365775,1.0335308679085278,B,231.78639999969164,Incorrect
2,102,188,B,49.70861499815438,39.40300557183561,2.485430749907719,0.6189409641691821,B,697.4283999988984,Correct
2,102,189,B,89.04846354184771,65.51532778365343,4.452423177092386,1.0291123623132645,B,953.2417000009445,Correct
2,102,190,B,56.687676203417986,33.774620012864034,2.834383810170899,0.5305304905510023,B,442.3613999988447,Correct
2,102,191,A,55.35489095646105,73.02800539274462,2.7677445478230527,1.1471212262408115,A,466.02600000005623,Correct
2,102,192,A,55.547447347822214,75.45110909734912,2.7773723673911106,1.18518325022717,A,821.3826999999583,Correct
2,102,193,B,34.33946017999298,11.394374191891838,1.716973008999649,0.17898241126750267,A,464.99779999976454,Incorrect
2,102,194,A,41.74067583016764,69.3294381236329,2.087033791508382,1.0890242674335662,A,514.9337999991985,Correct
2,102,195,A,16.585933942834618,34.132928025014266,0.8292966971417308,0.5361587796444699,A,516.598399999566,Correct
2,102,196,B,62.09561170359452,44.59589872617383,3.1047805851797263,0.7005107390919106,B,518.8194000002113,Correct
2,102,197,A,34.971249750433905,60.92700089229971,1.7485624875216954,0.9570390920425377,A,319.65610000042943,Correct
2,102,198,A,47.061099460546345,59.6358524865859,2.3530549730273176,0.9367577803121143,B,298.4169999999722,Incorrect
2,102,199,A,46.18251019500647,65.67616959451937,2.3091255097503236,1.0316388595702968,A,1031.4041000001453,Correct
2,102,200,A,19.42487170874929,32.754942906939704,0.9712435854374646,0.5145134400259744,A,620.3628999992361,Correct
2,102,201,A,38.202501191965084,45.63498880035927,1.9101250595982544,0.7168327278093057,A,875.0635000014881,Correct
2,102,202,A,50.931316436897895,63.403854060075844,2.546565821844895,0.9959454106220682,B,945.6659000006766,Incorrect
2,102,203,A,44.50660336732033,51.270483017875975,2.2253301683660167,0.8053548639747972,B,1659.6239999998943,Incorrect
2,102,204,B,86.38328226185142,63.305523475454876,4.3191641130925715,0.994400837410726,B,590.6665000002249,Correct
2,102,205,A,40.14896855953286,63.67206263075461,2.007448427976643,1.0001584209984395,A,662.693100000979,Correct
2,102,206,B,74.95569631229297,60.46601125905319,3.7477848156146485,0.949797883816596,A,3614.698800000042,Incorrect
2,102,207,A,11.871839520970749,30.772925448474343,0.5935919760485375,0.48337998259196696,A,541.6345999983605,Correct
2,102,208,A,68.87477056388043,86.88691166086608,3.4437385281940216,1.3648164168344112,B,537.5175000008312,Incorrect
2,102,209,A,20.73384562336606,43.528659070922544,1.036692281168303,0.6837465777891248,A,422.7546000001894,Correct
2,102,210,A,59.58461154850434,72.68640072934015,2.979230577425217,1.141755312735894,B,918.4836000003997,Incorrect
2,102,211,A,51.077374396339685,72.56367411913703,2.5538687198169843,1.1398275276508236,A,612.8802000002906,Correct
2,102,212,B,82.97563307298155,68.25807859785635,4.148781653649078,1.072195391355901,B,428.6251000012271,Correct
2,102,213,B,76.94729820396024,55.23125597507929,3.8473649101980123,0.8675705400992323,B,580.899300000965,Correct
2,102,214,B,60.673877685209405,51.456971628729505,3.03369388426047,0.8082842202239751,B,604.1056999983994,Correct
2,102,215,B,62.70554401921014,46.25614656313632,3.135277200960507,0.726589851130609,B,425.33799999910116,Correct
2,102,216,B,83.65836431538781,66.18549720973972,4.182918215769391,1.0396393590415303,B,355.8615000001737,Correct
2,102,217,A,29.59599324962745,59.63627535394715,1.4797996624813725,0.9367644226970919,A,388.72790000095847,Correct
2,102,218,A,57.339146370329594,67.41946105712987,2.8669573185164796,1.0590224178303118,B,500.4657999998017,Incorrect
2,102,219,B,61.223576029226244,47.63088917646169,3.061178801461312,0.7481842576036082,B,466.53470000092057,Correct
2,102,220,B,84.02913448866464,63.96330468724901,4.201456724433232,1.0047332405239353,B,446.4069000005111,Correct
2,102,221,B,70.05904946648468,54.92530829479661,3.502952473324234,0.8627647251754378,B,877.5669999995444,Correct
2,102,222,B,44.590271081306774,21.811436806468826,2.229513554065339,0.3426132481772024,B,969.4297000005463,Correct
2,102,223,A,26.081513897935377,39.57527942788742,1.3040756948967689,0.621647035572072,A,482.32180000013614,Correct
2,102,224,B,49.272426665295356,36.64474643802378,2.463621333264768,0.5756143310117813,A,578.5899000002246,Incorrect
2,102,225,A,12.417768757392516,32.3005526099447,0.6208884378696258,0.5073758939314644,A,479.8439000005601,Correct
2,102,226,B,69.85676696264396,39.31475970426908,3.492838348132198,0.6175548013228987,B,522.3449999994045,Correct
2,102,227,A,20.997206074435898,50.10145096864003,1.0498603037217948,0.7869917514863437,A,521.8437000003178,Correct
2,102,228,B,64.52603205072747,35.31490323909291,3.226301602536373,0.5547252028908434,B,470.8021999995253,Correct
2,102,229,B,43.31664844797152,33.574465384022744,2.1658324223985757,0.5273864689932534,A,377.60569999954896,Incorrect
2,102,230,A,26.31532007592756,53.40447505020712,1.3157660037963779,0.8388755324327504,A,640.2028000011342,Correct
2,102,231,A,29.162722486183704,55.75357543732306,1.458136124309185,0.8757751150262924,A,507.8546999993705,Correct
2,102,232,B,75.41220510047685,43.74325872694713,3.7706102550238425,0.6871175013032736,B,452.62259999981325,Correct
2,102,233,B,61.55192951614591,36.425549785346234,3.0775964758072956,0.572171198043065,B,441.95720000061556,Correct
2,102,234,A,12.538932296724159,34.84035800183234,0.626946614836208,0.5472710637349743,A,513.6734999996406,Correct
2,102,235,A,66.70270658418563,85.88908153697717,3.335135329209282,1.3491425379007111,B,496.88609999975597,Incorrect
2,102,236,A,33.0489368051352,42.206627900443614,1.65244684025676,0.6629801607241582,A,665.709799999604,Correct
2,102,237,A,14.192595531547646,42.435011469106286,0.7096297765773824,0.6665676014317147,A,572.2117999994225,Correct
2,102,238,B,76.19413813020238,47.30572393431258,3.809706906510119,0.7430765739239161,B,451.9077999993897,Correct
2,102,239,B,61.731754883907975,44.471937524287235,3.086587744195399,0.6985635610860251,B,527.7874000003067,Correct
2,102,240,B,51.585647390740114,43.435637084992784,2.5792823695370055,0.6822853918510284,B,507.66380000095523,Correct
2,102,241,A,43.56724461207042,67.41211134005881,2.178362230603521,1.0589069687445296,A,441.46360000013374,Correct
2,102,242,B,32.41910246834205,18.390283856837208,1.6209551234171022,0.2888739033103537,A,466.07659999972384,Incorrect
2,102,243,B,53.762191924815376,25.78866174186802,2.6881095962407686,0.4050873513708236,B,680.1625000007334,Correct
2,102,244,B,42.79918796382859,31.33607365402616,2.1399593981914293,0.49222589391918614,B,650.6641000014497,Correct
2,102,245,B,42.65350841097323,32.703725493434725,2.1326754205486615,0.5137089187759588,A,205.72119999997085,Incorrect
2,102,246,B,33.952520059788355,13.37913679010877,1.6976260029894177,0.21015898925589316,A,542.2597999986465,Incorrect
2,102,247,B,80.25153625422628,51.78614311202464,4.0125768127113135,0.8134548337924313,B,466.6832000002614,Correct
2,102,248,A,64.90684847182803,79.54543066299249,3.2453424235914015,1.2494967029874673,A,770.4489000007015,Correct
2,102,249,B,32.63788230326564,19.12632749999742,1.6318941151632822,0.3004356498207217,B,500.3734000001714,Correct
2,102,250,B,85.8251852138423,66.3187558154834,4.291259260692115,1.04173258032569,B,493.7889000011637,Correct
2,102,251,B,50.81607038184151,34.27404776556511,2.5408035190920755,0.538375483345425,A,539.6031000000221,Incorrect
2,102,252,A,25.13285924626311,47.34118570585839,1.2566429623131554,0.7436336061287744,A,624.5805999988079,Correct
2,102,253,B,74.90047316799983,55.69152965354595,3.745023658399992,0.8748005021337903,B,467.05669999937527,Correct
2,102,254,A,59.22146921162637,75.01528349921672,2.9610734605813183,1.1783373177404743,A,802.5194999991072,Correct
2,102,255,B,49.6988076678297,28.537322000366068,2.4849403833914847,0.4482632057473821,B,1019.3986000012956,Correct
2,102,256,B,54.34145082950156,39.337586164284865,2.717072541475078,0.6179133585183639,A,1122.896499999115,Incorrect
2,102,257,B,56.59376342970751,48.66269869436641,2.829688171485375,0.7643918836103757,B,877.9099999992468,Correct
2,102,258,A,39.625086271306216,65.05312987055542,1.9812543135653107,1.0218521744717983,A,664.3796999996994,Correct
2,102,259,B,69.099599942821,56.30489394128132,3.45497999714105,0.8844352058354091,B,481.550900000002,Correct
2,102,260,B,66.42386812229111,46.127273987408714,3.3211934061145554,0.724565525444834,B,453.96230000005744,Correct
2,102,261,A,33.72403323423171,53.402892489074326,1.6862016617115856,0.8388506736206073,A,421.71439999947324,Correct
2,102,262,B,80.73934382383555,60.50742027721459,4.036967191191778,0.9504483351528373,B,478.00480000114476,Correct
2,102,263,A,39.22341455384448,49.70081778742064,1.9611707276922237,0.7806986201918279,A,534.2994999991788,Correct
2,102,264,A,33.66805465003044,44.31551671020535,1.6834027325015222,0.6961065086840842,A,478.3067000007577,Correct
2,102,265,B,78.54609117806307,57.449532584145985,3.9273045589031534,0.9024151475926023,B,579.8178999993979,Correct
2,102,266,B,79.43625651821837,55.16232681793713,3.9718128259109187,0.8664878034307526,B,621.7699000007997,Correct
2,102,267,B,55.132862504205136,25.133607184905394,2.756643125210257,0.3947977784515521,B,787.5718000013876,Correct
2,102,268,B,53.576967483002576,31.65477177506181,2.678848374150129,0.49723199229797865,B,848.2979000000341,Correct
2,102,269,A,13.967181902665779,41.05358264653288,0.6983590951332889,0.6448681682294457,A,637.8476000008959,Correct
2,102,270,A,32.03036826673932,53.764479674234344,1.601518413336966,0.8445304718432618,A,548.4782999992603,Correct
2,102,271,B,74.85119336857467,42.19126898288168,3.7425596684287337,0.66273890341126,B,618.0074000003515,Correct
2,102,272,A,48.365465207334616,69.11452554095827,2.4182732603667305,1.085648428479093,A,403.9420999997674,Correct
2,102,273,A,52.57424365188874,74.28279497186828,2.628712182594437,1.1668314148586914,A,633.4986000001663,Correct
2,102,274,B,89.91866488526374,67.11668924817269,4.495933244263187,1.0542664893766418,A,285.8934000014415,Incorrect
2,102,275,B,73.4789161223656,56.56156424747,3.6739458061182804,0.8884669735769942,B,481.2280999994982,Correct
2,102,276,A,51.50746517142291,68.8515548822135,2.5753732585711453,1.081517695030982,A,535.6310000006488,Correct
2,102,277,B,72.61859306592069,50.608157684331744,3.6309296532960342,0.7949510819640523,B,445.9532000000763,Correct
2,102,278,B,41.21649503686662,26.741465576428563,2.060824751843331,0.42005395900566156,A,538.4267999997974,Incorrect
2,102,279,B,42.47281740215374,25.43819395348971,2.1236408701076868,0.39958221622437784,B,566.8074000004708,Correct
2,102,280,B,40.38192637273364,21.102564266149862,2.0190963186366817,0.3314783043522145,A,573.4766999994463,Incorrect
2,102,281,A,23.970035328521853,41.55869452841263,1.1985017664260926,0.6528024471162173,A,551.42110000088,Correct
2,102,282,B,67.85384611967127,53.9166196364665,3.392692305983564,0.8469202807815917,B,548.3822999995027,Correct
2,102,283,A,56.96938617197168,76.1465822443621,2.8484693085985837,1.1961077168742946,B,494.3550000007235,Incorrect
2,102,284,B,84.61030802019272,69.58607693466708,4.230515401009637,1.0930555404504212,B,641.9442000005802,Correct
2,102,285,B,61.02083458533221,48.29664959772046,3.0510417292666103,0.7586419978459952,B,637.2594000004028,Correct
2,102,286,A,54.73871392715033,63.54717682267624,2.7369356963575164,0.9981967193124562,B,539.0778000000864,Incorrect
2,102,287,A,62.02504742064227,75.0338338972553,3.1012523710321136,1.1786287067114705,B,1713.71949999957,Incorrect
2,102,288,B,34.423876495651584,11.110006607360695,1.7211938247825793,0.17451557569509213,B,940.7974000005197,Correct
2,102,289,A,34.15533842868171,67.51917341672146,1.7077669214340856,1.060588695912137,A,527.8280999991694,Correct
2,102,290,B,86.25473241318932,63.64453134777222,4.312736620659466,0.9997259606166325,B,516.5167000013753,Correct
2,102,291,B,84.45756237963158,67.33956692406252,4.222878118981579,1.057767443722765,B,376.7189000009239,Correct
2,102,292,B,74.68880916495638,44.070581067967666,3.7344404582478194,0.6922590686128032,B,470.2041000000463,Correct
2,102,293,A,43.52261288973644,62.053828310180904,2.1761306444868223,0.9747392557319333,A,540.3139000009105,Correct
2,102,294,B,63.8664563301753,37.26044412347901,3.193322816508765,0.5852856876390732,B,457.52449999963574,Correct
2,102,295,B,74.2536789338822,63.56411036828065,3.71268394669411,0.9984627108248064,B,602.1176000012929,Correct
2,102,296,A,60.2700612615508,68.68024775847857,3.01350306307754,1.0788268090238158,B,369.8662000006152,Incorrect
2,102,297,B,59.618726153407984,27.63277835261131,2.980936307670399,0.43405466735419385,B,830.5961999994906,Correct
2,102,298,A,43.20134710811125,65.35809611255087,2.1600673554055625,1.0266425729990272,A,471.69380000013916,Correct
2,102,299,A,54.710101646471365,67.40222193619397,2.7355050823235683,1.0587516263518788,A,545.919899999717,Correct
2,102,300,B,75.22116249564655,46.42786580631282,3.761058124782328,0.7292872106948255,B,484.73250000097323,Correct
2,102,301,A,30.39398598942364,62.11665873870514,1.519699299471182,0.9757261937953015,A,362.2587999998359,Correct
2,102,302,A,49.95660642855201,77.83525869109087,2.4978303214276,1.222633384470961,B,460.72629999980563,Incorrect
2,102,303,A,21.323379950932228,52.951166006416585,1.0661689975466115,0.8317549706238597,A,571.6431999990164,Correct
2,102,304,A,60.83032314769992,69.38286544886964,3.0415161573849963,1.0898635018958898,B,603.1053999995493,Incorrect
2,102,305,B,37.73431784823397,23.86317130831947,1.8867158924116985,0.37484181836785585,A,541.0572000000684,Incorrect
2,102,306,A,38.028572870021556,60.76205495659973,1.9014286435010777,0.9544481273433648,A,755.982500000755,Correct
2,102,307,B,49.09460419818448,23.28670057509991,2.454730209909224,0.36578663726539545,B,481.7793000001984,Correct
2,102,308,A,58.10624089834472,73.14255046867461,2.905312044917236,1.1489204960860444,A,473.52690000116127,Correct
2,102,309,A,22.585008600833383,50.99492803466982,1.1292504300416693,0.8010264564202945,A,489.5161000004009,Correct
2,102,310,B,40.58334656298625,31.640439143397312,2.0291673281493128,0.4970068558462596,B,1446.2791999994806,Correct
2,102,311,B,50.265534940323775,30.560534122113506,2.5132767470161888,0.4800437474390599,B,713.3062000011705,Correct
2,102,312,B,64.68028204547511,52.91955000022334,3.2340141022737554,0.831258347559897,B,351.1120999992272,Correct
2,102,313,A,37.90790786438609,53.95184615998977,1.8953953932193044,0.8474736177191527,A,305.04929999915475,Correct
2,102,314,A,21.764077922828065,44.555042212304684,1.0882038961414033,0.6998689664727975,A,380.6752000000415,Correct
2,102,315,B,62.81630793095605,37.31487322242273,3.1408153965478025,0.5861406579259888,B,366.8739999993704,Correct
2,102,316,B,58.06010318446588,39.83004239655866,2.903005159223294,0.6256488429259934,B,392.2661999986303,Correct
2,102,317,A,36.40668967061726,55.13263929616236,1.820334483530863,0.8660214729291981,A,463.71240000007674,Correct
2,102,318,A,33.667819478719814,65.43999208304314,1.6833909739359907,1.0279289918953127,A,473.96369999842136,Correct
2,102,319,B,38.08112016780498,23.703502499063227,1.9040560083902491,0.37233374657702173,A,548.7238000005163,Incorrect
2,102,320,A,48.67039538560972,78.98670642916856,2.433519769280486,1.240720283245648,A,1008.3462999991752,Correct
2,102,321,A,34.13819384957781,51.46490880734556,1.7069096924788907,0.8084088971341272,A,382.1369999986928,Correct
2,102,322,A,25.10100717493064,37.45788711839984,1.255050358746532,0.5883871149508033,A,467.9771000010078,Correct
2,102,323,A,14.81597715980119,35.706026095558485,0.7407988579900595,0.5608689463534599,A,410.3491000005306,Correct
2,102,324,B,69.23322066943759,56.9365781256814,3.461661033471879,0.8943576778009101,B,450.9070000003703,Correct
2,102,325,A,42.107297478451294,59.47417469076198,2.1053648739225648,0.9342181514340692,A,519.8632000010548,Correct
2,102,326,B,66.71246722628644,46.87389968552888,3.3356233613143216,0.7362934944858124,B,541.9593999995413,Correct
2,102,327,A,14.913614209776359,42.77266083743801,0.7456807104888179,0.6718713853069155,B,389.6334000000934,Incorrect
2,102,328,A,37.7083715516123,66.29656310668057,1.885418577580615,1.0413839780709988,A,575.3867000003083,Correct
2,102,329,B,40.54850039603059,16.96132780186106,2.0274250198015293,0.26642791408727506,A,494.05539999861503,Incorrect
2,102,330,B,45.129803095869136,23.44822183371759,2.2564901547934566,0.3683238072627548,B,1135.9608999991906,Correct
2,102,331,B,74.3835243970659,54.56429237557873,3.719176219853295,0.8570939003772184,B,1605.7120999994368,Correct
2,102,332,B,52.6293522385302,42.885873872027375,2.63146761192651,0.6736497314956983,B,725.5247999983112,Correct
2,102,333,B,37.23566207066766,16.154974925413722,1.861783103533383,0.2537617527230353,B,498.797199999899,Correct
2,102,334,A,21.377147231905862,40.91226874172439,1.0688573615952932,0.6426484146034633,A,633.6744000000181,Correct
2,102,335,B,78.60293433296074,65.50217816192665,3.930146716648037,1.0289058085381928,B,465.7026999993832,Correct
2,102,336,A,61.31258153658249,72.44502871939866,3.0656290768291243,1.1379638500698221,B,1056.5786999995908,Incorrect
2,102,337,B,62.476051735056444,41.5097709054812,3.1238025867528223,0.6520339566442753,B,557.0542000004934,Correct
2,102,338,A,32.22268288054718,44.878277931841666,1.6111341440273592,0.7049463412821736,A,542.4607999993896,Correct
2,102,339,A,53.369277363280894,73.05165399882083,2.6684638681640447,1.1474926976763946,B,454.4691999999486,Incorrect
2,102,340,A,32.61365012200599,63.21184569694195,1.6306825061002996,0.9929293503068222,A,808.1222000000707,Correct
2,102,341,B,68.7835232691153,36.63035323005246,3.4391761634557656,0.5753882430296596,B,565.3803999994125,Correct
2,102,342,B,80.59892946708045,52.606289502300946,4.0299464733540225,0.8263376631652324,B,606.5338999997039,Correct
2,102,343,A,40.991604420851914,52.61693729840184,2.0495802210425955,0.8265049183552701,A,677.6967000005243,Correct
2,102,344,B,45.538072137013955,16.702056880309623,2.2769036068506976,0.2623552959750979,B,1310.8050000009825,Correct
2,102,345,A,33.87763104895407,67.19268031090428,1.6938815524477036,1.055460154198722,A,588.064999999915,Correct
2,102,346,B,64.49125659242675,36.359794283968434,3.2245628296213376,0.5711383130427569,B,489.3604000008054,Correct
2,102,347,A,53.53526302157,67.89876226548236,2.6767631510785,1.0665512636053962,A,867.5629000008485,Correct
2,102,348,B,32.78722209070453,20.21664619297046,1.6393611045352265,0.31756233580030035,A,651.8711000007897,Incorrect
2,102,349,B,47.22796931568782,31.935392300321737,2.3613984657843914,0.5016399692009941,B,968.8438999983191,Correct
2,102,350,B,60.063859087642754,27.294764160670727,3.0031929543821376,0.4287451528431456,B,533.8324000003922,Correct
2,102,351,A,23.641621579909433,42.569556876914476,1.1820810789954717,0.6686810357554369,A,534.1914000000543,Correct
2,102,352,A,43.78117860003046,67.32090117347686,2.1890589300015226,1.057474242798197,A,691.3869999989402,Correct
2,102,353,B,58.84823933257939,51.468286328200534,2.942411966628969,0.8084619511076537,A,416.653000000224,Incorrect
2,102,354,A,38.63340944558993,60.86229049406857,1.9316704722794966,0.9560226234840685,A,472.9031999995641,Correct
2,102,355,A,24.01939211357105,37.55688830918586,1.2009696056785526,0.5899422220191534,A,574.7814000005746,Correct
2,102,356,A,52.13122715586046,73.74026431065144,2.606561357793023,1.1583093631605608,B,902.1844999988389,Incorrect
2,102,357,B,85.62594525922259,61.298521919051964,4.28129726296113,0.9628749306840328,B,641.8228999991697,Correct
2,102,358,A,23.618741577442403,50.92726534041027,1.1809370788721203,0.7999636133042551,A,487.0525999995152,Correct
2,102,359,A,22.532674335887233,53.875881227368204,1.1266337167943616,0.8462803633478809,A,387.4873999993724,Correct
2,102,360,A,55.3968238878844,66.84058730518503,2.76984119439422,1.0499294901979823,B,583.377400000245,Incorrect
2,102,361,B,76.68951346241194,61.878128252519424,3.834475673120597,0.9719793656800102,B,572.8906999993342,Correct
2,102,362,A,63.67539958962992,87.9787868377758,3.183769979481496,1.3819675520064942,B,712.4564999994618,Incorrect
2,102,363,B,43.38206369457062,28.16831019537787,2.169103184728531,0.4424667818691879,B,885.22120000016,Correct
2,102,364,A,66.56950804714859,82.49435114655752,3.3284754023574292,1.295818237623409,B,512.7992999987327,Incorrect
2,102,365,A,22.769995954120432,47.038211619248024,1.1384997977060216,0.7388745003051582,A,322.1845999996731,Correct
2,102,366,B,59.10404753313003,28.804182316426854,2.9552023766565014,0.45245503778973817,B,585.6578000002628,Correct
2,102,367,A,23.0488777770062,54.76951219018482,1.15244388885031,0.8603174856869061,A,444.1784999999072,Correct
2,102,368,A,43.582781890742076,65.5211055828593,2.1791390945371036,1.02920311977096,A,1331.6719999984343,Correct
2,102,369,A,61.28365293356694,85.2436750681663,3.064182646678347,1.3390045167957332,B,317.89219999882334,Incorrect
2,102,370,A,26.900204728610692,56.101891493080664,1.3450102364305345,0.8812464508357696,A,456.64100000067265,Correct
2,102,371,B,78.9073806365158,54.56514650003557,3.9453690318257895,0.8571073169328127,B,702.1355999986554,Correct
2,102,372,B,74.58189908178275,52.20861846407767,3.7290949540891374,0.8200910611040942,B,835.1438999998209,Correct
2,102,373,A,10.522286567597064,33.00516846782746,0.5261143283798532,0.5184439739451012,A,500.5651999999827,Correct
2,102,374,B,36.57027177544548,16.130175514565327,1.8285135887722737,0.25337220448836195,B,472.9999000010139,Correct
2,102,375,A,21.61663404273624,45.67119784368323,1.080831702136812,0.7174014981318062,A,502.2632000000158,Correct
2,102,376,B,68.84118512718071,37.569700294205205,3.4420592563590358,0.5901434722092268,B,343.91280000090774,Correct
2,102,377,B,66.58107829554338,51.24696231116379,3.3290539147771687,0.8049854015777258,B,381.4483999994991,Correct
2,102,378,B,74.06555305991324,57.52878676086239,3.703277652995662,0.9036600692892951,B,348.08929999962857,Correct
2,102,379,A,29.13142750647902,45.07480870107329,1.4565713753239509,0.7080334393862856,A,445.19410000066273,Correct
2,102,380,B,64.84917660906503,41.47939458294062,3.242458830453251,0.6515568064855926,B,424.51640000035695,Correct
2,102,381,B,35.435464106546256,14.720683333771504,1.7717732053273128,0.2312319530859913,A,612.399199999345,Incorrect
2,102,382,B,53.66860745107383,30.491718695690672,2.6834303725536914,0.4789627972485419,B,817.1347999996215,Correct
2,102,383,A,45.87048183308271,73.04365818415144,2.293524091654135,1.1473670997132706,A,746.2016999998013,Correct
2,102,384,A,55.813973001315894,63.39984751266608,2.7906986500657944,0.9958824759225243,A,716.74350000103,Correct
2,102,385,A,53.82483168432031,81.22214239830558,2.6912415842160153,1.2758344293367043,B,849.4422000003397,Incorrect
2,102,386,B,77.84673915509478,46.00814348437647,3.892336957754739,0.7226942278791111,B,453.8660999987769,Correct
2,102,387,B,61.98761694914822,49.66043228529162,3.099380847457411,0.7800642462078275,B,658.3253999997396,Correct
2,102,388,A,37.67729494960478,69.78025143815191,1.8838647474802388,1.0961056264187332,A,504.63719999970635,Correct
2,102,389,B,61.91546094373786,46.86464903823169,3.0957730471868934,0.7361481856578632,B,510.470000001078,Correct
2,102,390,A,21.647324194787736,35.948350915043285,1.0823662097393867,0.5646753757168396,A,386.0903999993752,Correct
2,102,391,B,68.12446260069692,54.22585926356887,3.406223130034846,0.8517778054851101,B,516.300899998896,Correct
2,102,392,B,68.21938895062951,50.05231257069376,3.4109694475314756,0.7862198873363578,B,566.795099999581,Correct
2,102,393,B,71.2412852201714,60.64000632038936,3.56206426100857,0.9525309918488691,B,447.909399999844,Correct
2,102,394,A,41.79851759141254,50.86305366535738,2.089925879570627,0.7989549786711507,A,854.3086999998195,Correct
2,102,395,B,50.95988858982402,31.33390399328769,2.547994429491201,0.49219181296800246,A,1262.865900000179,Incorrect
2,102,396,A,43.69543228447976,56.47610471098998,2.1847716142239877,0.88712457831707,A,743.3634999997594,Correct
2,102,397,B,39.50974436134602,28.618668499241622,1.975487218067301,0.44954099356369553,A,664.5764999993844,Incorrect
2,102,398,B,56.14597374475435,29.7815565479607,2.8072986872377172,0.4678075963177117,B,849.3908000000374,Correct
2,102,399,B,74.78140562420785,49.46227732386279,3.7390702812103926,0.7769516353523418,B,532.4560000008205,Correct
2,102,400,B,36.03789860503444,15.440153358644665,1.8018949302517222,0.24253336180908927,A,465.16390000033425,Incorrect
2,102,401,B,38.74868284635157,16.487505838909456,1.9374341423175787,0.25898513609768387,A,502.9235999991215,Incorrect
2,102,402,B,78.84194166883745,62.23180472318384,3.942097083441872,0.9775349026899448,B,473.50770000048215,Correct
2,102,403,B,54.98829609396082,34.46104895290738,2.749414804698041,0.5413128911272603,B,912.932199998977,Correct
2,102,404,A,17.641637741480082,44.98685193252477,0.8820818870740041,0.7066518176967581,A,415.0205999994796,Correct
2,102,405,B,40.459185449635704,15.381871101668985,2.0229592724817853,0.2416178662573421,A,506.8664999998873,Incorrect
2,102,406,A,17.445918715268892,43.13203629925313,0.8722959357634446,0.6775164418605096,A,513.7911999991047,Correct
2,102,407,A,59.729952592346464,82.01047921064365,2.9864976296173236,1.2882175950276828,B,372.85830000109854,Incorrect
2,102,408,B,50.42978707344167,41.25430142897212,2.5214893536720835,0.6480210514911886,B,525.1571999997395,Correct
2,102,409,A,37.434837519745074,52.206886074185235,1.8717418759872537,0.8200638487872979,B,441.044499999407,Incorrect
2,102,410,A,16.176118035759558,41.60610800878696,0.8088059017879778,0.653547216324343,A,407.9667000005429,Correct
2,102,411,A,68.82403274407275,82.51440896482856,3.4412016372036374,1.296133305096046,B,441.39410000025237,Incorrect
2,102,412,B,86.52068811656187,59.227598726291255,4.326034405828094,0.930344945241404,A,397.2381999992649,Incorrect
2,102,413,A,61.22486835491655,87.38451899365208,3.061243417745828,1.3726328145396758,A,918.8689999991766,Correct
2,102,414,B,61.721811777502275,39.19347753267235,3.0860905888751136,0.6156497054264004,B,441.6433999995206,Correct
2,102,415,B,71.10569585033329,52.75129052229344,3.5552847925166646,0.8286153338610899,B,462.65239999956975,Correct
2,102,416,A,34.89945707653491,58.915785404857864,1.7449728538267453,0.9254469930418713,A,443.0850000007922,Correct
2,102,417,A,44.77954096074934,66.44241335405532,2.2389770480374667,1.0436749883993828,A,893.5740000015358,Correct
2,102,418,B,54.79809458172753,32.90003848780513,2.7399047290863767,0.5167925960805503,B,409.4814999989467,Correct
2,102,419,B,63.46307511265882,34.46545824703332,3.1731537556329408,0.541382152157428,A,755.6838000000425,Incorrect
2,102,420,B,72.15772640548845,40.23556619622802,3.6078863202744227,0.6320187958754788,B,309.93669999952544,Correct
2,102,421,B,49.36572794829097,38.795855173901856,2.4682863974145484,0.6094038680203182,A,668.8261999988754,Incorrect
2,102,422,A,55.625973254314445,83.5034294496689,2.781298662715722,1.311668802543167,B,747.9856000009022,Incorrect
2,102,423,B,70.8782509895584,43.26794062968155,3.54391254947792,0.6796512220908344,B,352.7109999995446,Correct
2,102,424,A,64.9803914867583,82.20206440979125,3.249019574337915,1.2912270082985757,B,552.1492000007129,Incorrect
2,102,425,A,34.0314998348231,57.259865851499654,1.7015749917411551,0.8994358695230419,A,528.7539000000834,Correct
2,102,426,B,63.47589895578415,46.41010367719927,3.173794947789208,0.7290082038231492,B,505.3174000004219,Correct
2,102,427,A,25.993671913156213,45.13687765224295,1.2996835956578108,0.7090084161913388,A,577.06170000165,Correct
2,102,428,A,41.93541449498384,68.70322502207597,2.096770724749192,1.0791877350364016,A,745.6190000011702,Correct
2,102,429,B,82.29256816918658,51.804454011001766,4.114628408459328,0.8137424607209673,B,523.3002999993914,Correct
2,102,430,A,27.80444364873173,42.83898622766334,1.3902221824365864,0.6729132221003075,A,539.5611000003555,Correct
2,102,431,A,15.299158514827024,41.621545507129866,0.7649579257413512,0.6537897079812621,B,436.1579999986134,Incorrect
2,102,432,A,31.85281060804362,46.0219116833077,1.5926405304021811,0.7229104982421886,A,659.8844999989524,Correct
2,102,433,A,16.260050554639474,40.38394517724245,0.8130025277319737,0.6343495274589893,A,372.76289999863366,Correct
2,102,434,A,25.427192325311687,47.89042716025326,1.2713596162655845,0.7522610707196437,A,477.561899999273,Correct
2,102,435,A,59.112900085314266,72.81601061908958,2.955645004265713,1.143791220123241,B,491.12199999945005,Incorrect
2,102,436,A,22.328402812704084,50.54779626983325,1.1164201406352041,0.7940029270823085,A,415.2613000005658,Correct
2,102,437,B,37.315846433073155,11.724542998548174,1.8657923216536576,0.1841686907546829,B,887.2876000004908,Correct
2,102,438,A,25.060263730408874,49.164619887909254,1.2530131865204437,0.7722760432819518,A,524.772099999609,Correct
2,102,439,A,36.375933458890934,54.066365894104145,1.8187966729445466,0.8492724894960765,A,978.3612999999605,Correct
2,102,440,B,42.28232821190213,31.346079213015244,2.1141164105951065,0.4923830608722621,A,710.7970999986719,Incorrect
2,102,441,A,17.291027113178394,41.16152078129016,0.8645513556589196,0.6465636564854239,A,463.08940000017174,Correct
2,102,442,A,60.64228666531291,84.37051637231681,3.0321143332656453,1.3252889720742393,B,359.8786000002292,Incorrect
2,102,443,B,59.64635831303233,35.56817983688391,2.9823179156516164,0.5587036623855755,B,330.9742000001279,Correct
2,102,444,A,45.53244312605956,76.81576265274548,2.276622156302978,1.206619178148812,A,922.4381999993057,Correct
2,102,445,A,67.1516263665414,83.02159340151498,3.3575813183270697,1.3041001395975915,B,884.1021000007458,Incorrect
2,102,446,B,87.56499173607251,69.33582067377516,4.3782495868036255,1.0891245242967567,B,560.2882000002865,Correct
2,102,447,B,53.730247991802564,21.91333598474483,2.686512399590128,0.3442138767265961,B,770.8110000003217,Correct
2,102,448,B,66.93029723178937,50.06838598419614,3.3465148615894686,0.7864723679252439,A,579.9024000007194,Incorrect
2,102,449,A,55.97836412733401,81.62013368494239,2.7989182063667006,1.282086061848159,A,609.6888000010949,Correct
2,102,450,A,30.71822692312116,48.10380695628602,1.535911346156058,0.7556128327178486,A,419.1313999999693,Correct
2,102,451,B,66.75085483278002,39.36831446302016,3.337542741639001,0.6183960375061848,B,710.1513999987219,Correct
2,102,452,B,72.63656777998976,54.81252055422391,3.6318283889994882,0.8609930594894469,B,717.2959999988961,Correct
2,102,453,A,66.31247707837824,78.87345326907541,3.315623853918912,1.238941306766926,B,1032.6469999999972,Incorrect
2,102,454,A,23.58185529914164,51.91375095787858,1.179092764957082,0.8154592931478072,A,475.98089999883086,Correct
2,102,455,B,65.86680834494788,32.54900169022199,3.2933404172473946,0.5112785229584158,B,502.46969999898283,Correct
2,102,456,B,57.69209136701827,41.792387956258175,2.8846045683509134,0.6564732948967761,B,724.6044000003167,Correct
2,102,457,A,32.21093559771089,58.44921738238607,1.6105467798855446,0.9181181596828846,A,888.4735999999975,Correct
2,102,458,B,42.57730707857267,33.65457809088716,2.1288653539286337,0.5286448764499756,A,1683.5141999999905,Incorrect
2,102,459,A,55.74684566397107,79.1831915793002,2.7873422831985533,1.2438066647666135,B,601.8767000005028,Incorrect
2,102,460,A,63.20138239491026,73.50743524735695,3.160069119745513,1.15465209278662,A,3998.8885000002483,Correct
2,102,461,A,26.0950617660897,54.38963530326418,1.304753088304485,0.8543503935008141,A,654.9200999997993,Correct
2,102,462,B,45.25370404486227,31.398392931565617,2.2626852022431136,0.4932048028416612,A,559.1947000011714,Incorrect
2,102,463,B,48.7304459704917,34.685725841046605,2.436522298524585,0.5448421074333083,B,508.4437000004982,Correct
2,102,464,B,37.466151770493845,11.91658478333941,1.8733075885246921,0.18718527605609506,B,978.8200000002689,Correct
2,102,465,A,53.66500709768019,79.01231612889909,2.6832503548840094,1.2411225594683184,A,736.3676000004489,Correct
2,102,466,B,71.73228498900782,45.49268997624475,3.5866142494503914,0.7145975031070425,B,594.8722999983147,Correct
2,102,467,B,50.18474434648728,25.01965947780031,2.5092372173243636,0.3930078920538784,B,795.4122999999527,Correct
2,102,468,A,30.335115348527726,60.86888366239303,1.5167557674263863,0.9561261887299286,B,875.4040999992867,Incorrect
2,102,469,A,39.184162424812676,47.77949114761732,1.9592081212406338,0.7505184919080656,A,690.9094999991794,Correct
2,102,470,A,18.861950225362968,45.116261449652036,0.9430975112681483,0.7086845776383162,A,464.7164999987581,Correct
2,102,471,A,19.26919135472581,47.145226399833945,0.9634595677362904,0.7405554845477295,A,491.9917000006535,Correct
2,102,472,B,63.07824173995747,46.220950850775225,3.1539120869978734,0.7260369981736516,B,474.11600000123144,Correct
2,102,473,B,66.06096391232562,45.4182294848658,3.303048195616281,0.7134278804435487,B,788.0629999999655,Correct
2,102,474,B,52.71414862997744,44.34366441598799,2.6357074314988718,0.696548651812595,A,585.8442000007926,Incorrect
2,102,475,A,17.267113185709366,39.082419153147626,0.8633556592854683,0.6139052044802281,A,877.2207999991224,Correct
2,102,476,B,62.023698090699334,43.98357541277458,3.101184904534967,0.6908923869769263,B,677.7686000004906,Correct
2,102,477,B,41.930596164939644,15.423808839274184,2.096529808246982,0.24227662269918543,B,575.6965999989916,Correct
2,102,478,A,67.22028791727726,82.15004466385996,3.361014395863863,1.2904098840402793,B,644.961300000432,Incorrect
2,102,479,B,59.51607471673723,45.417138271850995,2.975803735836861,0.7134107397095946,B,552.8603000002477,Correct
2,102,480,B,74.19560276106671,52.09449471992356,3.7097801380533353,0.8182984095229207,B,453.57549999971525,Correct
2,102,481,A,25.59385305049416,40.69071615635105,1.279692652524708,0.6391682747304999,A,454.11349999994854,Correct
2,102,482,A,33.41301490743816,45.54816908851977,1.6706507453719082,0.715468966964797,A,508.72809999964375,Correct
2,102,483,A,20.787340432259366,43.444843387215656,1.0393670216129685,0.682430004108179,A,867.1188000007533,Correct
2,102,484,A,63.15043447552004,86.8682660918037,3.1575217237760023,1.3645235329204692,B,553.5001999996894,Incorrect
2,102,485,A,18.052993169751808,32.31956628445732,0.9026496584875904,0.5076745600322975,A,432.6858999993419,Correct
2,102,486,A,29.2825058630905,59.007621587287325,1.464125293154525,0.9268895524221418,A,649.5284000011452,Correct
2,102,487,A,22.92259299162416,38.74490349185888,1.1461296495812079,0.608603520870347,A,544.5036000000982,Correct
2,102,488,A,37.92031953264916,60.908341734950795,1.896015976632458,0.9567459946842901,A,639.6332000003895,Correct
2,102,489,A,26.201484780388284,57.14753099477605,1.3100742390194142,0.8976713177199172,A,887.8760000006878,Correct
2,102,490,A,34.13845635988551,45.85483300809857,1.7069228179942755,0.7202860325491461,A,918.2724000002054,Correct
2,102,491,B,33.83871486258255,22.095542173590925,1.6919357431291275,0.3470759648481835,B,871.1303000000044,Correct
2,102,492,B,74.93328007314928,49.32156190689259,3.7466640036574637,0.7747412827513398,B,745.9058000004006,Correct
2,102,493,B,44.89223388621767,34.51086622310681,2.2446116943108834,0.5420954189776623,B,523.2986000009987,Correct
2,102,494,B,59.279105807752295,38.15355370036912,2.9639552903876147,0.5993146200671166,B,467.57889999935287,Correct
2,102,495,B,78.02343689020543,56.36974579451754,3.901171844510271,0.8854538963639021,B,416.284099999757,Correct
2,102,496,A,17.35848845273368,36.51072830322673,0.867924422636684,0.57350917907315,A,551.2213999991218,Correct
2,102,497,A,48.16064145565857,78.74196192236585,2.4080320727829285,1.2368758455227589,A,880.867700001545,Correct
2,102,498,B,74.18677819730746,59.078529986620374,3.7093389098653735,0.9280033789542543,B,462.4041999995825,Correct
2,102,499,B,54.14034696693894,26.93391361050797,2.7070173483469473,0.4230769256559699,B,707.9580999998143,Correct
2,102,500,B,61.22048522528162,50.000664248767926,3.061024261264081,0.7854085973926955,B,450.31269999890355,Correct
2,102,501,A,43.78448702298542,74.1177407299328,2.189224351149271,1.1642387488891495,A,604.5444999999745,Correct
2,102,502,A,31.446520685850658,53.1397613822733,1.572326034292533,0.8347174198603221,A,297.5691999999981,Correct
2,102,503,B,59.7343729472541,39.9826998530593,2.986718647362705,0.628046780645284,B,654.7824000008404,Correct
2,102,504,A,37.79294074545107,49.66381108874976,1.8896470372725533,0.7801173203284378,B,434.9459000004572,Incorrect
2,102,505,B,61.06511245261934,52.635756743634985,3.053255622630967,0.8268005335097153,B,492.05090000032214,Correct
2,102,506,A,45.67075909843068,62.3418920110568,2.2835379549215338,0.9792641497641211,A,916.9065000005503,Correct
2,102,507,A,36.698304695790235,46.261093444225494,1.8349152347895117,0.7266675565570486,A,521.0482999991655,Correct
2,102,508,B,52.218964855983046,35.35434309887199,2.610948242799152,0.5553447227595464,B,902.8607000000193,Correct
2,102,509,B,44.574119797442066,20.249688760669493,2.228705989872103,0.3180813672399954,B,727.9450000005454,Correct
2,102,510,A,48.18724205227045,59.148281555954675,2.4093621026135223,0.9290990340432391,B,726.8846999995731,Incorrect
2,102,511,A,38.000118324166856,71.09040069868661,1.900005916208343,1.1166854028787427,A,488.30590000034135,Correct
2,102,512,A,57.52375691695475,75.49675902988535,2.876187845847738,1.1859003176906333,A,675.3494000004139,Correct
2,102,513,B,73.78447926140703,45.125329616985596,3.689223963070351,0.7088270200776994,B,745.1653999996779,Correct
2,102,514,B,84.47797210895583,59.42657591732963,4.223898605447792,0.9334704716493946,B,457.44790000026114,Correct
2,102,515,A,15.557424331557193,37.75101329908855,0.7778712165778597,0.5929915302299358,A,433.17620000016177,Correct
2,102,516,B,67.94475859829357,35.180391235889864,3.3972379299146787,0.5526122932854317,B,447.2483999998076,Correct
2,102,517,B,56.02544267230458,48.06641499835808,2.8012721336152286,0.7550254812162,B,424.64620000100695,Correct
2,102,518,B,82.8633484624464,56.95808030563909,4.14316742312232,0.8946954332538662,A,390.7085000009829,Incorrect
2,102,519,B,57.312426554491395,47.45141697818017,2.8656213277245697,0.745365114905384,B,423.5774999997375,Correct
2,102,520,B,55.433624100207055,28.02888313758141,2.7716812050103528,0.44027666676676297,B,421.9596000002639,Correct
2,102,521,A,28.419487997056645,49.18622431419192,1.4209743998528321,0.7726154048164249,A,395.2282999998715,Correct
2,102,522,B,70.5763440010051,48.731040586592435,3.528817200050255,0.7654653955431242,B,406.3175000010233,Correct
2,102,523,A,15.97081589435562,45.41153159248502,0.798540794717781,0.7133226701960587,A,415.1016999985586,Correct
2,102,524,A,26.529883964744982,36.43249874179082,1.3264941982372491,0.5722803519956472,A,745.9136999987095,Correct
2,102,525,A,47.63783430830684,69.3969666610134,2.381891715415342,1.0900850032182774,B,780.3918999998132,Incorrect
2,102,526,B,46.76475085540116,23.31223500308909,2.338237542770058,0.3661877311223175,A,1190.3136000000814,Incorrect
2,102,527,A,48.39733835699818,56.643167947951646,2.4198669178499093,0.8897488015066887,B,969.3575000001147,Incorrect
2,102,528,A,55.07156937802829,77.84597619259148,2.7535784689014147,1.2228017345908566,A,641.1227999997209,Correct
2,102,529,B,43.60760637576789,31.33633082681386,2.1803803187883943,0.492229933579889,B,596.97849999975,Correct
2,102,530,B,65.92396876440966,40.020016685725295,3.2961984382204834,0.6286329520820776,B,460.4741000002832,Correct
2,102,531,A,51.81071234431189,59.55213117038577,2.5905356172155947,0.9354426889524983,A,402.86310000010417,Correct
2,102,532,B,60.29651407145349,47.10652262857718,3.0148257035726744,0.7399475271304972,B,864.8945999993884,Correct
2,102,533,B,53.540822118071226,22.328057984085593,2.6770411059035615,0.3507283146586511,A,637.3752000017703,Incorrect
2,102,534,A,37.26774772419777,54.769525472505684,1.8633873862098884,0.8603176943251145,A,517.0902000008937,Correct
2,102,535,B,70.59156297416017,48.2326347397554,3.5295781487080085,0.7576364548084769,B,357.10759999892616,Correct
2,102,536,A,12.960426913122454,36.446459004975864,0.6480213456561228,0.5724996392969687,A,605.6677999986277,Correct
2,102,537,A,50.55274517113856,80.65916779006723,2.527637258556928,1.2669912448697085,A,583.0703999999969,Correct
2,102,538,B,75.23740875422075,43.1216935364429,3.7618704377110372,0.6773539781221974,B,706.9566999998642,Correct
2,102,539,B,66.26320249374217,58.41257586978654,3.313160124687108,0.917542596148889,B,463.0973000002996,Correct
2,102,540,A,62.83119977828956,79.744195332851,3.141559988914478,1.252618891120571,B,1222.2958000002109,Incorrect
2,102,541,A,69.45133849086835,88.68290601585693,3.4725669245434174,1.3930278301920511,B,541.7687999997725,Incorrect
2,102,542,A,26.25096278134804,40.58699398401305,1.3125481390674019,0.6375390106573426,A,467.84029999980703,Correct
2,102,543,B,42.47014492956133,15.146237182507651,2.1235072464780664,0.23791653731047302,A,548.9395000004151,Incorrect
2,102,544,A,40.91245801566327,62.7450040249577,2.0456229007831634,0.9855962184713454,B,823.7422999991395,Incorrect
2,102,545,B,85.95621931070038,59.799462244803735,4.297810965535018,0.9393277563844781,B,512.2721999996429,Correct
2,102,546,A,25.4344034770668,40.81426426924715,1.2717201738533401,0.6411089639496961,A,430.6774000015139,Correct
2,102,547,B,63.09504902175246,47.151380216014914,3.154752451087623,0.7406521484662578,A,828.7789999994857,Incorrect
2,102,548,A,23.540807061990886,39.55533235500353,1.1770403530995444,0.6213337076839086,A,491.0976999999548,Correct
2,102,549,A,24.686511615577814,39.49263992335682,1.2343255807788907,0.6203489372704237,A,515.6728000001749,Correct
