subject,day,trial,cat,x,y,xt,yt,resp,rt,fb
11,511,0,A,50.64443623333309,77.45698113055178,2.5322218116666546,1.2166914144449237,A,672.5243000000773,Correct
11,511,1,B,87.21945945576684,67.55592507487972,4.360972972788342,1.0611659896085233,B,591.1740999999893,Correct
11,511,2,A,35.780591076685916,54.36046089588465,1.7890295538342957,0.8538921229813321,A,440.8189999994647,Correct
11,511,3,A,65.4306613070517,88.37208668471877,3.271533065352585,1.3881454915555642,A,781.5242000006037,Correct
11,511,4,B,61.144667645015716,35.49012753835222,3.057233382250786,0.5574776197472607,B,748.731300000145,Correct
11,511,5,A,42.663863507622985,64.74976242625802,2.133193175381149,1.017086889800083,A,624.0446000001612,Correct
11,511,6,B,54.03694780249367,28.404143713719314,2.7018473901246836,0.44617124611264647,B,651.653100000658,Correct
11,511,7,A,55.12258331605276,83.67110371549717,2.756129165802638,1.3143026237517779,A,442.56339999992633,Correct
11,511,8,B,43.258680435371204,22.996800669566614,2.16293402176856,0.3612329001978966,B,560.1163000001179,Correct
11,511,9,B,49.78109032761515,25.309112815889073,2.4890545163807576,0.397554614456362,B,597.916300000179,Correct
11,511,10,B,73.45457049055534,46.247239542234766,3.672728524527767,0.7264499399734606,B,860.563700000057,Correct
11,511,11,A,58.97557732116134,67.88884424519841,2.948778866058067,1.0663954717070852,A,644.0360999995391,Correct
11,511,12,A,49.362421500165134,72.96145744862885,2.468121075008257,1.1460758935790833,A,461.13900000000285,Correct
11,511,13,A,56.780551610994344,72.15657692962533,2.8390275805497174,1.1334328599514885,A,524.3317999993451,Correct
11,511,14,A,57.488885601497415,68.0873334260811,2.874444280074871,1.0695133324694757,A,502.02749999971275,Correct
11,511,15,A,38.6555589979449,65.40269518363903,1.932777949897245,1.0273431335694647,A,418.712300000152,Correct
11,511,16,A,19.82096186390206,36.37564804999985,0.9910480931951029,0.5713873434172371,A,536.5345000000161,Correct
11,511,17,A,40.324946671164305,68.53713256075527,2.016247333558215,1.0765787607548927,A,422.90030000003753,Correct
11,511,18,A,49.787304260494594,71.14519638043883,2.4893652130247297,1.117546131434949,A,404.1553999995813,Correct
11,511,19,B,45.52158795811745,36.63095721052754,2.2760793979058724,0.5753977303327769,B,728.8216999995711,Correct
11,511,20,B,50.475770355649146,20.09896986027023,2.5237885177824575,0.31571388028873815,B,447.21949999984645,Correct
11,511,21,B,80.91141932184647,58.04691062623809,4.045570966092323,0.9117987399348644,B,569.6967000003497,Correct
11,511,22,B,56.912755931863124,47.404849974051686,2.8456377965931563,0.7446336421150354,A,568.6103999996703,Incorrect
11,511,23,B,61.131591535500384,38.712254799876504,3.0565795767750195,0.6080906764159412,B,734.9878000004537,Correct
11,511,24,B,68.26007692390532,49.522485397375284,3.413003846195266,0.7778973815595099,B,1104.6722000000955,Correct
11,511,25,B,35.797117389584415,25.558984787764587,1.7898558694792206,0.4014795942122725,B,569.2432999994708,Correct
11,511,26,B,51.341681582205055,24.423668138863736,2.567084079110253,0.38364608199384703,B,574.8018000003867,Correct
11,511,27,B,50.41840472854686,42.74505249708095,2.5209202364273433,0.6714377145106977,A,2046.7780000008133,Incorrect
11,511,28,B,50.55128156949101,40.28137878222589,2.5275640784745503,0.6327384182935432,B,1006.5271000003122,Correct
11,511,29,A,37.340146150219596,46.36815077234277,1.8670073075109799,0.7283492091346796,A,1061.1821000002237,Correct
11,511,30,B,79.56544815277303,50.203143040342134,3.9782724076386513,0.7885891268132821,B,832.7899000005345,Correct
11,511,31,B,50.580984489179514,35.76898669693527,2.5290492244589755,0.5618579291672144,B,1295.1717999994798,Correct
11,511,32,B,51.24733427369702,24.87305164253614,2.5623667136848507,0.3907049815627554,B,702.6339000003645,Correct
11,511,33,A,61.00212837487896,76.64523617501638,3.0501064187439475,1.2039405545004307,A,548.7272000000303,Correct
11,511,34,A,16.86283052043937,36.35837571009293,0.8431415260219686,0.5711160301364276,A,491.8924000003244,Correct
11,511,35,A,51.00114640430471,81.44693931534523,2.5500573202152355,1.2793655310523115,A,529.1544000001522,Correct
11,511,36,A,11.373064584913152,36.402419051906094,0.5686532292456576,0.5718078613318266,A,471.4938000006441,Correct
11,511,37,A,43.206021935560855,51.14791323591003,2.1603010967780425,0.8034295423419155,A,1119.5297000003848,Correct
11,511,38,A,56.71374195331525,82.74924723915039,2.8356870976657627,1.2998221360830018,A,592.9501000000528,Correct
11,511,39,A,48.95657412425065,71.06135624177892,2.447828706212533,1.1162291736164993,A,531.4245000008668,Correct
11,511,40,A,48.92182231850008,72.15298719897619,2.446091115925004,1.13337647259431,A,452.57130000027246,Correct
11,511,41,A,17.201830806070802,37.33610793012053,0.8600915403035401,0.5864742119345114,A,525.6534999998621,Correct
11,511,42,B,61.40962518692338,44.581401128471,3.070481259346169,0.7002830113597212,B,2076.336099999935,Correct
11,511,43,A,46.82767760038867,56.42873932299774,2.3413838800194333,0.886380564542316,A,760.4615000000194,Correct
11,511,44,A,29.979485317714364,47.29190270965607,1.4989742658857181,0.7428594706346937,A,469.4478999999774,Correct
11,511,45,B,44.02389852577904,33.728580597622745,2.201194926288952,0.5298073051075142,B,2769.894999999451,Correct
11,511,46,A,19.267795236969896,42.44929068629787,0.9633897618484949,0.6667918988508551,A,529.9341999998433,Correct
11,511,47,A,41.22386715918344,63.25405483590755,2.061193357959172,0.9935923699112654,A,552.2961999995459,Correct
11,511,48,B,66.56887964468608,35.16701508057808,3.328443982234304,0.5524021811291278,B,573.4963000004427,Correct
11,511,49,A,15.111038274994094,36.50070371244726,0.7555519137497047,0.5733517131694101,A,478.94319999977597,Correct
11,511,50,A,67.56022615354243,79.73914421473687,3.3780113076771214,1.252539548342772,A,1173.5791000000972,Correct
11,511,51,A,25.800841961355815,46.66777144992114,1.2900420980677907,0.7330556397323988,A,595.1328999999532,Correct
11,511,52,A,20.312371606050554,39.71285378277618,1.0156185803025277,0.6238080484852765,A,437.9078000001755,Correct
11,511,53,B,87.03163964673845,59.57424956067949,4.351581982336922,0.9357901238147781,B,544.9548000005962,Correct
11,511,54,B,52.90245597592403,37.10198769380525,2.645122798796201,0.5827966598621874,B,574.7971999999208,Correct
11,511,55,B,73.93079500697704,62.14351540490212,3.696539750348852,0.9761480573214232,B,493.3774999999514,Correct
11,511,56,B,88.18903398450419,66.05953460428024,4.40945169922521,1.0376607430618376,B,560.4439999997339,Correct
11,511,57,A,66.27897319920784,88.38703436879602,3.313948659960392,1.3883802892279906,A,472.7382999999463,Correct
11,511,58,A,56.33521368364022,77.88591426746848,2.816760684182011,1.223429080404017,A,578.6468000005698,Correct
11,511,59,A,60.82753796900546,69.92105262800506,3.041376898450273,1.0983173263370298,A,642.6885000000766,Correct
11,511,60,B,69.16210001020093,36.75760869460223,3.4581050005100464,0.5773871671924533,B,678.0368999998245,Correct
11,511,61,A,42.8777964520473,61.92843146060705,2.143889822602365,0.9727695266249108,A,719.6875999998156,Correct
11,511,62,B,69.76332376640616,57.33555481770949,3.4881661883203083,0.9006247890240551,B,2791.962799999965,Correct
11,511,63,A,51.795332877179185,72.26966477216166,2.589766643858959,1.1352092396281006,A,676.7328999994788,Correct
11,511,64,A,48.22218687050061,62.354785331017204,2.4111093435250304,0.9794666775604612,A,565.0143000002572,Correct
11,511,65,A,19.25540658390944,44.699316886167445,0.962770329195472,0.7021352277503291,A,451.62249999975757,Correct
11,511,66,A,40.80986397717378,73.28623513359118,2.040493198858689,1.151177489524721,A,419.3764999999985,Correct
11,511,67,A,64.23788679984165,79.85717176627406,3.2118943399920825,1.2543935207869243,A,493.05379999987053,Correct
11,511,68,A,36.21066234630974,66.46437886426135,1.8105331173154868,1.044020021826861,A,383.8340000002063,Correct
11,511,69,A,22.92588127267501,47.329179319814756,1.1462940636337506,0.74344501025782,A,414.7609999999986,Correct
11,511,70,B,43.06161068868454,29.792777877744882,2.1530805344342268,0.4679838605537791,B,765.3841000001194,Correct
11,511,71,B,50.75205716921842,31.388143497705478,2.5376028584609207,0.4930438051110689,B,478.75960000055784,Correct
11,511,72,A,40.33993408571443,57.36072975384471,2.016996704285722,0.90102023599614,A,568.9935999998852,Correct
11,511,73,B,86.14637522168974,60.18403381872615,4.3073187610844865,0.9453685925415486,B,1455.9152000001632,Correct
11,511,74,B,69.65562452148427,59.03039298592499,3.4827812260742133,0.927247244715502,A,3335.9469000006357,Incorrect
11,511,75,A,44.990506688476366,74.98469483608096,2.249525334423818,1.1778568321435223,A,584.2658999999912,Correct
11,511,76,B,72.07725249307835,60.36080822754615,3.6038626246539174,0.9481453584620066,B,3095.436300000074,Correct
11,511,77,B,32.1402538478964,14.062715839735713,1.6070126923948203,0.2208966238581727,B,872.0390999997107,Correct
11,511,78,B,41.79193938776186,15.734695366054552,2.0895969693880927,0.24716001684235173,B,447.44600000012724,Correct
11,511,79,A,32.032702290343664,54.89295486569485,1.601635114517183,0.8622565186995151,A,471.20649999942543,Correct
11,511,80,B,59.53025007915259,41.12878828647925,2.9765125039576295,0.6460494956592657,B,1790.120100000422,Correct
11,511,81,A,55.76367132577665,67.19184178164058,2.7881835662888323,1.0554469826118487,A,435.6834999998682,Correct
11,511,82,B,77.3291495653453,65.87092171814736,3.866457478267265,1.0346980187746004,B,525.0677999993059,Correct
11,511,83,A,35.71907605673803,54.878228597246085,1.7859538028369015,0.862025199015648,A,444.2485999998098,Correct
11,511,84,B,79.51639973191402,51.7679523328579,3.975819986595701,0.8131690937014648,B,461.687100000745,Correct
11,511,85,A,57.604958187602605,69.63429827319256,2.8802479093801305,1.0938129994647108,A,500.29429999995045,Correct
11,511,86,A,67.68751166947729,89.58451135317539,3.3843755834738647,1.4071902137128363,A,462.51200000006065,Correct
11,511,87,B,45.901952692010006,19.822747507911544,2.2950976346005003,0.3113749897241015,B,471.90109999974084,Correct
11,511,88,A,31.21583895484362,46.68369780181322,1.5607919477421808,0.7333058102829119,A,482.69729999992705,Correct
11,511,89,A,62.486002281284996,82.45312343445394,3.1243001140642495,1.2951706342360647,A,521.8879000003653,Correct
11,511,90,B,77.49518300938884,45.129936168873314,3.874759150469442,0.7088993796255435,B,426.18489999949816,Correct
11,511,91,B,73.35150092128754,53.98130829732414,3.667575046064377,0.8479364078901963,B,415.9601000001203,Correct
11,511,92,B,53.37164152571808,46.10658430117777,2.6685820762859045,0.7242405326134927,B,784.805299999789,Correct
11,511,93,A,51.71491011483984,80.48555784408626,2.5857455057419916,1.2642641862152888,A,474.511800000073,Correct
11,511,94,B,53.89296480032919,31.518183811045795,2.694648240016459,0.4950864735763711,B,384.86209999973653,Correct
11,511,95,B,41.28728259663415,17.452332935887384,2.0643641298317075,0.2741406046969349,B,385.69449999977223,Correct
11,511,96,A,32.439687944865156,51.85581700092439,1.621984397243258,0.8145492686800039,A,486.41910000060307,Correct
11,511,97,B,47.549283951741074,39.495312810346384,2.3774641975870536,0.6203909228810752,B,683.097899999666,Correct
11,511,98,A,23.58977934235474,51.44235761029475,1.179488967117737,0.8080546637592049,A,505.73869999971066,Correct
11,511,99,B,63.20777312703614,53.23547162592894,3.160388656351807,0.8362208328520312,B,1108.245700000225,Correct
11,511,100,A,42.67963182764486,51.98354257270736,2.133981591382243,0.8165555772699483,A,691.1731999998665,Correct
11,511,101,B,36.173217048409356,17.92072848263386,1.8086608524204677,0.2814981447400995,B,459.19659999981377,Correct
11,511,102,B,34.963263220574966,22.238560024810823,1.7481631610287482,0.34932248400180665,B,429.9367000003258,Correct
11,511,103,A,17.817349701740824,36.24991830770355,0.8908674850870412,0.5694123852435581,A,511.6398999998637,Correct
11,511,104,B,45.14277503214452,19.441295992005838,2.257138751607226,0.30538316332375115,B,429.690799999662,Correct
11,511,105,A,55.656268039324594,80.4839955528189,2.7828134019662296,1.264239645801447,A,458.15700000002835,Correct
11,511,106,B,80.97366837065644,62.370710984345344,4.048683418532822,0.9797168371379578,B,600.2576999999292,Correct
11,511,107,A,44.101067619188505,55.101192792368906,2.2050533809594253,0.8655275124027051,A,765.2072000000771,Correct
11,511,108,A,69.15580523833844,87.3591316098824,3.457790261916922,1.3722340304479523,A,502.03400000009424,Correct
11,511,109,A,50.241859016529865,80.97079194815626,2.5120929508264935,1.2718862256983763,A,463.17049999925075,Correct
11,511,110,B,37.71474800792504,20.557025633058057,1.885737400396252,0.3229090035423613,B,493.00059999950463,Correct
11,511,111,B,45.98332926988905,22.73226347078739,2.2991664634944526,0.35707755959646637,B,377.98949999978504,Correct
11,511,112,A,56.93595698413545,76.57755461558234,2.8467978492067725,1.2028774150509234,A,470.66999999969994,Correct
11,511,113,B,55.629452753154794,39.522964401144705,2.78147263765774,0.6208252730536357,B,809.7216000005574,Correct
11,511,114,A,24.971108223097993,42.893553215701836,1.2485554111548995,0.6737703583440587,A,485.04609999963577,Correct
11,511,115,A,59.75059002495702,75.39769301500883,2.987529501247851,1.1843441923678508,A,574.4439999998576,Correct
11,511,116,B,60.651701904257926,45.505926253789404,3.0325850952128963,0.7148054180685185,B,1205.079399999704,Correct
11,511,117,B,84.29037095141568,67.03832442993038,4.214518547570784,1.053035537690192,B,525.6717000002027,Correct
11,511,118,B,30.55471319796522,14.95894550540175,1.527735659898261,0.23497456652610096,A,524.6053000000757,Incorrect
11,511,119,A,24.184725013715358,45.00138287239402,1.209236250685768,0.706880069166473,A,649.0222000002177,Correct
11,511,120,B,59.76643282365686,40.13549016459806,2.9883216411828424,0.6304468052466333,B,880.4890000001251,Correct
11,511,121,A,31.519484980224888,40.33513431973212,1.5759742490112445,0.6335828083021398,A,892.3721000001024,Correct
11,511,122,A,24.01089459469527,37.51370544075208,1.2005447297347636,0.5892639071079908,A,600.8126000006087,Correct
11,511,123,A,57.91290000359105,66.11435595989383,2.8956450001795524,1.038521874902115,A,682.7173000001494,Correct
11,511,124,B,65.18469653006355,55.767729662513766,3.259234826503177,0.8759974490756742,B,1907.3309000004883,Correct
11,511,125,B,70.73215392471374,55.982239733596735,3.5366076962356874,0.8793669653928506,B,431.99120000008406,Correct
11,511,126,A,31.852085827483776,52.93415822043154,1.592604291374189,0.8314878129463374,A,536.3090999999258,Correct
11,511,127,A,13.30454902219919,37.18371042282159,0.6652274511099594,0.5840803574877327,A,585.9757999996873,Correct
11,511,128,A,37.98765518238042,46.53646944915901,1.899382759119021,0.7309931527274187,A,684.2041999998401,Correct
11,511,129,B,75.4868459893411,56.22141986784915,3.774342299467055,0.8831239981561106,B,1247.2902999998041,Correct
11,511,130,A,23.56535525081762,45.405479101548664,1.178267762540881,0.7132275978907509,A,538.3272999997644,Correct
11,511,131,A,38.47812115936415,55.586322821140065,1.9239060579682075,0.8731479170748215,A,584.6694000001662,Correct
11,511,132,B,83.46360676996409,53.633682055575065,4.173180338498204,0.8424759076538267,B,673.5345999995843,Correct
11,511,133,A,56.16446218489928,79.40738740761797,2.8082231092449637,1.2473283246026565,A,602.3385999997117,Correct
11,511,134,B,72.9198062904069,47.10804172485484,3.6459903145203447,0.7399713890390273,B,566.7782999998963,Correct
11,511,135,B,62.896196650250445,42.08265136979383,3.144809832512522,0.6610327419346237,B,454.76849999977276,Correct
11,511,136,B,60.00791195467943,42.92214788274897,3.000395597733972,0.6742195223236943,B,413.45020000062505,Correct
11,511,137,B,49.519652530845065,30.305942708690008,2.4759826265422533,0.4760446348686685,B,457.3115000002872,Correct
11,511,138,A,54.78728052671812,83.23114158861742,2.739364026335906,1.307391714823462,A,828.924200000074,Correct
11,511,139,A,21.507082647495118,33.999112548675846,1.0753541323747557,0.5340568110574628,A,795.0362999999925,Correct
11,511,140,A,39.12601045934712,59.15020337133406,1.9563005229673562,0.9291292218486263,A,570.2115000003687,Correct
11,511,141,A,27.285074434968294,54.54200569460767,1.3642537217484147,0.8567438220111605,A,541.8317999992723,Correct
11,511,142,B,50.011970216169786,34.965791528515716,2.5005985108084894,0.549241368964686,B,706.807900000058,Correct
11,511,143,B,67.30462883540855,47.512609551586074,3.3652314417704274,0.7463263256007153,B,462.1381000006295,Correct
11,511,144,A,42.88012469287348,74.84708984312812,2.1440062346436743,1.1756953379687325,A,534.4424000004437,Correct
11,511,145,A,16.21519993829425,36.7063672884194,0.8107599969147126,0.5765822690663355,A,478.1708000000435,Correct
11,511,146,B,46.75810524112004,36.541565889537424,2.337905262056002,0.5739935747461907,B,637.3530999999275,Correct
11,511,147,B,73.19982522294306,46.51987745012077,3.659991261147153,0.7307325262159845,B,477.9118999995262,Correct
11,511,148,A,56.54509596961656,68.755774890318,2.827254798480828,1.0800131864364828,A,465.24260000023787,Correct
11,511,149,B,43.734229096026425,35.84636909899208,2.186711454801321,0.5630734490963084,B,793.8263000005463,Correct
11,511,150,B,55.22219199741873,45.83233175232867,2.7611095998709367,0.7199325836500298,B,904.7011000002385,Correct
11,511,151,A,59.89583884676507,78.32851941740032,2.9947919423382534,1.2303815058413514,A,794.1298999994615,Correct
11,511,152,A,55.54991453947136,72.02409715688526,2.777495726973568,1.131351872547541,A,679.3933999997535,Correct
11,511,153,B,62.5818747281563,32.211828159478735,3.129093736407815,0.5059822135225761,B,460.0984000007884,Correct
11,511,154,A,57.530738148634256,84.34127659822059,2.876536907431713,1.3248296747767727,A,496.54240000018035,Correct
11,511,155,B,72.77312728831231,56.029467446674346,3.6386563644156156,0.880108816575103,B,433.93839999953343,Correct
11,511,156,B,49.91130793023242,22.471888453753554,2.495565396511621,0.3529875983930073,B,364.9785999996311,Correct
11,511,157,B,85.39051686842085,57.88553157513576,4.269525843421042,0.9092638037279326,B,502.0580999998856,Correct
11,511,158,A,43.13171796225406,65.4677462953308,2.156585898112703,1.0283649540424582,A,616.8848000006619,Correct
11,511,159,A,20.077417278724067,50.47146642723505,1.0038708639362033,0.7928039407185277,A,413.60439999971277,Correct
11,511,160,A,22.694207112907105,37.08270158549924,1.1347103556453553,0.5824937143813349,A,563.0945000002612,Correct
11,511,161,B,78.60138321419896,66.82606164495432,3.930069160709948,1.0497013216606357,B,736.883200000193,Correct
11,511,162,B,68.52396190689164,48.42881750764225,3.4261980953445823,0.7607180865202482,B,369.2310999995243,Correct
11,511,163,B,60.511038838930325,45.375952595696546,3.025551941946516,0.7127637966213949,B,413.0685000000085,Correct
11,511,164,B,32.20972693228041,18.58986483385779,1.6104863466140205,0.29200891396637435,B,417.224100000567,Correct
11,511,165,A,59.56452417119134,85.58195904943263,2.978226208559567,1.3443182691476003,A,565.6754999999976,Correct
11,511,166,A,51.81196810906743,79.3596721261428,2.5905984054533713,1.2465788147139245,A,390.79750000018976,Correct
11,511,167,A,43.7971583630161,73.91092851532208,2.189857918150805,1.160990150218681,A,404.07519999916985,Correct
11,511,168,B,47.39772744571768,23.19695981767805,2.369886372285884,0.36437699274417495,B,427.80690000017785,Correct
11,511,169,B,63.46434397188526,53.156320320291734,3.173217198594263,0.8349775270504717,B,440.2281000002404,Correct
11,511,170,B,57.90223450751001,39.47712360839292,2.8951117253755005,0.6201052075649169,B,404.9529000003531,Correct
11,511,171,A,48.74909083702977,78.84466463402549,2.4374545418514884,1.2384890959450272,A,488.5587000007945,Correct
11,511,172,A,56.13336182971602,70.18392318374843,2.8066680914858013,1.1024464873708724,A,1609.6550000002026,Correct
11,511,173,B,67.1897436092632,45.54757143340279,3.35948718046316,0.7154595790201725,B,406.6895999994813,Correct
11,511,174,B,34.96922195084255,15.192606033146944,1.7484610975421275,0.23864489751309204,B,399.4703999997,Correct
11,511,175,B,52.312854749252814,26.586759450825383,2.6156427374626405,0.4176238408673601,B,623.2322999994722,Correct
11,511,176,A,57.546278261339395,67.39596280800083,2.87731391306697,1.0586533081961318,A,638.148099999853,Correct
11,511,177,A,21.244427877142915,45.44245961598648,1.0622213938571456,0.7138084864531697,A,497.77930000072956,Correct
11,511,178,A,27.065100739849182,55.6798942514383,1.353255036992459,0.8746177336648756,A,516.0005999996429,Correct
11,511,179,A,33.13151610162211,58.41358502475646,1.6565758050811055,0.9175584479180883,A,462.75929999956134,Correct
11,511,180,A,69.86819377505022,86.10657219440704,3.493409688752511,1.3525588731587417,A,777.5290999998106,Correct
11,511,181,B,66.11534255812529,39.609674052284575,3.3057671279062646,0.6221873050687173,B,824.7154999999111,Correct
11,511,182,A,57.76433675717911,84.67702397885813,2.888216837858955,1.3301035822991372,A,585.5461000001014,Correct
11,511,183,B,56.374009211415164,37.16778243814499,2.818700460570758,0.5838301612895,B,572.0506000006935,Correct
11,511,184,B,66.05099473954982,37.5925336508686,3.302549736977491,0.5905021377369793,B,381.1578000004374,Correct
11,511,185,A,60.73719433930547,86.15583843593386,3.0368597169652736,1.3533327454709947,A,482.6920000004975,Correct
11,511,186,B,50.84584011929746,20.701798027156926,2.5422920059648733,0.32518308299107934,B,731.2612000005174,Correct
11,511,187,A,52.032069642132726,75.91160247809287,2.6016034821066363,1.1924166633370266,A,705.3454999995665,Correct
11,511,188,A,58.48619944971857,70.40349789332916,2.9243099724859287,1.1058955588435369,A,708.9607999996588,Correct
11,511,189,A,35.436193698445734,54.63527689438473,1.7718096849222866,0.8582089225912161,A,789.2869000006613,Correct
11,511,190,A,20.56269158523532,37.8578159041368,1.028134579261766,0.594669181626955,A,694.6631000000707,Correct
11,511,191,A,34.37456512400653,67.20665722625567,1.7187282562003263,1.055679703071661,A,509.59510000029695,Correct
11,511,192,A,13.517609597869896,35.90187178597907,0.6758804798934948,0.5639452832647724,A,428.2331999993403,Correct
11,511,193,B,59.67116592868711,41.11870729578153,2.983558296434355,0.6458911438276813,B,698.3219000003373,Correct
11,511,194,A,44.485214458230494,75.32272059410596,2.224260722911525,1.1831665283341994,A,612.2670000004291,Correct
11,511,195,B,82.22214376319351,60.74190537014468,4.111107188159676,0.9541316183794646,B,469.36619999996765,Correct
11,511,196,A,39.64767082831596,71.90054006347165,1.982383541415798,1.1294110422627057,A,448.4368000003087,Correct
11,511,197,A,62.89620625346482,73.26568861209118,3.144810312673241,1.1508547455197151,B,476.57320000053005,Incorrect
11,511,198,B,54.413234941820285,23.40535875367278,2.720661747091014,0.36765051557585976,B,458.10179999989487,Correct
11,511,199,A,63.67328948590911,87.28993612471749,3.183664474295455,1.3711471103086736,A,543.9157999999225,Correct
11,511,200,B,73.13206105011628,46.05909610139047,3.6566030525058135,0.723494589715573,B,650.9625999997297,Correct
11,511,201,B,56.03547874185873,30.05864367849837,2.8017739370929364,0.4721600707862188,B,467.2571999999491,Correct
11,511,202,A,50.6402055901782,74.87131986315238,2.53201027950891,1.1760759422332554,A,543.4315000002243,Correct
11,511,203,A,36.77926307775385,46.91901762864934,1.8389631538876927,0.7370022054790738,A,859.3052999995052,Correct
11,511,204,B,74.71782291799732,61.20092518984262,3.735891145899866,0.9613418848465405,B,984.5566999993025,Correct
11,511,205,B,49.80239831588437,32.88089331624936,2.4901199157942187,0.5164918644289936,B,555.8669000001828,Correct
11,511,206,B,81.68863586293703,58.815862932819805,4.084431793146852,0.9238774145214546,B,643.3738999994603,Correct
11,511,207,A,59.691969808254555,81.17932050959314,2.984598490412728,1.2751617846817451,A,682.7962000006664,Correct
11,511,208,A,18.79116139794952,48.95375950152233,0.939558069897476,0.7689638560779204,A,499.1055000000415,Correct
11,511,209,A,24.224683011887365,42.700377017147495,1.2112341505943682,0.670735953712925,A,683.4066999999777,Correct
11,511,210,B,77.90456683107013,48.24617664960782,3.8952283415535067,0.7578491706310166,B,544.94749999958,Correct
11,511,211,A,28.45575897950858,38.64345261906968,1.422787948975429,0.6070099342870727,A,488.4222000000591,Correct
11,511,212,B,76.80769342149328,52.914563193804426,3.8403846710746645,0.8311800149878441,B,539.4450000003417,Correct
11,511,213,B,48.00581426649769,38.36390319074052,2.400290713324884,0.6026187821353023,B,597.9830999995102,Correct
11,511,214,A,62.555609220023086,72.75923735110372,3.127780461001154,1.1428994277151179,A,713.5687999998481,Correct
11,511,215,B,32.85939054063421,13.570777967787865,1.6429695270317104,0.2131692818355029,B,409.84519999983604,Correct
11,511,216,B,45.29477159463414,17.36078393435101,2.264738579731707,0.2727025563435842,B,435.2582999999868,Correct
11,511,217,B,71.04068502303498,55.58260825618123,3.552034251151749,0.8730895688248919,B,639.3889999999374,Correct
11,511,218,B,45.605839604103835,18.417073089120837,2.2802919802051917,0.28929470758704146,B,401.6311000004862,Correct
11,511,219,A,30.50748519541092,55.81838638173043,1.525374259770546,0.8767931629604043,A,580.6803999994372,Correct
11,511,220,B,46.66607336035217,36.61117104480035,2.3333036680176087,0.5750869299683207,B,1039.7510000002512,Correct
11,511,221,A,43.43976067007538,61.67024412508914,2.171988033503769,0.9687139294423458,A,653.8151000004291,Correct
11,511,222,B,61.77069161538493,30.999430066813062,3.0885345807692466,0.48693790881685234,B,489.15450000004057,Correct
11,511,223,B,60.59460466663193,29.340725464154772,3.0297302333315965,0.460883037845918,B,410.52310000031866,Correct
11,511,224,B,46.830294243268156,19.252864121172646,2.341514712163408,0.30242328241819244,B,454.4192000003022,Correct
11,511,225,A,14.241321593693591,31.27473847470359,0.7120660796846795,0.4912624431753542,A,531.4196999997876,Correct
11,511,226,A,29.40212316284755,60.24442373800934,1.4701061581423776,0.9463171951754035,A,511.2771000003704,Correct
11,511,227,B,81.3403555990927,58.28314010476715,4.067017779954636,0.9155094239064058,B,485.6667000003654,Correct
11,511,228,A,18.251615691025986,42.599958155674116,0.9125807845512993,0.6691585779254919,A,433.5265999998228,Correct
11,511,229,B,65.55512278191533,36.93397570385452,3.277756139095766,0.5801575336954664,B,448.7134999999398,Correct
11,511,230,B,73.35841705817455,63.21567511182529,3.6679208529087277,0.9929895026151474,B,605.1797999998598,Correct
11,511,231,B,55.25185301878889,40.83730722306571,2.7625926509394447,0.6414709218218632,B,568.1893999999375,Correct
11,511,232,A,31.26348516014866,45.32721676872456,1.563174258007433,0.7119982560414857,A,684.8902000001544,Correct
11,511,233,B,65.16973285751617,39.912351212235734,3.2584866428758086,0.6269417467792773,B,741.7282999995223,Correct
11,511,234,A,29.756311479130744,43.38630049540436,1.4878155739565373,0.6815104145140078,A,513.9203999997335,Correct
11,511,235,B,47.09246253357185,39.555714719285945,2.354623126678592,0.6213397138480119,B,2859.536400000252,Correct
11,511,236,A,21.303661097776725,41.96702582847215,1.0651830548888364,0.659216500178706,A,509.52000000052067,Correct
11,511,237,B,45.015768430784824,36.82132483527611,2.2507884215392413,0.578388017989734,B,829.2492000000493,Correct
11,511,238,A,25.428980169258615,42.97846588682696,1.2714490084629306,0.6751041634630756,A,523.9165000002686,Correct
11,511,239,B,67.29883154304136,38.79151985639842,3.3649415771520683,0.6093357690122194,B,501.5742000005048,Correct
11,511,240,B,45.06818833284786,29.143283247815138,2.253409416642393,0.4577816227641126,B,1187.4119000003702,Correct
11,511,241,A,45.046126105565186,76.56778639118785,2.252306305278259,1.2027239761409414,A,516.2834999991901,Correct
11,511,242,B,46.52940806986514,26.2189727562345,2.326470403493257,0.41184666097828626,B,468.00489999986894,Correct
11,511,243,A,23.328855098612166,52.037012157856424,1.1664427549306082,0.8173954755494225,A,466.3332999998602,Correct
11,511,244,B,62.765216307892416,48.639501268929244,3.1382608153946205,0.7640274993036977,B,467.4786999994467,Correct
11,511,245,B,59.030480759771876,45.745981556322114,2.9515240379885936,0.7185761979429787,B,1029.688999999962,Correct
11,511,246,A,49.16925108562533,58.188033715870816,2.4584625542812666,0.9140154962430747,A,4908.59029999956,Correct
11,511,247,B,48.43431560388845,31.633150914265137,2.4217157801944227,0.49689237261076297,B,532.3520000001736,Correct
11,511,248,A,51.05686423762604,75.53952288390543,2.5528432118813016,1.186572050738777,A,622.0199999997931,Correct
11,511,249,B,49.732483310610434,25.32748113888262,2.4866241655305217,0.3978431433992385,B,428.39360000016313,Correct
11,511,250,B,39.947222812186496,24.951778871455744,1.997361140609325,0.39194162598281196,B,403.2861000005141,Correct
11,511,251,A,44.27560688440554,51.97014601033578,2.213780344220277,0.8163451445602989,A,761.9324999996024,Correct
11,511,252,B,72.52251529588675,62.12260294662878,3.6261257647943377,0.9758195651950231,B,1021.2520999994013,Correct
11,511,253,B,87.96282203310442,65.96977988109103,4.398141101655221,1.0362508791668565,B,545.9866000001057,Correct
11,511,254,B,74.65619838066686,47.42227024105067,3.7328099190333432,0.7449072790291732,B,488.8829000001351,Correct
11,511,255,B,55.72529493351302,48.354190974640645,2.786264746675651,0.7595458556810445,B,478.16169999987324,Correct
11,511,256,A,58.96661688854367,75.27456469727099,2.9483308444271836,1.1824100972755807,A,707.135699999526,Correct
11,511,257,A,31.656304873968924,64.94921770618606,1.5828152436984462,1.0202199260107911,A,501.3392999999269,Correct
11,511,258,B,47.373531396457636,29.54867916410943,2.3686765698228816,0.4641495669262398,B,443.2115999998132,Correct
11,511,259,B,43.41771065270753,20.139778263556803,2.170885532635376,0.3163548971885872,B,425.00810000001366,Correct
11,511,260,B,70.85026540900813,59.91603246789087,3.542513270450406,0.9411588371668674,B,712.165000000823,Correct
11,511,261,A,54.69656840604385,68.75241224729494,2.734828420302193,1.0799603661633934,A,650.3859000004013,Correct
11,511,262,B,74.52163448752536,42.59517576241808,3.726081724376268,0.6690834562678932,B,440.7466000002387,Correct
11,511,263,A,34.162383247696575,66.47514894655056,1.7081191623848286,1.0441891978838524,A,540.0933000000805,Correct
11,511,264,B,69.56882326175241,40.176374611575426,3.478441163087621,0.6310890166379842,B,459.2909000002692,Correct
11,511,265,B,51.26746605891834,35.26709577797631,2.563373302945917,0.5539742450476899,B,729.3571000000156,Correct
11,511,266,B,44.36656908391625,24.43702497646126,2.2183284541958126,0.3838558907082049,B,515.5814999998256,Correct
11,511,267,B,53.00917353933561,31.948341015475005,2.6504586769667804,0.5018433671429887,B,646.07100000012,Correct
11,511,268,B,75.04047076631,64.2454170114445,3.7520235383155,1.0091646505498337,B,1443.8981000002968,Correct
11,511,269,B,40.72871074861712,14.596025565720304,2.036435537430856,0.22927383344437852,B,534.1435999998794,Correct
11,511,270,B,60.09550291952025,50.497234127454846,3.0047751459760126,0.7932086988070797,B,1080.0317000002906,Correct
11,511,271,A,31.318065038827157,56.4261323730257,1.565903251941358,0.8863396146679139,A,552.9092999995555,Correct
11,511,272,B,65.1047749503832,47.182414077269726,3.25523874751916,0.741139627218911,B,504.09599999966304,Correct
11,511,273,A,42.824284601257574,54.17559496962629,2.1412142300628787,0.8509882558021704,A,715.1505000001634,Correct
11,511,274,B,62.891419203476104,50.32259135054176,3.144570960173805,0.7904654164823163,B,550.7375999995929,Correct
11,511,275,B,31.96565860378272,14.959143037437052,1.598282930189136,0.23497766935205572,B,487.0608999999604,Correct
11,511,276,A,28.482027012386887,55.598956361742054,1.4241013506193443,0.8733463642665416,A,624.158499999794,Correct
11,511,277,A,53.6723141334997,70.72417423477573,2.683615706674985,1.1109327310358799,A,723.50809999989,Correct
11,511,278,B,61.737728921566394,35.04649679263945,3.08688644607832,0.5505090842890717,B,474.6883000007074,Correct
11,511,279,B,70.24504026120233,51.28973510476041,3.5122520130601167,0.805657275048409,B,556.3474999999016,Correct
11,511,280,A,54.614212378853395,77.60704963653006,2.7307106189426698,1.2190486850245061,A,503.4181000000899,Correct
11,511,281,A,21.79240220326049,40.52452989915443,1.0896201101630245,0.6365578271068173,A,652.4216000007073,Correct
11,511,282,A,30.70115722366379,49.288900658173844,1.5350578611831895,0.7742282410561804,A,660.9945999998672,Correct
11,511,283,B,71.07496224919718,61.1738565915134,3.5537481124598593,0.9609166922982703,B,847.4480000004405,Correct
11,511,284,B,33.59260919604817,18.370875730368734,1.6796304598024085,0.28856904117268717,B,448.0358000000706,Correct
11,511,285,B,69.41787432388746,51.43092489006169,3.4708937161943734,0.8078750790097312,B,871.7577999996138,Correct
11,511,286,B,53.519312616648506,44.25863292426776,2.675965630832425,0.6952129802640347,B,934.9533000004158,Correct
11,511,287,A,57.50432955936839,81.60476285236653,2.8752164779684195,1.2818446173746596,A,559.0004999994562,Correct
11,511,288,A,46.27749904906661,52.89909759614357,2.3138749524533306,0.8309370819478706,B,2180.777499999749,Incorrect
11,511,289,A,53.79286342494149,66.94626400573438,2.6896431712470745,1.0515894559284895,A,1145.7903999998962,Correct
11,511,290,B,56.96907726005431,31.715381185167438,2.8484538630027156,0.49818404268560984,B,579.7353999996631,Correct
11,511,291,A,22.475895889767138,50.188103123696436,1.123794794488357,0.7883528803550585,A,686.5252000006876,Correct
11,511,292,B,71.65774595590668,38.577833743297816,3.5828872977953337,0.6059791953967643,B,612.6092000004064,Correct
11,511,293,A,30.339972157421016,41.72539250977722,1.516998607871051,0.6554209328843335,A,462.5179999993634,Correct
11,511,294,B,72.48740914197595,45.34136162798554,3.6243704570987973,0.7122204429711876,B,1050.441299999875,Correct
11,511,295,B,33.91722769688297,17.15751102755231,1.6958613848441484,0.269509552990221,B,602.9810999998517,Correct
11,511,296,A,44.988816819416655,57.552898337651854,2.249440840970833,0.9040388130518363,A,776.802499999576,Correct
11,511,297,B,65.95393429541151,42.98202573037195,3.2976967147705754,0.6751600813547199,B,721.9279000000824,Correct
11,511,298,B,86.3945418987093,63.525904844176424,4.319727094935465,0.9978625798555445,B,962.2118000006594,Correct
11,511,299,B,63.809379793860735,38.678993558221535,3.190468989693037,0.6075682100537786,B,466.53429999969376,Correct
11,511,300,A,46.75580680085343,71.76424700480658,2.3377903400426714,1.1272701559035183,A,655.5306000000201,Correct
11,511,301,A,19.221686370836434,38.372468149525204,0.9610843185418217,0.6027533201932834,A,512.0539999998073,Correct
11,511,302,A,41.88054482178695,65.20491710394363,2.0940272410893472,1.0242364427584039,A,538.0104999994728,Correct
11,511,303,B,85.22799686691557,62.142618538091895,4.261399843345779,0.9761339693705119,B,587.4039999998786,Correct
11,511,304,B,75.71409255762116,45.41736865398541,3.7857046278810578,0.7134143585436996,B,497.50760000006267,Correct
11,511,305,A,52.996518272297806,77.57287910040847,2.6498259136148903,1.2185119354982623,A,513.5024999999587,Correct
11,511,306,A,44.8735177633564,68.37110702437099,2.2436758881678203,1.0739708377278268,A,553.5331000000951,Correct
11,511,307,A,41.31256828197415,60.08819332217159,2.0656284140987076,0.9438631335420876,A,550.5474000001414,Correct
11,511,308,B,69.46809251028657,39.146485569282646,3.4734046255143283,0.6149115573915861,B,566.2438999997903,Correct
11,511,309,A,56.68317650218998,77.20233362570465,2.8341588251094993,1.21269142079251,A,518.8127000001259,Correct
11,511,310,A,32.27608574817423,53.81471921107536,1.6138042874087117,0.8453196326425593,A,573.7108999992415,Correct
11,511,311,B,35.72148516750229,22.245623691961967,1.7860742583751144,0.3494334398259539,B,600.2590999996755,Correct
11,511,312,B,68.22372199877051,45.16401014320289,3.411186099938526,0.7094346123627056,B,602.1643000003678,Correct
11,511,313,B,42.23855322633978,34.34922707822988,2.111927661316989,0.539556397227273,B,384.53370000024734,Correct
11,511,314,A,57.28511500027108,82.42403350560785,2.8642557500135535,1.2947136907022831,A,450.7400000002235,Correct
11,511,315,B,67.82273188676797,42.30613618514778,3.391136594338399,0.6645432332051479,B,575.7659999999305,Correct
11,511,316,B,42.88719964373131,27.13755681607494,2.1443599821865655,0.4262757456487833,B,404.4541000002937,Correct
11,511,317,A,29.68131749199899,44.35717397139325,1.4840658745999493,0.6967608594126671,A,758.3771999998135,Correct
11,511,318,B,69.3233307954771,58.9976500234789,3.4661665397738552,0.926732919464115,B,702.1488999998837,Correct
11,511,319,B,71.5197585067646,54.17631149336522,3.5759879253382305,0.8509995109307422,B,490.2975000004517,Correct
11,511,320,B,80.31241997190669,55.51307169773963,4.015620998595335,0.8719972911191115,B,563.703899999382,Correct
11,511,321,B,81.03968094170395,54.831476353171176,4.051984047085198,0.8612908164830251,B,536.3836000005904,Correct
11,511,322,B,63.70833142160587,46.16976188722901,3.1854165710802937,0.7252329238145434,B,494.7630000006029,Correct
11,511,323,B,31.20550346582061,11.740315161001522,1.5602751732910303,0.18441643930315624,B,519.3053000002692,Correct
11,511,324,A,43.56024516890144,62.66251794400363,2.178012258445072,0.984300530141602,A,747.1964000005755,Correct
11,511,325,A,53.90294802335425,66.67639247176507,2.6951474011677123,1.0473503237858346,A,707.7749999998559,Correct
11,511,326,B,34.7207551394641,15.787603806707168,1.736037756973205,0.24799110068468744,B,546.9672000008359,Correct
11,511,327,B,60.27700573360658,43.88662930812066,3.013850286680329,0.6893695611260519,B,657.0836999999301,Correct
11,511,328,A,33.0562642121202,48.14419549318044,1.6528132106060098,0.7562472543718324,A,645.4905999999028,Correct
11,511,329,A,40.04260978247849,70.71903939214592,2.0021304891239247,1.110852073116464,A,562.4957999998514,Correct
11,511,330,A,47.69046269556133,63.38851652731612,2.3845231347780667,0.9957044892208575,A,522.7597000002788,Correct
11,511,331,B,41.52158209570375,15.729157427645255,2.0760791047851876,0.2470730271092383,B,496.2996000003841,Correct
11,511,332,B,43.727256034340655,25.271958621558234,2.1863628017170327,0.39697099773656286,B,488.8894000005166,Correct
11,511,333,A,58.18253081203933,78.22728017576284,2.9091265406019664,1.228791243552435,A,528.5976999994091,Correct
11,511,334,B,33.733806741839075,14.041801989505373,1.686690337091954,0.22056810986696312,B,544.8903999995309,Correct
11,511,335,A,44.53324556136731,51.58981921449137,2.226662278068366,0.8103709852213582,A,1339.4110000008368,Correct
11,511,336,A,48.626219996519936,72.55911355378527,2.4313109998259965,1.139755890457797,A,680.3994000001694,Correct
11,511,337,B,30.86740467172998,16.537434575298676,1.543370233586499,0.2597694148549008,B,571.1413999997603,Correct
11,511,338,A,14.108140813163324,31.19260732444134,0.7054070406581662,0.48997233008388047,A,547.7308999998058,Correct
11,511,339,A,27.831898816140388,58.96613146300689,1.3915949408070194,0.9262378270739621,A,591.6164000000208,Correct
11,511,340,A,38.84572307346791,51.58957579656254,1.9422861536733955,0.8103671616214734,A,511.88120000006165,Correct
11,511,341,B,45.713437238858276,20.0548520837942,2.2856718619429137,0.315020879876389,B,585.2640999992218,Correct
11,511,342,A,57.179934222257515,80.10826998809046,2.858996711112876,1.2583377624318632,A,535.0891999996747,Correct
11,511,343,B,40.33793086980439,29.911438272418998,2.0168965434902195,0.46984777367468045,B,519.1418000003978,Correct
11,511,344,A,33.26284108283477,66.54844327292054,1.6631420541417383,1.0453405024702214,A,528.2561000003625,Correct
11,511,345,B,68.03096529899754,42.57794548635642,3.401548264949877,0.6688128037244201,B,673.38269999982,Correct
11,511,346,A,32.07077159902967,52.901587079466466,1.6035385799514836,0.8309761866604628,A,470.33700000065437,Correct
11,511,347,A,27.02861482120933,46.84192270911081,1.3514307410604665,0.7357912013148172,A,496.00050000026386,Correct
11,511,348,B,74.52525055971407,45.31214606549064,3.726262527985704,0.7117615259886652,B,646.107700000357,Correct
11,511,349,A,55.60193621417007,81.81339595964901,2.7800968107085033,1.285121818560331,A,507.072700000208,Correct
11,511,350,B,43.284155815768045,22.897361430582823,2.164207790788402,0.3596709122845464,B,446.14780000028986,Correct
11,511,351,A,32.323170431509915,62.64346870996441,1.6161585215754957,0.9840013054730312,A,442.3157999999603,Correct
11,511,352,A,43.846294400999426,63.37360933189983,2.1923147200499713,0.9954703275428304,A,527.8177000000142,Correct
11,511,353,B,35.37065765789765,17.102415951075994,1.7685328828948825,0.2686441215526862,B,460.83199999975477,Correct
11,511,354,B,63.150304778874606,37.72578202622018,3.15751523894373,0.592595198322516,B,493.3842000000368,Correct
11,511,355,A,50.61004056866995,71.12945458451054,2.5305020284334976,1.1172988598827354,A,613.6891999994987,Correct
11,511,356,B,44.8712247245745,17.482411777057507,2.243561236228725,0.27461308202917767,B,454.812299999503,Correct
11,511,357,A,51.27741018556527,69.45406381098498,2.5638705092782637,1.0909818831527356,A,1540.3291000002355,Correct
11,511,358,A,69.12230426421846,86.63653632227165,3.4561152132109227,1.3608835302125695,A,621.7250999998214,Correct
11,511,359,B,65.61217471114395,36.57856816579493,3.2806087355571973,0.5745748051424742,B,411.79939999983617,Correct
11,511,360,B,65.48784221098994,37.17561497998495,3.274392110549497,0.5839531945690168,B,415.7106000002386,Correct
11,511,361,A,31.721644049442915,58.98510554569024,1.5860822024721457,0.9265358712677951,A,464.8084000000381,Correct
11,511,362,B,42.97561576569801,23.239650908059037,2.148780788284901,0.3650475828237482,B,447.18769999963115,Correct
11,511,363,B,67.32136549596933,43.2928386462363,3.3660682747984665,0.6800423192203213,B,1109.7978999996485,Correct
11,511,364,B,38.128036687651495,26.86099544652535,1.9064018343825748,0.42193152981456467,B,460.4347000004054,Correct
11,511,365,A,36.429801644925455,57.98187774465519,1.8214900822462727,0.9107772058197513,A,676.7438999995647,Correct
11,511,366,B,31.070251110453764,13.744911981295989,1.553512555522688,0.21590457252338904,B,450.28050000018993,Correct
11,511,367,B,56.04483436313696,23.692995243445583,2.8022417181568477,0.3721686989917328,B,455.58600000003935,Correct
11,511,368,B,81.15500416633557,64.2634030354241,4.0577502083167785,1.0094471743538418,B,581.6193999999086,Correct
11,511,369,A,42.475914999943534,53.527051362069145,2.1237957499971767,0.8408009566369998,A,699.755899999218,Correct
11,511,370,B,58.46373928875815,30.310046715283526,2.923186964437907,0.47610910045349086,B,694.7473999998692,Correct
11,511,371,A,13.910374848219238,42.37150839300088,0.6955187424109619,0.6655700974448492,A,524.2957999998907,Correct
11,511,372,A,59.02394196550441,76.43433976985617,2.9511970982752205,1.2006278015148315,A,1201.5572000000247,Correct
11,511,373,A,38.37733365664435,58.75484962953966,1.9188666828322176,0.9229190197946741,A,546.6662999997425,Correct
11,511,374,A,29.990543440143576,52.63595906286269,1.4995271720071788,0.8268037115327126,A,513.0619000001388,Correct
11,511,375,B,65.77341519389167,51.721106941937016,3.288670759694583,0.812433248021607,B,693.4493999997358,Correct
11,511,376,B,32.07750438872908,17.33095239545062,1.6038752194364543,0.27223396362631047,B,601.9250999997894,Correct
11,511,377,B,70.90679072874028,59.347061564250836,3.5453395364370137,0.932221463111958,B,470.90120000029856,Correct
11,511,378,A,47.54925813103642,59.415420271732586,2.377462906551821,0.933295239178126,B,2947.6113000000623,Incorrect
11,511,379,A,60.836911126305466,84.8535353379634,3.0418455563152738,1.3328762162443384,A,620.4508000000715,Correct
11,511,380,B,44.65383610818482,17.64444255580474,2.2326918054092406,0.27715825555001644,B,432.05440000019735,Correct
11,511,381,A,45.332079032053905,61.643735858155694,2.2666039516026952,0.9682975385590582,A,523.8938000002236,Correct
11,511,382,B,85.06239942947452,55.58965472317774,4.253119971473726,0.8732002544696416,B,451.70469999993657,Correct
11,511,383,B,55.413531520248064,27.88677009436028,2.7706765760124035,0.43804436030394905,B,464.93459999965125,Correct
11,511,384,A,42.59488327825624,74.3697668737279,2.1297441639128123,1.1681975662984456,A,474.5771000007153,Correct
11,511,385,B,54.99656095678477,26.2426456444756,2.7498280478392383,0.41221851383722363,B,446.7654999998558,Correct
11,511,386,A,20.48209454837817,40.00818396567825,1.0241047274189086,0.6284470841502188,A,1370.0526000002355,Correct
11,511,387,B,45.05020030338169,34.628390315545225,2.2525100151690847,0.5439414831047841,B,494.2251000002216,Correct
11,511,388,A,44.81880398375623,73.26737046707566,2.2409401991878117,1.1508811640360335,A,515.5012999994142,Correct
11,511,389,B,77.55022520293767,59.70090176214877,3.8775112601468833,0.9377795719432624,B,515.2715000003809,Correct
11,511,390,B,48.242346919536274,35.85305453368141,2.4121173459768137,0.5631784636588387,B,419.80640000019775,Correct
11,511,391,A,18.086799026117205,48.46313138032502,0.9043399513058603,0.7612570875719301,A,505.62820000050124,Correct
11,511,392,A,20.721697994589277,50.428251634898785,1.0360848997294638,0.7921251243478775,A,466.4773000004061,Correct
11,511,393,A,17.618960426265296,32.338284662107576,0.8809480213132648,0.5079685876208633,A,427.8823000004195,Correct
11,511,394,B,49.762177957696856,35.12393090652627,2.488108897884843,0.5517254165056921,B,862.9080999999132,Correct
11,511,395,A,36.780051833519295,49.49103160818895,1.8390025916759647,0.7774033065943333,A,1023.4964000001128,Correct
11,511,396,B,72.76908736001928,54.82000358568949,3.6384543680009642,0.8611106026728412,B,468.18770000027143,Correct
11,511,397,B,41.416911363835126,27.40455808895388,2.0708455681917566,0.4304697918356612,B,531.3630999999077,Correct
11,511,398,B,72.01130519861348,47.04238504658495,3.6005652599306743,0.7389400563484682,B,581.0596999999689,Correct
11,511,399,A,40.91906120649581,65.74512991472173,2.045953060324791,1.0327220857469817,A,639.8307999997996,Correct
11,511,400,B,35.13827733619574,19.14317353135288,1.7569138668097872,0.3007002666624639,B,451.72980000006646,Correct
11,511,401,B,36.912513684250456,11.843363293486394,1.8456256842125227,0.18603511558305932,B,449.527599999783,Correct
11,511,402,B,61.690742057787766,43.08539013660092,3.0845371028893886,0.6767837256509779,B,674.9094000006153,Correct
11,511,403,B,64.63992625732585,35.21435259196189,3.2319963128662925,0.5531457570191408,B,547.7491000001464,Correct
11,511,404,A,55.80808937518784,73.20937759574925,2.7904044687593923,1.149970214143435,A,536.4592000005359,Correct
11,511,405,A,31.10117864753264,52.66748678146052,1.555058932376632,0.8272989477783694,A,546.1336999997002,Correct
11,511,406,A,57.36748028038875,75.01164007058514,2.8683740140194374,1.1782800868973602,A,570.7037000001947,Correct
11,511,407,A,64.95046776340207,86.45859653616476,3.2475233881701033,1.358088458588496,A,511.139600000206,Correct
11,511,408,A,31.853364580616358,60.71229705478269,1.5926682290308178,0.9536665320493327,A,584.7940000003291,Correct
11,511,409,B,67.82061335484553,38.73161521700325,3.391030667742277,0.6083947891370203,B,679.9956000004386,Correct
11,511,410,A,50.910426473601014,71.68004818356727,2.5455213236800507,1.1259475639122867,A,1248.2835999999224,Correct
11,511,411,B,77.62752029082439,53.078790256971715,3.8813760145412197,0.833759687663679,B,532.9757999998037,Correct
11,511,412,A,69.0272144678693,89.02589239870115,3.451360723393465,1.3984154476951747,A,670.9302999997817,Correct
11,511,413,B,54.542234224385474,24.956773012257912,2.7271117112192735,0.3920200737630874,B,405.5748999999196,Correct
11,511,414,B,84.88239141854581,64.37596781217164,4.244119570927291,1.011215337732257,B,514.2757000003257,Correct
11,511,415,A,30.070840203795086,50.41230847619253,1.5035420101897543,0.7918746897965445,A,490.5868999994709,Correct
11,511,416,B,63.37625416477671,53.52037793548466,3.1688127082388355,0.8406961306973394,B,1025.7854999999836,Correct
11,511,417,A,46.94549337710836,71.3460323412539,2.3472746688554182,1.120700855330315,A,566.4603000004718,Correct
11,511,418,A,28.196723272711125,52.0710521771325,1.4098361636355563,0.8179301749218513,A,554.6318999995492,Correct
11,511,419,A,10.635506831350554,33.317078719549485,0.5317753415675277,0.5233434487220474,A,487.0633000000453,Correct
11,511,420,A,49.893335309955035,70.31219321690054,2.494666765497752,1.104461348340004,A,589.9828999999954,Correct
11,511,421,A,12.345223057384853,37.5406270586123,0.6172611528692427,0.589686790892453,A,503.6636999993789,Correct
11,511,422,B,65.78677860387019,44.00597093325153,3.289338930193509,0.691244174989945,B,788.3527000003596,Correct
11,511,423,B,53.970357490144835,22.80527816544851,2.6985178745072416,0.35822447173822375,B,441.62080000023707,Correct
11,511,424,B,77.40704459330536,64.95760580365035,3.870352229665268,1.0203516859376482,B,844.1376999999193,Correct
11,511,425,B,32.9509560070602,19.677946861843118,1.64754780035301,0.3091004664944833,B,400.27899999950023,Correct
11,511,426,A,35.95440078978776,57.964902187416165,1.7977200394893882,0.9105105543901877,A,536.5882999994938,Correct
11,511,427,A,47.72299978885591,72.62573296532747,2.3861499894427953,1.1408023457272343,A,1217.9356999995434,Correct
11,511,428,B,55.87752855107444,35.50525225870446,2.7938764275537222,0.5577151982989916,B,412.1919999997772,Correct
11,511,429,B,42.98436910716153,33.00601264515294,2.149218455358076,0.5184572342515215,B,603.1294000003982,Correct
11,511,430,A,64.17238884786148,83.39273234681261,3.2086194423930743,1.309929976517632,A,998.168799999803,Correct
11,511,431,A,28.580128454601876,50.88852726694961,1.429006422730094,0.7993551170692638,A,565.3345000000627,Correct
11,511,432,A,16.345389786801775,35.852164033588394,0.8172694893400887,0.5631644757160876,A,443.7167000005502,Correct
11,511,433,A,68.56919099013228,83.08034682335136,3.428459549506614,1.3050230361896638,A,679.8726999995779,Correct
11,511,434,A,16.854238542254034,37.72570543551964,0.8427119271127017,0.5925939952386051,A,480.9830000003785,Correct
11,511,435,A,55.34352530601366,84.57320379813056,2.767176265300683,1.3284727787137969,A,465.29280000049766,Correct
11,511,436,A,56.576993966435985,76.82640807514673,2.8288496983217994,1.2067863960528626,A,565.9947999993165,Correct
11,511,437,B,87.36953946594646,64.17081978912223,4.368476973297323,1.0079928801217046,B,849.5699000004606,Correct
11,511,438,B,79.47435359182407,59.70371160636148,3.9737176795912035,0.9378237088729444,B,412.0611000007557,Correct
11,511,439,A,21.226755528990914,35.01329359830691,1.0613377764495455,0.5499875297321176,A,556.3536999998178,Correct
11,511,440,A,54.467856329057206,79.08751463068249,2.72339281645286,1.242303774772137,A,725.7683999996516,Correct
11,511,441,B,41.25261830915465,28.721657959460863,2.0626309154577327,0.4511587482218053,B,616.8279000003167,Correct
11,511,442,B,43.62074996628259,25.112646547994103,2.1810374983141294,0.3944685295368768,B,698.4997999998086,Correct
11,511,443,A,62.20972294570444,86.64955974192009,3.1104861472852225,1.3610881016100302,A,651.3379999996687,Correct
11,511,444,B,32.345813866193126,18.39807256320312,1.6172906933096562,0.2889962480238542,B,361.69750000044587,Correct
11,511,445,A,39.70590116958559,59.926472836791156,1.9852950584792795,0.9413228340980568,A,564.7911000005479,Correct
11,511,446,A,30.12893194049287,60.910461210657644,1.5064465970246435,0.9567792873308406,A,443.14270000086253,Correct
11,511,447,A,65.1564701431368,80.28466604228839,3.25782350715684,1.2611085851718156,A,535.8249000000797,Correct
11,511,448,A,46.610344834179614,55.595889326024285,2.330517241708981,0.8732981873821454,B,1568.9394999999422,Incorrect
11,511,449,B,63.54170182659086,55.63606650408278,3.177085091329543,0.8739292890192982,B,543.8467000003584,Correct
11,511,450,B,62.92679102702945,52.18434305257774,3.1463395513514727,0.819709743831939,B,535.5960000006235,Correct
11,511,451,B,52.03274741230018,31.3816334754352,2.601637370615009,0.4929415459203738,B,546.6702000003352,Correct
11,511,452,A,61.637257843553584,77.67926857571092,3.0818628921776794,1.2201830974684094,A,1034.9294999996346,Correct
11,511,453,A,64.61438950505475,81.8552809782885,3.2307194752527373,1.2857797468945975,A,463.10000000084983,Correct
11,511,454,B,67.55465336639523,45.36163194756389,3.3777326683197613,0.7125388484065539,B,1032.7832000002672,Correct
11,511,455,A,48.20235576027162,64.09711598208808,2.410117788013581,1.0068351434281042,A,516.3959000001341,Correct
11,511,456,B,79.7158478824809,65.72117508662078,3.985792394124045,1.0323458041870819,B,519.7017000000415,Correct
11,511,457,A,57.5106639475099,81.28966503713278,2.875533197375495,1.276895072467157,A,514.205999999831,Correct
11,511,458,A,52.82194592278434,81.09397752111448,2.6410972961392165,1.2738212201535453,A,670.3723999999056,Correct
11,511,459,A,23.353947172848226,44.99169146873797,1.1676973586424113,0.7067278369538289,A,573.818100000608,Correct
11,511,460,B,83.03921666734226,61.897965961186,4.151960833367113,0.9722909756790652,B,657.4325000001409,Correct
11,511,461,A,45.69255874231773,61.16800407713067,2.284627937115886,0.9608247612173211,A,6961.47639999981,Correct
11,511,462,B,78.42961251910685,57.97431177040599,3.9214806259553425,0.9106583597741587,B,627.9962999997224,Correct
11,511,463,B,49.52841070032344,19.585696229362878,2.476420535016172,0.3076513969480386,B,551.6164999999091,Correct
11,511,464,A,67.36480318979599,88.52095116559587,3.3682401594897997,1.390483849353084,A,762.9659999993237,Correct
11,511,465,B,69.15186800241717,59.77646495599396,3.457593400120859,0.9389665158165916,B,597.9609000005439,Correct
11,511,466,A,53.40557657249147,69.2240631927109,2.670278828624573,1.0873690418892807,A,1337.85429999989,Correct
11,511,467,B,39.630145758196534,21.811414016513748,1.9815072879098268,0.3426128901934251,B,455.9337000000596,Correct
11,511,468,A,28.11055512128378,59.21500415667773,1.405527756064189,0.9301471102045391,A,508.9250999999422,Correct
11,511,469,A,43.20507758759221,67.91704035930145,2.1602538793796104,1.0668383752317148,A,477.2023999994417,Correct
11,511,470,B,67.80849627800106,41.3389011430779,3.3904248139000526,0.6493499406928411,B,486.5844999994806,Correct
11,511,471,B,31.21040664600159,16.34514611595642,1.5605203323000796,0.25674895479870213,B,495.4336000000694,Correct
11,511,472,B,73.43055708260658,62.21395918400388,3.6715278541303293,0.9772545856160092,B,727.4848999995811,Correct
11,511,473,B,59.13362328202328,52.2484723876361,2.956681164101164,0.8207170850714336,B,462.6479999997173,Correct
11,511,474,B,33.40752433674467,17.626195032218554,1.6703762168372336,0.2768716241197936,B,416.6155999992043,Correct
11,511,475,B,46.12161655127804,38.13766342649966,2.306080827563902,0.5990650162288573,B,479.2269999998098,Correct
11,511,476,B,53.055784059584205,24.788388202135852,2.6527892029792106,0.38937509135080944,B,403.40179999930115,Correct
11,511,477,A,51.066738265696635,76.76957647693851,2.553336913284832,1.205893687395749,A,523.6857999998392,Correct
11,511,478,A,42.90520428420585,55.80730075534333,2.1452602142102926,0.8766190303483135,A,675.143699999353,Correct
11,511,479,A,37.76397658240848,62.29534764124469,1.888198829120424,0.9785330325127829,A,550.1815999996325,Correct
11,511,480,A,41.02804267302128,71.28351923604392,2.051402133651064,1.1197189017699114,A,461.64390000012645,Correct
11,511,481,B,64.26288446165803,42.88073796637367,3.2131442230829013,0.6735690568783422,B,826.9025999998121,Correct
11,511,482,A,24.653920931189973,38.41130391390143,1.2326960465594987,0.603363350953588,A,833.0219999998008,Correct
11,511,483,B,33.25708021716022,14.570546194270477,1.6628540108580112,0.22887360441355425,B,504.48969999979454,Correct
11,511,484,A,67.00830267135626,87.25411782909939,3.350415133567813,1.370584477836784,A,506.4423000003444,Correct
11,511,485,B,49.84932854135405,35.60908887502495,2.4924664270677024,0.5593462600540222,B,471.6900999992504,Correct
11,511,486,A,34.53203632851532,56.39394339038045,1.726601816425766,0.8858339913108894,A,1166.6187999999238,Correct
11,511,487,B,53.413615168771166,36.908620420271795,2.670680758438558,0.5797592538323005,B,545.3820000002452,Correct
11,511,488,B,81.02915481214282,58.777226883738166,4.051457740607141,0.9232705208816616,B,484.70050000014453,Correct
11,511,489,A,35.94768734420979,45.64412253222497,1.7973843672104894,0.7169762001339516,A,683.0617000005077,Correct
11,511,490,A,68.95432850969186,84.38679784545951,3.4477164254845936,1.325544720856313,A,1209.429900000032,Correct
11,511,491,B,61.244823064284525,48.908416143897966,3.0622411532142264,0.7682516042819114,B,554.8251000000164,Correct
11,511,492,B,55.291514911751676,28.26464030039816,2.764575745587584,0.4439799316204443,B,505.99899999997433,Correct
11,511,493,A,66.78378926381332,82.87386866251741,3.339189463190666,1.3017796848236503,A,722.626400000081,Correct
11,511,494,A,40.34971153560689,61.5372128892491,2.0174855767803446,0.9666242796762804,A,522.8432000003522,Correct
11,511,495,A,51.986196750513415,75.52851300895401,2.5993098375256705,1.1863991080274552,A,756.8731999999727,Correct
11,511,496,A,54.5780769821783,76.98939242523713,2.728903849108915,1.2093465482373333,A,660.5675000000701,Correct
11,511,497,A,55.62963059751834,67.39627658134847,2.7814815298759172,1.0586582369363509,A,590.7801000003019,Correct
11,511,498,A,27.191532607141326,55.51283104016701,1.3595766303570662,0.8719935108788006,A,603.7753000000521,Correct
11,511,499,B,47.24024358865528,37.58293387002577,2.362012179432764,0.5903513447321198,B,1211.7431000006036,Correct
11,511,500,A,50.97115955032565,78.69159170907189,2.5485579775162823,1.2360846320625385,A,562.4250999999276,Correct
11,511,501,B,47.913127278876175,32.734202942047574,2.3956563639438087,0.5141876574192703,B,567.1366999995371,Correct
11,511,502,B,56.91688532441917,30.68276040958184,2.8458442662209587,0.4819636734729903,B,674.727100000382,Correct
11,511,503,A,41.277869165264114,69.48144419887973,2.063893458263206,1.0914119732800487,A,551.4228000001822,Correct
11,511,504,B,72.86170230386027,57.0907252617471,3.6430851151930135,0.8967790153520895,B,542.9111000003104,Correct
11,511,505,A,44.090624714259164,51.952063145643564,2.204531235712958,0.8160610995859342,B,3545.403900000565,Incorrect
11,511,506,B,48.77131781894123,40.763999672976496,2.438565890947061,0.6403194095177983,B,955.102199999601,Correct
11,511,507,A,11.762999849947214,32.31753139416624,0.5881499924973607,0.5076425960503508,A,590.4473999999027,Correct
11,511,508,B,82.49195288796102,67.38304740707926,4.124597644398051,1.0584504335528648,B,691.4223000003403,Correct
11,511,509,B,39.74162466204528,18.698469052004633,1.9870812331022643,0.29371486503576927,B,502.5004999997691,Correct
11,511,510,B,51.851956448820786,36.73574661834198,2.5925978224410393,0.5770437585015963,B,507.4348000007376,Correct
11,511,511,B,70.95738725434478,39.393860491170926,3.547869362717239,0.6187973135780189,B,547.1633999995902,Correct
11,511,512,B,44.02609331582787,31.91910221291814,2.2013046657913935,0.5013840851064267,B,508.06769999962853,Correct
11,511,513,A,40.00490482445838,54.44349536102301,2.000245241222919,0.8551964253096993,A,595.2311000000918,Correct
11,511,514,A,16.082890117456863,35.247491741650315,0.804144505872843,0.5536663055651777,A,438.81210000017745,Correct
11,511,515,A,18.138371553248337,39.46941744658153,0.9069185776624168,0.6199841594582467,A,404.628700000103,Correct
11,511,516,B,40.65528184176158,19.937219810309998,2.0327640920880787,0.3131731164453739,B,530.1343000000998,Correct
11,511,517,B,61.23391272739916,31.285320117376344,3.061695636369958,0.49142865922977247,B,438.0473000001075,Correct
11,511,518,A,20.66543101671076,38.0082342256395,1.033271550835538,0.5970319470959459,A,479.1640000003099,Correct
11,511,519,A,53.587244071653515,68.96205518973775,2.679362203582676,1.08325342980267,A,565.2324000002409,Correct
11,511,520,A,24.95244559652044,42.565829972175145,1.2476222798260221,0.6686224936726883,A,470.35539999978937,Correct
11,511,521,A,37.43487446639608,47.80849128415825,1.871743723319804,0.7509740249876161,A,549.5610999996643,Correct
11,511,522,B,80.52768777990673,67.43010788846308,4.026384388995337,1.059189657865814,B,455.52279999992606,Correct
11,511,523,B,37.25596077395429,13.012627574661579,1.8627980386977145,0.20440187596228393,B,619.6719999998095,Correct
11,511,524,A,36.71330902072444,45.237259298686666,1.8356654510362218,0.7105852074064529,A,1923.964900000101,Correct
11,511,525,A,30.840269741680643,47.32486988641768,1.542013487084032,0.743377317836313,A,432.66940000012255,Correct
11,511,526,A,49.92643218620754,64.8767157009394,2.496321609310377,1.0190810671755242,A,733.3942000004754,Correct
11,511,527,B,43.65354389577101,35.54460035792329,2.1826771947885506,0.5583332767961846,B,542.5033999999869,Correct
11,511,528,B,59.76394567353833,42.73704948379486,2.9881972836769166,0.671312003471967,B,449.84389999990526,Correct
11,511,529,B,35.7995027348951,12.169856248776448,1.789975136744755,0.1911636549319996,B,402.1002999998018,Correct
11,511,530,B,72.78868385998726,48.65103974898712,3.6394341929993628,0.7642087453246147,B,786.7079000006925,Correct
11,511,531,A,30.24696612261825,52.2588642404554,1.5123483061309124,0.8208803199138053,A,478.2885000004171,Correct
11,511,532,B,83.75392771539671,58.11374172517539,4.1876963857698355,0.9128485203821282,B,402.71020000000135,Correct
11,511,533,A,35.606688266862044,45.502132965337665,1.7803344133431023,0.7147458332328537,A,1895.6973000003927,Correct
11,511,534,A,45.75868281528052,59.22058472742839,2.287934140764026,0.9302347696049046,A,2020.4041999995752,Correct
11,511,535,A,57.3041107431787,68.98743606084149,2.8652055371589347,1.083652111593676,A,659.0618000000177,Correct
11,511,536,A,40.433464084250716,58.026415109537076,2.0216732042125356,0.9114767971113671,A,503.20019999981014,Correct
11,511,537,A,29.28342880517616,55.3557121738381,1.4641714402588082,0.8695254934978043,A,460.75419999942824,Correct
11,511,538,A,36.356812141621745,54.83955964524177,1.817840607081087,0.8614177885379541,A,421.3164000002507,Correct
11,511,539,B,53.57215197590208,34.29557673624951,2.678607598795104,0.5387136596261324,B,597.0652999994854,Correct
11,511,540,B,58.221895079623366,27.902489334141844,2.9110947539811685,0.4382912775450379,B,459.15879999938625,Correct
11,511,541,B,46.60542977022501,23.97071855326208,2.3302714885112503,0.37653116654098356,B,499.1491999999198,Correct
11,511,542,B,68.41579860511003,57.539127348158274,3.420789930255501,0.9038224988547079,B,986.5941999996721,Correct
11,511,543,B,86.04267965916891,63.84812050947481,4.302133982958446,1.0029239316904093,B,639.3326000006709,Correct
11,511,544,B,77.15058169712573,56.8800602134184,3.857529084856287,0.8934698965111016,B,515.481099999306,Correct
11,511,545,A,64.58913241230802,84.17291777215058,3.2294566206154007,1.32218510052103,A,610.6669000000693,Correct
11,511,546,B,48.654066585480436,22.275282966374995,2.432703329274022,0.3498993266189877,B,430.84779999935563,Correct
11,511,547,A,20.668323417228457,38.76969603999257,1.033416170861423,0.6089929613057498,A,799.3868000003204,Correct
11,511,548,A,19.23247821844492,50.06192959419157,0.9616239109222461,0.7863709511882084,A,433.07670000012877,Correct
11,511,549,A,31.923200916467522,40.936139002622085,1.596160045823376,0.6430233677848408,A,370.720099999744,Correct
