subject,day,trial,cat,x,y,xt,yt,resp,rt,fb
3,401,0,B,70.52360750772988,59.483425916900515,3.526180375386494,0.9343634693544369,B,661.0537000015029,Correct
3,401,1,B,38.442401721418676,18.456894319482657,1.9221200860709338,0.2899202180108495,B,537.5561000000744,Correct
3,401,2,B,61.10187138918117,46.16001188083976,3.0550935694590584,0.7250797710723188,B,644.077400000242,Correct
3,401,3,A,60.58775170105444,79.44185082800708,3.0293875850527217,1.2478696747442162,A,1048.512400000618,Correct
3,401,4,A,36.70029366021453,62.6976093442522,1.8350146830107263,0.9848517445677275,A,1556.0672999999952,Correct
3,401,5,B,68.4751763052489,57.175477359235146,3.423758815262445,0.8981102981863133,B,889.3752000003587,Correct
3,401,6,A,62.51024768727234,77.46467232184628,3.125512384363617,1.2168122273952642,A,639.4338999998581,Correct
3,401,7,B,44.51788850058967,25.561749708097405,2.2258944250294834,0.40152302547929924,B,468.1369999998424,Correct
3,401,8,A,55.52328299916775,73.59876650510404,2.7761641499583876,1.1560867208285268,A,478.9196000001539,Correct
3,401,9,B,42.454264815714225,30.36461811736408,2.1227132407857114,0.47696630603285267,B,461.8651000000682,Correct
3,401,10,A,39.953602372492774,47.436557539947444,1.997680118624639,0.745131703395442,A,3185.7602999989467,Correct
3,401,11,B,36.54230344635779,19.399524933299634,1.8271151723178896,0.3047270250679307,B,556.5404999997554,Correct
3,401,12,A,64.18965730561726,87.39875109091578,3.2094828652808634,1.3728563718007198,A,587.7094999996189,Correct
3,401,13,A,12.678179522549804,38.72959596246267,0.6339089761274902,0.6083630707608682,A,562.3448000005737,Correct
3,401,14,A,65.88180165987312,77.4267241648385,3.294090082993656,1.2162161391388997,A,628.5941999994975,Correct
3,401,15,B,42.3015542142132,14.594478864121008,2.1150777107106595,0.22924953791247032,B,539.7960999998759,Correct
3,401,16,A,55.55341456459411,65.65891017961201,2.7776707282297055,1.0313677493149058,A,1180.3428000002896,Correct
3,401,17,B,75.35034633520208,43.220392865074224,3.7675173167601037,0.6789043435509096,B,425.04420000113896,Correct
3,401,18,B,64.92854785116235,51.36420878266752,3.2464273925581177,0.806827104845403,B,603.8300000000163,Correct
3,401,19,B,72.92191497616906,47.46525567097358,3.6460957488084533,0.7455824925834594,B,450.467500000741,Correct
3,401,20,B,68.90025296498354,43.877465926054754,3.445012648249177,0.6892256230571505,B,463.4285000011005,Correct
3,401,21,B,56.03153042427715,39.76946669162924,2.8015765212138577,0.624697321978032,B,641.0985000002256,Correct
3,401,22,A,48.48050619142316,62.59196239603668,2.424025309571158,0.983192246185787,A,890.4982000003656,Correct
3,401,23,B,56.58654031880631,45.730561468047334,2.8293270159403154,0.7183339797627697,B,443.3515000000625,Correct
3,401,24,B,35.5742488528884,10.476022780012027,1.77871244264442,0.16455698102262553,B,503.8057999990997,Correct
3,401,25,A,12.16949711871635,32.36599305723763,0.6084748559358175,0.5084038300737799,A,473.1861000000208,Correct
3,401,26,B,47.70737093381091,23.62775939049798,2.3853685466905454,0.3711439766098786,B,445.6382999997004,Correct
3,401,27,B,53.51736792557746,25.973550274778752,2.6758683962788727,0.4079915736544504,B,663.009100000636,Correct
3,401,28,A,69.51092684185934,86.20540592009559,3.4755463420929673,1.3541113496914918,A,629.9201999991055,Correct
3,401,29,A,40.05627767245535,47.53509130768029,2.0028138836227676,0.7466794681996421,A,1246.5091000012762,Correct
3,401,30,A,24.79169693712484,40.161069032328385,1.239584846856242,0.630848597161377,A,548.0177000008553,Correct
3,401,31,A,31.132759625165125,59.58501272087794,1.5566379812582563,0.9359591911398225,A,503.34359999942535,Correct
3,401,32,A,62.971287083223444,87.62876260559378,3.1485643541611723,1.3764693842244868,A,534.554300000309,Correct
3,401,33,B,45.193464193410406,32.3447104943664,2.2596732096705203,0.5080695243579508,B,490.1558000001387,Correct
3,401,34,B,39.77044048970574,17.745337286937406,1.9885220244852873,0.2787431062805779,B,464.78860000024724,Correct
3,401,35,A,68.17274519066333,86.65000922340319,3.408637259533167,1.3610951620486564,A,438.31309999950463,Correct
3,401,36,A,43.42466953962027,53.74905210339321,2.1712334769810133,0.8442881361271758,A,1041.0818999989715,Correct
3,401,37,B,53.5933040625447,21.46006659557517,2.679665203127235,0.33709393781103336,B,441.9311999990896,Correct
3,401,38,A,24.915708296300426,39.880055418008,1.2457854148150214,0.6264344456298387,A,446.90909999917494,Correct
3,401,39,B,73.53727911437652,61.01914997587191,3.676863955718826,0.958486566462465,B,541.0138999995979,Correct
3,401,40,A,15.971927787072602,41.406700843260644,0.7985963893536301,0.6504149358928898,A,473.94770000028075,Correct
3,401,41,A,54.37879979525127,83.86062823720266,2.7189399897625632,1.317279667977103,A,469.6213000006537,Correct
3,401,42,B,69.02436366723482,37.917565507217034,3.451218183361741,0.5956077261974138,B,383.5408000013558,Correct
3,401,43,A,47.687603661616386,62.50931361158279,2.384380183080819,0.9818940021154449,A,495.27019999914046,Correct
3,401,44,B,70.53616056255376,49.32599359112427,3.5268080281276877,0.7748108954844661,B,430.76420000033977,Correct
3,401,45,A,63.59512309568139,78.70237611168278,3.1797561547840694,1.2362540330626173,A,493.1288999996468,Correct
3,401,46,B,68.73209713430485,48.962830666235334,3.4366048567152427,0.7691063456000298,B,430.4855000009411,Correct
3,401,47,A,48.912078896275766,79.91831462751662,2.4456039448137883,1.2553539506054197,A,458.40899999893736,Correct
3,401,48,B,80.6896025686707,64.17457910034949,4.034480128433534,1.008051931244375,B,370.41189999945345,Correct
3,401,49,A,25.933517980842524,54.57999961201431,1.296675899042126,0.8573406290701895,A,476.930299999367,Correct
3,401,50,A,63.203514502631066,77.67872514897185,3.160175725131553,1.2201745613411532,A,644.9063999989448,Correct
3,401,51,B,51.58355423381491,29.746937441031157,2.579177711690745,0.4672638006576932,B,509.48849999986123,Correct
3,401,52,A,55.39487451651762,72.87067609804646,2.7697437258258812,1.1446499034587205,A,957.556499999555,Correct
3,401,53,B,39.26530490328878,26.209512600568388,1.963265245164439,0.41169806120057384,B,443.2997999992949,Correct
3,401,54,B,68.05485079370555,37.08411367110988,3.4027425396852777,0.5825158953702382,B,438.6243999997532,Correct
3,401,55,B,77.3344003671533,49.4199541156687,3.8667200183576647,0.7762868239526473,B,457.69360000122106,Correct
3,401,56,A,22.713856068957398,49.18101152188099,1.13569280344787,0.7725335224662814,A,475.3474000008282,Correct
3,401,57,A,40.38949639366114,64.28592469201645,2.019474819683057,1.0098009437083277,A,1150.1374999988911,Correct
3,401,58,A,52.12444927035388,62.908724233346994,2.606222463517694,0.9881679294909456,A,1773.3261000012135,Correct
3,401,59,A,58.220170270051455,86.21750513016354,2.9110085135025723,1.3543014036388106,A,612.2711999996682,Correct
3,401,60,B,62.46817787735963,39.421806361547645,3.1234088938679814,0.6192362862833872,B,472.42350000124134,Correct
3,401,61,A,27.365434447383407,41.58314608530303,1.3682717223691703,0.6531865312736957,A,760.4056999989552,Correct
3,401,62,B,55.063262167154015,23.46944494131633,2.753163108357701,0.36865717905734763,B,413.98560000016005,Correct
3,401,63,B,39.21066689970782,30.15081565861439,1.9605333449853908,0.47360790486421533,A,1036.3042000008136,Incorrect
3,401,64,A,33.5116002034969,42.425287620174664,1.6755800101748448,0.6664148595698737,B,1460.6233000013162,Incorrect
3,401,65,A,67.16343136901178,85.16299086729266,3.358171568450589,1.3377371323321066,A,738.1432000001951,Correct
3,401,66,A,47.56059295376595,57.09635545808124,2.3780296476882974,0.8968674542692977,A,1739.5469999992201,Correct
3,401,67,B,70.1452235763249,59.76351992100345,3.5072611788162447,0.9387631756824585,B,751.1635000009846,Correct
3,401,68,B,49.023141296004326,40.40740158887384,2.451157064800216,0.634717979911293,B,494.59400000159803,Correct
3,401,69,B,70.02264658214776,49.83697055677938,3.501132329107388,0.7828373028917446,B,473.41700000106357,Correct
3,401,70,B,32.65358188981216,18.163484283509952,1.632679094490608,0.2853113439433427,B,1029.0306999995664,Correct
3,401,71,A,21.761938647752118,35.48497229790114,1.088096932387606,0.5573966414196176,A,721.1635000003298,Correct
3,401,72,B,53.67975818249913,40.486722354301804,2.6839879091249568,0.6359639475810209,B,454.96280000043043,Correct
3,401,73,A,31.331122273286518,46.67545205602213,1.566556113664326,0.7331762864109087,A,718.9823999997316,Correct
3,401,74,B,54.60235999539842,36.9854396668073,2.730117999769921,0.5809659277351518,B,449.2369999989023,Correct
3,401,75,A,37.485789359006446,65.1634132321675,1.8742894679503224,1.0235845014650666,A,746.0592999996152,Correct
3,401,76,A,35.479463864722426,61.67104344145794,1.7739731932361211,0.9687264850745063,A,558.481900001425,Correct
3,401,77,A,44.10492405015978,55.43523290482392,2.205246202507989,0.8707746022191699,B,720.4868000007991,Incorrect
3,401,78,B,84.12899666553761,60.873916773782184,4.2064498332768805,0.9562052486587529,B,578.9244999996299,Correct
3,401,79,A,44.50194969482647,73.07355741531241,2.2250974847413234,1.147836755738087,A,560.1818000013736,Correct
3,401,80,A,34.41118042343753,50.42603637528866,1.7205590211718766,0.7920903271312928,A,730.6983999988006,Correct
3,401,81,B,58.56573392189941,45.64637154991668,2.9282866960949705,0.717011527621242,B,448.20569999865256,Correct
3,401,82,A,60.25972333415359,75.28943044984165,3.0129861667076794,1.182643607970911,A,530.7403000006161,Correct
3,401,83,A,48.256694193488315,61.00122597614655,2.412834709674416,0.9582050169331644,A,1211.0288999992918,Correct
3,401,84,A,26.845087637849055,42.92838268137815,1.3422543818924526,0.6743174583115445,A,622.3523999997269,Correct
3,401,85,B,55.05814080591018,29.86061072620054,2.752907040295509,0.469049376445681,B,404.97359999972105,Correct
3,401,86,A,24.779159934438866,47.692390687323154,1.2389579967219433,0.7491503210771433,A,536.3083000011102,Correct
3,401,87,A,58.267889251194546,67.9711319235276,2.9133944625597277,1.0676880435356848,A,1182.9509999988659,Correct
3,401,88,A,60.9587460902938,76.8983155604046,3.04793730451469,1.2079159161899837,A,504.902900000161,Correct
3,401,89,B,55.53097832057905,38.318935756780284,2.7765489160289523,0.6019124353344009,B,364.773299999797,Correct
3,401,90,A,21.667109889880948,44.084262222318124,1.0833554944940473,0.6924739716828033,A,480.1098000007187,Correct
3,401,91,B,55.73031654528504,28.592677555530997,2.786515827264252,0.4491327287745897,B,430.20029999934195,Correct
3,401,92,B,76.6046984255661,57.02228397177352,3.8302349212783047,0.8957039420831734,B,469.93429999929504,Correct
3,401,93,B,75.56164199848268,59.38923691242288,3.7780820999241342,0.9328839519318575,B,465.2373999997508,Correct
3,401,94,B,55.35646950332542,35.25440067371126,2.767823475166271,0.5537748308162117,B,1371.748600000501,Correct
3,401,95,A,15.758598895940544,32.49823344733624,0.7879299447970272,0.5104810572639882,A,601.2821999993321,Correct
3,401,96,A,35.289132738863415,58.27762882302342,1.764456636943171,0.9154228528952157,A,670.8079999989423,Correct
3,401,97,B,48.21625262525505,28.116069523961958,2.4108126312627522,0.4416461873214938,B,449.0585000003193,Correct
3,401,98,B,39.791419270365566,22.36295938544634,1.9895709635182783,0.3512765445892257,B,608.5034000006999,Correct
3,401,99,A,59.742024342532005,74.32819402889868,2.9871012171266,1.167544541578924,A,536.8232999990141,Correct
3,401,100,A,28.528370965430923,40.450613678317076,1.4264185482715461,0.6353967538249986,A,955.057900000611,Correct
3,401,101,A,59.36901581117563,70.25555167305212,2.968450790558782,1.1035716250497931,A,701.2630999997782,Correct
3,401,102,A,42.50977845340017,61.21297653363964,2.1254889226700087,0.9615311869122335,A,512.0422999989387,Correct
3,401,103,A,35.724194984228845,49.115338216885235,1.7862097492114424,0.7715019286037232,A,812.4712000008003,Correct
3,401,104,A,66.43746976378979,80.30102882783234,3.32187348818949,1.2613656112061014,A,524.1838000001735,Correct
3,401,105,B,58.93879689017852,51.55546175129612,2.9469398445089263,0.8098312994515074,B,522.8191000005609,Correct
3,401,106,A,46.79004379245989,77.02731095283902,2.3395021896229946,1.2099421710760785,A,526.4346999992995,Correct
3,401,107,B,51.26373754415138,44.2834320958317,2.5631868772075688,0.6956025247400367,B,438.7175000010757,Correct
3,401,108,A,28.365750602710577,40.70385678443364,1.4182875301355289,0.6393746872337389,A,1833.251600000949,Correct
3,401,109,B,71.39082053865341,51.418167331628396,3.569541026932671,0.8076746837504724,B,391.62969999961206,Correct
3,401,110,A,16.23540507157687,40.350585926019185,0.8117702535788436,0.6338255215661278,A,484.2983999988064,Correct
3,401,111,A,53.67064024725326,69.88236315509641,2.683532012362663,1.0977095935177246,A,870.8241000003909,Correct
3,401,112,B,32.860136775974226,19.355228588474294,1.6430068387987113,0.30403121971050995,B,552.204100000381,Correct
3,401,113,A,40.892889904153606,61.768684551315324,2.04464449520768,0.9702602280415878,A,592.4721999999747,Correct
3,401,114,A,51.24859732544083,70.62420641758195,2.562429866272041,1.109362440235423,A,1063.9630000005127,Correct
3,401,115,A,57.57258787797326,81.61867827439596,2.878629393898663,1.2820632003127561,A,545.0897999999142,Correct
3,401,116,B,83.39072050374983,65.5393958472725,4.169536025187492,1.0294904225725234,B,452.6897999985522,Correct
3,401,117,A,19.345927418841125,48.41615401547614,0.9672963709420563,0.760519168850459,A,432.81820000083826,Correct
3,401,118,B,77.25417415392147,59.38840943424191,3.8627087076960733,0.9328709539349858,B,544.5466999990458,Correct
3,401,119,A,65.08513049985875,80.06840725417058,3.2542565249929374,1.25771160007169,A,629.5669000010093,Correct
3,401,120,A,26.808210133726938,48.08839995500729,1.3404105066863468,0.7553708201076931,A,570.5611000012141,Correct
3,401,121,B,68.6591395835769,43.94190057850273,3.4329569791788455,0.6902377602109863,B,459.10949999961304,Correct
3,401,122,A,64.672794343672,79.41802304162303,3.2336397171835993,1.247495388750939,A,522.3166000014317,Correct
3,401,123,A,31.55143390998154,60.08132261949236,1.577571695499077,0.9437552087967773,A,587.971999999354,Correct
3,401,124,B,51.19106987413467,24.849355213881644,2.5595534937067335,0.39033275893186903,B,555.4429999992863,Correct
3,401,125,A,58.62245547539851,68.8002668120361,2.9311227737699257,1.0807120639085512,B,608.1584000003204,Incorrect
3,401,126,B,63.15551932883986,49.161123266227364,3.157775966441993,0.7722211184770106,B,832.7072000010958,Correct
3,401,127,A,60.883843105273,71.50407751240745,3.04419215526365,1.1231834230734719,A,1593.8251000006858,Correct
3,401,128,B,34.19596350680265,16.720727028489087,1.7097981753401326,0.262648565976908,B,607.6398999994126,Correct
3,401,129,B,80.32666176544211,50.05026969041421,4.016333088272106,0.7861877978479658,B,425.301600000239,Correct
3,401,130,B,82.12627181806182,56.12407793377325,4.106313590903091,0.8815949546312153,B,440.23229999947944,Correct
3,401,131,A,38.016975895243405,58.12797326254542,1.9008487947621702,0.9130720688483831,A,568.2528999986971,Correct
3,401,132,B,51.631759409056386,23.23812797410167,2.5815879704528193,0.36502366063308633,B,530.4720000003726,Correct
3,401,133,B,57.62664251835396,42.682155958992716,2.881332125917698,0.6704497380007267,B,491.8809999999212,Correct
3,401,134,A,21.605194261293526,53.321162896435666,1.0802597130646763,0.8375668681815347,A,522.4835999997595,Correct
3,401,135,B,55.52350472424044,41.885719171331885,2.776175236212022,0.657939338194907,B,592.0311999998376,Correct
3,401,136,B,51.372616402690646,42.11526105902163,2.568630820134532,0.6615449737351932,B,579.9026000004233,Correct
3,401,137,B,75.06908318812405,43.737493298713524,3.753454159406203,0.6870269381683561,B,395.0944999996864,Correct
3,401,138,A,12.889141717918793,37.160426056185415,0.6444570858959396,0.5837146075118942,A,482.8231000010419,Correct
3,401,139,B,51.89482366215388,35.89400636779572,2.5947411831076943,0.5638217335648613,B,462.1337999997195,Correct
3,401,140,B,61.61042402559564,32.666997726399984,3.080521201279782,0.5131320003604634,B,487.84539999905974,Correct
3,401,141,A,42.4790234221013,67.0617433395649,2.123951171105065,1.0534034010625066,A,531.4183000009507,Correct
3,401,142,B,66.20951598422982,37.61758995714738,3.310475799211491,0.5908957212756369,B,714.893000000302,Correct
3,401,143,B,48.08185464208146,37.03096512811407,2.404092732104073,0.5816810400091149,B,375.8835000007821,Correct
3,401,144,A,51.00602561519583,81.98308673536332,2.5503012807597916,1.287787315032161,A,476.3168000008591,Correct
3,401,145,B,40.43519784544444,16.758015402034317,2.021759892272222,0.2632342903788781,B,895.6359000003431,Correct
3,401,146,B,80.6761665503434,64.48361891771609,4.0338083275171694,1.0129063173439032,B,936.2279000015405,Correct
3,401,147,A,49.052369777899145,59.717229034163395,2.452618488894957,0.9380360401323341,A,3903.122199999416,Correct
3,401,148,A,43.550134516900265,60.414883748099285,2.177506725845013,0.9489947747525506,A,774.3413999996847,Correct
3,401,149,B,45.83039171762075,18.065134142144913,2.2915195858810375,0.28376646353538304,B,630.3640000005544,Correct
3,401,150,A,61.324524891688895,75.22483839963968,3.0662262445844446,1.181628998418937,A,590.083200000663,Correct
3,401,151,A,46.75153641514987,60.84372041839533,2.3375768207574934,0.9557309254175104,A,840.8213999991858,Correct
3,401,152,B,45.210526155118885,16.702295300788183,2.2605263077559443,0.2623590410752174,B,580.4680999990524,Correct
3,401,153,A,30.403009596275805,58.34693509473083,1.5201504798137901,0.9165115132654343,A,793.4712999995099,Correct
3,401,154,B,55.72266713288094,34.84641317820413,2.786133356644047,0.5473661782230033,B,470.42319999854953,Correct
3,401,155,B,75.30225332839422,61.1486656212872,3.7651126664197108,0.9605209934632731,B,901.896499999566,Correct
3,401,156,A,42.52645806512503,64.83013130448465,2.1263229032562516,1.0183493211871533,A,747.4457999996957,Correct
3,401,157,A,64.5637964420414,80.7535745219946,3.2281898221020695,1.2684741823470704,A,717.3662999994121,Correct
3,401,158,A,27.830840947867948,55.006726626793885,1.3915420473933975,0.8640436413437887,A,1014.4899999995687,Correct
3,401,159,A,16.65324700562372,33.973537249391995,0.8326623502811858,0.5336550751957454,A,808.4834999990562,Correct
3,401,160,B,46.742893204266394,23.462535233620837,2.33714466021332,0.36854864162267453,B,439.64930000038294,Correct
3,401,161,A,22.456224289668885,52.2579333721543,1.1228112144834441,0.820865697868724,A,539.2324999993434,Correct
3,401,162,A,52.61447674146011,82.17508578384091,2.6307238370730057,1.2908032290331282,A,498.16740000096615,Correct
3,401,163,A,46.26507131268358,59.682912068827115,2.313253565634179,0.9374969905013643,B,893.2076000000961,Incorrect
3,401,164,A,60.53118853732727,74.50277171016025,3.026559426866363,1.1702868013835845,A,913.0844999999681,Correct
3,401,165,B,82.2550393488693,57.42662797464013,4.112751967443465,0.9020553628278176,B,439.456699999937,Correct
3,401,166,A,18.368587882912514,33.18403697576812,0.9184293941456257,0.5212536338976259,A,591.1887000002025,Correct
3,401,167,B,80.93077798005439,57.4839428714878,4.046538899002719,0.9029556631222072,B,535.1933000001736,Correct
3,401,168,A,60.316006325086484,74.16951987887651,3.015800316254324,1.1650520938588032,A,568.6186000002635,Correct
3,401,169,A,17.88131575296585,34.501116428586414,0.8940657876482925,0.541942269563466,A,504.6177999993233,Correct
3,401,170,B,82.14691673835317,57.364029504533704,4.107345836917658,0.9010720683587561,B,384.624199999962,Correct
3,401,171,A,29.846985193864313,48.32378420922957,1.4923492596932157,0.7590682273268702,A,517.9044999986218,Correct
3,401,172,A,28.757889112246037,44.46804119421638,1.437894455612302,0.6985023576763925,A,744.1015000003972,Correct
3,401,173,A,51.98740465405582,63.190182321481686,2.5993702327027908,0.9925890628008325,A,1344.6689999982482,Correct
3,401,174,B,60.06906380591753,35.98633791550502,3.0034531902958763,0.5652720741247521,B,545.2260000001843,Correct
3,401,175,A,36.642763026258216,60.03647472462663,1.832138151312911,0.9430507397115816,A,710.2450000002136,Correct
3,401,176,A,63.05957214687717,78.47986338148557,3.1529786073438584,1.2327588112700285,A,542.8148999999394,Correct
3,401,177,B,77.46012169671022,45.87672557347307,3.873006084835511,0.72062992016189,B,404.6263000000181,Correct
3,401,178,A,15.562018107069548,31.83877517842508,0.7781009053534774,0.5001223109991865,A,442.71180000032473,Correct
3,401,179,A,48.22079798663961,73.6051589348609,2.4110398993319806,1.1561871328803404,A,548.0865999998059,Correct
3,401,180,A,47.244021455769456,67.13231455205873,2.362201072788473,1.0545119310761344,A,515.5470999998215,Correct
3,401,181,A,38.939328209418655,56.79178998573277,1.9469664104709326,0.8920833510169623,A,702.9026999989583,Correct
3,401,182,B,46.32456552548379,24.299345719037483,2.3162282762741895,0.38169322998983374,B,439.45020000137447,Correct
3,401,183,A,67.01934496657387,86.81400019934796,3.350967248328693,1.363671126275072,A,443.07819999994535,Correct
3,401,184,B,56.54051144460234,37.08262267471713,2.827025572230117,0.5824924748536682,B,566.1204999996698,Correct
3,401,185,B,57.65904526834536,40.43636977084704,2.882952263417268,0.6351730110496673,B,463.4915999995428,Correct
3,401,186,A,21.37553915579025,36.52170115473575,1.0687769577895125,0.5736815402215983,A,505.18489999922167,Correct
3,401,187,A,19.41156066341896,46.15496299263446,0.9705780331709479,0.7250004633218459,A,480.62319999917236,Correct
3,401,188,A,59.02498713793335,74.33386671909989,2.9512493568966676,1.1676336479882352,A,699.9451000010595,Correct
3,401,189,A,44.922175091618314,56.7896426433355,2.246108754580916,0.8920496206414621,A,535.5366000003414,Correct
3,401,190,B,76.87133842102297,63.05783218009764,3.8435669210511487,0.990510111641464,B,665.1958999991621,Correct
3,401,191,A,37.68660654314106,65.39773672914912,1.884330327157053,1.0272652463484713,A,514.8973999985174,Correct
3,401,192,B,42.929222290960254,28.760643256000648,2.1464611145480124,0.4517711278278424,B,459.19250000042666,Correct
3,401,193,A,66.49902972348366,83.6689096091305,3.324951486174183,1.314268158809564,A,511.9314999992639,Correct
3,401,194,B,60.41466578821422,44.52158940680762,3.0207332894107113,0.6993434910328399,B,618.1323999990127,Correct
3,401,195,B,53.54485865268692,34.31497900262788,2.6772429326343463,0.5390184297137187,B,500.9044999987964,Correct
3,401,196,B,46.46214121950629,25.220515214101944,2.323107060975315,0.39616292658186136,B,475.8302999998705,Correct
3,401,197,B,53.02171454331166,38.09280309629376,2.651085727165583,0.598360351809795,B,473.88910000154283,Correct
3,401,198,A,56.19503919681709,75.23848220536873,2.8097519598408547,1.1818433148181637,A,531.5473000009661,Correct
3,401,199,A,16.35600503424388,36.85667317838692,0.817800251712194,0.5789432684649016,A,599.7110999996949,Correct
3,401,200,A,47.42693619840093,74.96951307965192,2.3713468099200465,1.1776183576711918,A,556.1708000004728,Correct
3,401,201,B,77.9093197706281,50.798296616829795,3.895465988531405,0.7979377773315387,B,424.0577000000485,Correct
3,401,202,A,18.76542664794032,34.328075388846,0.938271332397016,0.5392241472673759,A,421.8416999992769,Correct
3,401,203,A,20.86988377332285,33.64273448747478,1.0434941886661426,0.5284588375626137,A,518.4212000003754,Correct
3,401,204,A,39.25059313016728,66.9109962321504,1.962529656508364,1.0510354710364902,A,468.21210000052815,Correct
3,401,205,B,39.09018113872825,27.432201961354103,1.9545090569364123,0.43090402076790785,B,624.0740000012011,Correct
3,401,206,A,29.767509108435657,42.502039861807035,1.4883754554217827,0.6676204809621675,A,680.9345000001485,Correct
3,401,207,B,66.05302459096202,57.421623666892444,3.3026512295481014,0.9019767553455356,B,567.0399999999063,Correct
3,401,208,A,41.03130421122536,49.15321378207957,2.051565210561268,0.7720968765905487,A,972.2984999989421,Correct
3,401,209,B,85.26573466603557,67.17866420918436,4.263286733301778,1.0552399897877458,B,563.1699000005028,Correct
3,401,210,B,51.561925891927565,38.32662107979292,2.5780962945963783,0.6020331561059858,B,523.7622999993619,Correct
3,401,211,B,36.754613073955824,21.024540451252992,1.837730653697791,0.3302527091337892,B,1601.0408000001917,Correct
3,401,212,B,40.00657279429866,14.51827978801095,2.000328639714933,0.2280526056238819,B,545.5829000002268,Correct
3,401,213,B,82.8494863389507,66.48934951882262,4.142474316947535,1.044412259951486,B,433.8882000010926,Correct
3,401,214,A,37.917001309861014,61.43553484519897,1.8958500654930506,0.9650271246951843,A,539.8592999990797,Correct
3,401,215,B,55.27655693390729,29.525732966897703,2.763827846695364,0.463789128903299,B,497.09679999978107,Correct
3,401,216,A,49.42826566035376,66.67071006577551,2.471413283017688,1.047261064761277,A,562.7787999983411,Correct
3,401,217,B,62.09490723838706,32.73342653109221,3.1047453619193526,0.5141754615845026,B,477.5471999982983,Correct
3,401,218,A,60.34759377941893,82.55492626106957,3.0173796889709465,1.2967697492971162,A,473.70909999881405,Correct
3,401,219,B,84.46061644486599,66.83221628194401,4.2230308222433,1.0497979984723973,B,546.2574000011955,Correct
3,401,220,A,25.45919126014237,51.61081256151287,1.2729595630071184,0.8107007479452432,A,452.23669999904814,Correct
3,401,221,A,53.86423082396165,62.04646665420232,2.693211541198082,0.9746236191102304,A,503.2556999994995,Correct
3,401,222,B,51.15793294058523,28.111602079498834,2.5578966470292617,0.44157601286796544,B,450.30969999970694,Correct
3,401,223,B,84.98114546070286,67.82965530437957,4.2490572730351435,1.065465733998834,B,645.6376999994973,Correct
3,401,224,A,29.58652789630309,40.91783818614887,1.4793263948151545,0.642735899231906,A,830.7523999992554,Correct
3,401,225,B,57.01818140091514,30.614481309976973,2.850909070045757,0.4808911478844285,B,426.9045000000915,Correct
3,401,226,A,67.4130392044708,85.32326031157179,3.3706519602235403,1.3402546388758174,A,545.5794000008609,Correct
3,401,227,A,17.939159476887376,39.374715809311205,0.8969579738443687,0.6184965896185899,A,610.6789999994362,Correct
3,401,228,B,74.09302529317836,48.134005273588215,3.704651264658918,0.7560871867767855,B,396.04460000009567,Correct
3,401,229,A,21.657370773177554,48.157160411466876,1.0828685386588777,0.7564509068320479,A,449.36430000052496,Correct
3,401,230,A,48.08095754848825,59.31572939551268,2.4040478774244125,0.9317292985563139,A,594.9880999996822,Correct
3,401,231,A,58.6892367407358,67.38874884280875,2.9344618370367903,1.0585399914958782,A,521.9249000001582,Correct
3,401,232,A,50.323434995039314,67.06699816951108,2.516171749751966,1.0534859437382806,A,473.63529999893217,Correct
3,401,233,B,51.71716253801592,33.22264891452164,2.585858126900796,0.5218601488132706,B,433.63590000080876,Correct
3,401,234,B,64.55207309911147,52.97520991937992,3.227603654955573,0.8321326515255055,B,1209.1045000015583,Correct
3,401,235,A,35.381367709320955,66.92311728576945,1.7690683854660478,1.051225868101507,A,589.2692999987048,Correct
3,401,236,A,29.96367997196228,45.361444761031414,1.498183998598114,0.7125359080873773,A,515.6504999995377,Correct
3,401,237,A,36.38200238311141,62.71083771229389,1.8191001191555705,0.9850595352870212,A,472.0125999992888,Correct
3,401,238,A,33.26943297625758,50.860346815844835,1.6634716488128791,0.7989124595784359,A,677.032199999303,Correct
3,401,239,B,36.23792513391956,12.966798125684331,1.811896256695978,0.20368198866115897,B,621.0711000003357,Correct
3,401,240,B,79.91325453513129,55.3897270017683,3.995662726756564,0.8700597971654975,B,588.5245999998006,Correct
3,401,241,B,42.465788399941744,18.239721372575286,2.123289419997087,0.2865088733380363,B,481.5285999993648,Correct
3,401,242,A,59.49671123268965,73.69598227056028,2.9748355616344826,1.157613782501379,A,630.7565999995859,Correct
3,401,243,B,42.78985574641046,22.00332611078141,2.139492787320523,0.3456274383208568,B,502.776500001346,Correct
3,401,244,B,67.71411407356548,35.36797590771637,3.3857057036782745,0.5555588664201127,B,430.5227000004379,Correct
3,401,245,B,43.84493869371262,18.161296167678575,2.192246934685631,0.28527697310023736,B,1175.3699999990204,Correct
3,401,246,B,39.00676445635651,30.199496268301765,1.9503382228178254,0.47437257809304595,B,1108.9019999999437,Correct
3,401,247,A,59.083966432468785,67.69918315361907,2.9541983216234393,1.0634162822471978,A,732.9248000005464,Correct
3,401,248,B,66.12950948392749,49.7851026854736,3.306475474196375,0.7820225642744868,B,380.3716999991593,Correct
3,401,249,A,35.74985067008021,67.71261444049156,1.7874925335040104,1.0636272604080323,A,454.3322999998054,Correct
3,401,250,B,33.41847099527381,10.46485042318746,1.6709235497636905,0.1643814860520088,B,486.6265000000567,Correct
3,401,251,A,22.058674364400847,49.559771158348326,1.1029337182200423,0.778483064923292,A,484.9746999989293,Correct
3,401,252,B,70.20583065667029,57.04851228172136,3.5102915328335142,0.8961159354124144,B,648.0102999994415,Correct
3,401,253,A,40.363898501624746,67.74523780715437,2.0181949250812377,1.0641397070532481,A,876.2131000003137,Correct
3,401,254,A,59.18177276916716,83.97730141889289,2.959088638458358,1.3191123660294481,A,558.6987999995472,Correct
3,401,255,B,45.16533700476488,31.418462209592228,2.2582668502382437,0.4935200503237175,B,536.9303000006767,Correct
3,401,256,B,44.93675650524851,36.96316401136832,2.2468378252624257,0.5806160225577467,B,520.6345000005967,Correct
3,401,257,A,30.453599797145554,52.40653645606634,1.5226799898572776,0.8231999496523184,A,501.0777000006783,Correct
3,401,258,B,75.14130854251223,51.53231527025979,3.7570654271256116,0.8094677153776063,B,373.91609999940556,Correct
3,401,259,B,65.56618207550918,53.33077684820808,3.2783091037754586,0.8377178837828355,B,369.780199998786,Correct
3,401,260,B,57.327022745330815,39.94512562819247,2.8663511372665407,0.6274565661012542,B,399.61829999992915,Correct
3,401,261,A,27.779801628060646,60.75477645612682,1.3889900814030325,0.9543337969252907,A,511.34450000063225,Correct
3,401,262,A,47.111892357338085,69.3151239147094,2.3555946178669043,1.0887994203655862,A,513.2988000004843,Correct
3,401,263,B,75.55325867990737,48.29666534562158,3.7776629339953685,0.7586422452134474,B,426.4014000000316,Correct
3,401,264,A,32.13051427973033,64.5298870483996,1.6065257139865166,1.0136330954411568,A,523.5633000011148,Correct
3,401,265,A,30.128653011906415,54.43995647499217,1.5064326505953207,0.8551408366179174,A,528.2584000015049,Correct
3,401,266,B,83.05240536893147,66.74435001899828,4.152620268446574,1.0484177984415537,B,412.68440000021656,Correct
3,401,267,B,33.910232499977944,19.071097876716152,1.6955116249988973,0.2995681049269168,B,554.7590999995009,Correct
3,401,268,A,57.926699925151944,68.11899045812652,2.8963349962575973,1.0700105999660174,A,520.2977999997529,Correct
3,401,269,A,14.696180447872873,40.73493584819492,0.7348090223936437,0.6398628760257034,A,498.2319999999163,Correct
3,401,270,B,68.35343298827988,42.862915415287105,3.417671649413994,0.6732891009005333,B,470.4012000001967,Correct
3,401,271,A,59.94107578793994,82.8563025817887,2.997053789396997,1.301503757472802,A,522.8291999992507,Correct
3,401,272,B,82.02199781274865,60.57183376680484,4.101099890637432,0.9514601398812813,B,450.82649999858404,Correct
3,401,273,B,52.310606485787886,31.262399637375893,2.6155303242893946,0.49106862517184163,B,397.6225999995222,Correct
3,401,274,A,31.52416171593601,61.23591048415802,1.5762080857968004,0.9618914325645652,A,448.6747999999352,Correct
3,401,275,A,42.098659454269054,53.25731118469405,2.1049329727134527,0.8365638878389019,B,3207.002499999362,Incorrect
3,401,276,B,50.50220020445347,39.018355421225436,2.5251100102226736,0.6128988937323866,B,511.3251999991917,Correct
3,401,277,A,40.72658890160934,60.77339012509029,2.036329445080467,0.9546261797536507,A,573.1339000012667,Correct
3,401,278,A,24.088594120413347,34.93859937763217,1.2044297060206675,0.5488142356574308,A,750.2652000002854,Correct
3,401,279,B,73.83532139714649,59.58487752761265,3.6917660698573243,0.9359570675289774,B,396.0599000001821,Correct
3,401,280,B,74.87874996142024,45.91170276561128,3.743937498071012,0.721179340611213,B,503.12809999923047,Correct
3,401,281,A,25.214558811523652,49.6395690169539,1.2607279405761826,0.7797365267551295,A,456.7661000000953,Correct
3,401,282,A,39.28885702578245,61.153891995580636,1.9644428512891223,0.9606030891586991,A,505.0976000002265,Correct
3,401,283,B,38.233834195043336,28.37006664298726,1.9116917097521666,0.4456359647373081,B,561.1036000009335,Correct
3,401,284,B,74.09665087764625,46.54472577578869,3.7048325438823126,0.7311228428028461,B,625.3704000009748,Correct
3,401,285,B,46.41196633425096,18.71916361972877,2.320598316712548,0.29403993454542615,B,454.36829999925976,Correct
3,401,286,B,45.94381429859535,28.859932177309815,2.2971907149297675,0.453330754556681,B,370.0040000003355,Correct
3,401,287,A,21.13673113138658,34.728737352803094,1.056836556569329,0.5455177306800782,A,1026.7995000012888,Correct
3,401,288,B,56.35080883035983,46.785814972933956,2.8175404415179917,0.7349098630559033,B,598.6856999988959,Correct
3,401,289,B,44.16895752281506,31.76037631522889,2.208447876140753,0.4988908245358517,B,461.0649000005651,Correct
3,401,290,B,70.02518533605131,42.9034820792654,3.5012592668025655,0.6739263205682077,B,401.47430000070017,Correct
3,401,291,B,31.862561652055025,16.517963991746644,1.5931280826027512,0.25946357164365996,B,540.5061999990721,Correct
3,401,292,B,43.59408354502375,32.06647948509919,2.1797041772511876,0.5036990818843771,B,519.5726000001741,Correct
3,401,293,A,37.69465915407195,60.14806960432696,1.8847329577035976,0.9448036679828056,A,595.1727000010578,Correct
3,401,294,B,55.25550360972116,24.83150513365752,2.7627751804860576,0.39005237052737846,B,418.95520000070974,Correct
3,401,295,A,39.13946032466702,51.439762708879364,1.9569730162333512,0.8080139031430881,A,1027.7577000015299,Correct
3,401,296,A,36.387952937203075,48.339846105607066,1.8193976468601536,0.7593205270051816,A,1642.979899999773,Correct
3,401,297,B,65.1032300042496,44.44503784865397,3.25516150021248,0.6981410219692581,B,543.9650999996957,Correct
3,401,298,A,35.04745150276495,48.82020608170414,1.7523725751382475,0.7668660038651074,A,547.2930999985692,Correct
3,401,299,A,51.352143518309695,73.16707615757807,2.567607175915485,1.149305744706461,A,481.8933000005927,Correct
3,401,300,A,43.95717798722085,71.48271546648373,2.1978588993610426,1.1228478688407737,A,444.1427999990992,Correct
3,401,301,B,46.06439348608845,35.449601623616644,2.3032196743044224,0.5568410401671943,B,485.60039999938454,Correct
3,401,302,B,44.34065866321774,33.782672354697304,2.217032933160887,0.5306569764407403,B,581.85659999981,Correct
3,401,303,B,64.57877436358349,45.7825891205179,3.228938718179174,0.7191512282166951,B,537.4317000005249,Correct
3,401,304,A,55.89773969504225,82.51935207696812,2.7948869847521123,1.2962109513199636,A,482.5588000003336,Correct
3,401,305,A,12.47722272787485,34.811585741961096,0.6238611363937424,0.5468191101337808,A,520.0889999996434,Correct
3,401,306,A,44.50094508257029,68.26834454754783,2.2250472541285147,1.0723566485165652,A,493.600100000549,Correct
3,401,307,B,86.75452548449638,67.10497709702491,4.33772627422482,1.054082515336624,B,611.4407999994,Correct
3,401,308,A,61.18438757229822,81.00593699756783,3.0592193786149107,1.2724382828435836,A,525.3671999998915,Correct
3,401,309,A,62.12583778389272,87.98444105878822,3.1062918891946363,1.3820563683024663,A,459.49689999906695,Correct
3,401,310,B,59.14053017748271,27.49768996148979,2.957026508874135,0.4319327038685307,B,455.0661000012042,Correct
3,401,311,B,70.54616494003531,43.41997461702569,3.5273082470017654,0.6820393663795159,B,437.13539999953355,Correct
3,401,312,A,49.00572229991065,72.13886847689055,2.4502861149955324,1.1331546962263983,A,521.602000000712,Correct
3,401,313,A,40.96258288767282,55.46536794151692,2.0481291443836414,0.8712479622686219,A,2566.0245999988547,Correct
3,401,314,A,59.05550706334337,86.84082500541341,2.9527753531671688,1.3640924893434176,A,538.4360999996716,Correct
3,401,315,B,44.323176179494645,33.68617928054301,2.216158808974732,0.529141266776313,B,473.36170000016864,Correct
3,401,316,B,80.8843715988481,54.17745439372351,4.044218579942406,0.851017463567589,B,812.1313999999984,Correct
3,401,317,B,58.72552834593146,32.17925299052087,2.9362764172965727,0.5054705239651387,B,444.9703000009322,Correct
3,401,318,B,63.52828098469212,33.420846060544775,3.176414049234606,0.5249734223028143,B,405.8392000006279,Correct
3,401,319,B,49.22300977536721,22.054006644191613,2.4611504887683604,0.3464235262780643,B,480.5952000006073,Correct
3,401,320,B,34.882315291584455,20.03726667652468,1.744115764579223,0.3147446489449475,B,510.9790999995312,Correct
3,401,321,B,50.704510231183896,43.810415012482416,2.5352255115591946,0.6881723897696738,B,467.45170000031067,Correct
3,401,322,A,20.449532005872246,49.974493720949944,1.0224766002936123,0.784997511703028,A,487.54229999940435,Correct
3,401,323,B,46.005834887118546,27.238542776137837,2.300291744355927,0.4278620294000298,B,433.2211000000825,Correct
3,401,324,A,65.39849770415326,84.58343819147792,3.2699248852076632,1.328633540188567,A,572.8328000004694,Correct
3,401,325,A,29.072529077984115,46.309505295559916,1.4536264538992056,0.7274280081395433,A,686.7583000002924,Correct
3,401,326,B,68.76211598028902,46.225406274542785,3.4381057990144512,0.7261069838065356,B,394.0848999991431,Correct
3,401,327,B,59.029844793741404,29.731229263819365,2.95149223968707,0.4670170571870439,B,398.22989999993297,Correct
3,401,328,B,52.49879634693785,26.733153621256154,2.6249398173468927,0.41992339511912846,B,398.7975000000006,Correct
3,401,329,A,43.67324172456362,72.41155651446813,2.1836620862281806,1.137438069904276,A,514.4304000004922,Correct
3,401,330,B,75.94011829273124,46.185938950205255,3.7970059146365625,0.7254870325255577,B,550.305799999478,Correct
3,401,331,B,69.77922316425335,48.93804488739369,3.488961158212668,0.7687170114964177,B,387.55479999963427,Correct
3,401,332,A,64.15742603234303,88.39840171946915,3.2078713016171516,1.388558847154818,A,464.2330000006041,Correct
3,401,333,A,46.53776214876371,68.94205106014374,2.3268881074381853,1.0829392056698,A,669.4714999994176,Correct
3,401,334,A,65.26061768881569,85.39230928513048,3.2630308844407843,1.341339257616167,A,474.22159999950964,Correct
3,401,335,B,79.6668290644566,59.02938726611991,3.98334145322283,0.927231446905746,B,451.9047999983741,Correct
3,401,336,B,68.13967021670949,44.93335198999986,3.4069835108354742,0.7058114425647394,B,425.42130000038014,Correct
3,401,337,A,16.97799357371487,38.43824487748025,0.8488996786857435,0.6037865386198873,A,470.40990000095917,Correct
3,401,338,A,29.34438802588032,42.46050605853482,1.467219401294016,0.6669680695059894,A,503.85199999982433,Correct
3,401,339,A,39.51813651334828,69.90004838702585,1.9759068256674142,1.0979873924912573,A,459.9636000002647,Correct
3,401,340,A,51.30637942979441,73.14385030254513,2.5653189714897207,1.1489409138287368,A,530.0326000015048,Correct
3,401,341,B,74.34093468776373,44.19744450232869,3.7170467343881866,0.6942518347797921,B,440.6519999993179,Correct
3,401,342,A,32.80879969385072,64.78372082537359,1.6404399846925362,1.0176203070860288,A,509.9296000007598,Correct
3,401,343,B,78.41773271423367,62.129077877209596,3.9208866357116836,0.9759212731667489,B,424.1719000001467,Correct
3,401,344,A,45.794152046004704,57.08377123742483,2.2897076023002354,0.8966697817934708,A,693.4184000001551,Correct
3,401,345,B,34.44328476862027,14.627325596289236,1.7221642384310138,0.22976549317484102,B,504.1832000006252,Correct
3,401,346,A,62.08366408576187,72.1940953781764,3.1041832042880935,1.134022198363199,A,684.0692999994644,Correct
3,401,347,B,55.7910908809999,23.983445279903208,2.789554544049995,0.3767310774955836,B,449.03830000112066,Correct
3,401,348,A,36.50610682114821,60.02110576178263,1.8253053410574103,0.9428093246077615,A,555.791799999497,Correct
3,401,349,A,51.92680178319382,67.76851036728723,2.596340089159691,1.0645052715729666,A,591.9471999986854,Correct
3,401,350,A,22.187812457233086,41.03247478526367,1.1093906228616544,0.644536606719964,A,1057.1165999990626,Correct
3,401,351,A,44.856524654268554,63.95010799584265,2.2428262327134276,1.0045259473800658,A,674.4798999989143,Correct
3,401,352,B,33.83601301507693,15.572188102295936,1.6918006507538466,0.24460735871245645,B,517.5509000000602,Correct
3,401,353,A,40.14114132665851,61.37935319298356,2.0070570663329255,0.964144625365852,A,720.3321999986656,Correct
3,401,354,B,44.436678083382404,31.946380910691943,2.22183390416912,0.5018125778890551,B,467.0666000001802,Correct
3,401,355,A,21.209432001443254,37.93651898707851,1.0604716000721626,0.5959054467628777,A,492.21829999987676,Correct
3,401,356,A,29.052366023156672,57.39945880891224,1.4526183011578337,0.9016285905705432,A,507.95060000018566,Correct
3,401,357,A,63.38624867295099,85.13343682560775,3.1693124336475496,1.3372728985309001,A,543.5476999991806,Correct
3,401,358,B,36.76855394114139,20.84701514482256,1.8384276970570697,0.3274641481412486,B,521.4952000005724,Correct
3,401,359,B,88.9737297326196,63.03532645400898,4.44868648663098,0.9901565925227448,B,546.6123000005609,Correct
3,401,360,B,82.4507057867848,60.57664607298276,4.12253528933924,0.9515357314099581,B,484.8352999997587,Correct
3,401,361,A,60.438774960294644,81.0276806925392,3.021938748014732,1.2727798320055035,A,739.1705999998521,Correct
3,401,362,A,14.117682020778712,32.13955762266127,0.7058841010389356,0.5048469905848924,A,1424.6975000005477,Correct
3,401,363,A,30.7246188519129,48.153042395576975,1.536230942595645,0.7563862211897123,A,698.1610000002547,Correct
3,401,364,B,84.18983347753428,57.470589272909265,4.209491673876714,0.9027459052862405,B,377.6094999993802,Correct
3,401,365,B,51.40360819723024,42.77597517840725,2.5701804098615124,0.6719234468531178,B,448.22089999979653,Correct
3,401,366,B,43.5094232526307,16.29401282751357,2.175471162631535,0.2559457549820724,B,603.0087999988609,Correct
3,401,367,B,43.02237059571404,34.995717438852644,2.151118529785702,0.5497114440650184,B,891.0321999992448,Correct
3,401,368,B,82.35557761325354,60.91798042191846,4.117778880662677,0.9568973988251295,B,774.8788999997487,Correct
3,401,369,A,27.434624931476282,49.17370819621952,1.371731246573814,0.7724188020950572,A,787.34489999988,Correct
3,401,370,A,13.126173756882402,39.7937052072629,0.65630868784412,0.6250780596912752,A,543.7662000003911,Correct
3,401,371,A,17.94738373912063,47.08086731326559,0.8973691869560315,0.7395445343799549,A,566.1333999996714,Correct
3,401,372,A,26.119221247462296,55.985528063810264,1.3059610623731148,0.8794186183630577,A,698.2867999995506,Correct
3,401,373,A,17.312360002001647,37.789658813978704,0.8656180001000823,0.5935985725583013,A,576.691900001606,Correct
3,401,374,B,59.96467547297085,30.124942377470703,2.9982337736485425,0.473201488314389,B,721.7823999999382,Correct
3,401,375,A,15.338188351164856,43.89774403279381,0.7669094175582428,0.6895441508129511,A,442.56229999882635,Correct
3,401,376,A,67.952746793758,86.01500027973384,3.3976373396879,1.351120464886679,A,640.1543000010861,Correct
3,401,377,B,68.71298043938587,36.173021218454565,3.4356490219692937,0.5682044885902229,B,703.8789999987785,Correct
3,401,378,B,79.66422472299274,65.15478906020373,3.983211236149637,1.0234490332886432,B,739.2236999985471,Correct
3,401,379,B,60.177061153912234,41.72714395800877,3.0088530576956116,0.6554484445688205,B,473.3042000007117,Correct
3,401,380,B,73.75266093004109,45.29612929728394,3.6876330465020546,0.7115099351820032,B,462.85679999891727,Correct
3,401,381,B,78.9166072372689,65.07396411409508,3.9458303618634454,1.0221794380040345,B,492.929500000173,Correct
3,401,382,A,36.96244272880684,53.665619821534676,1.8481221364403422,0.8429775849083807,A,682.7045000009093,Correct
3,401,383,B,66.30901226400741,53.908219567778616,3.3154506132003703,0.8467883328111941,B,468.69599999990896,Correct
3,401,384,A,37.72649500081137,66.41502939504055,1.8863247500405687,1.0432448421770477,A,516.1510999987513,Correct
3,401,385,B,59.36048033959528,48.59324113572999,2.968024016979764,0.7633008468306334,B,536.2599000000046,Correct
3,401,386,B,63.72486052203917,32.74653734566345,3.1862430261019585,0.5143814057782006,B,419.60219999964465,Correct
3,401,387,A,19.969361034074794,34.20191139159908,0.9984680517037396,0.5372423678328836,A,651.3270999985252,Correct
3,401,388,B,54.40257005965867,39.98518257857276,2.7201285029829334,0.6280857792064538,B,927.5080999996135,Correct
3,401,389,B,55.277863952722576,25.97265325578499,2.7638931976361287,0.40797748331304573,B,459.13819999987027,Correct
3,401,390,B,58.381576037391866,27.320353658856824,2.9190788018695937,0.4291471117406982,B,463.53850000014063,Correct
3,401,391,B,83.01181531708207,63.45787031795758,4.150590765854104,0.9967938960167466,B,785.7784000007086,Correct
3,401,392,B,65.4717595681825,45.80124621967648,3.2735879784091253,0.7194442932449647,B,416.1253999991459,Correct
3,401,393,B,47.13802325490222,38.26833882212619,2.3569011627451113,0.6011176605433836,B,523.7567000003764,Correct
3,401,394,B,43.17256228141282,22.61619919746843,2.158628114070641,0.355254426254451,B,663.8856000008673,Correct
3,401,395,A,45.0684000546981,73.00899866124773,2.253420002734905,1.1468226692006147,A,817.565100000138,Correct
3,401,396,B,55.970302230186114,40.052242728785274,2.7985151115093054,0.6291391575827351,B,1057.8449999993609,Correct
3,401,397,B,60.47611625369068,51.20248155707533,3.023805812684534,0.8042866995263737,B,1458.4360999997443,Correct
3,401,398,B,82.25523441405977,57.84912411389164,4.112761720702989,0.9086919166640308,B,1088.4773999987374,Correct
3,401,399,A,14.756440047526663,42.93075541890637,0.7378220023763332,0.6743547291854822,A,1055.9998999997333,Correct
3,401,400,B,71.87524086549047,48.208267837485785,3.5937620432745234,0.7572537004026721,B,1224.5449999991251,Correct
3,401,401,B,67.62713000851147,41.8948367365149,3.3813565004255737,0.6580825565738948,B,636.1464000001433,Correct
3,401,402,A,59.334038230032974,80.228541782928,2.966701911501649,1.2602269873673417,A,573.553100000936,Correct
3,401,403,B,71.57101304086946,39.969781286238,3.578550652043473,0.6278438562721805,B,432.8587999989395,Correct
3,401,404,A,29.440401617793352,55.646316020941256,1.4720200808896675,0.8740902880536254,A,821.3147000005847,Correct
3,401,405,B,56.922160035829016,30.9463310267411,2.846108001791451,0.48610383104583854,B,592.6407999995718,Correct
3,401,406,B,58.08114281455573,37.604184761992364,2.9040571407277866,0.5906851529625422,B,792.3602999999275,Correct
3,401,407,A,32.8676938173264,55.39976522416033,1.6433846908663199,0.8702174771941069,A,760.6419999992795,Correct
3,401,408,A,27.445545169010074,42.38353682076588,1.3722772584505036,0.6657590395463531,A,578.043899999102,Correct
3,401,409,A,15.235111115473817,37.00770391008274,0.7617555557736908,0.5813156536507109,A,514.8924999994051,Correct
3,401,410,A,45.6558109189923,62.48915641201938,2.282790545949615,0.9815773735651181,A,587.1898000004876,Correct
3,401,411,B,73.48423372917142,40.5064079711514,3.674211686458571,0.6362731685274013,B,457.0049000012659,Correct
3,401,412,A,29.148687627282598,41.0051367485062,1.4574343813641297,0.6441071818427597,A,900.8760999986407,Correct
3,401,413,B,55.22052520104739,33.28098997516211,2.761026260052369,0.5227765680508242,B,445.7509999992908,Correct
3,401,414,A,61.914977993582816,86.58704385630982,3.095748899679141,1.3601061043752007,A,497.31379999866476,Correct
3,401,415,B,75.72563830090513,48.46837650270614,3.7862819150452567,0.7613394777616287,B,405.75779999926453,Correct
3,401,416,B,46.29246702973839,26.956561886414676,2.3146233514869197,0.42343268394199485,B,396.69019999928423,Correct
3,401,417,A,65.21102191806527,84.73252144236449,3.2605510959032635,1.3309753344173594,A,494.35799999992014,Correct
3,401,418,B,35.99627775533645,20.430856622209273,1.7998138877668226,0.3209271453543951,B,491.351399999985,Correct
3,401,419,A,64.34267615071954,81.07138681372082,3.2171338075359768,1.2734663661516088,A,536.5738999989844,Correct
3,401,420,B,62.05722536335575,30.04883921332246,3.1028612681677874,0.4720060626073737,B,470.11490000113554,Correct
3,401,421,B,64.21685893082369,53.410967640983706,3.210842946541185,0.8389775178101828,B,461.3104000000021,Correct
3,401,422,A,69.2116194272487,87.49642201094848,3.460580971362435,1.37439058302494,A,542.4255999987508,Correct
3,401,423,A,32.98523641134486,57.217553962942546,1.649261820567243,0.8987712359317893,A,717.3672000008082,Correct
3,401,424,B,42.67656597606596,26.268677360852372,2.133828298803298,0.4126274190818716,B,486.9816999998875,Correct
3,401,425,A,54.958082020819035,80.51048714304619,2.7479041010409513,1.2646557747276468,A,575.8603999984189,Correct
3,401,426,A,19.757474822395764,43.28476052537735,0.9878737411197882,0.6799154283945947,A,578.0787000003329,Correct
3,401,427,B,64.34153358305443,55.85337030170261,3.2170766791527217,0.8773426890902962,B,664.4424999994953,Correct
3,401,428,B,58.10856869460755,26.0904819636797,2.9054284347303776,0.4098283323285657,B,509.3603000004805,Correct
3,401,429,A,30.84693386637344,62.23588063091956,1.542346693318672,0.977598926898941,A,640.1824000004126,Correct
3,401,430,B,57.44065032853433,44.949946208822915,2.8720325164267164,0.7060721039444722,B,591.1078999997699,Correct
3,401,431,A,11.296488793190289,36.14120289503896,0.5648244396595145,0.5677046875347628,A,648.2431000003999,Correct
3,401,432,A,41.48856723319519,66.53808268934549,2.0744283616597596,1.0451777588039899,A,543.4228999984043,Correct
3,401,433,B,52.63345878388013,31.961578872518757,2.6316729391940066,0.5020513069151784,B,517.7706000013131,Correct
3,401,434,A,36.027333790904464,53.80577523772586,1.8013666895452232,0.8451791410377157,A,1228.9844999995694,Correct
3,401,435,B,59.27854913729082,37.16076380868303,2.963927456864541,0.5837199129157203,B,471.45979999913834,Correct
3,401,436,B,46.087017283178746,19.58638135562016,2.304350864158937,0.3076621588861219,B,429.5375999990938,Correct
3,401,437,A,43.88411231912929,75.03027574853157,2.1942056159564642,1.1785728154420156,A,531.9103000001633,Correct
3,401,438,B,48.74160457778459,33.17435958231614,2.4370802288892297,0.5211016217567528,B,475.9245000004739,Correct
3,401,439,A,25.960689124756097,51.08429294831548,1.2980344562378048,0.802430197201284,A,543.79020000124,Correct
3,401,440,A,29.937952742342553,57.36031268523984,1.4968976371171276,0.9010136846978145,A,653.9047999995091,Correct
3,401,441,A,59.31572547242003,77.55689858426233,2.965786273621001,1.2182609141376357,A,578.5766999997577,Correct
3,401,442,A,31.87377160219405,53.416199565897095,1.5936885801097025,0.839059700694543,A,567.8537999992841,Correct
3,401,443,B,40.13626762688337,18.756391836092874,2.006813381344168,0.29462471400060475,B,583.8681000004726,Correct
3,401,444,B,76.70623205123157,61.98561001294148,3.8353116025615783,0.9736676852246944,B,544.4478999997955,Correct
3,401,445,A,24.769278188829155,50.24867725504708,1.2384639094414578,0.7893043765853021,A,593.5645999998087,Correct
3,401,446,A,66.79269572995182,88.68435588145707,3.3396347864975904,1.3930506046276412,A,555.7748999999603,Correct
3,401,447,B,52.800761351932074,42.946491401953004,2.640038067596604,0.6746019094291639,B,496.19780000102764,Correct
3,401,448,B,79.11713770641776,60.52106946861973,3.9558568853208884,0.9506627361500664,B,1801.3288000001921,Correct
3,401,449,A,52.479954993089,67.34767954547921,2.62399774965445,1.0578948764819853,A,1808.523100000457,Correct
3,401,450,B,34.761572155857664,22.24210525315709,1.7380786077928831,0.34937817231844626,B,576.0159999990719,Correct
3,401,451,B,60.50060831726406,44.76075963899796,3.025030415863203,0.7031003682548725,B,453.546799999458,Correct
3,401,452,B,56.595843932498,48.570709329809176,2.8297921966249,0.7629469180508687,B,462.1173999985331,Correct
3,401,453,A,36.45524673011204,61.41483116332865,1.8227623365056018,0.9647019120208539,A,619.0743999995902,Correct
3,401,454,A,51.63233165185568,61.31920464935861,2.581616582592784,0.9631998142519705,B,1069.8522999991837,Incorrect
3,401,455,A,34.098320628636515,51.58253901192562,1.7049160314318257,0.810256628066872,A,522.3034000009648,Correct
3,401,456,A,30.27716047137255,60.34263639242556,1.5138580235686274,0.9478599159434211,A,515.6575999990309,Correct
3,401,457,A,43.09497215200461,56.66432949185925,2.1547486076002302,0.8900812062610823,A,675.4375000000437,Correct
3,401,458,B,34.98973816679462,22.26736320361022,1.749486908339731,0.3497749232763877,B,562.9090000002179,Correct
3,401,459,B,49.00928465312879,18.405607217943338,2.450464232656439,0.28911460210375034,B,692.526299999372,Correct
3,401,460,A,45.14967130649458,63.15151500036749,2.257483565324729,0.9919816779411008,A,546.6359999991255,Correct
3,401,461,B,54.82927225592449,25.75945818992826,2.7414636127962244,0.4046286230496602,B,401.5244000001985,Correct
3,401,462,A,42.4360012093244,67.00448382799301,2.12180006046622,1.0525039707579948,A,572.8956000002654,Correct
3,401,463,B,73.02645788315915,49.9906049920239,3.6513228941579574,0.7852505869572576,B,537.3056999997061,Correct
3,401,464,B,68.79200572150353,48.82647109171954,3.4396002860751764,0.7669644144123025,B,653.1948000010743,Correct
3,401,465,A,57.40825980747111,67.89497459844539,2.8704129903735556,1.0664917670707081,A,704.2473999990762,Correct
3,401,466,A,25.435513701668718,52.8982702216414,1.271775685083436,0.8309240855795816,A,535.7276000013371,Correct
3,401,467,A,38.09314574902505,48.10390318186667,1.9046572874512524,0.7556143442257351,A,616.5607000002638,Correct
3,401,468,A,59.040962760373134,75.76093673383842,2.9520481380186565,1.1900500113605395,A,557.271599998785,Correct
3,401,469,B,34.58111558765698,20.703520740374717,1.7290557793828492,0.3252101433070257,B,1191.7443000002095,Correct
3,401,470,A,20.48914852836968,42.62101683131519,1.024457426418484,0.6694893668289336,A,478.9448999999877,Correct
3,401,471,A,39.45591831245172,54.369092515496106,1.9727959156225863,0.8540277081451318,A,672.3192000008567,Correct
3,401,472,B,78.3571641336082,49.959643417773954,3.9178582066804095,0.7847642436862217,B,469.59269999933895,Correct
3,401,473,A,52.55084399534842,74.06452978351354,2.627542199767421,1.1634029132973427,A,471.8094999989262,Correct
3,401,474,B,64.00367461204436,41.540492962067155,3.2001837306022183,0.6525165375806434,B,451.44380000056117,Correct
3,401,475,B,44.61593637353539,19.943088628239895,2.2307968186767697,0.313265303621843,B,428.79829999947106,Correct
3,401,476,A,47.51242306000702,68.84727690919084,2.3756211530003513,1.0814504967878806,A,638.5104000000865,Correct
3,401,477,B,71.27731258605928,53.16225576143332,3.5638656293029642,0.8350707607419028,B,538.0968000008579,Correct
3,401,478,A,11.34599721110984,32.35013424192659,0.567299860555492,0.508154720385401,A,559.6154999984719,Correct
3,401,479,B,47.71040389180955,31.735416511702432,2.3855201945904776,0.49849875685888284,B,396.64239999910933,Correct
3,401,480,A,66.12316630644791,78.5016578575252,3.3061583153223957,1.2331011580991031,A,515.5442999985098,Correct
3,401,481,A,54.14875994902486,76.80376642641482,2.707437997451243,1.2064307418662563,A,462.5744000004488,Correct
3,401,482,B,38.08578466336953,12.186699764390063,1.9042892331684766,0.19142823225656144,B,491.0048999990977,Correct
3,401,483,B,46.271952677955355,17.812005709732915,2.3135976338977677,0.2797903314169819,B,412.7090000001772,Correct
3,401,484,A,58.35490673960348,83.6187341214765,2.917745336980174,1.3134800040925438,A,597.7803000005224,Correct
3,401,485,B,70.80217394673302,57.83760504560515,3.540108697336651,0.9085109755625055,B,606.0785000008764,Correct
3,401,486,B,67.03176504431504,56.39322463319437,3.351588252215752,0.885822701099412,B,504.60910000037984,Correct
3,401,487,A,51.28026222807516,70.68080095614424,2.5640131114037583,1.1102514251683258,A,566.9615999995585,Correct
3,401,488,A,36.308895893814494,48.2727110246692,1.8154447946907248,0.7582659716198188,B,840.0474999998551,Incorrect
3,401,489,B,56.25481879971139,24.444225162850568,2.8127409399855696,0.38396899097153053,B,459.125800000038,Correct
3,401,490,B,70.93000672001025,44.74294506949613,3.546500336000513,0.7028205376515035,B,553.2212000016443,Correct
3,401,491,A,24.33969433669702,46.41018421252744,1.2169847168348509,0.7290094688691261,A,550.4963999992469,Correct
3,401,492,B,52.37828597208054,43.42341138734556,2.618914298604027,0.6820933510414608,B,472.6718999991135,Correct
3,401,493,A,53.25434249274534,63.62153805256871,2.6627171246372665,0.9993647827801666,A,1362.9068999998708,Correct
3,401,494,B,62.35838979019544,38.738697286328545,3.117919489509772,0.608506034021843,B,453.7019999988843,Correct
3,401,495,B,52.733613782969265,45.90664974472037,2.6366806891484633,0.7210999679446662,B,484.3295000009675,Correct
3,401,496,B,35.518988177183004,20.357311159550395,1.7759494088591503,0.3197718959284252,B,639.648299998953,Correct
3,401,497,B,65.16376037632637,48.501828290878386,3.2581880188163184,0.7618649372214856,B,468.60449999985576,Correct
3,401,498,B,59.62384237730246,45.06989357036758,2.9811921188651227,0.7079562326937032,B,414.8583999995026,Correct
3,401,499,A,36.14692544374393,66.93442032135785,1.8073462721871965,1.051403415769346,A,509.792999999263,Correct
3,401,500,A,49.74235822888847,58.91173365139581,2.4871179114444235,0.9253833482473182,B,412.10880000107863,Incorrect
3,401,501,B,88.40622087220878,62.49854122453764,4.420311043610439,0.9817247898554313,B,452.3996999996598,Correct
3,401,502,A,66.99735890735185,86.21412113200893,3.3498679453675924,1.354248247920099,A,543.7271999999211,Correct
3,401,503,A,31.55435355606175,63.56712307653086,1.5777176778030875,0.9985100343353377,A,485.0032000013016,Correct
3,401,504,B,72.46132811858787,40.34286110871025,3.6230664059293933,0.6337041804195875,B,424.298899999485,Correct
3,401,505,A,39.42869573302884,47.875576914108585,1.971434786651442,0.7520278035986833,A,877.3209999999381,Correct
3,401,506,A,48.46110328979762,62.26712274458689,2.423055164489881,0.9780896768728404,A,526.141500000449,Correct
3,401,507,B,63.77470676866304,37.755629023444264,3.1887353384331516,0.5930640338585704,B,442.04630000058387,Correct
3,401,508,B,60.085210461421376,40.94103253738244,3.004260523071069,0.6431002352491068,B,458.3236000016768,Correct
3,401,509,B,77.45039079853683,60.80809261890697,3.8725195399268415,0.9551712852518293,B,610.6010000003153,Correct
3,401,510,A,41.94992130376589,53.03330996998375,2.097496065188295,0.8330452849862564,A,573.0858999995689,Correct
3,401,511,B,52.95279255599119,21.831341671756636,2.6476396277995593,0.3429259130699968,B,626.3435000000754,Correct
3,401,512,A,17.566352582212755,43.6573765299663,0.8783176291106378,0.6857684669077279,A,459.48219999991124,Correct
3,401,513,B,49.21716397229963,20.95312840875873,2.4608581986149813,0.32913097139340003,B,550.789299999451,Correct
3,401,514,B,63.38361629758702,31.979645537243673,3.1691808148793505,0.5023350974210516,B,382.02559999990626,Correct
3,401,515,A,32.27818413782869,43.60773822712235,1.6139092068914345,0.6849887502699717,A,588.878399999885,Correct
3,401,516,B,81.73262083534348,56.404601125549846,4.086631041767174,0.8860014026234498,B,475.0019000002794,Correct
3,401,517,A,15.673913053323925,33.55043342369045,0.7836956526661963,0.5270089758430968,A,613.2291999983863,Correct
3,401,518,A,33.17757960294235,65.27564277773367,1.6588789801471178,1.0253473990443986,A,508.6874999997235,Correct
3,401,519,A,16.75513664478149,39.23419576314534,0.8377568322390745,0.6162893058950059,A,510.0765000006504,Correct
3,401,520,B,37.39213555756293,14.160945867260693,1.8696067778781467,0.2224396175223447,B,518.9238999992085,Correct
3,401,521,B,69.41623676164298,42.73929355502219,3.4708118380821484,0.6713472532603766,B,408.3379000003333,Correct
3,401,522,A,56.192604183259405,68.90161419605549,2.80963020916297,1.0823040248940308,A,524.1919000000053,Correct
3,401,523,A,45.067530729136195,69.18453829428111,2.25337653645681,1.0867481862365762,A,1028.7692000001698,Correct
3,401,524,A,20.970453280101104,40.230113222180094,1.0485226640050553,0.6319331407594329,A,613.3600000011938,Correct
3,401,525,B,40.71970155947649,12.924111882714254,2.035985077973825,0.2030114747245382,B,554.8730999998952,Correct
3,401,526,A,11.620361126437732,36.149477066979216,0.5810180563218865,0.567834657923673,A,504.6810000003461,Correct
3,401,527,B,71.49689799926499,48.285470639808246,3.5748448999632494,0.7584663991857362,B,757.9453999987891,Correct
3,401,528,B,44.97775473943842,20.03839283957104,2.2488877369719207,0.3147623386727134,B,684.8294000010355,Correct
3,401,529,B,68.08870493981854,57.74935910782286,3.4044352469909267,0.9071248116132756,B,549.6973999997863,Correct
3,401,530,B,34.121673790798795,16.829051644575433,1.7060836895399398,0.264350125067407,B,757.9783000001044,Correct
3,401,531,B,55.53246252227857,23.372870006223465,2.7766231261139285,0.36714018352430433,B,638.2901999986643,Correct
3,401,532,A,47.95658555612224,76.61985538519119,2.397829277806112,1.203541873986145,A,527.9620999990584,Correct
3,401,533,A,23.638810484840572,45.7028153803618,1.1819405242420287,0.7178981452365762,A,612.1148000001995,Correct
3,401,534,B,63.602641380687544,51.894913077955536,3.1801320690343773,0.8151633884219298,B,699.8562000007951,Correct
3,401,535,B,65.53589924022612,47.117629018432794,3.276794962011306,0.7401219858943886,B,430.8995999999752,Correct
3,401,536,B,66.02089781850812,57.45079816185225,3.3010448909254055,0.9024350272407249,B,436.4133999988553,Correct
3,401,537,B,59.053900312320856,36.17439260333761,2.9526950156160425,0.5682260302535919,B,503.46840000020165,Correct
3,401,538,B,59.668762875946555,47.376306942419106,2.9834381437973274,0.744185289222595,B,497.95110000013665,Correct
3,401,539,B,72.20935160218853,55.26161409799427,3.6104675801094266,0.8680474043788647,B,465.1809000006324,Correct
3,401,540,A,39.79367572041158,53.29813334749262,1.989683786020579,0.83720512087266,A,603.6673999988125,Correct
3,401,541,A,42.35769249154214,74.45202160182622,2.117884624577107,1.169489620546029,A,494.4620999995095,Correct
3,401,542,B,56.42461347876142,25.69435600254037,2.821230673938071,0.40360600028150817,B,490.88099999971746,Correct
3,401,543,B,80.38411447935339,61.98503140816541,4.019205723967669,0.9736585965221252,B,479.56449999946926,Correct
3,401,544,A,50.396018686438154,63.20727004341949,2.5198009343219074,0.9928574761093644,A,800.673600000664,Correct
3,401,545,B,61.11579283075129,28.27293451216015,3.0557896415375643,0.4441102167941383,B,392.43660000101954,Correct
3,401,546,B,33.16395249451999,17.92682411533964,1.6581976247259995,0.28159389471473684,B,665.5654999995022,Correct
3,401,547,A,40.760605486923964,52.31887904629197,2.038030274346198,0.821823030279419,A,605.9865999995964,Correct
3,401,548,B,35.70804862491657,12.75662772491167,1.7854024312458285,0.2003806397258119,B,575.0920999998925,Correct
3,401,549,B,39.636825044066654,16.92024357578556,1.9818412522033326,0.265782564573189,B,464.489500000127,Correct
