subject,day,trial,cat,x,y,xt,yt,resp,rt,fb
14,114,0,B,46.31874816590807,36.67256119889809,2.315937408295403,0.5760512442539016,A,5965.223399999559,Incorrect
14,114,1,B,40.71706144864491,20.122517564450046,2.035853072432246,0.3160837667610392,B,1273.3472999998412,Correct
14,114,2,A,51.76709780880664,58.831729159989756,2.588354890440332,0.9241266406350411,A,988.1733000001987,Correct
14,114,3,A,49.865017523097606,66.17381711886621,2.4932508761548804,1.0394558886031229,A,711.7771999992328,Correct
14,114,4,A,57.090406419945225,82.46711733273428,2.854520320997261,1.2953904498762274,A,444.75380000039877,Correct
14,114,5,A,67.09230656520594,83.58760709682133,3.354615328260297,1.3129910619326197,A,660.7564000005368,Correct
14,114,6,A,35.41153135295758,62.827788157357325,1.770576567647879,0.9868965885822477,A,558.9946000000054,Correct
14,114,7,A,60.53152823697688,73.18385630996352,3.0265764118488443,1.149569326723762,A,733.6465000007593,Correct
14,114,8,B,85.32326566343545,57.97656996859337,4.266163283171773,0.9106938314683377,A,693.9230000007228,Incorrect
14,114,9,A,41.98271415120416,63.538090352104874,2.099135707560208,0.9980539893664859,A,588.0117999986396,Correct
14,114,10,B,59.47112563960114,32.376928867783626,2.9735562819800574,0.5085756093841417,B,557.965800000602,Correct
14,114,11,A,44.72447759769454,61.71094278125603,2.236223879884727,0.96935322243847,A,836.5813000000344,Correct
14,114,12,A,37.6908380555279,50.62058118988408,1.884541902776395,0.7951462299329276,A,622.0087000001513,Correct
14,114,13,B,39.157436564684275,15.04473617594656,1.9578718282342138,0.23632216322775157,B,1183.6662999994587,Correct
14,114,14,A,25.331521927583847,42.170764398876116,1.2665760963791923,0.662416818158876,A,710.02690000023,Correct
14,114,15,B,65.2942197575938,56.923784075367976,3.2647109878796896,0.8941567093285384,B,892.123999999967,Correct
14,114,16,A,26.45777077612186,44.94778910666883,1.322888538806093,0.7060382202630706,A,487.4631999991834,Correct
14,114,17,A,40.1502423446649,48.784220312590115,2.007512117233245,0.7663007407256952,A,783.480199999758,Correct
14,114,18,B,44.539096256448616,21.814065945865384,2.226954812822431,0.34265454660226985,A,1145.390799998495,Incorrect
14,114,19,B,74.29047877718811,47.36976617730219,3.714523938859406,0.7440825471243941,A,656.3244999997551,Incorrect
14,114,20,B,40.12270037245386,31.091794270069848,2.006135018622693,0.4883887623288833,A,408.0730000005133,Incorrect
14,114,21,B,44.502235664452854,29.83912939461239,2.225111783222643,0.4687119484781476,A,2157.658000000083,Incorrect
14,114,22,A,37.900407993011456,62.18620341355702,1.895020399650573,0.9768185989933561,B,1861.1395000007178,Incorrect
14,114,23,A,19.207224615961806,45.688077148893946,0.9603612307980903,0.7176666376380447,A,590.4911000016,Correct
14,114,24,B,70.45324979770274,57.843432989256854,3.522662489885137,0.908602520687314,B,452.28339999994205,Correct
14,114,25,A,16.704978000181466,32.07050343774448,0.8352489000090734,0.5037622899847213,A,649.2792999997619,Correct
14,114,26,B,30.775264111554765,15.48985481828299,1.5387632055777383,0.24331407051145149,B,1882.674299999053,Correct
14,114,27,A,56.62125463416869,70.24566242538936,2.8310627317084345,1.1034162851107587,B,1151.1196000010386,Incorrect
14,114,28,A,63.88106230776201,85.09218370758707,3.1940531153881007,1.3366248960683433,B,808.5327999997389,Incorrect
14,114,29,B,33.97168688625733,21.7429167894184,1.6985843443128663,0.34153693826625503,A,523.5843999998906,Incorrect
14,114,30,B,50.565013476783335,25.277618120034695,2.528250673839167,0.3970598969307462,A,632.8035000005912,Incorrect
14,114,31,B,81.00596804941677,54.76987910787582,4.050298402470839,0.8603232492165189,B,629.7837000001891,Correct
14,114,32,A,47.012188616824574,59.64974822391169,2.350609430841229,0.9369760540436088,B,1804.7232999997505,Incorrect
14,114,33,A,49.39030914644985,68.18044976383737,2.4695154573224927,1.0709760004825972,B,900.2139999993233,Incorrect
14,114,34,A,47.77118033344609,72.74631014748736,2.3885590166723047,1.1426963676755546,B,1245.8527999988291,Incorrect
14,114,35,A,47.95847106307611,68.12780200880812,2.3979235531538055,1.0701490114804577,A,578.5923000003095,Correct
14,114,36,A,62.27311655566415,74.89858066051863,3.1136558277832074,1.1765041538369394,B,923.4234999985347,Incorrect
14,114,37,A,38.54047379629185,62.87617317101648,1.9270236898145925,0.987656618599525,A,1939.1742999996495,Correct
14,114,38,A,47.03313207222095,62.29888219572741,2.3516566036110476,0.978588553164766,A,643.1828000004316,Correct
14,114,39,B,66.45349346014716,44.455456598461694,3.322674673007358,0.6983046793085358,A,597.4440000009054,Incorrect
14,114,40,A,45.27891305788314,52.721486050345774,2.2639456528941566,0.8281471663105151,A,761.8547000001854,Correct
14,114,41,A,66.71406350169647,87.46914281588613,3.335703175084824,1.3739620824309215,B,519.6592000011151,Incorrect
14,114,42,A,16.56265511537794,42.670582498513895,0.8281327557688969,0.6702679425086423,A,606.5775999995822,Correct
14,114,43,A,11.977232020600848,32.37526791011312,0.5988616010300425,0.5085495191220638,A,636.4005000014004,Correct
14,114,44,A,57.56264595609491,81.70435274657495,2.8781322978047457,1.2834089717747446,B,675.2787000004901,Incorrect
14,114,45,B,59.930944786346615,34.919798774121716,2.996547239317331,0.5485189164680733,B,865.0847000008071,Correct
14,114,46,A,48.84818717208871,63.743081360776365,2.442409358604435,1.0012739806009576,B,1558.0895999992208,Incorrect
14,114,47,B,72.23744934080837,56.47422112389003,3.6118724670404188,0.8870949910000921,A,1089.7014000001946,Incorrect
14,114,48,B,58.837116656267895,42.632333459287366,2.9418558328133946,0.6696671280054377,B,1416.339400000652,Correct
14,114,49,A,42.51894644155282,52.971091923393246,2.125947322077641,0.8320679661958092,A,1533.8472000003094,Correct
14,114,50,A,55.14004149349013,65.06812034178661,2.7570020746745065,1.0220876442432671,B,1109.9336999996012,Incorrect
14,114,51,A,34.1579553030786,58.5764974462315,1.7078977651539302,0.9201174702505107,A,467.6865999990696,Correct
14,114,52,A,40.46473967215652,47.86665406828644,2.023236983607826,0.7518876438642632,B,1228.8478999998915,Incorrect
14,114,53,A,20.640943528894827,44.63155494915447,1.0320471764447412,0.7010708257327642,A,468.8487000003079,Correct
14,114,54,A,25.49502697674981,42.51951404290037,1.2747513488374904,0.6678949647569193,A,1092.044299999543,Correct
14,114,55,B,50.20372618036769,42.432704287256286,2.5101863090183842,0.6665313603039623,B,1260.9095999996498,Correct
14,114,56,A,26.00307625266784,54.96352526169623,1.3001538126333918,0.8633650358877094,A,752.7776999995694,Correct
14,114,57,A,50.26272203148845,66.27160239827354,2.513136101574423,1.0409918961801994,B,989.1901000009966,Incorrect
14,114,58,B,43.17511773737355,20.338005528248146,2.1587558868686774,0.3194686437810649,A,1071.7366999997466,Incorrect
14,114,59,B,52.949840550661065,21.197317800722825,2.6474920275330533,0.3329666893927949,A,5498.529599999529,Incorrect
14,114,60,A,17.60168426359893,45.831680333470445,0.8800842131799465,0.7199223511865327,A,603.1123000011576,Correct
14,114,61,B,73.64166451894606,47.81171041795198,3.682083225947303,0.7510245910230026,B,1112.6141999993706,Correct
14,114,62,B,84.2354261197368,58.51033593010608,4.21177130598684,0.9190782075854608,B,1396.7766999994637,Correct
14,114,63,A,28.32485687910558,57.67841092424188,1.4162428439552792,0.9060103601516578,A,505.4831999987073,Correct
14,114,64,A,53.71326645744369,75.25789171475462,2.685663322872184,1.1821481986786464,B,682.3397999996814,Incorrect
14,114,65,B,76.92512688059125,64.1902090506068,3.846256344029563,1.008297445928897,B,847.90780000003,Correct
14,114,66,A,33.174080873269084,48.22599044431314,1.6587040436634541,0.7575320864597286,A,725.1109999997425,Correct
14,114,67,B,69.33814668310822,39.23021474875047,3.466907334155411,0.6162267722671221,B,617.8066000011313,Correct
14,114,68,B,81.81060762248272,61.48323099988652,4.090530381124136,0.9657763341410387,B,901.7124000001786,Correct
14,114,69,A,47.55939796339519,68.58600055517108,2.3779698981697597,1.0773463774161547,B,1267.5278999995498,Incorrect
14,114,70,A,58.34108027484736,80.86100871295882,2.9170540137423675,1.2701617546724584,B,623.3832999987499,Incorrect
14,114,71,B,62.88145077927295,52.447665743505326,3.1440725389636475,0.8238460069886469,A,1257.36230000075,Incorrect
14,114,72,B,46.3712055528281,36.998068281697776,2.3185602776414047,0.5811642975539765,A,1307.5642000003427,Incorrect
14,114,73,B,74.00910348825629,61.57127476872956,3.7004551744128147,0.967159322427997,B,581.8304999993416,Correct
14,114,74,A,37.430605707693154,56.08210647682587,1.8715302853846578,0.8809356685271836,B,867.0969999984663,Incorrect
14,114,75,A,52.76004703666439,76.75971727987826,2.6380023518332196,1.205738819490475,A,702.1347999998397,Correct
14,114,76,A,59.440758991997846,69.57481666585575,2.9720379495998923,1.0928786645615458,B,682.539600000382,Incorrect
14,114,77,B,75.43443918127338,55.44211119995793,3.771721959063669,0.8708826462264811,B,794.581999998627,Correct
14,114,78,A,17.736327915990888,36.027733145355384,0.8868163957995443,0.5659223088747098,A,582.7616999995371,Correct
14,114,79,A,13.223481501136163,38.02835781390498,0.6611740750568081,0.5973480476812395,A,465.5090999985987,Correct
14,114,80,B,63.58527133018867,40.061283354706134,3.1792635665094333,0.6292811674026193,B,2007.582199999888,Correct
14,114,81,A,32.246791051941884,43.044255346482686,1.6123395525970943,0.6761375818787659,A,661.711099999593,Correct
14,114,82,B,76.97856039434043,62.639203233150425,3.8489280197170217,0.9839343035199171,B,1511.6278000004968,Correct
14,114,83,B,49.931798300179906,32.33518137415396,2.4965899150089954,0.507919841287678,A,876.0817000002135,Incorrect
14,114,84,A,50.191339438439115,71.10498929915528,2.5095669719219558,1.1169145600790353,B,680.4923999989114,Incorrect
14,114,85,A,13.564667875488762,35.170524851859014,0.6782333937744381,0.5524573124874876,A,614.5845999999437,Correct
14,114,86,A,34.74291669299842,44.03273136023036,1.7371458346499211,0.6916645267939631,B,869.5045999993454,Incorrect
14,114,87,B,51.85163611960539,34.393900627882424,2.592581805980269,0.540258127704264,A,976.5581999999995,Incorrect
14,114,88,A,33.59834878090379,47.315339386572134,1.6799174390451896,0.7432276130948139,B,811.8635000009817,Incorrect
14,114,89,A,47.61182638733403,57.48311548863176,2.3805913193667014,0.902942666622696,A,664.2821999994339,Correct
14,114,90,A,25.750010499616053,49.790263610304855,1.2875005249808027,0.7821036318921647,A,692.7102000008745,Correct
14,114,91,A,69.52071772705894,88.89612878344688,3.4760358863529466,1.3963771255932442,B,720.62779999942,Incorrect
14,114,92,A,53.693450132915814,63.87179292404779,2.6846725066457906,1.0032957771089852,B,758.1487000006746,Incorrect
14,114,93,B,65.51628524298819,37.32614809222081,3.2758142621494097,0.5863177631666279,B,1125.6376000001183,Correct
14,114,94,A,61.41751837209081,82.08200605349573,3.0708759186045405,1.2893411360478757,B,1203.7137000006624,Incorrect
14,114,95,B,85.75364929656513,63.362473183615805,4.287682464828256,0.9952954013346383,B,609.509200001412,Correct
14,114,96,B,50.77047247589016,20.423133653260553,2.538523623794508,0.3208058332418291,A,733.4143999996741,Incorrect
14,114,97,B,83.56075217472852,56.47174763552878,4.178037608736426,0.8870561375357698,B,549.9517999996897,Correct
14,114,98,B,57.352483123831384,47.51411916751564,2.867624156191569,0.7463500385922854,B,923.2413999998244,Correct
14,114,99,A,46.82498285877718,71.47426741210815,2.3412491429388593,1.1227151671129567,A,549.1783999987092,Correct
14,114,100,A,45.66471457544795,63.834581149600815,2.283235728772398,1.0027112559228368,B,721.0730999995576,Incorrect
14,114,101,A,27.57373703396857,41.427942548477745,1.3786868516984285,0.6507485998181886,A,414.84639999907813,Correct
14,114,102,A,20.497706743387674,50.91481838724297,1.0248853371693838,0.7997680970211052,A,606.0661000010441,Correct
14,114,103,B,78.86103231596294,62.17138237173904,3.943051615798147,0.9765857906128869,B,901.5460000009625,Correct
14,114,104,A,52.885745376966355,79.62509001120574,2.644287268848318,1.2507479891031499,A,601.6693000001396,Correct
14,114,105,B,44.439147125823276,35.171398173993275,2.221957356291164,0.5524710305994937,B,682.805800001006,Correct
14,114,106,A,51.67895798649202,76.0461538041685,2.5839478993246012,1.1945301906246761,A,622.4065000005794,Correct
14,114,107,B,51.58223944973454,37.205448582526806,2.579111972486727,0.584421819701895,B,796.7752999993536,Correct
14,114,108,A,19.35632904609143,44.620235739649715,0.9678164523045716,0.7008930240056415,A,379.94780000008177,Correct
14,114,109,A,30.150786795780213,39.06615753472346,1.5075393397890107,0.6136497675753438,A,513.2271999991644,Correct
14,114,110,A,45.168007648443954,63.72033785654925,2.258400382422198,1.0009167264719736,A,1076.2384000008751,Correct
14,114,111,B,50.81718728928096,37.29523842739766,2.540859364464048,0.5858322352869613,A,545.2502999996796,Incorrect
14,114,112,A,55.942003640784826,83.8326401430651,2.797100182039241,1.3168400320224507,A,573.4049000002415,Correct
14,114,113,B,38.954705257414346,25.71202226315954,1.9477352628707172,0.40388350125439604,B,730.133000000933,Correct
14,114,114,B,47.880474135488164,30.10427124241528,2.394023706774408,0.4728767868842316,B,2047.1014000013383,Correct
14,114,115,B,39.019288504146004,17.519706051768726,1.9509644252073002,0.27519889912644635,B,622.5871000006009,Correct
14,114,116,B,50.638006026024954,21.029129149239168,2.5319003013012478,0.33032478823320377,B,666.9961999996303,Correct
14,114,117,A,66.77866387969912,89.92559988161784,3.3389331939849565,1.4125480197887288,B,915.5848999998852,Incorrect
14,114,118,A,58.58329307189297,86.01808254565432,2.9291646535946483,1.3511688810065403,B,531.0267999993812,Incorrect
14,114,119,A,48.07757786870488,71.79833100163644,2.4038788934352437,1.1278055460737468,A,836.4418000001024,Correct
14,114,120,B,84.26201952489706,64.22284329293174,4.213100976244853,1.0088100634086143,B,901.2696000008873,Correct
14,114,121,B,46.610072481313466,21.559288297378714,2.330503624065673,0.33865250865834684,A,1087.5262999998085,Incorrect
14,114,122,A,18.08449602932334,45.67801942136945,0.9042248014661669,0.7175086512235307,A,576.3676000005944,Correct
14,114,123,B,69.09852375212073,58.43736247787808,3.4549261876060364,0.9179319432783282,B,872.9398000014044,Correct
14,114,124,A,59.82154652458042,73.90077859928275,2.9910773262290213,1.1608307157103623,A,835.1560000010068,Correct
14,114,125,A,49.132887412413524,61.4772982528941,2.456644370620676,0.9656831427692038,B,869.1029000001436,Incorrect
14,114,126,B,55.52926827243028,29.98519251461809,2.776463413621514,0.47100630260199927,A,525.3833000006125,Incorrect
14,114,127,B,64.37869975932605,51.861001260039814,3.218934987966303,0.8146307028317605,B,500.60519999897224,Correct
14,114,128,B,75.55941207798718,61.981857626247326,3.777970603899359,0.9736087428723355,B,646.5246999996452,Correct
14,114,129,B,69.2392979134207,44.0682453522131,3.461964895671035,0.692222379275526,A,265.02590000018245,Incorrect
14,114,130,B,76.39258192835435,55.40696108511064,3.8196290964177173,0.8703305095135958,B,240.4800999993313,Correct
14,114,131,A,33.49231284959844,44.59005746845659,1.6746156424799221,0.7004189848302496,A,401.62039999995613,Correct
14,114,132,B,81.63781891338834,54.51832989312382,4.081890945669417,0.8563719233911131,B,410.168700000213,Correct
14,114,133,B,55.1062173569991,23.69161471507932,2.755310867849955,0.3721470137028652,A,312.2559999992518,Incorrect
14,114,134,B,47.71156047117767,33.96279699477808,2.3855780235588835,0.5334863676707816,B,3336.25530000063,Correct
14,114,135,B,48.06241102754517,27.188865976932778,2.4031205513772584,0.4270817080628474,A,236.16309999852092,Incorrect
14,114,136,A,21.04673463906675,33.20160038880784,1.0523367319533374,0.5215295193445136,B,232.03389999980573,Incorrect
14,114,137,A,54.78825318773437,74.39750271755734,2.7394126593867183,1.168633239914524,A,712.8741000014998,Correct
14,114,138,A,36.52766018929068,68.21414347940174,1.826383009464534,1.071505260129043,A,586.8280999984563,Correct
14,114,139,B,34.71558676495692,20.99025801366951,1.735779338247846,0.32971420186349204,A,1051.9446000016615,Incorrect
14,114,140,A,50.9857089870387,73.4256751868027,2.549285449351935,1.1533678087586487,A,995.1404000003095,Correct
14,114,141,B,80.74331103387904,62.472272260687134,4.037165551693952,0.9813121579361807,B,1086.7772000001423,Correct
14,114,142,B,42.260606746673844,24.267940019947957,2.113030337333692,0.3811999104221312,B,1923.7228999991203,Correct
14,114,143,A,10.832003095663012,34.74966107886531,0.5416001547831506,0.545846399800492,A,814.4960999998148,Correct
14,114,144,A,27.139039350586934,54.81931480809147,1.3569519675293467,0.8610997833796317,A,1580.0175000003946,Correct
14,114,145,B,84.78941781266604,65.80968594308668,4.239470890633302,1.0337361294692629,B,668.0355999997118,Correct
14,114,146,A,28.189228202940217,52.66963211017365,1.4094614101470109,0.8273326465229931,A,785.6095999995887,Correct
14,114,147,B,40.74736263774089,17.255562676382592,2.0373681318870442,0.27104974468840887,A,659.8559000012756,Incorrect
14,114,148,A,51.34199129377056,72.78476254930384,2.5670995646885277,1.1433003765908523,B,863.6362999986886,Incorrect
14,114,149,A,27.915519431124796,43.851049267098105,1.3957759715562397,0.6888106711485975,A,578.4562000008009,Correct
14,114,150,B,45.606493802838386,22.61919520337969,2.280324690141919,0.3553014874052556,A,1360.2937000014208,Incorrect
14,114,151,B,69.37471087136112,36.53321742641311,3.468735543568056,0.5738624373940902,B,650.8002999999007,Correct
14,114,152,A,22.038838749230404,37.985177161477665,1.1019419374615202,0.596669767579025,A,573.5655000007682,Correct
14,114,153,B,50.43156204034494,32.58787837316068,2.521578102017247,0.5118891964659964,B,903.5230000008596,Correct
14,114,154,B,76.4945291585168,47.071820154325664,3.82472645792584,0.7394024219396473,B,1611.089500000162,Correct
14,114,155,A,32.82510437314608,43.322120555895395,1.641255218657304,0.6805022783816617,A,683.4237000002759,Correct
14,114,156,B,52.383866819308096,39.69334990008891,2.6191933409654045,0.6235016822124423,A,1143.3118999993894,Incorrect
14,114,157,B,33.937675128454345,15.225305259990684,1.6968837564227173,0.23915853576724386,A,743.0201999995916,Incorrect
14,114,158,B,52.45994135844715,44.237032861833264,2.6229970679223578,0.6948736872767282,B,815.0617999999668,Correct
14,114,159,A,23.34128276465221,39.742977281441426,1.1670641382326103,0.6242812272958121,A,577.013200001602,Correct
14,114,160,A,42.960947725583125,68.10961806557378,2.1480473862791563,1.0698633787680663,B,1652.293600000121,Incorrect
14,114,161,B,59.792886343106964,52.100668710894276,2.9896443171553484,0.8183953903463054,B,999.3971000003512,Correct
14,114,162,B,37.42150370551116,26.54581431055297,1.8710751852755578,0.41698067610796014,A,952.2522999995999,Incorrect
14,114,163,B,37.39396814384152,20.32765590910155,1.869698407192076,0.31930607234367286,B,698.4597999999096,Correct
14,114,164,B,86.20366735971817,64.27988329114339,4.310183367985909,1.0097060456053268,B,830.3439999999682,Correct
14,114,165,B,74.92947956736614,62.82326894002241,3.7464739783683068,0.986825600882351,B,1083.0409999998665,Correct
14,114,166,B,36.887492859031084,14.25808571245502,1.8443746429515542,0.2239654866425114,B,652.9886999996961,Correct
14,114,167,B,40.066405842246965,27.91531564632686,2.0033202921123485,0.4384927527857033,B,697.1596000003046,Correct
14,114,168,A,54.51454504622956,65.44231932094718,2.725727252311478,1.0279655480628254,B,372.492799999236,Incorrect
14,114,169,A,32.665260225581505,44.630350431458524,1.6332630112790754,0.7010519052130407,A,1508.7805000002845,Correct
14,114,170,B,52.70991783805158,21.67361649132348,2.635495891902579,0.34044837172932213,B,538.8750999991316,Correct
14,114,171,B,63.717438644194964,31.19939660605518,3.185871932209748,0.4900789758700864,A,535.2933000012854,Incorrect
14,114,172,A,39.2752770608747,53.392520840334626,1.9637638530437351,0.838687756143176,A,738.8990999988891,Correct
14,114,173,B,35.45917111270791,22.136795214836745,1.7729585556353953,0.34772396610476397,B,695.0484000008146,Correct
14,114,174,A,10.995950366412114,35.08953473327804,0.5497975183206057,0.551185122679751,A,476.58919999958016,Correct
14,114,175,A,17.7260317673211,45.41453148917289,0.886301588366055,0.7133697924630393,A,736.4830000005895,Correct
14,114,176,A,57.18590767135423,84.50068841306467,2.8592953835677117,1.3273337097088207,A,534.2593000004854,Correct
14,114,177,A,48.86118873575303,74.92087126664067,2.4430594367876517,1.1768542938591247,B,2138.4009000012156,Incorrect
14,114,178,A,23.690078119888888,45.45517160697006,1.1845039059944442,0.7140081659406025,A,809.0768000001844,Correct
14,114,179,A,16.576544878409223,44.34806019943699,0.8288272439204611,0.6966177006175458,A,514.1788000000815,Correct
14,114,180,A,25.437880876633365,36.27673598598027,1.2718940438316682,0.5698336363488605,A,693.284400000266,Correct
14,114,181,A,20.102041846125058,40.616726103973036,1.005102092306253,0.6380060417055524,A,1182.082100000116,Correct
14,114,182,A,44.88739510965473,65.78497456051113,2.2443697554827367,1.033347963979466,A,2054.6644999994896,Correct
14,114,183,B,41.003780005445506,27.64390791947728,2.050189000272275,0.43422949018171264,A,495.7725999993272,Incorrect
14,114,184,B,68.82822763282132,40.76212737598711,3.4414113816410663,0.6402899995454626,B,950.1703000005364,Correct
14,114,185,A,55.08484425854855,81.46465887077451,2.7542422129274273,1.279643869178119,B,602.5903000008839,Incorrect
14,114,186,A,59.38487197685555,73.51959240058191,2.9692435988427777,1.1548430569029207,A,680.137500001365,Correct
14,114,187,B,61.782851836898594,30.612634942322806,3.0891425918449293,0.48086214520913767,B,759.0013999997609,Correct
14,114,188,A,26.418237114560085,52.644390129073464,1.3209118557280044,0.8269361464110611,A,544.9513000003208,Correct
14,114,189,B,39.73935954648303,13.30132608775656,1.9869679773241515,0.20893674160149137,A,731.49469999953,Incorrect
14,114,190,A,53.34085374175187,75.71654953345937,2.6670426870875934,1.189352778847418,A,488.7464000003092,Correct
14,114,191,B,67.84528038657105,46.14677711018765,3.3922640193285525,0.7248718797810557,B,452.62039999943227,Correct
14,114,192,A,20.532703361339433,33.054340853585174,1.0266351680669716,0.5192163719743808,A,557.452099999864,Correct
14,114,193,A,45.3746663428243,73.12710715733286,2.2687333171412147,1.1486779131187523,B,943.4085000011692,Incorrect
14,114,194,A,56.988078125039934,72.145338910414,2.8494039062519967,1.1332563335585124,A,254.88299999960873,Correct
14,114,195,A,61.53807238047435,79.43086428013201,3.076903619023717,1.2476970984537532,B,747.8517999988981,Incorrect
14,114,196,B,35.66300011858303,10.698036734181056,1.7831500059291514,0.16804436805968473,A,334.07549999901676,Incorrect
14,114,197,B,77.59546823748437,46.64874152882942,3.879773411874219,0.732756718430898,B,611.5699000001769,Correct
14,114,198,B,66.01122022801286,57.8748607411997,3.300561011400643,0.9090961866604265,B,686.6805999998178,Correct
14,114,199,A,16.327622361836593,41.926566303666704,0.8163811180918296,0.6585809634492235,A,233.44270000052347,Correct
14,114,200,A,21.19087942673525,50.067466273582426,1.0595439713367625,0.7864579211447064,B,369.2012000010436,Incorrect
14,114,201,A,59.74041512152331,73.78108564451128,2.9870207560761655,1.15895058317338,A,1178.8395999992645,Correct
14,114,202,B,72.77970734540679,51.554089532722,3.6389853672703394,0.8098097446925495,A,568.0948999997781,Incorrect
14,114,203,B,32.0208025633758,15.651853889334355,1.6010401281687903,0.24585874596896823,A,633.2294999992882,Incorrect
14,114,204,B,35.74948912077731,23.887906523563743,1.7874744560388656,0.37523035822033773,B,921.8227999990631,Correct
14,114,205,A,47.263467623812694,60.43555316311222,2.363173381190635,0.9493194491643436,A,572.5701999999728,Correct
14,114,206,B,64.97328856657936,44.715598727910184,3.2486644283289676,0.7023909823223586,B,757.1594000000914,Correct
14,114,207,A,62.18255590373356,74.23077037481144,3.109127795186678,1.1660142143990926,A,514.1352999999071,Correct
14,114,208,A,58.13455274134738,66.46160939175363,2.9067276370673687,1.043976519054438,B,661.4604000005784,Incorrect
14,114,209,B,50.425189675492376,39.525054819072416,2.521259483774619,0.6208581092616586,A,558.5587000005034,Incorrect
14,114,210,B,60.09610335746417,38.89245679620286,3.004805167873209,0.6109212827550465,B,522.9758000004949,Correct
14,114,211,B,78.67647375075231,52.13832677598439,3.933823687537615,0.8189869218494829,A,672.8120999996463,Incorrect
14,114,212,A,20.218755720935263,39.862669915964794,1.0109377860467632,0.6261613548023492,A,1395.0332999993407,Correct
14,114,213,B,75.88561495563155,51.07149734994517,3.794280747781578,0.8022292044120916,B,1500.4277999996702,Correct
14,114,214,B,54.24159665879876,47.28252964848029,2.7120798329399385,0.7427122389340363,A,602.8041999998095,Incorrect
14,114,215,B,61.252003107433154,45.64065478691793,3.0626001553716575,0.716921728918046,B,327.22090000061144,Correct
14,114,216,B,51.41502940265497,36.23990227900393,2.5707514701327487,0.5692550538326537,A,313.44260000150825,Incorrect
14,114,217,A,23.52859781118733,38.4477827238603,1.1764298905593664,0.6039363587604805,A,557.0568999992247,Correct
14,114,218,A,16.34620733568077,37.59135500769136,0.8173103667840386,0.5904836236532452,A,567.5630000005185,Correct
14,114,219,B,78.78446617793097,47.813509414450884,3.9392233088965485,0.7510528495939265,B,640.3754000002664,Correct
14,114,220,A,56.88748939398462,83.20852169631549,2.8443744696992312,1.3070364023860581,A,214.75749999990512,Correct
14,114,221,B,63.364884706234484,54.72601408386197,3.1682442353117244,0.8596342190305616,A,357.67139999916253,Incorrect
14,114,222,A,62.12579645628815,83.4286175685199,3.1062898228144076,1.3104936602620723,B,743.3196999991196,Incorrect
14,114,223,B,53.19462304031488,23.332215274838855,2.659731152015744,0.3665015804970465,A,397.11410000018077,Incorrect
14,114,224,A,22.651622835502213,49.805068271543945,1.1325811417751106,0.7823361829671027,A,484.90980000133277,Correct
14,114,225,B,37.03684232231931,15.710222830284941,1.8518421161159653,0.24677560314940905,B,1074.4143000010808,Correct
14,114,226,B,70.78177653068862,60.51909330099225,3.5390888265344307,0.9506316945815627,A,560.7426000005944,Incorrect
14,114,227,B,44.836353492084164,35.088208623752564,2.241817674604208,0.5511642922000354,B,634.7482999990461,Correct
14,114,228,A,42.945820613760155,57.181394203540094,2.1472910306880078,0.8982032397593177,B,767.1664000008604,Incorrect
14,114,229,B,46.01513200257804,17.234519430256245,2.300756600128902,0.27071919815121787,B,612.7288999996381,Correct
14,114,230,A,63.87519113199284,82.14432079898083,3.1937595565996424,1.290319973781007,B,537.9594000005454,Incorrect
14,114,231,B,47.010358313647224,16.59207551514796,2.3505179156823615,0.26062771273097957,A,369.6700000000419,Incorrect
14,114,232,B,49.585202531914916,38.84506119606155,2.479260126595746,0.6101767944089646,B,496.8771000003471,Correct
14,114,233,B,74.08362694180425,50.564150695410916,3.7041813470902127,0.7942598217985508,A,283.42030000021623,Incorrect
14,114,234,A,23.730730624913157,52.912149895389675,1.1865365312456577,0.8311421069849907,B,208.6475000014616,Incorrect
14,114,235,B,78.34565407151509,52.773055528164186,3.9172827035757543,0.8289572177738342,A,289.42819999974745,Incorrect
14,114,236,B,57.64082835345485,27.90898273280716,2.8820414176727422,0.43839327561275676,B,235.17549999996845,Correct
14,114,237,A,29.45213727820841,49.2104223113141,1.4726068639104204,0.772995506066378,B,914.6359000005759,Incorrect
14,114,238,B,64.80283287553931,41.9724305104775,3.2401416437769655,0.6593013967251211,A,2119.9033000011696,Incorrect
14,114,239,A,41.16133888180748,62.6559111318444,2.058066944090374,0.9841967505788864,A,366.8373000000429,Correct
14,114,240,B,60.04889108965873,35.06306470834543,3.0024445544829366,0.5507693325004077,A,637.1651999997994,Incorrect
14,114,241,B,63.59178992585001,41.20015415431315,3.1795894962925,0.6471705080897859,B,481.3353999998071,Correct
14,114,242,B,56.709463956599265,28.91247018981121,2.8354731978299634,0.45415601972722397,B,596.92670000004,Correct
14,114,243,B,42.21329818587499,22.18107034479912,2.1106649092937495,0.3484194382198966,B,516.6781000007177,Correct
14,114,244,A,63.26400656768273,83.42697963054172,3.163200328384136,1.3104679315924759,A,913.0647000001773,Correct
14,114,245,A,46.278186253046364,73.19659915308655,2.313909312652318,1.1497694908354676,A,515.2268000001641,Correct
14,114,246,A,17.9813526864091,41.789604065062235,0.8990676343204549,0.6564295656361283,A,578.7975999992341,Correct
14,114,247,A,38.72189550944495,50.285003510614885,1.9360947754722475,0.7898749880734234,A,499.08660000073723,Correct
14,114,248,A,49.21147609131529,69.63192436477246,2.4605738045657644,1.0937757101984462,A,482.256100000086,Correct
14,114,249,A,24.92690994888906,49.65177361580297,1.246345497444453,0.7799282361455507,A,497.77150000045367,Correct
14,114,250,B,77.41605788675759,59.490132059755865,3.870802894337879,0.9344688092000784,B,824.0943000000698,Correct
14,114,251,B,39.75220625419182,18.186713651326713,1.987610312709591,0.285676229999746,B,924.5366000013746,Correct
14,114,252,B,44.42150193339854,22.565528693808997,2.2210750966699266,0.3544584958442001,B,493.08539999947243,Correct
14,114,253,B,76.06717824973674,46.23598719979088,3.803358912486837,0.7262731885916738,B,1727.581500001179,Correct
14,114,254,A,57.431121816165074,77.96900821867409,2.8715560908082534,1.2247343171373437,A,873.8033999998152,Correct
14,114,255,A,51.66706773367112,64.12575645072154,2.5833533866835556,1.0072850268573754,A,633.5108999992372,Correct
14,114,256,A,32.348438680528886,53.273467547108766,1.6174219340264444,0.8368176713862556,A,693.999499999336,Correct
14,114,257,A,29.815409381595668,53.22786579888238,1.4907704690797834,0.8361013608001613,A,516.05230000132,Correct
14,114,258,B,79.45085706380786,51.2421774665004,3.972542853190393,0.8049102414135104,B,795.8204000005935,Correct
14,114,259,A,28.694702466579947,50.90557375594555,1.4347351233289973,0.7996228826922595,A,664.1398000010668,Correct
14,114,260,A,29.069115327067657,39.21018615173024,1.453455766353383,0.6159121638008198,A,540.6772999995155,Correct
14,114,261,A,29.658703507377037,50.11921730711984,1.482935175368852,0.7872708244785905,A,368.29089999991993,Correct
14,114,262,B,75.88286049383001,63.94206203241883,3.7941430246915,1.0043995616821493,B,741.5125999996235,Correct
14,114,263,B,65.616109281241,53.48482666747577,3.2808054640620496,0.8401376926853266,B,465.42330000011134,Correct
14,114,264,A,57.531884012144815,66.86140635354776,2.876594200607241,1.0502565150449379,B,557.8589000015199,Incorrect
14,114,265,A,30.40527571863249,43.5516900984892,1.5202637859316244,0.684108348324165,A,250.28840000049968,Correct
14,114,266,B,71.45465625724817,49.639355676148995,3.5727328128624087,0.7797331756056025,A,961.9970999992802,Incorrect
14,114,267,A,47.260584390152886,66.92905307529279,2.363029219507644,1.0513191072653059,B,607.3195999997552,Incorrect
14,114,268,B,80.52860772653503,55.69842336432465,4.026430386326751,0.874908788289482,A,329.4957999987673,Incorrect
14,114,269,A,16.6515383760821,38.743182117697515,0.832576918804105,0.6085764815882498,A,530.6175000005169,Correct
14,114,270,B,42.77203810405385,16.574259935396675,2.1386019052026923,0.26034786625864914,A,1082.101899999543,Incorrect
14,114,271,B,61.067447935185875,50.99809243520666,3.053372396759294,0.8010761627076923,B,365.3976999994484,Correct
14,114,272,A,15.18714010609035,37.68003254620085,0.7593570053045176,0.5918765671708445,A,465.3090000010707,Correct
14,114,273,B,76.08889559110858,49.59804791211547,3.804444779555429,0.7790843147654828,A,353.59369999969203,Incorrect
14,114,274,A,52.850909298750686,60.169325529524635,2.6425454649375344,0.945137555275037,A,836.347399999795,Correct
14,114,275,A,48.694457443751446,55.64353002104423,2.434722872187572,0.8740465256695783,A,556.3839999995253,Correct
14,114,276,B,44.195512136534674,15.01943101458938,2.2097756068267334,0.23592467068266343,B,673.3445999998366,Correct
14,114,277,B,37.28594317827228,22.9630485472379,1.864297158913614,0.36070272310014184,B,961.1143999991327,Correct
14,114,278,A,30.325149955442313,52.40637987558498,1.5162574977721157,0.8231974900918688,A,604.4529999999213,Correct
14,114,279,A,40.979780063001726,55.003853611786255,2.048989003150086,0.8639985121295806,A,601.3896000004024,Correct
14,114,280,A,66.70075775242142,89.04416091065956,3.335037887621071,1.3987024088099775,B,542.6728000002186,Incorrect
14,114,281,B,54.40042415471454,33.21358423044181,2.720021207735727,0.521717761088709,A,445.04459999916435,Incorrect
14,114,282,B,46.03813498479224,19.2177776583151,2.301906749239612,0.30187214554842384,B,539.6478999991814,Correct
14,114,283,B,65.70527840531469,53.220355979313794,3.2852639202657343,0.8359833968302293,A,807.3105999992549,Incorrect
14,114,284,B,78.02158203908681,52.61188875861524,3.9010791019543403,0.8264256160777452,B,842.0693999996729,Correct
14,114,285,B,60.41616930246026,47.42345075050515,3.020808465123013,0.7449258224283216,B,605.9232000006887,Correct
14,114,286,B,43.37409907022273,35.27071157163079,2.1687049535111362,0.554031041801599,A,296.16039999928034,Incorrect
14,114,287,A,29.807420561339516,44.568619949926216,1.490371028066976,0.7000822450766185,B,442.65770000129123,Incorrect
14,114,288,B,62.00183544489863,46.510423217797154,3.1000917722449315,0.7305840194819183,A,390.2261000002909,Incorrect
14,114,289,B,47.22220159490712,28.8889093245148,2.361110079745356,0.45378592652058686,B,517.4538000010216,Correct
14,114,290,A,45.2375667903371,70.42603392684107,2.261878339516855,1.1062495540301474,A,355.2459999991697,Correct
14,114,291,B,41.30807204588854,19.454485370320242,2.0654036022944267,0.3055903415938409,A,1648.7548000004608,Incorrect
14,114,292,A,61.847163644539535,77.85103405476909,3.0923581822269766,1.2228811833041568,B,455.4434999990917,Incorrect
14,114,293,B,71.22249145698414,47.31142707711865,3.561124572849207,0.7431661586816258,A,301.2448999998014,Incorrect
14,114,294,A,48.35691807544313,56.19388201354472,2.4178459037721565,0.8826914345522185,B,515.0378999987879,Incorrect
14,114,295,B,72.97517394669366,52.70219956057518,3.648758697334683,0.827844214837631,B,929.6955999998318,Correct
14,114,296,B,44.818007624312514,28.657892567263847,2.2409003812156256,0.4501571237834082,B,2113.9963999994507,Correct
14,114,297,B,48.410213744092005,20.238420004817712,2.4205106872046,0.3179043580370002,B,1030.7026999998925,Correct
14,114,298,B,89.013065392029,67.29491262183159,4.4506532696014505,1.0570660155835656,B,419.9399999997695,Correct
14,114,299,B,51.94927180985715,27.043187276468984,2.597463590492857,0.4247933923870396,B,573.6147000006895,Correct
14,114,300,B,31.435671685539976,12.193284267376779,1.571783584276999,0.19153166138761443,A,602.8972000003705,Incorrect
14,114,301,A,44.51044815108339,53.491128973697265,2.2255224075541693,0.8402366890799573,A,612.0042000002286,Correct
14,114,302,A,45.36181581587163,58.88730918683812,2.2680907907935817,0.9249996896552068,A,494.49509999976726,Correct
14,114,303,B,35.35061116866496,23.483532388969095,1.767530558433248,0.3688784641676164,A,445.94839999990654,Incorrect
14,114,304,B,42.12805722285685,32.331901975414226,2.1064028611428425,0.5078683286127332,B,199.65080000110902,Correct
14,114,305,B,67.85787110511475,39.96520356621069,3.3928935552557378,0.6277719496141405,B,551.9179000002623,Correct
14,114,306,B,46.127929159571806,19.2008916308369,2.3063964579785905,0.30160690044905475,B,394.45189999969443,Correct
14,114,307,B,57.40366164953552,25.60412060082502,2.8701830824767764,0.40218858590589485,B,518.3089999991353,Correct
14,114,308,B,37.012529339027054,11.59143513847447,1.8506264669513528,0.1820778373779699,B,615.1492999997572,Correct
14,114,309,A,57.81112400155217,83.22694704117598,2.890556200077609,1.3073258270263262,B,643.8467999996647,Incorrect
14,114,310,B,65.20461716745902,34.05923427158778,3.260230858372951,0.5350012008725695,A,341.2419000014779,Incorrect
14,114,311,A,54.46062069466019,77.32385015088371,2.7230310347330096,1.2146001979064716,B,636.4475000009406,Incorrect
14,114,312,A,17.653763679791158,45.629966531262326,0.8826881839895578,0.7167538381908094,A,732.4642999992648,Correct
14,114,313,A,58.07597917670169,72.19146526862569,2.9037989588350848,1.1339808846989858,A,383.2453000013629,Correct
14,114,314,B,62.10421591257144,45.671069854716364,3.105210795628572,0.7173994876858159,A,259.6849999990809,Incorrect
14,114,315,A,35.12331924943967,43.92890001428759,1.7561659624719834,0.6900335478258323,A,607.5278999996954,Correct
14,114,316,B,70.85409756377821,43.687493128196316,3.5427048781889106,0.6862415373264805,B,572.8051000005507,Correct
14,114,317,A,25.388220916319163,42.2260121814181,1.2694110458159582,0.6632846482976811,A,552.9518000003009,Correct
14,114,318,A,33.81691484967616,59.013190570963815,1.690845742483808,0.926977029813172,A,459.97580000039306,Correct
14,114,319,B,69.16064817917845,43.50613276773992,3.4580324089589225,0.6833927354461695,B,1642.0608000007633,Correct
14,114,320,B,65.13565937487374,51.5060020622609,3.256782968743687,0.8090543884728978,B,1002.0849000011367,Correct
14,114,321,B,67.50362928980711,46.20780800327796,3.3751814644903555,0.7258305508079286,A,591.0723999986658,Incorrect
14,114,322,A,50.625792921859464,80.19878915568546,2.5312896460929735,1.259759634191491,B,767.0961000003444,Incorrect
14,114,323,B,63.86239786663939,39.6504608938573,3.1931198933319695,0.6228279832779573,A,497.89009999949485,Incorrect
14,114,324,B,61.27482121198138,33.99956500130158,3.063741060599069,0.5340639181666885,B,472.2518999988097,Correct
14,114,325,A,49.471595775067684,64.50709275836252,2.473579788753384,1.013275043570535,A,767.1472999991238,Correct
14,114,326,A,30.60419847625561,43.09456209721807,1.5302099238127806,0.6769277984714472,A,643.3579000004102,Correct
14,114,327,A,34.41216690904571,65.64785245270093,1.7206083454522854,1.0311940549467598,A,2908.6903000006714,Correct
14,114,328,B,59.99891206584263,37.687916385864575,2.9999456032921317,0.5920004062346927,B,862.380700000358,Correct
14,114,329,B,71.05973237802128,50.151991477919026,3.5529866189010644,0.7877856399496417,B,694.3688999999722,Correct
14,114,330,B,55.97064747191776,41.22983693149902,2.798532373595888,0.6476367640635124,B,398.14859999933105,Correct
14,114,331,B,47.2079874171383,26.883823418747255,2.360399370856915,0.42229011076370804,B,467.4150999999256,Correct
14,114,332,A,65.14487035049598,81.20591665150627,3.257243517524799,1.2755795559019858,A,259.68060000013793,Correct
14,114,333,B,55.761819844373,40.63838164923717,2.78809099221865,0.6383462062151087,B,365.6594000003679,Correct
14,114,334,A,13.780419689437554,39.483263396998694,0.6890209844718777,0.6202016511388094,A,428.82409999947413,Correct
14,114,335,B,85.34638549974036,64.25073453619635,4.267319274987018,1.0092481780333122,B,465.81069999956526,Correct
14,114,336,A,52.677850711091764,67.67431755536417,2.633892535554588,1.0630256943431742,A,384.73159999921336,Correct
14,114,337,B,62.7140238909476,34.19695193594467,3.13570119454738,0.5371644648856351,B,556.6428000001906,Correct
14,114,338,A,60.82261832569537,83.38986505998662,3.041130916284769,1.3098849372814907,B,476.8813999999111,Incorrect
14,114,339,A,29.098234429521767,50.57653635574537,1.4549117214760883,0.7944543752961337,A,430.3083999984665,Correct
14,114,340,B,59.105570310000445,36.29030882211418,2.955278515500022,0.5700468379602939,B,639.6953999992547,Correct
14,114,341,B,75.43429736960702,46.63091152643341,3.771714868480351,0.7324766454081939,A,454.6019999997952,Incorrect
14,114,342,A,48.62931987154951,68.62419502326648,2.4314659935774756,1.0779463347180362,B,355.5878999995912,Incorrect
14,114,343,B,67.94397542157455,56.62008284941732,3.397198771078728,0.8893861816268746,A,441.09170000047015,Incorrect
14,114,344,A,57.383076684874396,65.09506845779524,2.8691538342437197,1.022510944259671,B,354.26879999977245,Incorrect
14,114,345,A,34.337678568508,42.59120280195078,1.7168839284254,0.6690210491508078,A,352.0535999996355,Correct
14,114,346,B,44.64721606091915,23.907920582605307,2.2323608030459576,0.37554473832460517,B,609.7444999995787,Correct
14,114,347,B,49.69220639429196,30.44220247763613,2.484610319714598,0.4781849983141733,A,788.7718000001769,Incorrect
14,114,348,B,59.335733946125046,41.54815696505581,2.9667866973062527,0.6526369234580747,B,282.04960000039137,Correct
14,114,349,A,30.509543972112045,57.767384415164436,1.5254771986056022,0.9074079524788904,A,431.0084000007919,Correct
14,114,350,B,58.50820439998032,40.20556634075371,2.925410219999016,0.6315475592476447,B,763.9753000003111,Correct
14,114,351,A,15.002946210338699,32.821032835326925,0.7501473105169351,0.5155515781934622,A,732.2891000003438,Correct
14,114,352,B,75.78367086479183,45.40752506315669,3.7891835432395915,0.7132597357805373,B,568.1838000000425,Correct
14,114,353,B,81.64819275795548,60.22879611224222,4.082409637897774,0.9460717170038884,A,211.77320000060718,Incorrect
14,114,354,B,84.07752901410872,58.470860416422596,4.203876450705436,0.9184581276665372,B,520.7152000002679,Correct
14,114,355,B,38.6919831654949,20.453309564419968,1.9345991582747448,0.3212798353458981,A,289.05680000025313,Incorrect
14,114,356,A,52.71747472047926,61.336028573328164,2.635873736023963,0.9634640838317071,B,546.4470999995683,Incorrect
14,114,357,A,15.287296787047204,44.27561765066275,0.7643648393523602,0.6954797757223634,A,485.1741000002221,Correct
14,114,358,B,42.070549961939115,26.359373829172856,2.103527498096956,0.41405207587478243,B,454.6178000000509,Correct
14,114,359,B,78.0183879830102,63.28509016550578,3.90091939915051,0.994079871728603,B,677.221500000087,Correct
14,114,360,B,60.098873605560435,46.04525443597642,3.004943680278022,0.7232771653436817,B,697.3835999997391,Correct
14,114,361,B,36.80647236817404,11.72441428571124,1.8403236184087022,0.18416666893816833,B,487.2408999999607,Correct
14,114,362,A,69.56261907907667,86.54018319318547,3.4781309539538334,1.3593700188001316,A,1482.2418999992806,Correct
14,114,363,B,71.06159919157464,47.07733701099943,3.5530799595787323,0.7394890805216333,B,605.2931999984139,Correct
14,114,364,A,17.23249277627823,32.41506246975611,0.8616246388139116,0.5091746106032,A,451.94919999994454,Correct
14,114,365,A,59.016661308423636,70.6778071357167,2.9508330654211816,1.1102043983470193,B,771.9586000002892,Incorrect
14,114,366,A,15.6630071933069,35.96923644020741,0.783150359665345,0.5650034447789494,A,312.4303000004147,Correct
14,114,367,B,73.85851953771619,49.13737083251115,3.6929259768858094,0.771848016120672,B,525.1220999998623,Correct
14,114,368,B,50.805932620013024,30.283438538618956,2.5402966310006514,0.47569114019181663,A,784.1521000009379,Incorrect
14,114,369,A,36.61031227024337,46.855394371409545,1.8305156135121683,0.7360028136913638,B,389.139900000373,Incorrect
14,114,370,B,66.80345113991635,43.12762201252135,3.340172556995817,0.6774471024066726,B,629.1700999991008,Correct
14,114,371,A,36.64159429966864,44.48543671272291,1.832079714983432,0.6987756058421198,A,360.4857999998785,Correct
14,114,372,A,54.38426907477731,69.9948336102344,2.7192134537388655,1.0994762752957614,B,502.55749999996624,Incorrect
14,114,373,B,69.80214302445336,37.88538427874418,3.490107151222668,0.5951022246426448,A,484.11250000026484,Incorrect
14,114,374,A,31.156384116223634,44.25598617032787,1.557819205811182,0.6951714051503676,A,393.08949999940523,Correct
14,114,375,B,44.44356665613449,20.314053023110677,2.222178332806725,0.3190923987101902,A,399.7217999985878,Incorrect
14,114,376,A,45.45818304086796,59.074530716092134,2.272909152043398,0.9279405585596983,A,1061.2370999988343,Correct
14,114,377,B,52.95056447475693,33.67734815393641,2.6475282237378464,0.5290025477639619,B,555.6263999988005,Correct
14,114,378,A,15.050076577007236,42.409415389397296,0.7525038288503617,0.6661655391518423,A,535.5154999997467,Correct
14,114,379,A,46.37650556739206,77.77478283866331,2.318825278369603,1.221683432002431,A,429.5298000015464,Correct
14,114,380,A,57.33213663017477,71.46146427797974,2.8666068315087387,1.122514055952353,A,543.2607999991887,Correct
14,114,381,A,29.04234501440046,45.02566528278552,1.452117250720023,0.7072614963769598,A,639.2997000002651,Correct
14,114,382,A,36.49587259065169,61.78797028720238,1.8247936295325846,0.9705631676724971,A,514.0697000006185,Correct
14,114,383,B,63.923756856043134,32.332979503859086,3.1961878428021566,0.5078852543899653,B,698.8982000002579,Correct
14,114,384,A,47.39909541065058,70.06662910385653,2.369954770532529,1.1006040362723821,A,685.9387000004062,Correct
14,114,385,B,45.09512896318347,17.527643358289705,2.2547564481591733,0.2753235780457243,B,444.57779999902414,Correct
14,114,386,A,53.71103510788258,79.60105787798456,2.6855517553941293,1.250370493237261,A,529.8338000011427,Correct
14,114,387,A,57.14397590543015,69.29477327055707,2.857198795271507,1.0884797531947623,B,369.01339999894844,Incorrect
14,114,388,A,39.8458578543695,47.580247153174895,1.992292892718475,0.7473887745620046,A,306.1384000011458,Correct
14,114,389,A,29.440128451108,52.97687977694893,1.4720064225554,0.8321588815868619,B,409.34349999952246,Incorrect
14,114,390,B,54.5874641351916,47.97581359983279,2.72937320675958,0.75360231777614,A,462.58429999943473,Incorrect
14,114,391,A,60.4979464223163,69.4455781203529,3.0248973211158154,1.0908485902359837,B,431.6848000016762,Incorrect
14,114,392,B,47.36494913633084,22.957401366101244,2.368247456816542,0.3606140173862798,A,334.3482000000222,Incorrect
14,114,393,A,16.444068355344424,33.272087473303,0.8222034177672213,0.5226367278786286,A,553.388399999676,Correct
14,114,394,A,19.880501488375984,39.3665475926944,0.9940250744187992,0.6183682835720083,B,415.7648000000336,Incorrect
14,114,395,B,45.597828305504024,17.220547038743007,2.2798914152752014,0.27049972033856245,A,289.6947999997792,Incorrect
14,114,396,B,44.22199223981308,31.721508755005424,2.211099611990654,0.49828029432754667,B,360.602699998708,Correct
14,114,397,A,48.24147062113751,72.74447918106341,2.4120735310568757,1.1426676069222226,A,1388.7680000007094,Correct
14,114,398,A,60.2931773568958,80.44608384143294,3.0146588678447896,1.2636441300315715,B,523.9373999993404,Incorrect
14,114,399,A,20.86965124130891,36.841976538554746,1.0434825620654455,0.5787124141862556,A,248.98299999949813,Correct
14,114,400,A,41.30302662436899,66.08423235785943,2.0651513312184493,1.0380486944678604,A,3272.951599999942,Correct
14,114,401,B,56.97999344547621,29.85940631644351,2.848999672273811,0.469030457621458,A,569.8191999999835,Incorrect
14,114,402,A,21.81604252567128,39.23306828154049,1.0908021262835639,0.6162715954553717,B,1915.4710000002524,Incorrect
14,114,403,A,26.712380144855835,49.117159319188794,1.3356190072427918,0.7715305344118149,A,355.51980000127514,Correct
14,114,404,A,23.76220166548076,36.46187684049254,1.1881100832740379,0.5727418220909359,A,317.4171999999089,Correct
14,114,405,A,66.17048651957064,87.8955891943012,3.3085243259785324,1.3806606864788151,B,573.4752999996999,Incorrect
14,114,406,B,85.75567494472124,68.47195127667403,4.287783747236062,1.075554895538787,A,1307.7868999989732,Incorrect
14,114,407,A,11.510486361291196,32.26275021820206,0.5755243180645598,0.5067820953505304,B,397.510599999805,Incorrect
14,114,408,B,53.83514745618824,26.69200783826708,2.6917573728094117,0.4192770786713052,B,716.6874000013195,Correct
14,114,409,A,36.758554203556386,44.34536976003471,1.8379277101778195,0.69657543929424,A,555.8737999999721,Correct
14,114,410,B,59.906773450299866,27.712680513869966,2.9953386725149933,0.4353097675682745,B,526.3692000007723,Correct
14,114,411,A,69.26261695404321,88.94280209695954,3.4631308477021605,1.3971102682874947,A,496.8847000000096,Correct
14,114,412,B,72.9559338708375,48.03122676499355,3.647796693541875,0.7544727457390459,B,435.37170000126935,Correct
14,114,413,A,45.094053967001194,52.56444965820186,2.25470269835006,0.8256804444309874,B,430.1374000006035,Incorrect
14,114,414,B,85.53878589729446,58.63806406486769,4.276939294864723,0.9210845564345799,B,588.7904999999591,Correct
14,114,415,A,57.78288071818855,73.67136337786589,2.8891440359094274,1.157227069839238,B,816.6509000002407,Incorrect
14,114,416,B,75.21407762888698,61.2958339028866,3.760703881444349,0.9628327074248435,B,506.34070000160136,Correct
14,114,417,B,46.17612646559721,25.84342469243734,2.3088063232798604,0.40594756578681107,A,775.0951999987592,Incorrect
14,114,418,A,37.15691741430742,48.95652869368896,1.857845870715371,0.7690073544467556,B,479.8921999990853,Incorrect
14,114,419,A,44.8346559472657,63.35932388960015,2.241732797363285,0.9952459323399206,B,582.8074000000925,Incorrect
14,114,420,A,37.17893261790113,69.62896773977162,1.8589466308950566,1.0937292676415362,A,280.73869999934686,Correct
14,114,421,B,33.936714406331646,11.956696709568735,1.6968357203165823,0.18781535271991198,A,776.7573000000993,Incorrect
14,114,422,A,44.47061867710632,75.08838769247487,2.2235309338553164,1.1794856357229064,B,313.06229999972857,Incorrect
14,114,423,A,34.64292137686397,43.766902120175445,1.7321460688431984,0.6874888908556336,A,565.4513000008592,Correct
14,114,424,B,85.84518701227066,64.04678163801591,4.292259350613533,1.0060444934003023,B,523.3031999996456,Correct
14,114,425,B,51.34408435758797,34.447553626684936,2.5672042178793983,0.5411009070386691,A,537.9157000006671,Incorrect
14,114,426,B,67.37162122764985,39.818370951542,3.3685810613824922,0.6254655082963879,B,418.7830999999278,Correct
14,114,427,A,44.177711050897685,58.22526367181302,2.2088855525448845,0.9146003030234823,B,468.99200000007113,Incorrect
14,114,428,B,62.71555343837874,46.720962035105735,3.135777671918937,0.733891155490679,A,237.55200000050536,Incorrect
14,114,429,A,57.483105473297364,72.29238572262443,2.874155273664868,1.1355661394833827,B,438.13439999939874,Incorrect
14,114,430,B,66.30806406221562,43.04146699358603,3.3154032031107814,0.6760937825338871,A,546.5850000000501,Incorrect
14,114,431,A,29.742056185409027,48.09511130143506,1.4871028092704512,0.7554762416908591,A,568.1175999998231,Correct
14,114,432,A,55.69180191666361,72.27265156523141,2.7845900958331806,1.1352561560639292,B,665.7649999997375,Incorrect
14,114,433,A,54.11771059335281,72.15004485401057,2.7058855296676403,1.1333302543476684,B,1182.1964000009757,Incorrect
14,114,434,B,44.07763409288246,16.350932525936198,2.2038817046441235,0.2568398475141178,B,617.8150000014284,Correct
14,114,435,A,28.192429227593877,41.92516320084196,1.409621461379694,0.6585589235615912,A,562.1260999996593,Correct
14,114,436,B,63.95922987964841,35.99362950442297,3.1979614939824206,0.5653866101356401,B,468.5984000007011,Correct
14,114,437,B,51.45986169160792,35.50751827430969,2.572993084580396,0.5577507927888832,B,542.2224000012648,Correct
14,114,438,A,38.83456458501233,68.95360664446127,1.9417282292506166,1.0831207203637994,A,613.1760000007489,Correct
14,114,439,B,47.336381677177,36.3643254523551,2.36681908385885,0.5712094884693354,B,757.4733000001288,Correct
14,114,440,A,27.808539978270325,45.42110433300749,1.390426998913516,0.7134730384525594,B,914.157700000942,Incorrect
14,114,441,A,42.53629377243992,67.49161271794841,2.1268146886219963,1.060155773468171,B,492.68819999997504,Incorrect
14,114,442,B,73.41526082885918,53.069431969348685,3.670763041442959,0.8336126880254457,B,681.3844000007521,Correct
14,114,443,B,56.802608234434715,24.409520525715784,2.840130411721736,0.3834238518061899,A,750.3292000001238,Incorrect
14,114,444,A,16.911356574948957,37.75863163784196,0.8455678287474478,0.5931111988152372,A,675.6334000001516,Correct
14,114,445,A,15.161813932263193,33.35288248521184,0.7580906966131596,0.5239058529579261,A,1431.5126999990753,Correct
14,114,446,A,40.26381228559517,65.71439646774336,2.013190614279759,1.0322393258907478,A,715.3909999997268,Correct
14,114,447,A,24.506486413768457,51.7316795763812,1.2253243206884228,0.8125993225751016,B,587.9535000003671,Incorrect
14,114,448,A,36.29074433908742,46.99185942754464,1.8145372169543708,0.7381464017804925,A,522.0779000010225,Correct
14,114,449,B,55.20390687412194,42.279900365676276,2.760195343706097,0.664131121916585,B,589.3778999998176,Correct
14,114,450,A,54.32544222557903,76.73451596480353,2.716272111278952,1.2053429581589772,A,685.9615000012127,Correct
14,114,451,B,40.63416389450896,28.797930098154403,2.031708194725448,0.45235682817477135,B,454.5112000014342,Correct
14,114,452,A,53.469087056745735,74.4408254551726,2.6734543528372865,1.1693137518856516,A,380.34500000139815,Correct
14,114,453,B,38.77305154295637,13.785079449434964,1.9386525771478182,0.21653552163748252,B,555.5162999989989,Correct
14,114,454,B,43.18914014639996,32.33589993744408,2.1594570073199977,0.5079311284534449,B,472.7734000007331,Correct
14,114,455,A,18.147394847809625,35.62150511229645,0.9073697423904812,0.5595412938530089,A,558.8220999998157,Correct
14,114,456,A,57.71816992740596,69.79528236309557,2.885908496370298,1.0963417316356314,A,726.3079999993352,Correct
14,114,457,A,44.295149567363886,56.81648284981258,2.2147574783681945,0.8924712256189083,B,830.6059999995341,Incorrect
14,114,458,A,35.21950342763477,59.00600766560155,1.7609751713817385,0.9268642009995842,A,554.4977999998082,Correct
14,114,459,B,67.36426145859211,34.42145660928117,3.368213072929606,0.5406909760478877,B,928.5953999988124,Correct
14,114,460,B,38.31034365096292,23.914196122658442,1.915517182548146,0.3756433142772464,A,579.8982000014803,Incorrect
14,114,461,A,30.789980255288135,46.646200361938085,1.5394990127644066,0.7327168018747113,B,468.4328999992431,Incorrect
14,114,462,B,73.82494266884206,59.94863692071765,3.6912471334421024,0.9416709867142419,A,557.3175999998057,Incorrect
14,114,463,B,84.97045791576551,64.8436202838069,4.248522895788275,1.0185612055788693,B,583.8046999997459,Correct
14,114,464,B,71.29256674600344,49.55306604649206,3.564628337300172,0.7783777412725464,A,753.710900000442,Incorrect
14,114,465,A,69.67540356168008,86.50146875768866,3.4837701780840042,1.3587618938694084,B,361.4563999999518,Incorrect
14,114,466,A,41.364364974444605,52.55556541749206,2.0682182487222303,0.8255408911042543,A,307.7705000014248,Correct
14,114,467,B,72.42564866880491,54.89066346336642,3.6212824334402454,0.8622205254359081,A,682.6426000006904,Incorrect
14,114,468,B,69.76051422920878,38.47133314079214,3.488025711460439,0.6043062878445906,B,3474.6308000012505,Correct
14,114,469,B,74.67649883725082,61.17452784348086,3.733824941862541,0.9609272362995186,B,625.8611000012024,Correct
14,114,470,B,74.09537016112594,60.631783068865815,3.7047685080562975,0.9524018213159942,A,317.7250999997341,Incorrect
14,114,471,B,65.93098399276289,39.125900518701826,3.2965491996381444,0.6145882081731937,B,750.8299999990413,Correct
14,114,472,A,30.3030735701325,39.58490565451072,1.515153678506625,0.6217982439862797,A,273.87329999874055,Correct
14,114,473,B,69.45884993496989,57.677590152029516,3.472942496748494,0.9059974674918946,B,468.91540000069654,Correct
14,114,474,B,55.763562162012065,33.488194044980304,2.7881781081006034,0.5260313219684979,A,397.77329999924405,Incorrect
14,114,475,A,35.253038864566406,55.80074113735888,1.7626519432283203,0.8765159921099621,B,214.8949000002176,Incorrect
14,114,476,B,43.88811158760099,30.914165255419082,2.1944055793800494,0.48559857229142717,A,261.26010000007227,Incorrect
14,114,477,A,41.28403703638013,64.74260735440359,2.0642018518190066,1.0169744981942141,A,557.5653000014427,Correct
14,114,478,B,37.494530318953544,23.64569869038266,1.8747265159476771,0.37142576647351977,A,453.2965999987937,Incorrect
14,114,479,A,55.23107571995367,71.91749696462351,2.7615537859976835,1.1296774006431372,B,475.13790000084555,Incorrect
14,114,480,B,74.08031748654213,43.23415216881694,3.7040158743271063,0.6791204741886927,A,2007.0064999999886,Incorrect
14,114,481,B,62.609939487707514,39.543764688664204,3.130496974385376,0.6211520032059548,B,1001.7779999998311,Correct
14,114,482,B,80.67466339974823,65.30593740320653,4.0337331699874115,1.0258232659085424,A,1319.0107000009448,Incorrect
14,114,483,B,55.31237455302428,37.27870406258833,2.765618727651214,0.5855725140918775,B,689.518200000748,Correct
14,114,484,B,35.988360024318176,26.095162085033735,1.799418001215909,0.40990184750288444,A,620.5539999991743,Incorrect
14,114,485,A,41.40549840958016,61.2747032446403,2.070274920479008,0.962500787821283,B,272.9921000009199,Incorrect
14,114,486,A,57.75929149248536,71.9773133109399,2.8879645746242684,1.1306169936138983,A,323.7669999998616,Correct
14,114,487,B,48.39129598378619,34.09094541114891,2.4195647991893097,0.5354993182879804,B,1127.3975000003702,Correct
14,114,488,B,38.281693880070904,24.478654035765672,1.9140846940035454,0.3845097984426379,A,2203.5278999992443,Incorrect
14,114,489,B,53.77932492248341,41.69403737494266,2.6889662461241706,0.6549284075780905,B,908.6325000007491,Correct
14,114,490,B,74.09761519012083,46.98367169549904,3.704880759506042,0.7380177891862726,A,474.1933000004792,Incorrect
14,114,491,A,23.66547881622026,37.91363965474538,1.1832739408110131,0.5955460590509938,B,324.9782000002597,Incorrect
14,114,492,A,31.176286528228268,48.85183894526928,1.5588143264114134,0.7673628917240485,A,743.4831000009581,Correct
14,114,493,B,40.59482365647579,31.361827417240477,2.0297411828237895,0.4926304330857682,A,614.6748999999545,Incorrect
14,114,494,B,73.80980230582678,63.73744108424589,3.690490115291339,1.0011853833443956,B,472.60459999961313,Correct
14,114,495,B,47.93105913527315,38.19833369897518,2.396552956763658,0.6000180226403594,A,556.4882999988185,Incorrect
14,114,496,B,49.00525146056505,17.97251061860099,2.4502625730282523,0.28231153662980707,B,606.1470999993617,Correct
14,114,497,B,82.77251672204349,65.70563273059379,4.138625836102175,1.0321016654295125,A,1191.829899998993,Incorrect
14,114,498,A,41.87961285233666,63.72371582710578,2.0939806426168333,1.0009697875093957,A,1274.6288999987883,Correct
14,114,499,B,60.5587507427096,35.39858233881495,3.0279375371354798,0.5560396311155722,B,490.08430000139924,Correct
14,114,500,B,76.60457329735996,60.20190868432138,3.830228664867998,0.9456493702737381,A,449.7981999993499,Incorrect
14,114,501,B,75.90454511087846,45.245150275410644,3.795227255543923,0.7107091585789814,B,497.29540000043926,Correct
14,114,502,B,79.6316205052433,51.90825487944859,3.981581025262165,0.815372960949711,A,157.72959999958402,Incorrect
14,114,503,B,51.97614480155962,42.54675402090817,2.598807240077981,0.6683228493308855,B,469.20310000132304,Correct
14,114,504,A,33.8036126288585,50.33870102027312,1.690180631442925,0.7907184665827152,A,399.4094000008772,Correct
14,114,505,B,79.9501508436901,65.28963122375865,3.997507542184505,1.0255671290407347,B,565.7592999996268,Correct
14,114,506,A,54.19582652167152,67.38823804667669,2.7097913260835758,1.0585319679289984,A,233.33840000123018,Correct
14,114,507,B,61.56680309622999,32.93319809909743,3.0783401548114995,0.5173134660367091,B,241.64209999980812,Correct
14,114,508,A,24.23557772719894,52.89544637558808,1.211778886359947,0.8308797287095017,A,314.48830000044836,Correct
14,114,509,A,37.66507043114889,64.0384756800211,1.8832535215574444,1.0059140237172144,B,44.71270000067307,Incorrect
14,114,510,A,60.1730272726545,74.87235375323954,3.008651363632725,1.1760921825407675,A,217.1494000012899,Correct
14,114,511,B,65.4362932439679,55.47346886997773,3.271814662198395,0.8713752113553206,B,578.7970999990648,Correct
14,114,512,A,50.94900323662213,66.99001056341828,2.5474501618311067,1.0522766252496876,A,296.6264999995474,Correct
14,114,513,B,58.36558230647968,38.610009311540736,2.9182791153239838,0.6064846080408495,B,354.28959999990184,Correct
14,114,514,A,37.13382705514772,68.74711019451458,1.856691352757386,1.079877081713075,B,935.5777000000671,Incorrect
14,114,515,A,25.303691156225327,54.528972670915344,1.2651845578112664,0.8565390997537311,A,279.848199999833,Correct
14,114,516,B,84.8912209200009,65.77597123859474,4.244561046000046,1.0332065401295136,B,535.0204999995185,Correct
14,114,517,B,62.476968409252684,31.641002173449003,3.1238484204626342,0.4970156999016303,A,257.5598000003083,Incorrect
14,114,518,B,78.10448578335424,58.446054778302276,3.9052242891677116,0.9180684816141053,B,1236.0662999999477,Correct
14,114,519,A,30.40683777902659,54.93211155895817,1.5203418889513296,0.8628715905989898,A,4638.809399999445,Correct
14,114,520,A,44.07136424468619,56.32514502230643,2.2035682122343094,0.884753309072288,A,543.6817999998311,Correct
14,114,521,B,49.02847392352977,27.246080683789152,2.4514236961764886,0.4279804345765339,A,432.2221000002173,Incorrect
14,114,522,A,30.524263045874395,45.263003726429474,1.52621315229372,0.7109895999317912,B,252.37229999947886,Incorrect
14,114,523,B,49.87156842069848,19.174132880976554,2.493578421034924,0.3011865749891522,A,413.7998999995034,Incorrect
14,114,524,A,50.15541337523271,72.04788386307706,2.5077706687616357,1.1317255132546677,B,368.2687000000442,Incorrect
14,114,525,A,41.52807409398672,68.9750286511805,2.076403704699336,1.0834572164584708,A,468.18489999895974,Correct
14,114,526,B,63.25877458387113,51.91496327276821,3.1629387291935562,0.8154783361455626,B,475.0946999993175,Correct
14,114,527,A,63.441568669552254,87.61040290185305,3.1720784334776124,1.376180990672517,A,345.4334999987623,Correct
14,114,528,B,54.55929991932803,23.51180221026112,2.7279649959664014,0.36932252548206307,B,249.72999999954482,Correct
14,114,529,B,38.48257693549505,22.146054924732464,1.9241288467747524,0.34786941728767784,A,318.16389999949024,Incorrect
14,114,530,B,40.20093530795383,18.575158970294858,2.0100467653976914,0.29177791480170434,B,672.6698000002216,Correct
14,114,531,B,79.36518879774948,60.13495897996891,3.968259439887474,0.9445977267769693,A,365.1061000000482,Incorrect
14,114,532,A,50.25998329780026,70.79196128343662,2.512999164890013,1.1119975275062879,B,394.35170000069775,Incorrect
14,114,533,B,58.09915005352097,35.0749259776947,2.904957502676049,0.5509556488836572,A,333.67160000125295,Incorrect
14,114,534,A,17.011886698829468,33.635027413727045,0.8505943349414734,0.5283377751312809,B,313.28620000022056,Incorrect
14,114,535,A,43.46318486299132,56.29283184433687,2.173159243149566,0.8842457348596713,A,462.5586000001931,Correct
14,114,536,B,84.27546936022753,68.89738587751407,4.213773468011377,1.082237606621697,B,732.8731999987212,Correct
14,114,537,A,29.902418893459675,49.69593166076922,1.4951209446729836,0.780621869093865,A,460.6354999996256,Correct
14,114,538,A,65.87585698591404,87.29931438261582,3.293792849295702,1.371294423639258,B,530.1472999999532,Incorrect
14,114,539,B,58.5740704975719,27.225694221899232,2.9287035248785953,0.42766020478200356,A,408.51590000056603,Incorrect
14,114,540,A,35.22223281365994,55.93918662856593,1.7611116406829972,0.8786906888004555,B,452.6936000002024,Incorrect
14,114,541,A,20.585827555859364,41.670511955299844,1.0292913777929682,0.6545588711504782,A,1417.6908999997977,Correct
14,114,542,B,36.72664079761435,18.431142654716208,1.8363320398807175,0.2895157118066096,A,327.4984999989101,Incorrect
14,114,543,A,40.26361003672825,51.99614018631089,2.0131805018364126,0.8167534601216965,A,686.3627000002452,Correct
14,114,544,B,35.58684806698152,17.805841446869657,1.779342403349076,0.27969350340235183,B,441.4502999989054,Correct
14,114,545,A,52.70464331039227,67.08726522217019,2.6352321655196134,1.0538042978569993,A,205.01880000119854,Correct
14,114,546,B,78.7705554783465,56.992950614100174,3.938527773917325,0.895243174778315,B,488.94430000109423,Correct
14,114,547,A,58.532307884206006,79.84791261078448,2.9266153942103004,1.2542480783126015,A,399.2925999991712,Correct
14,114,548,A,33.57295586304743,62.59281260550357,1.6786477931523718,0.983205601244863,A,695.5762000015966,Correct
14,114,549,B,72.63673355872476,55.19093081896716,3.6318366779362377,0.8669371140282487,B,479.6062000004895,Correct
