subject,day,trial,cat,x,y,xt,yt,resp,rt,fb
1,501,0,A,13.081300177680962,36.13536055104757,0.6540650088840481,0.5676129162099472,A,640.0772999995752,Correct
1,501,1,B,75.33051102664794,43.15510297619878,3.766525551332397,0.6778787723746855,A,1466.881999999714,Incorrect
1,501,2,B,84.47334869575938,61.537582656959486,4.223667434787969,0.9666300879738928,B,1243.749499999467,Correct
1,501,3,A,49.60675626832197,59.70640238618256,2.480337813416099,0.937865975543536,B,936.7160000001604,Incorrect
1,501,4,A,12.35473909660983,39.76676521261764,0.6177369548304915,0.6246548872449486,A,510.51879999977245,Correct
1,501,5,A,60.89833133500956,86.38636774035048,3.0449165667504783,1.3569538913169568,A,691.7754999994941,Correct
1,501,6,B,81.58536739441612,57.363402281533396,4.079268369720807,0.9010622159629065,A,764.6414999999251,Incorrect
1,501,7,B,45.635008741532346,37.2410030081063,2.2817504370766173,0.5849803073129105,A,1441.0777000002781,Incorrect
1,501,8,B,60.43422009476231,50.57259019146656,3.021711004738115,0.7943923890925929,A,1110.2744999998322,Incorrect
1,501,9,B,45.259751755172154,16.50935561723628,2.2629875877586074,0.2593283516130544,B,725.2165999998397,Correct
1,501,10,A,14.784247007268231,33.23505739127684,0.7392123503634116,0.5220550607103523,A,552.3240000002261,Correct
1,501,11,A,28.568578397166405,57.18202163889822,1.4284289198583202,0.898213095490876,A,762.229799999659,Correct
1,501,12,B,71.05013366406965,54.23984163464468,3.552506683203483,0.8519974400563675,A,610.5213000000731,Incorrect
1,501,13,A,29.421599331163215,46.33319074072231,1.4710799665581606,0.7278000582421391,A,776.6013999998904,Correct
1,501,14,A,21.238784972115422,42.40470513190026,1.061939248605771,0.6660915506000962,A,677.0340000002761,Correct
1,501,15,B,56.29269605007901,43.82047262911444,2.8146348025039503,0.6883303744422927,A,372.2238999998808,Incorrect
1,501,16,A,34.25510428924898,67.13773650530787,1.7127552144624492,1.0545970989186122,A,613.0880000000616,Correct
1,501,17,A,51.068119673335836,81.06058553689208,2.5534059836667917,1.273296700091936,A,706.3375999996424,Correct
1,501,18,B,77.53827060886859,55.152962871431214,3.8769135304434292,0.8663407149029946,A,463.05370000027324,Incorrect
1,501,19,A,15.033862487194835,37.74004331149446,0.7516931243597418,0.5928192140677581,A,548.8581999998132,Correct
1,501,20,B,73.11080707575698,44.59554256589589,3.6555403537878486,0.7005051445393472,A,659.5237000001362,Incorrect
1,501,21,B,62.26162821473675,47.90294237981371,3.1130814107368376,0.7524576593287896,B,941.1666000005425,Correct
1,501,22,A,19.016113826926613,35.343066924526504,0.9508056913463306,0.5551675970271244,A,782.2896999996374,Correct
1,501,23,A,45.56766344146109,60.81842736347976,2.2783831720730547,0.9553336230399624,B,750.0279999994746,Incorrect
1,501,24,A,40.260709608284984,50.320779452288136,2.013035480414249,0.7904369552511031,B,638.344899999538,Incorrect
1,501,25,B,71.97764873310518,52.02989876674179,3.598882436655259,0.8172837386630831,B,556.7166999999245,Correct
1,501,26,B,50.871292246574264,33.927470112773015,2.543564612328713,0.5329314543058749,B,1066.780799999833,Correct
1,501,27,A,61.262569919381214,69.9396610022688,3.063128495969061,1.098609625996441,A,540.225300000202,Correct
1,501,28,A,41.81888764213748,57.49574731749883,2.0909443821068745,0.9031410869265468,A,589.0326999997342,Correct
1,501,29,B,84.06932949810937,59.88822097612979,4.203466474905468,0.9407219752758574,A,537.1742999996059,Incorrect
1,501,30,A,26.639571374185536,38.408691516128606,1.3319785687092769,0.6033223155053313,A,516.5250999998534,Correct
1,501,31,B,82.73836380920821,60.85752498890924,4.13691819046041,0.9559477671040728,A,752.1185000005062,Incorrect
1,501,32,B,72.66336818387839,53.685012356155845,3.6331684091939196,0.8432822021298824,B,707.9960000000938,Correct
1,501,33,A,20.529733788535577,51.255474768816484,1.0264866894267788,0.8051191149498543,A,813.1181999997352,Correct
1,501,34,B,62.63156329907524,47.92556397669577,3.131578164953762,0.7528129985416753,A,675.7645999996384,Incorrect
1,501,35,B,63.09402200412043,36.72255986232565,3.154701100206022,0.5768366214224684,B,648.7372000001415,Correct
1,501,36,A,21.255028387333244,38.48428454728938,1.062751419366662,0.6045097280621174,A,493.2504999997036,Correct
1,501,37,A,32.916994773090195,62.97044240619156,1.64584973865451,0.989137396282953,A,570.9913999999117,Correct
1,501,38,B,47.32150545529392,29.226887228118766,2.3660752727646956,0.45909487101577634,A,752.510400000574,Incorrect
1,501,39,A,29.200334868072524,51.92626588018021,1.4600167434036262,0.8156558770876224,A,622.0405000003666,Correct
1,501,40,A,28.6423484906522,60.970188744030885,1.43211742453261,0.9577174852311527,A,811.6343000001507,Correct
1,501,41,B,50.82511432811577,24.659544225608126,2.5412557164057885,0.3873512149002154,B,613.2587000001877,Correct
1,501,42,A,44.293441707888476,69.04044949576432,2.2146720853944237,1.0844848446821518,A,519.2186999993282,Correct
1,501,43,B,78.28664970061541,60.77305892295057,3.9143324850307706,0.9546209772426058,A,475.64499999953114,Incorrect
1,501,44,A,36.352654794172814,59.078397755864806,1.8176327397086407,0.9280013018784029,A,764.4461999998384,Correct
1,501,45,B,69.27771602692901,38.51706855800043,3.4638858013464504,0.6050246980981429,A,1002.8505999998742,Incorrect
1,501,46,B,79.19575419762336,65.44768711596643,3.959787709881168,1.0280498651898173,A,1226.8733999999313,Incorrect
1,501,47,A,45.874213123082285,68.30310808654068,2.293710656154114,1.072902712910129,A,2344.422299999678,Correct
1,501,48,A,55.376620358733526,72.46532210551227,2.768831017936676,1.138282617833477,A,5092.05159999965,Correct
1,501,49,B,81.77232435403835,64.90285377188232,4.088616217701917,1.0194916430337906,A,828.6037999996552,Incorrect
1,501,50,B,70.41142071540575,41.81091641604779,3.520571035770288,0.6567643392625631,A,2466.16879999965,Incorrect
1,501,51,B,64.51286225463792,36.343806441769104,3.225643112731896,0.5708871766047561,A,935.6970999997429,Incorrect
1,501,52,B,39.46852849859535,12.128803809987833,1.9734264249297673,0.19051880473144836,B,584.2726999999286,Correct
1,501,53,B,78.99405435922147,49.30430552714949,3.9497027179610735,0.7744702201721974,B,503.4462000003259,Correct
1,501,54,B,59.80852729656058,39.21068897469357,2.990426364828029,0.6159200621254581,B,691.2954999997964,Correct
1,501,55,B,34.29918002972653,11.561827224235024,1.7149590014863265,0.1816127573486561,B,492.19210000046587,Correct
1,501,56,A,53.32669538017407,76.76597776706197,2.666334769008704,1.2058371589931967,A,548.7577000003512,Correct
1,501,57,B,38.16027821789906,12.789375918232615,1.9080139108949532,0.20089504714358897,A,589.8548000004666,Incorrect
1,501,58,A,64.18872236821863,80.95297507256032,3.209436118410932,1.2716063588709658,A,568.0867999999464,Correct
1,501,59,A,43.80111779678615,57.33869302479262,2.1900558898393077,0.900674083865644,A,1048.655200000212,Correct
1,501,60,B,68.07327232992641,57.789614692465925,3.4036636164963205,0.9077571448581787,B,643.1626000003234,Correct
1,501,61,B,80.95048136084203,54.977493550142235,4.047524068042102,0.8635844492495355,B,528.7043999996968,Correct
1,501,62,A,67.4992262395993,83.73927471490191,3.374961311979965,1.3153734513063668,A,810.3658999998515,Correct
1,501,63,A,26.77492911786753,44.15915429104568,1.3387464558933766,0.6936503735474365,A,612.8812999995716,Correct
1,501,64,A,50.97669957797192,76.81620831280463,2.548834978898596,1.2066261785606511,A,549.693799999659,Correct
1,501,65,A,49.645008063237924,72.67610168228899,2.4822504031618964,1.1415935356831193,A,434.4287000003533,Correct
1,501,66,B,71.12072421725813,55.41855527839023,3.556036210862907,0.870512630675753,A,719.6840999995402,Incorrect
1,501,67,B,47.45218009869086,38.79679405259911,2.372609004934543,0.6094186158924076,A,802.198800000042,Incorrect
1,501,68,A,24.01859243968409,34.58799056623675,1.2009296219842045,0.5433068853266122,A,636.6698000001634,Correct
1,501,69,A,47.17521306189806,62.022541343182596,2.3587606530949032,0.9742478012035583,A,608.0179000000498,Correct
1,501,70,A,32.40561252609393,50.09073365130549,1.6202806263046967,0.7868234042593217,A,1001.7098999996961,Correct
1,501,71,A,39.7778631631786,48.54383736095428,1.9888931581589302,0.7625248141511585,A,442.25340000048163,Correct
1,501,72,B,51.4341466312172,27.361589315376538,2.5717073315608605,0.4297948399186396,B,982.4034000002939,Correct
1,501,73,B,54.92038364743345,32.55918088861415,2.7460191823716724,0.511438417432857,B,365.0454999997237,Correct
1,501,74,A,34.13411152230985,64.57137098226968,1.7067055761154928,1.0142847235505978,A,514.8492000007536,Correct
1,501,75,B,56.871396169627246,41.967870570095066,2.8435698084813623,0.6592297693490896,A,570.0307000006433,Incorrect
1,501,76,B,57.293406471412524,30.758021586822743,2.8646703235706266,0.48314587328059305,B,652.2919999997612,Correct
1,501,77,A,39.66009591619888,52.28510777365794,1.983004795809944,0.8212925523693717,B,536.9896000001972,Incorrect
1,501,78,B,78.4681538930052,66.187885089957,3.9234076946502596,1.0396768677762718,A,491.183799999817,Incorrect
1,501,79,A,67.13635571579653,84.96704275812189,3.3568177857898265,1.3346591866308277,A,585.8474000006026,Correct
1,501,80,A,25.257146119058078,49.3835811410311,1.2628573059529038,0.7757154786030938,A,838.2870999994338,Correct
1,501,81,A,62.711511406478266,74.60012867667425,3.1355755703239137,1.1718160810374652,A,618.1193999991592,Correct
1,501,82,B,81.50682509371453,57.50001371658522,4.075341254685726,0.9032081033666824,A,529.8675000003641,Incorrect
1,501,83,B,84.72236328695979,63.59969549650837,4.236118164347989,0.9990216807118927,B,680.7868999994753,Correct
1,501,84,B,33.38736941901358,15.037731227527502,1.6693684709506789,0.23621212975529107,A,638.9083000003666,Incorrect
1,501,85,B,41.52037137849871,19.959210345536338,2.0760185689249355,0.3135185429649518,B,1075.870699999541,Correct
1,501,86,A,17.922484616996975,45.756495345176035,0.8961242308498487,0.7187413481521029,A,766.6522000008626,Correct
1,501,87,B,54.72944499134049,28.504859211192496,2.736472249567025,0.44775328144746845,A,756.7337000000407,Incorrect
1,501,88,B,66.0051640491551,35.50808228651701,3.300258202457755,0.5577596522719185,A,697.1675000004325,Incorrect
1,501,89,B,34.829004324508944,23.55755338066086,1.7414502162254473,0.37004118318616774,B,574.4245000005321,Correct
1,501,90,A,37.70630221850022,51.605792370168274,1.8853151109250108,0.8106218909640043,B,851.127599999927,Incorrect
1,501,91,A,25.810912561520652,54.13871686509798,1.2905456280760326,0.8504089758908483,A,502.73310000011406,Correct
1,501,92,B,31.496589732732502,15.272571339460768,1.574829486636625,0.23990098960737988,B,696.3796000000002,Correct
1,501,93,B,80.84381245808883,51.83063584655293,4.0421906229044415,0.8141537240320924,A,627.1852999998373,Incorrect
1,501,94,B,51.67605697200513,35.36438958323832,2.5838028486002567,0.5555025325669446,A,744.4398999996338,Incorrect
1,501,95,A,14.23789590628073,36.86229264248655,0.7118947953140364,0.5790315388005642,A,682.4148999994577,Correct
1,501,96,B,62.8886060635418,40.63450868741186,3.1444303031770904,0.6382853698730186,B,1355.5282999996052,Correct
1,501,97,B,35.95608231355459,21.326218744487488,1.7978041156777294,0.3349914606826542,B,806.8384999996852,Correct
1,501,98,A,49.40058277776694,66.21472403669553,2.4700291388883473,1.0400984529657908,A,599.1589000004751,Correct
1,501,99,A,57.44506495771856,67.39741940691042,2.872253247885928,1.0586761883982996,A,578.4489999996367,Correct
1,501,100,B,77.1165959564187,53.363130114526314,3.855829797820935,0.8382260877017607,A,610.4905999991388,Incorrect
1,501,101,A,50.41431753621396,76.47097473075104,2.520715876810698,1.2012032621348907,A,808.8634000005186,Correct
1,501,102,B,53.065509780495574,31.497156760541827,2.6532754890247787,0.49475618143942146,B,688.3236999992732,Correct
1,501,103,B,81.0262859193088,58.48096691178687,4.05131429596544,0.9186168801244871,A,440.0708000002851,Incorrect
1,501,104,A,22.035857853501184,34.15083638889202,1.1017928926750593,0.5364400835664507,A,565.0643999997556,Correct
1,501,105,A,11.291029649234378,37.01335174361513,0.5645514824617188,0.5814043696123813,A,504.9131000005218,Correct
1,501,106,A,45.14507796108841,65.74896894209324,2.2572538980544206,1.032782389047918,A,667.7084000002651,Correct
1,501,107,A,43.510005794530656,60.51681946893552,2.175500289726533,0.9505959773111381,A,478.18830000051094,Correct
1,501,108,B,57.5321952555077,46.31537118066918,2.8766097627753853,0.7275201492473736,A,634.617600000638,Incorrect
1,501,109,B,61.9506753226752,31.51751922274059,3.0975337661337603,0.4950760342476847,B,508.81289999961155,Correct
1,501,110,B,42.679330620083064,20.571926546187946,2.1339665310041536,0.3231430665384645,B,589.130500000465,Correct
1,501,111,B,65.32384040309586,49.71483240342756,3.2661920201547927,0.780918761265279,B,650.431000000026,Correct
1,501,112,B,72.63327271152635,56.37414092816044,3.631663635576317,0.8855229349617226,B,447.95970000086527,Correct
1,501,113,B,80.51385549218719,53.09026102236859,4.025692774609359,0.8339398700251885,B,511.4147000003868,Correct
1,501,114,B,74.43511386181663,47.76496142925725,3.7217556930908313,0.7502902596257719,B,485.179700000117,Correct
1,501,115,B,65.07197404389777,57.143625579974426,3.2535987021948882,0.8976099716076672,A,751.1563999996724,Incorrect
1,501,116,B,67.4697078753424,44.35299439898863,3.37348539376712,0.6966952068428596,B,1391.990000000078,Correct
1,501,117,A,66.56206992435757,88.70530858961993,3.3281034962178784,1.3933797289978278,A,565.519800000402,Correct
1,501,118,A,36.97193624009819,59.96734494011683,1.8485968120049094,0.9419648515957805,A,876.1942999999519,Correct
1,501,119,B,87.27693370693945,59.90742612840384,4.363846685346972,0.9410236491023336,A,530.0026000004436,Incorrect
1,501,120,A,21.252937620072522,35.78776110362269,1.062646881003626,0.562152836857838,A,544.0603000006377,Correct
1,501,121,A,52.13687957130723,65.84218607890905,2.6068439785653617,1.034246640408964,A,611.4153000007718,Correct
1,501,122,A,24.116113522082138,52.88307673963646,1.205805676104107,0.8306854269223357,A,623.822200000177,Correct
1,501,123,B,74.15351403177306,62.81025671594374,3.707675701588653,0.9866212053444889,A,670.7335999999486,Incorrect
1,501,124,A,66.14806670516359,80.97088417802121,3.3074033352581798,1.2718876744417074,A,1424.975099999756,Correct
1,501,125,B,52.73126941845351,34.18865176447935,2.6365634709226753,0.5370340860971402,B,1178.9128999998866,Correct
1,501,126,A,54.043293661410445,83.86145120941819,2.702164683070522,1.3172925951944354,A,743.9112000001842,Correct
1,501,127,A,46.38003967140931,65.21698939929796,2.319001983570465,1.0244260739303894,A,865.3253000002223,Correct
1,501,128,B,39.95412001994181,15.942403018681983,1.9977060009970904,0.25042268102029525,B,536.240600000383,Correct
1,501,129,B,40.90658590043749,22.44524632872048,2.0453292950218747,0.35256910487160764,B,2997.5046999998085,Correct
1,501,130,B,47.52381257761286,37.40229940362693,2.376190628880643,0.5875139451690012,A,780.4221000005782,Incorrect
1,501,131,B,39.58785789241985,24.01375913317182,1.9793928946209922,0.3772072463892369,A,692.1533999993699,Incorrect
1,501,132,A,54.37872715450774,75.94169920050713,2.718936357725387,1.1928894215471952,A,684.1570000005959,Correct
1,501,133,B,41.18008559617516,13.315512105547764,2.059004279808758,0.20915957504787405,B,763.5918999994828,Correct
1,501,134,A,22.41107736584422,40.171371720251116,1.1205538682922112,0.6310104314048285,A,758.154399999512,Correct
1,501,135,A,28.56768573061691,41.301515829107224,1.4283842865308456,0.6487626935542291,A,1222.965099999783,Correct
1,501,136,B,72.5339623887182,43.55606980507603,3.6266981194359094,0.6841771445943553,B,850.063500000033,Correct
1,501,137,B,48.23834808297464,19.122354581514177,2.411917404148732,0.30037324336312027,B,490.6244000003426,Correct
1,501,138,A,40.11182078162284,63.573362901012935,2.005591039081142,0.9986080492691006,A,671.0467000002609,Correct
1,501,139,A,59.57668597455829,79.18378050612226,2.9788342987279144,1.243815915607502,A,535.0587000002633,Correct
1,501,140,A,23.360136066829792,47.84598341295041,1.1680068033414897,0.7515629499695206,A,1147.484600000098,Correct
1,501,141,B,50.08991776262823,39.9794717128813,2.5044958881314114,0.6279960731379443,A,734.562200000255,Incorrect
1,501,142,B,35.572636028961895,16.469219671546032,1.7786318014480946,0.25869789765242757,B,799.1262999994433,Correct
1,501,143,A,47.977677164832635,63.18664192357461,2.3988838582416316,0.9925334503605542,B,849.0595000002941,Incorrect
1,501,144,A,46.871794128185336,73.37638020931566,2.343589706409267,1.1525934850629878,A,554.7184999995807,Correct
1,501,145,B,65.9616880568849,54.717926349729304,3.298084402844245,0.8595071771998846,B,1217.6529999997001,Correct
1,501,146,A,35.08240585084248,48.61176353707636,1.7541202925421238,0.7635917960306163,A,595.3319000000192,Correct
1,501,147,A,55.550114714033825,81.33834027594577,2.7775057357016912,1.2776596613304902,A,640.8523000000059,Correct
1,501,148,A,46.28174663910888,76.71134888809861,2.3140873319554442,1.2049790505690707,A,413.30610000022716,Correct
1,501,149,A,48.103930008083246,72.30230280636712,2.405196500404162,1.1357219166705381,A,484.7360000003391,Correct
1,501,150,A,39.82226144199637,58.250962286209194,1.9911130720998185,0.9150039759144545,A,445.0360999999248,Correct
1,501,151,A,27.118661780539746,51.899465187163756,1.3559330890269874,0.8152348927861642,A,613.6209999995117,Correct
1,501,152,B,50.28411376487058,30.72452214539601,2.5142056882435293,0.48261966528516503,A,394.0423000003648,Incorrect
1,501,153,A,26.20871404550465,36.176527955762324,1.3104357022752324,0.5682595722910435,B,823.3240999998088,Incorrect
1,501,154,B,82.2176760264709,68.62072954428184,4.110883801323545,1.0778918991014397,A,1222.49550000015,Incorrect
1,501,155,A,55.047533002720016,84.21566532831591,2.7523766501360005,1.3228565775630696,A,679.8601000000417,Correct
1,501,156,A,39.693476797480116,48.29142930470923,1.9846738398740058,0.7585599976751268,B,623.3639000001858,Incorrect
1,501,157,B,69.15417646554823,49.415623229921465,3.457708823277412,0.776218794558412,B,2467.7814000006038,Correct
1,501,158,A,43.037127296085046,72.33718097219639,2.151856364804252,1.1362697816182379,A,479.11219999969035,Correct
1,501,159,B,52.46272911745701,23.01983085237525,2.6231364558728507,0.3615946574635087,A,701.2314999992668,Incorrect
1,501,160,B,31.62461744477212,13.553533948254419,1.5812308722386061,0.2128984134100797,B,634.1933000003337,Correct
1,501,161,A,26.968660905100876,39.7605279318354,1.3484330452550437,0.6245569122675293,A,576.8320999995922,Correct
1,501,162,A,48.03736324469427,76.30822933095587,2.4018681622347136,1.1986468633728806,A,529.1270000006989,Correct
1,501,163,B,49.59645290032702,30.023639041996255,2.479822645016351,0.4716102192418356,B,675.3346999994392,Correct
1,501,164,A,28.378806101325935,43.33657732887853,1.418940305066297,0.6807293648406538,A,1026.8040000000838,Correct
1,501,165,B,37.15511142825122,18.20108525802828,1.8577555714125609,0.2859019786699157,A,835.3696000003765,Incorrect
1,501,166,A,67.99990815258846,86.60834393313846,3.3999954076294228,1.3604406851996294,A,481.4371000002211,Correct
1,501,167,B,66.11998194866773,54.3606129955552,3.305999097433386,0.8538945121573702,A,1033.74950000034,Incorrect
1,501,168,A,40.09393867291862,50.443156775383784,2.004696933645931,0.7923592537471194,B,1305.2309999993668,Incorrect
1,501,169,B,61.197217330121575,52.89900326386606,3.059860866506079,0.8309356001799203,B,1471.0684000001493,Correct
1,501,170,B,79.62495222294996,63.89517430945338,3.9812476111474977,1.00366305105209,B,802.3640000001251,Correct
1,501,171,B,68.02600837901252,41.05402649412258,3.401300418950626,0.6448751401710813,B,647.9057000005923,Correct
1,501,172,A,27.851418640252305,54.29252717189965,1.3925709320126152,0.8528250225403208,A,596.6001000006145,Correct
1,501,173,B,82.59030463128651,56.11977723023753,4.1295152315643255,0.8815273993380498,B,1061.4611000000878,Correct
1,501,174,B,53.1324780028136,36.263840076678136,2.6566239001406804,0.5696310678792357,B,1042.9567000001043,Correct
1,501,175,B,56.72882206798299,28.947900729422813,2.8364411033991495,0.4547125613420066,B,1612.3783000002732,Correct
1,501,176,B,62.85057068661136,39.932059445423405,3.1425285343305682,0.6272513229822655,B,710.3376000004573,Correct
1,501,177,B,42.267468994150676,34.244243197930324,2.1133734497075336,0.5379073142918007,B,391.71470000019326,Correct
1,501,178,B,59.41707692256688,40.551558254564036,2.970853846128344,0.6369823875207845,B,444.70600000022387,Correct
1,501,179,B,77.97437686369925,62.4124888182657,3.8987188431849624,0.9803730818185932,B,449.9765999998999,Correct
1,501,180,B,34.86058930114855,11.55730057763715,1.7430294650574274,0.1815416529501697,B,603.9446999993743,Correct
1,501,181,B,63.75187709868571,47.42606523423011,3.1875938549342857,0.744966890642638,B,656.912000000375,Correct
1,501,182,A,62.61619218094722,84.80029264448815,3.130809609047361,1.3320398819709427,A,716.5339000002859,Correct
1,501,183,A,22.00810413298647,35.16545125779716,1.1004052066493235,0.5523776166583275,A,468.2455000001937,Correct
1,501,184,A,34.86606231646198,47.86210227785917,1.743303115823099,0.7518161445074283,A,570.9233999996286,Correct
1,501,185,B,61.10033976655703,44.833761511776046,3.0550169883278513,0.7042470789909623,A,394.1045999999915,Incorrect
1,501,186,A,59.505658465620456,75.13586097869808,2.9752829232810227,1.1802313443591095,A,701.4069999995627,Correct
1,501,187,B,79.01362493123793,50.786033595577344,3.9506812465618966,0.797745150244151,A,580.5710000004183,Incorrect
1,501,188,A,27.200558947353606,43.78340869076606,1.3600279473676804,0.6877481754601509,A,751.9197000001441,Correct
1,501,189,A,59.50670354510375,70.70732474902012,2.9753351772551873,1.1106680599325467,A,575.6728000005751,Correct
1,501,190,A,45.7890773780996,70.0649375730892,2.28945386890498,1.1005774657692224,A,435.29320000016014,Correct
1,501,191,A,65.73224403246654,80.0739100986598,3.2866122016233272,1.2577980385507956,A,488.54800000026444,Correct
1,501,192,B,61.817803889186806,53.91605439559319,3.09089019445934,0.8469114019987163,A,421.7994999999064,Incorrect
1,501,193,B,83.06639969297856,62.771894216255134,4.153319984648928,0.9860186086085139,B,1112.2908000006646,Correct
1,501,194,B,66.72582992069808,54.133287455025105,3.3362914960349035,0.850323690916857,B,559.4805000000633,Correct
1,501,195,A,57.44737841313687,77.05226566683861,2.8723689206568435,1.210334158806946,A,1091.617899999619,Correct
1,501,196,A,24.062520184445987,36.034241485069316,1.2031260092222993,0.5660245416358716,A,702.1371999999246,Correct
1,501,197,A,37.00515805308462,54.4770564565671,1.850257902654231,0.8557236017657381,A,1302.7210000000196,Correct
1,501,198,B,50.21346187621768,39.3469784601279,2.510673093810884,0.6180608923564682,A,490.30579999998736,Incorrect
1,501,199,A,52.847694236234666,77.32781149191885,2.6423847118117334,1.2146624225059433,A,551.8781999999192,Correct
1,501,200,B,63.270965475632906,31.49278563083289,3.1635482737816454,0.49468751989451404,A,833.5241999993741,Incorrect
1,501,201,B,82.56794078567316,62.89592138153173,4.128397039283658,0.9879668227649064,A,631.5876999997272,Incorrect
1,501,202,A,17.975074943940047,46.394635075601116,0.8987537471970023,0.728765223597439,A,548.5955000003742,Correct
1,501,203,A,68.23276844045954,88.87387242069573,3.411638422022977,1.3960275234646713,A,582.8274000004967,Correct
1,501,204,A,26.530558850563423,48.52392011736311,1.326527942528171,0.7622119548204297,B,578.4395999999106,Incorrect
1,501,205,A,53.51795926841006,64.51031244554243,2.675897963420503,1.0133256182984915,B,811.5562000002683,Incorrect
1,501,206,A,30.36744651241699,54.483461225075885,1.5183723256208495,0.8558242076342139,A,1372.3992000004728,Correct
1,501,207,B,64.68652108781903,32.63856629917031,3.2343260543909516,0.5126854005458842,B,946.190800000295,Correct
1,501,208,A,26.515636068224683,51.12283109720356,1.325781803411234,0.8030355530284327,A,1017.388999999639,Correct
1,501,209,B,50.70950001519794,33.44499877166325,2.535475000759897,0.5253528122018847,A,472.57470000022295,Incorrect
1,501,210,B,83.48944576059088,61.22364658462088,4.174472288029545,0.9616987916811139,B,1489.7156999995786,Correct
1,501,211,A,50.217335192941746,59.170131947522414,2.510866759647087,0.9294422591913757,B,803.1114999994315,Incorrect
1,501,212,A,35.709292706614505,56.373156832385185,1.7854646353307253,0.8855074768214327,A,550.407499999892,Correct
1,501,213,A,50.40721107376191,75.56477940700327,2.5203605536880955,1.1869687792758739,A,1782.1665000001303,Correct
1,501,214,A,23.912105923951625,46.45688314030343,1.1956052961975814,0.7297430139112838,A,699.1573999994216,Correct
1,501,215,A,27.830348760770775,45.39338379396676,1.391517438038539,0.7130376052435398,B,706.6222000003108,Incorrect
1,501,216,B,67.68546730913197,57.21042325760677,3.3842733654565986,0.8986592270743003,A,527.8926999999385,Incorrect
1,501,217,B,68.53174277896773,56.243026841183664,3.426587138948386,0.8834633996995809,B,591.0797999995339,Correct
1,501,218,A,40.39354439137127,62.371024045559196,2.0196772195685635,0.9797217546920057,A,683.4848999997121,Correct
1,501,219,A,57.4098791921063,69.3790347296728,2.870493959605315,1.0898033290994558,A,532.6140999995914,Correct
1,501,220,B,34.75446812321091,14.972036259137436,1.7377234061605458,0.2351801956049309,A,503.6984999997003,Incorrect
1,501,221,A,55.368969616072064,62.811468342793155,2.768448480803603,0.9866402375345342,A,470.0624000006428,Correct
1,501,222,A,26.599207814723677,59.42834177237045,1.3299603907361839,0.9334982096355121,A,583.4231999997428,Correct
1,501,223,A,23.656439067132094,50.818360312683986,1.1828219533566047,0.7982529371290354,A,567.4591999995755,Correct
1,501,224,A,48.9574784414782,69.59268953105257,2.44787392207391,1.0931594108715503,A,720.8356999999523,Correct
1,501,225,B,44.23294010091557,30.767122577247825,2.2116470050457786,0.48328883130389216,A,1084.7148000002562,Incorrect
1,501,226,A,38.40056894547629,57.031812238086644,1.9200284472738145,0.8958536117404272,A,675.9228999999323,Correct
1,501,227,A,29.025146808154982,39.975012246965086,1.4512573404077491,0.6279260240111377,B,603.6543000000165,Incorrect
1,501,228,B,74.10820414553469,62.45262238360842,3.705410207276734,0.9810034983888084,B,608.0978999998479,Correct
1,501,229,B,74.53913163832823,47.93457084314616,3.7269565819164114,0.7529544780690374,B,629.0623000004416,Correct
1,501,230,B,34.75567459327294,10.690866168195686,1.7377837296636471,0.16793173307257614,B,891.4214999995238,Correct
1,501,231,A,30.670350126368287,41.226671258556294,1.5335175063184143,0.6475870377892097,B,603.4602999998242,Incorrect
1,501,232,A,48.92649496709322,62.228354591855016,2.446324748354661,0.9774807081537619,A,689.558300000499,Correct
1,501,233,A,25.907131867287134,41.53919934098773,1.295356593364357,0.6524962174282452,A,651.2250999994649,Correct
1,501,234,B,71.74139110559224,38.99598323106307,3.587069555279612,0.6125474721910925,B,662.8204999997251,Correct
1,501,235,A,66.75509099002852,89.3724431975416,3.337754549501426,1.403859054913839,A,681.047000000035,Correct
1,501,236,A,30.495105701827868,51.588348112986864,1.5247552850913935,0.810347877212962,A,610.9727000002749,Correct
1,501,237,B,54.13819028130925,23.629733459134844,2.706909514065462,0.3711749852075148,B,1286.3373999998657,Correct
1,501,238,B,47.2293236923104,20.433829385405375,2.3614661846155203,0.3209738414094838,B,683.5988000002544,Correct
1,501,239,A,58.31694118556156,67.72412092977072,2.9158470592780783,1.0638080039189723,A,646.6411000001244,Correct
1,501,240,B,50.104216511001404,22.900879307906713,2.50521082555007,0.35972617097233117,A,537.9997999998523,Incorrect
1,501,241,B,42.137033296477554,24.092108481597627,2.106851664823878,0.3784379550763773,A,979.0665999998964,Incorrect
1,501,242,A,32.16286388867901,47.04510175460857,1.6081431944339506,0.7389827302983127,B,962.7989000000525,Incorrect
1,501,243,A,25.77239951076281,36.92851936591035,1.2886199755381404,0.5800718257394616,B,655.2687999992486,Incorrect
1,501,244,B,62.3529051120152,43.74724280173115,3.1176452556007597,0.6871800830036375,B,1481.9930000003296,Correct
1,501,245,B,73.17928663218834,63.39318372415724,3.658964331609417,0.9957778013774021,A,1216.1337000006824,Incorrect
1,501,246,A,28.503673602316464,61.28201276667129,1.425183680115823,0.9626156055248523,A,605.8924999997544,Correct
1,501,247,A,38.910895493297915,60.37398619841094,1.9455447746648957,0.9483523575442967,A,602.0699000000604,Correct
1,501,248,B,57.81240924432574,27.64650813950427,2.8906204622162868,0.4342703343423851,A,820.5894000002445,Incorrect
1,501,249,B,64.84479342426881,54.81709664605831,3.2422396712134405,0.8610649405718923,B,741.1407999998119,Correct
1,501,250,B,43.3081911346289,28.602327895888713,2.165409556731445,0.4492843159664519,B,608.7687999997797,Correct
1,501,251,A,33.9372746355615,54.522464139858165,1.696863731778075,0.856436863986957,A,859.2818000006446,Correct
1,501,252,B,58.07200439099286,32.41946058945209,2.903600219549643,0.5092436961058325,A,1677.222499999516,Incorrect
1,501,253,B,61.17036334468012,52.433501752590466,3.058518167234006,0.8236235195396289,A,697.6221000004443,Incorrect
1,501,254,B,49.99627788681899,30.080940573539845,2.4998138943409494,0.47251030959451956,B,916.1055000004126,Correct
1,501,255,B,72.10257576769084,46.817426981406676,3.6051287883845418,0.7354064233238189,B,1322.493200000281,Correct
1,501,256,A,23.627612981694487,50.69035153056241,1.1813806490847243,0.796242179881495,A,1528.8848000000144,Correct
1,501,257,A,47.547542256507704,76.29812397388059,2.377377112825385,1.1984881287951326,A,682.819899999231,Correct
1,501,258,B,42.688392843949174,19.897841275104582,2.1344196421974586,0.3125545598608216,B,1200.3632000005382,Correct
1,501,259,A,12.234046289190132,32.47900197002254,0.6117023144595066,0.5101789699247561,A,603.4160999997766,Correct
1,501,260,A,28.69018052727914,53.65034279294122,1.434509026363957,0.8427376139043912,A,2413.704699999471,Correct
1,501,261,B,56.59635035266986,47.98959564203262,2.8298175176334928,0.7538188055887722,B,810.9028999997463,Correct
1,501,262,B,52.52162992351289,24.85289757258009,2.6260814961756442,0.39038840217218607,A,3858.6568000000625,Incorrect
1,501,263,B,60.75941212951413,49.278880205497316,3.0379706064757066,0.7740708401536092,A,635.2229999993142,Incorrect
1,501,264,B,42.231946311886134,17.369779107564018,2.111597315594307,0.272843852194003,B,1587.5079000006735,Correct
1,501,265,B,41.55796154713223,15.063099873385198,2.0778980773566116,0.23661061951258142,B,617.0670999999857,Correct
1,501,266,B,75.10913237441635,63.16571848935083,3.7554566187208174,0.9922047858243276,A,670.8751999995002,Incorrect
1,501,267,A,42.10614202571045,58.919507328526294,2.1053071012855225,0.9255054568821409,A,790.0343999999677,Correct
1,501,268,B,43.05927072423578,30.595270524193104,2.152963536211789,0.480589385566987,B,554.7341000001325,Correct
1,501,269,B,35.529327179045,24.27205135609112,1.7764663589522498,0.3812644911392502,B,1889.9645000001328,Correct
1,501,270,A,29.402625185613818,54.1334908820118,1.4701312592806908,0.8503268863404916,A,6010.27780000004,Correct
1,501,271,B,34.25344449298478,13.813141720676605,1.712672224649239,0.21697632276336146,B,665.4743000008239,Correct
1,501,272,B,50.94633015344161,25.51586940403,2.5473165076720803,0.4008023393482861,B,570.0263999997333,Correct
1,501,273,B,47.65177175550991,24.358652897753355,2.3825885877754955,0.3826248249746283,B,462.7072999992379,Correct
1,501,274,A,52.0436391625711,80.0788101522362,2.6021819581285546,1.257875008412385,A,456.98799999991024,Correct
1,501,275,B,65.19620102397863,50.14717393465412,3.2598100511989316,0.7877099661569947,A,672.7098999999725,Incorrect
1,501,276,B,85.7214449241986,67.8887434747996,4.28607224620993,1.066393888809362,A,761.8402000007336,Incorrect
1,501,277,A,36.09615646756893,62.833648798285786,1.8048078233784466,0.986988647314679,B,433.267700000215,Incorrect
1,501,278,B,66.32705949178198,53.53217715793402,3.3163529745890994,0.8408814724501643,B,485.43400000016845,Correct
1,501,279,A,45.399725387070255,60.3874953548729,2.2699862693535127,0.9485645588777822,B,791.667999999845,Incorrect
1,501,280,A,26.572859745668,58.15473051649211,1.3286429872834,0.9134923708105287,A,1270.615400000679,Correct
1,501,281,A,23.811444861798275,46.60663337006159,1.1905722430899137,0.7320952850196919,B,955.8538000001136,Incorrect
1,501,282,A,26.397909038086805,49.380717961870594,1.3198954519043402,0.775670503890011,A,843.8706999995702,Correct
1,501,283,B,68.81716471415099,36.96860309808146,3.4408582357075495,0.5807014595320479,B,998.1198999994376,Correct
1,501,284,B,51.807823018561166,23.368162335105282,2.5903911509280584,0.3670662355993023,B,889.7071000001233,Correct
1,501,285,B,42.47867805685759,33.844326115872214,2.123933902842879,0.5316254314566067,B,967.8162999998676,Correct
1,501,286,A,62.23417300077071,76.71218220521871,3.1117086500385356,1.2049921402837835,A,801.2251999998625,Correct
1,501,287,A,27.29297770088203,54.60049000416252,1.3646488850441014,0.8576624913973997,A,1191.5490000001228,Correct
1,501,288,A,52.506871831249384,63.90613879901353,2.625343591562469,1.0038352808513527,B,813.6665000001813,Incorrect
1,501,289,B,54.50781109975269,37.42488925008651,2.7253905549876345,0.587868785647417,B,797.6564999999027,Correct
1,501,290,A,51.93433516825379,75.35285298427817,2.5967167584126893,1.1836398468122,A,610.3639000002659,Correct
1,501,291,B,70.26918531304274,54.43609672244787,3.513459265652137,0.8550802077667282,B,692.2936000000846,Correct
1,501,292,B,85.31164454521186,69.34057561331484,4.265582227260593,1.0891992147123872,B,604.6152999997503,Correct
1,501,293,B,66.24223789418396,40.172877415695055,3.312111894709198,0.6310340828135546,B,878.5613999998532,Correct
1,501,294,A,52.26777040974018,80.09949208326645,2.613388520487009,1.2581998794253184,A,465.65579999969486,Correct
1,501,295,A,43.944475095217314,58.732215827151606,2.1972237547608655,0.9225634888581483,A,630.3152999998929,Correct
1,501,296,B,77.13890578007974,46.363572282655795,3.856945289003987,0.728277290386854,A,469.46939999997994,Incorrect
1,501,297,B,46.654811331255,32.87047489589085,2.33274056656275,0.516328212264692,A,929.3883999998798,Incorrect
1,501,298,B,64.44013863674762,35.2473431933262,3.222006931837381,0.553663972173559,B,956.7229999993287,Correct
1,501,299,A,18.69805253451644,32.56837275712641,0.9349026267258219,0.5115828029658114,A,571.3342999997622,Correct
1,501,300,A,25.509452564037005,38.204955345312484,1.2754726282018503,0.600122035217799,A,1410.0060000000667,Correct
1,501,301,A,17.92550672380071,48.438656684886524,0.8962753361900354,0.7608726399549882,A,677.3118999999497,Correct
1,501,302,B,47.15683393990482,37.27413510793396,2.357841696995241,0.5855007451199935,B,508.7647000000288,Correct
1,501,303,B,71.41125556856994,62.25292942236552,3.570562778428497,0.9778667286887369,A,1230.1953999995021,Incorrect
1,501,304,A,26.952008553272503,55.79417470385666,1.347600427663625,0.8764128468137077,A,587.7338000000236,Correct
1,501,305,B,44.362621768036455,20.27736946317278,2.218131088401823,0.3185161746981481,B,525.6651999998212,Correct
1,501,306,A,22.361587477194416,34.38546432829084,1.1180793738597208,0.5401256106201618,B,514.3764000004012,Incorrect
1,501,307,B,61.58256040658212,38.52800833466175,3.079128020329106,0.6051965397080983,B,883.7665000000925,Correct
1,501,308,A,45.43436113238209,54.33319125156051,2.2717180566191044,0.8534637724099585,A,849.0150999996331,Correct
1,501,309,A,58.38508123911713,76.98534437541349,2.9192540619558565,1.2092829616193965,A,483.795199999804,Correct
1,501,310,A,43.919477325339166,58.75861898670668,2.195973866266958,0.9229782287185972,B,741.4661000002525,Incorrect
1,501,311,A,28.32477951675458,53.487846458233165,1.416238975837729,0.8401851274476206,B,1118.6103999998522,Incorrect
1,501,312,B,55.68751107975952,32.23497116061995,2.784375553987976,0.5063457429344124,B,889.9362000001929,Correct
1,501,313,A,18.728645710194748,33.589490562110576,0.9364322855097373,0.5276224839387514,A,597.2276000002239,Correct
1,501,314,A,40.7657626714142,50.78489928529923,2.03828813357071,0.7977273325399679,B,1477.2569000006115,Incorrect
1,501,315,A,15.800654876916504,36.39150480612041,0.7900327438458251,0.5716364207599277,A,800.0763000000006,Correct
1,501,316,B,56.792241087863594,42.84517595828412,2.8396120543931795,0.6730104501615372,B,1357.6125999998112,Correct
1,501,317,A,37.55225683991723,50.642747543074364,1.8776128419958613,0.7954944181946249,B,1463.5662999999113,Incorrect
1,501,318,A,22.4102220075297,49.56857877398172,1.120511100376485,0.7786214146261395,A,595.158299999639,Correct
1,501,319,A,40.780884068620324,72.22657412493298,2.039044203431016,1.1345323733242407,A,966.7203999997582,Correct
1,501,320,B,86.84077804692572,60.55736866410103,4.342038902346286,0.9512329225793427,B,651.4907000000676,Correct
1,501,321,B,41.270194709168905,22.67722838459642,2.063509735458445,0.35621307048413026,B,3256.1844000001656,Correct
1,501,322,A,61.026801700029935,81.58183850580167,3.0513400850014967,1.2814845225808773,A,709.1778000003615,Correct
1,501,323,A,26.84734184426263,53.91129884148446,1.3423670922131317,0.8468367019294576,A,491.53170000045066,Correct
1,501,324,B,75.30810337734243,50.54454287286326,3.7654051688671215,0.7939518228422079,A,712.5022000000172,Incorrect
1,501,325,B,85.00603910884398,67.81028161083682,4.2503019554421995,1.0651614127323001,A,804.3855999994776,Incorrect
1,501,326,A,52.9068823643709,63.98464291168314,2.6453441182185453,1.00506842056955,A,1268.969599999764,Correct
1,501,327,A,52.193572296240156,68.72190805947382,2.6096786148120077,1.0794812075015807,A,772.4319999997533,Correct
1,501,328,B,74.3372452559265,59.040098585456974,3.7168622627963255,0.9273996999164439,A,543.4758999999758,Incorrect
1,501,329,B,62.62517963150515,44.286807276448194,3.1312589815752574,0.6956555419531832,A,1204.2101999995793,Incorrect
1,501,330,A,38.26610756128484,61.1410580960892,1.9133053780642422,0.9604014947369028,A,521.4765000000625,Correct
1,501,331,A,35.005342687963974,64.74601275151629,1.7502671343981988,1.0170279900469732,A,627.1496999997908,Correct
1,501,332,B,42.92980671180149,23.31025628094886,2.1464903355900744,0.3661566494276214,B,665.2328999998645,Correct
1,501,333,A,16.133059265235033,33.61993433752028,0.8066529632617516,0.5281006936446246,A,600.9878000004392,Correct
1,501,334,B,68.59683955667118,46.91133924248289,3.429841977833559,0.7368815936712142,B,610.366900000372,Correct
1,501,335,B,87.0216126582821,62.16403230861132,4.351080632914105,0.9764703360912593,A,1083.474500000193,Incorrect
1,501,336,A,20.39940913421589,43.08823560170541,1.0199704567107946,0.6768284221123195,A,551.8972999998368,Correct
1,501,337,A,56.64264199787843,73.77793736953147,2.8321320998939212,1.15890113018564,A,705.858299999818,Correct
1,501,338,A,69.02541857882389,83.57328840001968,3.4512709289411942,1.3127661443692145,A,944.4799000002604,Correct
1,501,339,A,37.05303462215659,58.06464135302094,1.8526517311078294,0.9120772535398834,A,1446.5940999998566,Correct
1,501,340,B,81.10353568068174,60.06076838102796,4.055176784034087,0.9434323435739779,A,631.7183000001023,Incorrect
1,501,341,B,70.47458824142937,37.55816058963475,3.523729412071469,0.5899622069537112,A,1132.1372000002157,Incorrect
1,501,342,B,62.92241696839401,50.154774231169405,3.1461208484197005,0.7878293513354824,B,1625.941999999668,Correct
1,501,343,A,61.88997064297999,84.99200003192534,3.0944985321489993,1.3350512145710005,A,556.4484999995329,Correct
1,501,344,A,54.60936004088606,80.25150971959349,2.7304680020443026,1.2605877668728238,A,517.3013000003266,Correct
1,501,345,B,62.935997637490324,53.741306883356906,3.146799881874516,0.8441664744953431,B,1221.0299999997005,Correct
1,501,346,B,58.66773862319017,41.72190958102637,2.933386931159508,0.6553662231674501,A,704.9285000002783,Incorrect
1,501,347,B,44.705722040874285,32.55800060192623,2.2352861020437143,0.5114198775329175,A,816.1303999995653,Incorrect
1,501,348,B,46.302912960953805,21.41614061568872,2.31514564804769,0.3364039501324684,B,946.3439000001017,Correct
1,501,349,B,53.0946353146714,31.480282981358364,2.6547317657335703,0.49449112873581613,B,1263.8612999999168,Correct
1,501,350,B,81.69916884542543,51.95832505417439,4.0849584422712715,0.8161594614151236,A,11882.424400000673,Incorrect
1,501,351,B,33.33549290559105,15.704361396406156,1.6667746452795527,0.2466835319613436,B,1096.796699999686,Correct
1,501,352,A,30.928704982591146,46.94902874593413,1.5464352491295574,0.7374736190070134,B,985.3493000000526,Incorrect
1,501,353,B,65.68043988751113,56.29913860659393,3.284021994375556,0.884344801249545,B,902.0893999995678,Correct
1,501,354,A,45.62617557864522,57.48680404069744,2.281308778932261,0.9030006062630556,A,475.59950000049867,Correct
1,501,355,B,50.43370842468786,34.986149770496695,2.521685421234393,0.5495611554819232,B,1847.1945999999662,Correct
1,501,356,A,31.63547329448612,42.584967281077866,1.5817736647243061,0.6689231018179796,B,1220.1620999994702,Incorrect
1,501,357,B,83.32636361722591,62.929163178570946,4.166318180861295,0.9884889836917591,A,751.2234999994689,Incorrect
1,501,358,B,45.83729838683403,35.30793450058161,2.2918649193417013,0.5546157382022839,B,718.1624000004376,Correct
1,501,359,A,63.46801767838798,87.69451254107119,3.173400883919399,1.3775021817958364,A,750.721400000657,Correct
1,501,360,B,51.40332655491752,28.276149984515328,2.570166327745876,0.4441607253157825,B,932.5490000001082,Correct
1,501,361,B,68.51578306780225,40.21685689525338,3.4257891533901126,0.6317249108630002,A,524.2975999999544,Incorrect
1,501,362,A,14.589283442658921,31.723348949537364,0.7294641721329461,0.4983092000356603,A,660.8487000003151,Correct
1,501,363,A,48.42519532320591,70.81848996680237,2.4212597661602957,1.112414239090144,A,618.3741999993799,Correct
1,501,364,A,63.51918535763852,76.95491538232976,3.175959267881926,1.2088049841137567,A,519.3659999995361,Correct
1,501,365,B,75.42765571750715,56.28067446998596,3.7713827858753577,0.8840547672699327,B,748.1023000000278,Correct
1,501,366,B,46.35625113122027,35.894298646746456,2.3178125565610133,0.5638263246718836,B,599.1694999993342,Correct
1,501,367,B,45.960459937507245,37.119331621805706,2.2980229968753623,0.5830690976461406,B,767.1313000000737,Correct
1,501,368,B,46.023986561720506,37.94843745458509,2.3011993280860255,0.5960926616126814,A,715.0527000003422,Incorrect
1,501,369,A,39.209163345932495,52.99789999452778,1.9604581672966248,0.832489066392475,A,1010.2032000004328,Correct
1,501,370,A,68.23876701194712,85.75866431151934,3.4119383505973557,1.3470939489137115,A,3285.257399999864,Correct
1,501,371,A,40.72372653981488,70.85884643425646,2.036186326990744,1.1130481569985369,B,888.9111000007688,Incorrect
1,501,372,B,66.47595231087227,50.409503025248135,3.3237976155436137,0.79183062187616,B,1368.6065999991115,Correct
1,501,373,A,42.23962350359416,73.4514185358595,2.1119811751797077,1.1537721843400268,A,703.2886999995753,Correct
1,501,374,A,43.89620015942216,53.11989214995788,2.194810007971108,0.834405314688949,B,754.2963999994754,Incorrect
1,501,375,A,38.96666382356545,65.86918630066494,1.9483331911782724,1.034670758900532,B,2850.3372000004674,Incorrect
1,501,376,B,80.0742307369315,51.58612465900061,4.003711536846575,0.8103129512794178,B,2642.343499999697,Correct
1,501,377,A,58.53790546157528,69.08692551651332,2.926895273078764,1.0852148883089174,A,793.0068999994546,Correct
1,501,378,A,58.13231750389353,80.12846897921536,2.9066158751946767,1.258655047442503,A,733.4585999997216,Correct
1,501,379,B,84.73623915587606,63.33200589422688,4.236811957793804,0.9948168222720433,A,869.6982999999818,Incorrect
1,501,380,A,33.355366580891754,45.8635520029893,1.667768329044588,0.7204229902006232,B,2554.7259000004487,Incorrect
1,501,381,A,47.23293036949125,70.05465227462327,2.3616465184745623,1.1004159046787196,A,4677.765700000236,Correct
1,501,382,B,54.353713644342086,27.02199466227179,2.7176856822171045,0.4244604995816782,B,1861.266500000056,Correct
1,501,383,B,81.23353277658158,64.48612979654268,4.061676638829079,1.012945758136282,A,681.9970999995348,Incorrect
1,501,384,B,54.83321171732591,44.70706845181788,2.7416605858662955,0.7022569890588354,B,603.0975000003309,Correct
1,501,385,B,66.49585664840122,54.01347915999292,3.324792832420061,0.8484417466192956,B,4662.975199999892,Correct
1,501,386,A,50.25982228011557,70.54679472480566,2.5129911140057786,1.1081464602087832,A,600.4130000001169,Correct
1,501,387,B,52.236979143208146,44.00790561200617,2.611848957160407,0.6912745648527581,B,779.1778999999224,Correct
1,501,388,B,42.234868163743414,15.633953108625956,2.111743408187171,0.24557756116313306,B,697.8299000002153,Correct
1,501,389,A,29.978833961044728,45.2555306575628,1.4989416980522363,0.7108722132405347,B,7579.768599999625,Incorrect
1,501,390,B,66.69871612956169,37.89232303909362,3.3349358064780845,0.5952112184353389,B,705.6126999996195,Correct
1,501,391,A,56.22005856487816,74.39553141120525,2.811002928243908,1.1686022747067555,A,556.3818000000538,Correct
1,501,392,B,68.1718163203612,54.25132753264781,3.40859081601806,0.8521778601203001,A,774.5765999998184,Incorrect
1,501,393,B,69.0911029549335,51.36522408304978,3.454555147746675,0.8068430531465136,B,1210.4839000003267,Correct
1,501,394,A,47.68093068870735,75.50179138948673,2.3840465344353676,1.185979365810403,A,531.3396999999895,Correct
1,501,395,A,26.039745366790463,37.369314163098494,1.3019872683395233,0.5869958142223961,B,633.9799999996103,Incorrect
1,501,396,B,46.80924489007217,36.53653995728436,2.3404622445036085,0.5739146275869724,A,713.7383999997837,Incorrect
1,501,397,B,47.0064024281806,32.43242878644324,2.35032012140903,0.5094474000678211,B,517.8788000002896,Correct
1,501,398,B,35.642307824305746,24.308748072973497,1.7821153912152874,0.3818409218200929,B,598.7261999998736,Correct
1,501,399,A,57.9833179818861,83.05745211629072,2.899165899094305,1.3046634069721248,A,523.1372000007468,Correct
1,501,400,B,64.78304358585862,41.86612573294329,3.2391521792929314,0.6576315651844061,B,568.67610000063,Correct
1,501,401,B,52.96506558837375,38.5172349137404,2.6482532794186877,0.6050273112079958,B,760.4224999995495,Correct
1,501,402,B,46.344127173432454,22.217677688224917,2.3172063586716227,0.34899446502576625,B,751.606300000276,Correct
1,501,403,A,50.80420485784863,77.66847653947727,2.5402102428924316,1.220013576559665,A,602.6719999999841,Correct
1,501,404,B,61.82703467382721,44.61844401053352,3.0913517336913605,0.7008648795904981,B,827.5194999996529,Correct
1,501,405,A,56.90810065316154,77.55033731655419,2.845405032658077,1.2181578499854853,A,1342.8627000002962,Correct
1,501,406,A,45.733857819271115,73.74199515146772,2.2866928909635558,1.1583365511445258,A,795.0049999999464,Correct
1,501,407,B,74.86029370346465,47.98943626959878,3.7430146851732324,0.7538163021724356,A,1662.321300000258,Incorrect
1,501,408,A,66.98878069803123,88.16583610758653,3.349439034901562,1.3849057150659778,A,721.9075000002704,Correct
1,501,409,B,84.01929929626795,62.39714780144013,4.200964964813397,0.9801321056898039,B,767.2057999998287,Correct
1,501,410,B,54.636975156008965,31.07280945237565,2.731848757800448,0.48809054950989417,A,594.8350999997274,Incorrect
1,501,411,B,52.17677380003164,24.153907858965695,2.608838690001582,0.379408697426057,B,893.0274000003919,Correct
1,501,412,A,64.77835584784842,81.01429454150005,3.2389177923924204,1.272569562836681,B,613.8590000000477,Incorrect
1,501,413,A,23.42418663092634,52.36209204062097,1.171209331546317,0.8225018184070371,A,758.4065000000919,Correct
1,501,414,B,83.96594097479317,55.66276186748067,4.198297048739659,0.8743486188069768,B,838.7345999999525,Correct
1,501,415,B,53.1530699838078,21.40705045744558,2.6576534991903897,0.3362611622606853,B,1400.9419000003618,Correct
1,501,416,B,43.19410077090268,28.089436009792163,2.159705038545134,0.4412278290592182,B,591.5855000002921,Correct
1,501,417,B,76.00920461438635,54.26120689933982,3.8004602307193176,0.8523330448494089,B,936.1659000005602,Correct
1,501,418,A,18.360484203711863,40.606142172997906,0.9180242101855931,0.6378397897065645,A,604.0453000005073,Correct
1,501,419,B,53.090165060886854,44.33655634332041,2.6545082530443427,0.6964369984682267,A,780.6252000000313,Incorrect
1,501,420,B,76.68213139129911,63.68813801721895,3.8341065695649554,1.0004109325785393,A,1210.4174999994939,Incorrect
1,501,421,B,58.908187894829396,49.21143251760217,2.9454093947414695,0.7730113743496443,B,686.6006999998717,Correct
1,501,422,A,18.285408091875844,44.18924036195452,0.9142704045937922,0.6941229644441494,A,543.1533000000854,Correct
1,501,423,A,23.86692670843266,39.696463937594174,1.193346335421633,0.62355059739919,A,545.6612000007226,Correct
1,501,424,A,47.4698051166137,72.81282556491665,2.373490255830685,1.1437411894092864,A,601.1288999998214,Correct
1,501,425,A,57.51187471345456,71.58493853517898,2.8755937356727284,1.1244535850489759,A,391.759600000114,Correct
1,501,426,A,58.78472957334269,84.7088826012626,2.9392364786671346,1.3306040163696342,A,626.5062000002217,Correct
1,501,427,B,63.31789570026721,50.5580710165863,3.1658947850133603,0.7941643224268929,B,1522.5270999999339,Correct
1,501,428,A,34.43196106829942,64.79337568324044,1.721598053414971,1.0177719652387585,A,595.1360999997632,Correct
1,501,429,B,33.673645312976745,16.541319157941633,1.6836822656488375,0.25983043373636766,B,517.0447999998942,Correct
1,501,430,A,35.675119229634674,47.858995663354165,1.7837559614817338,0.7517673459208961,B,649.7650999999678,Incorrect
1,501,431,B,54.98538595261856,42.0768584910797,2.749269297630928,0.6609417476085664,B,816.1249000004318,Correct
1,501,432,A,32.6101304830966,60.83803484510633,1.63050652415483,0.9556416166411295,A,585.8308999995643,Correct
1,501,433,B,73.54251060307857,53.12209726532642,3.677125530153928,0.8344399525601596,B,966.5028000008533,Correct
1,501,434,A,62.98027108383635,86.8945625146967,3.1490135541918174,1.364936596165351,A,729.8492999998416,Correct
1,501,435,A,16.697045724655005,36.09965406877394,0.8348522862327502,0.5670520400979655,A,669.4508000000496,Correct
1,501,436,A,37.14419873496743,49.9228140434979,1.8572099367483716,0.7841857292279119,A,1006.8563999993785,Correct
1,501,437,B,45.72149869965824,28.232414472250536,2.286074934982912,0.4434737294956222,B,693.4799000000567,Correct
1,501,438,A,61.00625010094072,80.841664434199,3.050312505047036,1.2698578954522544,A,492.39849999958096,Correct
1,501,439,B,35.613397743696154,16.76635428963568,1.780669887184808,0.2633652773190158,B,1276.1172999998962,Correct
1,501,440,A,35.501918149635635,66.02933174262787,1.7750959074817816,1.0371863176204152,A,706.2028000000282,Correct
1,501,441,A,44.756440380977374,73.47401358385669,2.2378220190488687,1.1541271065240042,A,961.4025000000765,Correct
1,501,442,A,51.01558300603557,77.0455441901619,2.5507791503017785,1.210228578098202,A,733.3018999997876,Correct
1,501,443,A,20.35522490166058,42.335003707644404,1.017761245083029,0.6649966831881616,B,644.775099999606,Incorrect
1,501,444,A,25.77325296999735,41.6890440131477,1.2886626484998676,0.6548499720344318,B,1648.364799999399,Incorrect
1,501,445,B,55.49963253727388,43.23807871736767,2.774981626863694,0.6791821522690973,B,642.5873999996838,Correct
1,501,446,B,56.912669098880855,35.50408560208478,2.845633454944043,0.5576968724996634,B,587.728600000446,Correct
1,501,447,A,39.12924001635008,67.69574114774223,1.956462000817504,1.0633622153453162,A,781.1307000001761,Correct
1,501,448,B,74.85578962194019,60.15680406354399,3.7427894810970095,0.944940868547352,B,587.7213999992819,Correct
1,501,449,A,18.839606680761086,44.52120769041347,0.9419803340380543,0.6993374950457418,A,1028.6234000004697,Correct
1,501,450,A,50.19685412891506,64.93300330849026,2.509842706445753,1.0199652308473734,A,574.5218000001842,Correct
1,501,451,A,26.360469661774406,59.210341288546736,1.3180234830887203,0.9300738660432142,A,613.185600000179,Correct
1,501,452,A,20.408304838628435,38.592099874627664,1.0204152419314219,0.6062032872636692,A,1042.1737999995457,Correct
1,501,453,B,43.026583928013366,17.298030198626865,2.151329196400668,0.2717168229679027,B,927.972100000261,Correct
1,501,454,B,73.15089853279272,42.94690011058771,3.6575449266396363,0.6746083294093852,B,652.146399999765,Correct
1,501,455,A,25.958734083851663,48.16512543736381,1.2979367041925831,0.7565760211662651,A,467.03660000002856,Correct
1,501,456,A,49.22452062060671,69.1341205717267,2.4612260310303355,1.085956226502638,A,765.2463000003991,Correct
1,501,457,A,53.551097335274534,66.21072446882044,2.677554866763727,1.0400356279005214,A,560.5697999999393,Correct
1,501,458,B,41.734334243175724,26.952240937404255,2.086716712158786,0.4233648106336564,B,522.5502000002962,Correct
1,501,459,A,19.253015555217345,40.26021243387728,0.9626507777608673,0.6324059380711666,A,462.15329999995447,Correct
1,501,460,A,18.809366087179196,46.33830445192972,0.9404683043589599,0.7278803842299482,A,496.0638000002291,Correct
1,501,461,B,82.32989226588032,51.59710524203816,4.116494613294016,0.8104854338744324,B,1285.3617000000668,Correct
1,501,462,B,31.39051398181457,14.03463192433476,1.5695256990907285,0.22045548274663432,B,553.2409999996162,Correct
1,501,463,A,32.64033540689717,51.67235510560711,1.6320167703448587,0.8116674559672917,A,668.0070000002161,Correct
1,501,464,A,15.91128527673716,43.17924814981755,0.7955642638368581,0.6782580438749874,A,620.8603000004587,Correct
1,501,465,B,76.94948444497751,60.59144963606776,3.847474222248876,0.9517682652351321,A,1244.8745000001509,Incorrect
1,501,466,B,47.31324186042545,38.360700719910646,2.3656620930212724,0.6025684778411399,B,615.1161999996475,Correct
1,501,467,B,54.899210510663146,45.591832863832614,2.7449605255331573,0.7161548359435512,B,587.253800000326,Correct
1,501,468,A,40.84095531652768,49.5602282960698,2.0420477658263843,0.7784902456258292,A,1913.0666999999448,Correct
1,501,469,B,64.98228421817697,52.48212731457309,3.2491142109088487,0.8243873280811352,A,875.5924000006416,Incorrect
1,501,470,B,61.811080406877835,46.2842684233199,3.090554020343892,0.7270315882773992,B,772.3888999998962,Correct
1,501,471,A,51.98045291095285,66.97998756428036,2.5990226455476426,1.0521191843473945,A,1220.169199999873,Correct
1,501,472,B,69.99182849313374,54.24586877334555,3.4995914246566873,0.8520921141296918,A,573.8208000002487,Incorrect
1,501,473,A,50.95103627757097,69.5920226605167,2.5475518138785485,1.0931489356936686,A,625.4481999994823,Correct
1,501,474,A,30.60316243861188,52.901206575778716,1.530158121930594,0.8309702097225122,A,880.3729000001113,Correct
1,501,475,A,22.392729489988636,50.40625648964805,1.1196364744994318,0.7917796254142058,A,1331.6838999999163,Correct
1,501,476,B,59.824897474698815,33.25813246050792,2.9912448737349404,0.5224175230502396,B,573.3662000002369,Correct
1,501,477,B,40.999802883813,32.18118466138826,2.04999014419065,0.5055008665801694,A,818.6276999995243,Incorrect
1,501,478,A,15.10399135643485,33.866572539561346,0.7551995678217425,0.5319748774627588,A,801.8063999998049,Correct
1,501,479,A,63.811811044704115,81.08321221525757,3.1905905522352054,1.2736521191245769,A,543.6138000004576,Correct
1,501,480,A,51.583468588238375,64.44838536369575,2.5791734294119184,1.0123528699715527,A,450.12190000034025,Correct
1,501,481,A,17.947464920321956,35.47764961380459,0.8973732460160977,0.5572816169668062,A,545.574900000247,Correct
1,501,482,A,46.08537375944704,64.8329584107285,2.304268687972352,1.0183937292681864,A,569.0413000002081,Correct
1,501,483,B,51.46779812675163,38.66609320837052,2.5733899063375816,0.607365571832175,A,500.3758000002563,Incorrect
1,501,484,B,60.98066952124831,52.9662686420415,3.0490334760624154,0.831992202269505,B,664.2665999997917,Correct
1,501,485,B,64.18772918768579,41.92615855905642,3.2093864593842896,0.6585745586118623,B,998.9028999998482,Correct
1,501,486,A,42.96881045294885,75.6084492162812,2.1484405226474426,1.1876547430359299,A,615.9998000002815,Correct
1,501,487,B,66.53407106937418,50.837600968183224,3.3267035534687093,0.7985551686388689,A,1420.173600000453,Incorrect
1,501,488,B,83.69517318241098,62.03326719293983,4.18475865912055,0.9744162824575625,A,5118.948100000125,Incorrect
1,501,489,A,31.832177889854538,59.03392145348052,1.591608894492727,0.9273026697542563,A,533.3303000006708,Correct
1,501,490,A,18.7480408402349,44.59710686896376,0.9374020420117449,0.7005297165544773,A,597.080399999868,Correct
1,501,491,A,55.619342121403776,79.50550263716647,2.7809671060701886,1.2488695150244304,A,610.5941999994684,Correct
1,501,492,A,31.58666538452369,48.36741662919444,1.5793332692261846,0.7597536037769702,A,453.93070000045554,Correct
1,501,493,A,38.64473107778722,58.480014146232236,1.9322365538893609,0.9186019141181518,A,736.7164999996021,Correct
1,501,494,A,46.581066499647605,64.14549142007291,2.32905332498238,1.0075950230310409,A,574.2348000003403,Correct
1,501,495,B,72.1727969962125,39.36661582770999,3.6086398498106247,0.618369355405127,A,551.0919999996986,Incorrect
1,501,496,B,56.05018356749364,31.98291363808643,2.802509178374682,0.5023864326290457,B,691.8038999992859,Correct
1,501,497,A,39.43481086104977,66.36291158044783,1.9717405430524884,1.0424261774598196,A,884.9220000001878,Correct
1,501,498,A,28.474515045656823,46.5098012266255,1.4237257522828413,0.7305742492674411,A,612.6732000002448,Correct
1,501,499,A,26.728453354855944,42.81942666802507,1.3364226677427973,0.6726059812559723,A,463.7124999999287,Correct
1,501,500,A,53.87004577163627,75.9594718642897,2.6935022885818136,1.1931685938970655,A,767.9955000003247,Correct
1,501,501,B,60.87643120358404,27.80515689004492,3.043821560179202,0.4367623830883837,B,612.140699999145,Correct
1,501,502,A,67.41809621980713,88.12502388995222,3.370904810990356,1.3842646382504944,A,513.4177999998428,Correct
1,501,503,B,48.6447446683702,25.267565499555623,2.43223723341851,0.39690199073751425,A,713.1185999996887,Incorrect
1,501,504,B,74.17680612567163,62.13913049550838,3.708840306283582,0.9760791793257331,A,645.8597000000736,Incorrect
1,501,505,A,39.43798287662185,56.06928638379617,1.9718991438310924,0.8807342909767811,A,646.730800000114,Correct
1,501,506,B,67.69332382788343,58.90220107153513,3.384666191394172,0.925233610833018,B,527.0025999998325,Correct
1,501,507,B,67.83637971800036,43.36188474457961,3.391818985900018,0.6811268927968931,A,961.7599999992308,Incorrect
1,501,508,A,56.93007036518735,76.11682288853687,2.8465035182593676,1.1956402580061143,A,779.9778999997216,Correct
1,501,509,A,53.17228112049712,71.65266813013844,2.658614056024856,1.125517479038752,A,566.7591999999786,Correct
1,501,510,B,84.6404308504629,68.43227818216214,4.232021542523145,1.0749317120274682,B,1084.3242999999347,Correct
1,501,511,B,46.40304084867818,32.082432023256565,2.320152042433909,0.5039496637677837,B,656.1699999992925,Correct
1,501,512,B,36.18869010741108,12.752626951918199,1.8094345053705538,0.20031779573058703,B,684.1027999998914,Correct
1,501,513,B,49.15736022391861,23.707314886742825,2.4578680111959303,0.372393631422656,B,601.8518999999287,Correct
1,501,514,B,45.67127115323404,36.86834705773196,2.283563557661702,0.579126641332848,B,858.4147999999914,Correct
1,501,515,B,81.19720062933851,58.25024862557237,4.0598600314669255,0.9149927657593854,A,830.5968999993638,Incorrect
1,501,516,B,88.4519694109502,66.1354468627033,4.42259847054751,1.0388531700287342,B,1110.643500000151,Correct
1,501,517,B,71.90973969834381,58.0308838531097,3.5954869849171907,0.91154699197126,B,727.7528000004168,Correct
1,501,518,A,28.501552939932385,58.44519296270372,1.425077646996619,0.9180549442463394,A,986.2445999997362,Correct
1,501,519,A,14.94319948672095,44.39442842402986,0.7471599743360474,0.6973460509862505,A,667.36469999978,Correct
1,501,520,B,64.92425691845138,36.30185304825727,3.2462128459225688,0.5702281742405064,B,661.3381000006484,Correct
1,501,521,B,44.204512882953956,16.653456006191323,2.2102256441476977,0.2615918752296574,B,830.9965999997075,Correct
1,501,522,B,46.743392432002636,33.43357301496385,2.3371696216001316,0.5251733368353418,A,888.0877000001419,Incorrect
1,501,523,B,58.47536614658039,41.72003124444823,2.9237683073290195,0.655336718325476,A,535.3122999995321,Incorrect
1,501,524,B,31.573660445306643,16.465058950146563,1.578683022265332,0.2586325411935166,A,667.205699999613,Incorrect
1,501,525,B,74.42210401475452,60.56700725140826,3.721105200737726,0.9513843251547197,A,661.149800000203,Incorrect
1,501,526,A,42.92198183252528,67.85730694446909,2.1460990916262643,1.0659000849456588,A,1561.0255999999936,Correct
1,501,527,A,44.62262943667507,62.03743195770008,2.231131471833754,0.9744817024294362,A,548.3413000001747,Correct
1,501,528,A,20.82952905295117,33.83451814659554,1.0414764526475586,0.5314713682354756,A,543.9412999994602,Correct
1,501,529,A,22.463514105347073,36.56628558821334,1.1231757052673537,0.5743818708649868,A,556.3935000000129,Correct
1,501,530,A,37.36091037351662,48.23219998315669,1.868045518675831,0.757629625667794,A,526.8755999995847,Correct
1,501,531,B,44.312643205418006,18.419024305700212,2.2156321602709004,0.2893253572253981,B,582.8850000007151,Correct
1,501,532,B,73.75290701827296,42.52934359307958,3.6876453509136478,0.6680493669700748,B,593.1469999995898,Correct
1,501,533,A,68.15652969322865,86.81242992211394,3.407826484661433,1.3636464604179594,A,579.048800000237,Correct
1,501,534,B,77.74122402101838,45.896229195305324,3.8870612010509196,0.720936282337223,B,667.8941999998642,Correct
1,501,535,A,45.66053048447605,68.41229588927982,2.2830265242238026,1.0746178309048633,A,645.5770000002303,Correct
1,501,536,A,11.64834087200909,32.629207218003074,0.5824170436004544,0.5125383884426875,A,507.9654999999548,Correct
1,501,537,A,56.05088122218452,79.4783902884802,2.8025440611092263,1.2484436352471586,A,546.5893999999025,Correct
1,501,538,B,64.47460183407132,50.892231443575554,3.2237300917035663,0.7994133021396422,A,478.7298999999621,Incorrect
1,501,539,A,35.82982268745636,52.47292374998455,1.791491134372818,0.8242427588266442,A,851.9952000006015,Correct
1,501,540,A,34.45308903149838,61.02889457604662,1.7226544515749191,0.9586396342840702,A,816.1497999999483,Correct
1,501,541,A,49.647526777491855,72.31079009583252,2.4823763388745927,1.135855234701705,A,582.8243999994811,Correct
1,501,542,B,37.90487158162907,20.280170100960564,1.8952435790814532,0.31856016701364537,A,585.5516999999963,Incorrect
1,501,543,A,63.15452754367698,80.1838324048158,3.157726377183849,1.2595246940982225,A,1390.2846999999383,Correct
1,501,544,B,67.197702974938,39.64176829272829,3.3598851487469,0.6226914402187199,B,652.0805999998629,Correct
1,501,545,B,44.405132190280305,17.275346323396626,2.2202566095140153,0.2713605054890114,B,862.3317999999927,Correct
1,501,546,A,36.89345651791453,58.50294408851285,1.8446728258957266,0.918962096809232,A,631.1737999994875,Correct
1,501,547,A,42.757490302975725,61.26877406491757,2.1378745151487863,0.9624076524839894,A,420.6982000005155,Correct
1,501,548,B,82.5091748197351,61.003087245258286,4.125458740986755,0.9582342536800031,B,675.891099999717,Correct
1,501,549,A,60.748371776373475,79.39729780575057,3.0374185888186735,1.247169837507135,A,575.4471000000194,Correct
