subject,day,trial,cat,x,y,xt,yt,resp,rt,fb
19,319,0,A,50.36082592772836,61.39785300457647,2.518041296386418,0.9644352197268172,A,1456.0142999998789,Correct
19,319,1,A,67.35588309338335,84.15772490403783,3.3677941546691676,1.3219464515067803,A,698.5191000003397,Correct
19,319,2,B,58.29264418708729,41.30859495197922,2.914632209354364,0.6488738921562716,B,521.4524999992136,Correct
19,319,3,A,54.99159071471632,66.05586299143759,2.7495795357358155,1.0376030695021714,A,917.3305000003893,Correct
19,319,4,B,67.26590849677316,56.55287806492865,3.363295424838658,0.888330531340696,A,765.5988000005891,Incorrect
19,319,5,A,29.314947756147888,53.11867291420729,1.4657473878073943,0.8343861629785637,A,558.717699999761,Correct
19,319,6,A,26.77751336021149,51.23768294695102,1.3388756680105747,0.8048396416655217,A,598.4565999988263,Correct
19,319,7,B,47.17719841735688,26.814874923890102,2.3588599208678436,0.42120707033911153,B,615.3195000006235,Correct
19,319,8,A,49.532126244833485,63.67613991446802,2.476606312241674,1.0002224668212425,A,851.4775000003283,Correct
19,319,9,A,56.79449966772559,67.82580961169896,2.8397249833862794,1.0654053259994671,A,663.0881000000954,Correct
19,319,10,B,33.907635958537654,18.858264377642087,1.6953817979268826,0.2962249241412724,B,527.3765000001731,Correct
19,319,11,B,83.7235855728842,55.58920603948387,4.18617927864421,0.8731932065626594,B,1131.4989999991667,Correct
19,319,12,A,52.26627074726913,79.31800016262271,2.6133135373634566,1.2459242330416476,A,643.0021999985911,Correct
19,319,13,A,31.154375197127237,56.612713962956676,1.557718759856362,0.889270431429025,A,536.5373000004183,Correct
19,319,14,A,36.75689726188295,68.11963941525097,1.8378448630941475,1.070020793760691,A,563.0295000009937,Correct
19,319,15,A,62.48657408787943,80.24571472257533,3.124328704393972,1.2604967392725248,A,800.0044999989768,Correct
19,319,16,A,41.46899732243305,61.15539782479784,2.0734498661216523,0.9606267426687306,A,660.727999998926,Correct
19,319,17,B,64.08564945843919,38.089120863639224,3.20428247292196,0.5983025114345136,B,728.6291000000347,Correct
19,319,18,B,44.326763035064864,21.268161140581277,2.2163381517532432,0.33407949397307035,B,628.4716000009212,Correct
19,319,19,B,47.71423806339196,37.048441621806994,2.3857119031695984,0.5819555601300959,B,707.1340000002238,Correct
19,319,20,A,43.719612770514615,59.7888609411002,2.1859806385257308,0.9391612314953106,B,826.8742000000202,Incorrect
19,319,21,A,50.67144780316366,78.83038413942178,2.533572390158183,1.2382647784603438,A,602.6003000006313,Correct
19,319,22,B,48.9022660168425,31.79301360400719,2.445113300842125,0.4994034898691466,B,576.9951000002038,Correct
19,319,23,A,39.315570466085866,48.94428737939123,1.9657785233042933,0.7688150683314154,B,678.4972999994352,Incorrect
19,319,24,B,83.83491036589595,62.287528684893545,4.191745518294797,0.9784102126336253,B,1032.1799000012106,Correct
19,319,25,A,23.11690592228616,39.08870290639247,1.1558452961143082,0.6140039094453829,A,471.10740000061924,Correct
19,319,26,A,33.87926772684137,61.729825859916865,1.6939633863420684,0.9696498371444603,A,494.8595000005298,Correct
19,319,27,B,37.23371417907525,24.776844035658925,1.8616857089537626,0.3891937560078308,B,535.9487000005174,Correct
19,319,28,A,49.70432073644861,76.6821488411243,2.4852160368224303,1.2045203773037758,A,605.2235999995901,Correct
19,319,29,B,84.6269611556504,62.24340164569944,4.231348057782521,0.9777170667228412,B,1135.9952999991947,Correct
19,319,30,B,48.17205036515575,32.37288832632734,2.4086025182577875,0.5085121407073637,B,588.9949000011256,Correct
19,319,31,A,41.92380799534371,50.28544526072229,2.0961903997671856,0.7898819270678841,B,728.2938999996986,Incorrect
19,319,32,B,44.3573140446823,30.770740270342564,2.217865702234115,0.483345657894139,B,653.0224999987695,Correct
19,319,33,A,51.70307263872657,70.89753278106689,2.585153631936328,1.1136558407132062,A,685.5718000006163,Correct
19,319,34,A,42.00435619052926,61.758430185754385,2.100217809526463,0.9700991528440205,A,1084.7878999993554,Correct
19,319,35,A,65.45500402035879,83.87729277123901,3.2727502010179395,1.3175414338656235,A,778.3201999991434,Correct
19,319,36,A,63.323724585765234,72.95897346997974,3.166186229288262,1.1460368753337047,A,798.2009000006656,Correct
19,319,37,A,17.893107942740745,41.35755827942553,0.8946553971370372,0.6496430063052749,A,517.6730000002863,Correct
19,319,38,A,45.44372481262996,75.5223416082082,2.272186240631498,1.1863021678912282,A,1155.2251000011893,Correct
19,319,39,B,81.66584032062894,62.48660843421056,4.083292016031447,0.9815373500232895,A,586.9638999993185,Incorrect
19,319,40,A,47.19751080048697,76.47904679198308,2.359875540024348,1.2013300577762205,B,656.7698999988352,Incorrect
19,319,41,A,52.7711452860498,65.95069234280056,2.6385572643024897,1.0359510528165143,A,765.1795000001584,Correct
19,319,42,A,35.73393568138503,51.8133138688972,1.7866967840692514,0.8138816310433479,A,514.4646999997349,Correct
19,319,43,A,68.17056522007238,81.64153826725678,3.4085282610036187,1.2824222842409192,B,612.1184000003268,Incorrect
19,319,44,B,61.888542319067625,31.108021141748843,3.094427115953381,0.48864365343317073,B,514.4743999990169,Correct
19,319,45,A,68.74697889473751,82.17206585819261,3.437348944736875,1.290755792151973,A,593.1080999998812,Correct
19,319,46,A,42.70406237112581,49.917909713009955,2.1352031185562903,0.7841086921847532,A,1491.9045999995433,Correct
19,319,47,A,48.54735095738892,59.33994706949329,2.427367547869446,0.9321097088896364,A,785.1765000013984,Correct
19,319,48,B,68.4761649277554,59.84265752626498,3.4238082463877704,0.9400062662790201,B,505.45550000060757,Correct
19,319,49,B,59.66950433585688,35.37735753524291,2.983475216792844,0.5557062326806932,B,515.999200000806,Correct
19,319,50,B,73.0804291562792,50.907737520436974,3.65402145781396,0.7996568710254114,B,481.4812999993592,Correct
19,319,51,B,61.19198925121537,43.765226459743765,3.0595994625607683,0.6874625696431232,B,1021.0951000008208,Correct
19,319,52,B,34.31671783562426,20.11139848414659,1.715835891781213,0.3159091086560592,B,631.8879000009474,Correct
19,319,53,B,66.12419186512601,41.43962530050277,3.3062095932563005,0.650932112057866,B,518.226300000606,Correct
19,319,54,B,49.51519538771852,28.470354285983575,2.4757597693859257,0.4472112793497233,B,514.1205999989324,Correct
19,319,55,B,53.80300269865231,24.347776749928578,2.690150134932616,0.3824539828441,B,484.90139999921666,Correct
19,319,56,A,39.27234524895595,61.00328985224084,1.9636172624477977,0.9582374362230429,A,737.0516000009957,Correct
19,319,57,B,48.515111101576025,18.122385624847563,2.4257555550788013,0.2846657677227119,B,544.5359999994253,Correct
19,319,58,A,21.65405272905423,46.31492857468247,1.0827026364527115,0.7275131968087922,A,488.2586999992782,Correct
19,319,59,A,43.14533331770283,53.24479566938769,2.1572666658851416,0.83636729458419,B,574.8564999994414,Incorrect
19,319,60,A,56.40741918083988,66.67182474425954,2.8203709590419943,1.0472785740899597,A,609.9567000001116,Correct
19,319,61,B,79.65408597294437,55.205738377382076,3.9827042986472185,0.8671697106119182,B,907.8921000000264,Correct
19,319,62,B,57.30732492037013,25.91044965885956,2.8653662460185063,0.40700039149740674,B,574.9405999995361,Correct
19,319,63,A,31.624106693588637,54.354865381084416,1.5812053346794317,0.8538042288403849,A,763.1115999993199,Correct
19,319,64,B,56.0722087550568,36.61735604497567,2.8036104377528397,0.5751840837238869,A,787.646599999789,Incorrect
19,319,65,B,52.387471532157875,24.646855539398146,2.6193735766078934,0.3871519014833105,B,521.4732000004005,Correct
19,319,66,A,38.30698143589579,63.23475186578535,1.9153490717947899,0.9932891595656236,A,799.783500000558,Correct
19,319,67,A,67.38081364096642,81.5219077093724,3.3690406820483214,1.2805431318319473,A,729.4824000000517,Correct
19,319,68,A,41.52080321789165,68.19024811929006,2.0760401608945824,1.0711299126901344,A,691.7579000000842,Correct
19,319,69,A,44.8543151561304,55.68947432258324,2.2427157578065198,0.8747682170705245,A,545.8287000001292,Correct
19,319,70,A,24.281208589943795,35.58204870712794,1.2140604294971897,0.5589215140899366,A,592.736500000683,Correct
19,319,71,A,14.995162319847243,32.518553785283615,0.7497581159923621,0.5108002483860579,A,502.5619000007282,Correct
19,319,72,A,63.64067388336463,83.41742149881455,3.1820336941682315,1.3103177928103953,A,803.5478000001604,Correct
19,319,73,B,72.82592478578817,41.15178041655174,3.641296239289409,0.6464106551938964,B,513.605500000267,Correct
19,319,74,A,52.192891210192116,75.72294630753035,2.6096445605096057,1.1894532591395586,B,747.0103000014205,Incorrect
19,319,75,A,23.948957675843687,47.59912768786869,1.1974478837921843,0.7476853493074539,A,453.2710000003135,Correct
19,319,76,A,61.746010216656444,72.71535061979866,3.087300510832822,1.1422100565518274,A,948.4381000002031,Correct
19,319,77,A,53.677611477707586,82.79629442394352,2.6838805738853795,1.3005611515335926,A,1148.734799999147,Correct
19,319,78,A,54.94549999209559,69.57435197036658,2.74727499960478,1.0928713651418709,A,582.9501999996864,Correct
19,319,79,A,53.40129920739637,78.3681923844397,2.6700649603698183,1.2310046873503364,A,665.1824999989913,Correct
19,319,80,A,30.046364828354356,61.0300955743886,1.5023182414177176,0.958658499521911,A,504.6377999988181,Correct
19,319,81,B,45.69084929700484,20.20966152302934,2.284542464850242,0.3174526208614264,B,781.3608999986172,Correct
19,319,82,B,80.03240587363798,66.66077093946174,4.001620293681899,1.047104941330225,B,698.082599999907,Correct
19,319,83,A,49.7642905025282,58.6277628011646,2.4882145251264096,0.9209227445627183,A,1792.7006999998412,Correct
19,319,84,B,58.974706036383964,40.26891890969727,2.948735301819198,0.6325426990735403,B,942.5119999996241,Correct
19,319,85,A,42.87345460849679,68.80900307932228,2.1436727304248397,1.0808492928741817,A,527.9270999999426,Correct
19,319,86,A,26.949021926715403,40.718166947354334,1.3474510963357702,0.6395994707472555,A,493.7138999994204,Correct
19,319,87,A,66.09908023170667,85.79127899739147,3.3049540115853335,1.3476062592013867,A,974.8360999983561,Correct
19,319,88,B,77.99583789027173,64.3275772990963,3.8997918945135863,1.0104552213303526,A,520.5104999986361,Incorrect
19,319,89,B,37.20504079049972,22.157153943713375,1.860252039524986,0.3480437602701403,B,682.771199999479,Correct
19,319,90,A,25.67291161371257,45.49167031951521,1.2836455806856286,0.714581486376589,A,490.7822000004671,Correct
19,319,91,B,60.21703699043714,52.16910226422375,3.0108518495218566,0.8194703420883,B,2299.017000001186,Correct
19,319,92,B,71.18074879603259,56.257498412598856,3.55903743980163,0.8836907186118,B,827.9142999999749,Correct
19,319,93,B,51.707430222437864,39.192886973886,2.5853715111218936,0.6156404289506767,B,896.0948999992979,Correct
19,319,94,A,69.32372698486104,87.75219755229756,3.466186349243052,1.3784082958332913,A,611.9657999988704,Correct
19,319,95,A,53.25868785414858,62.02440700327558,2.662934392707429,0.9742771069237693,B,1503.011000000697,Incorrect
19,319,96,A,34.29293828848736,48.58781535384905,1.7146469144243681,0.7632156188481477,A,541.3573999994696,Correct
19,319,97,A,10.473075283205851,32.12844831039129,0.5236537641602925,0.5046724859158234,A,464.95730000060576,Correct
19,319,98,B,43.595784220311856,30.252623026893986,2.179789211015593,0.4752070912655577,B,1106.0985000003711,Correct
19,319,99,B,45.474679903634744,21.768359416234876,2.2737339951817375,0.3419365901137284,B,528.7213999999949,Correct
19,319,100,A,27.74240391330109,38.75355296309814,1.3871201956650543,0.6087393864468603,A,539.4921999995859,Correct
19,319,101,A,17.372653604189622,37.2603963482056,0.8686326802094811,0.5852849371868334,A,537.0461999991676,Correct
19,319,102,A,59.785961746940814,84.26383636048217,2.9892980873470405,1.3236132463669161,A,715.2660000010655,Correct
19,319,103,B,59.993177193843536,31.05780223166593,2.9996588596921767,0.4878548166382319,B,722.4454999995942,Correct
19,319,104,B,50.29772591137735,31.421312274709152,2.5148862955688673,0.49356481904188526,B,560.8373999984906,Correct
19,319,105,B,75.34723259245665,60.20683910629596,3.7673616296228323,0.9457268171610103,A,1660.4177000008349,Incorrect
19,319,106,B,64.48000064862981,54.44486343992252,3.2240000324314906,0.8552179150428004,B,1646.381399999882,Correct
19,319,107,B,44.44705842321784,37.075601247363686,2.222352921160892,0.5823821825307116,B,725.8509999992384,Correct
19,319,108,A,63.21502067646405,78.68532224254423,3.1607510338232028,1.2359861515126125,A,801.7328000005364,Correct
19,319,109,A,13.39374828072787,38.289542312908324,0.6696874140363934,0.6014507241977417,A,424.0859999990789,Correct
19,319,110,A,42.14724486178611,70.57210147394797,2.1073622430893058,1.1085439776947417,A,551.2796000002709,Correct
19,319,111,A,26.323677543869476,51.60294540147576,1.3161838771934737,0.8105771708843572,A,433.2245999994484,Correct
19,319,112,A,27.01400838109943,39.2679133043964,1.3507004190549714,0.6168189397944631,A,453.1136999994487,Correct
19,319,113,A,46.414470775977726,74.52398414736624,2.320723538798886,1.17062000556804,A,942.4935999995796,Correct
19,319,114,A,45.1222418788696,70.86060682969367,2.25611209394348,1.1130758092254018,B,658.938799999305,Incorrect
19,319,115,A,24.435782415086123,45.1025220962176,1.2217891207543061,0.7084687603792426,A,421.6962999998941,Correct
19,319,116,B,74.23702548483313,62.72280746876904,3.7118512742416563,0.9852475557820592,A,738.4148000001005,Incorrect
19,319,117,A,20.030935164368877,35.72619984332303,1.0015467582184439,0.5611858348423223,A,501.9996999999421,Correct
19,319,118,B,55.89140532288091,42.28128852604932,2.7945702661440452,0.6641529270887349,B,624.2564000003767,Correct
19,319,119,A,51.917233147693494,79.28934787555728,2.5958616573846744,1.245474163968881,A,726.8872999993619,Correct
19,319,120,B,61.943214278753466,43.32688793794236,3.097160713937673,0.6805771642437398,A,800.0050999999075,Incorrect
19,319,121,A,63.26290371102928,86.76486387024578,3.1631451855514636,1.3628992946224132,A,965.81679999872,Correct
19,319,122,B,69.16463349156133,57.19763268009021,3.458231674578067,0.8984583131524945,B,1282.5090999995155,Correct
19,319,123,A,35.20617525095418,66.85966291918457,1.760308762547709,1.0502291292420007,A,581.861900000149,Correct
19,319,124,B,84.26150211460575,60.17633152966095,4.213075105730287,0.9452476052678334,B,3506.85010000052,Correct
19,319,125,B,52.968119255073915,21.177394022114754,2.6484059627536958,0.3326537274102605,B,625.5067000001873,Correct
19,319,126,B,34.89174480661778,20.606758609524558,1.744587240330889,0.3236902073099029,B,598.472400000901,Correct
19,319,127,B,63.61419215768268,43.68393703167676,3.180709607884134,0.6861856782929742,B,481.53460000139603,Correct
19,319,128,B,44.19936567871159,23.910595972780634,2.2099682839355794,0.37558676325520673,B,569.564999999784,Correct
19,319,129,B,52.199662601861654,41.42007750656947,2.6099831300930827,0.6506250560287925,B,467.76320000026317,Correct
19,319,130,B,76.26391436711516,45.64448337286,3.813195718355758,0.7169818682053921,B,943.6203000004753,Correct
19,319,131,B,40.493084978713426,23.341585380471106,2.024654248935671,0.3666487657721347,B,709.7606000006635,Correct
19,319,132,B,41.52211480542276,16.47582698034825,2.076105740271138,0.25880168501639284,B,814.0313999992941,Correct
19,319,133,A,38.9462323222668,54.61117958769318,1.9473116161133401,0.8578304029828487,A,1018.1898000009824,Correct
19,319,134,A,48.37951874398668,68.20556820702006,2.4189759371993342,1.0713705600654588,A,1137.0812000004662,Correct
19,319,135,B,78.48393057173064,54.41709354116481,3.924196528586532,0.8547817064931598,B,958.946199998536,Correct
19,319,136,A,55.754385764396886,67.9562051016135,2.7877192882198445,1.067453573565351,B,689.1529999993509,Incorrect
19,319,137,B,67.63133658575751,47.19767821322942,3.381566829287875,0.7413793957058828,B,1380.7178000006388,Correct
19,319,138,A,38.04788450380081,57.52917400682218,1.9023942251900405,0.9036661521346071,A,528.9153000012448,Correct
19,319,139,B,55.481602975584195,29.11398629645231,2.77408014877921,0.45732142732824244,B,749.6155000008002,Correct
19,319,140,B,51.98946603808739,20.91428269185782,2.5994733019043696,0.3285207842992035,B,522.0415999992838,Correct
19,319,141,B,38.32961209793709,22.70721508228363,1.9164806048968543,0.356684100429928,B,619.9929999984306,Correct
19,319,142,A,53.706702299132324,79.1434727645914,2.6853351149566165,1.243182763084121,A,770.061799999894,Correct
19,319,143,B,64.03030726353407,38.5087578110436,3.201515363176703,0.6048941531902158,B,780.2918000015779,Correct
19,319,144,B,61.75497467357783,34.823914630663964,3.0877487336788914,0.54701277186466,B,881.8106999988231,Correct
19,319,145,A,57.722170969578656,84.4791347860796,2.8861085484789326,1.3269951461278482,A,693.7372000011237,Correct
19,319,146,A,40.79253463558193,52.33726451971389,2.0396267317790966,0.8221118286205945,B,797.1793000015168,Incorrect
19,319,147,B,46.729140056059826,28.103038949154822,2.3364570028029914,0.44144150353106304,B,711.6932000008092,Correct
19,319,148,B,36.2094005085864,24.911263455444576,1.8104700254293198,0.3913052113163229,B,783.9705000005779,Correct
19,319,149,B,66.49343454913861,34.109599716382554,3.3246717274569306,0.5357923394293796,B,684.6500999999989,Correct
19,319,150,B,42.71866764320565,18.38082328526311,2.1359333821602826,0.28872529699957394,B,496.8179000006785,Correct
19,319,151,B,61.290778934942246,31.8293032475542,3.0645389467471125,0.49997352625699015,B,573.5494000000472,Correct
19,319,152,B,54.78077156130639,28.29890481583641,2.7390385780653195,0.4445181573703424,B,427.3760999985825,Correct
19,319,153,B,82.14893271967193,65.04963533373267,4.107446635983597,1.021797282415748,B,576.0855000007723,Correct
19,319,154,B,89.09539825354258,68.50067873215795,4.454769912677129,1.07600614535431,A,738.8387999999395,Incorrect
19,319,155,A,30.86139508480002,43.59465516777371,1.543069754240001,0.684783242054291,A,519.5635999989463,Correct
19,319,156,A,57.30974511446183,72.7753339320432,2.865487255723092,1.1431522722172545,A,1241.4936000004673,Correct
19,319,157,B,62.6325715938647,34.12319814518257,3.1316285796932344,0.5360059430494721,B,569.4824000001972,Correct
19,319,158,A,29.89189698421788,60.651190161203964,1.494594849210894,0.9527066672095796,A,699.4821000007505,Correct
19,319,159,A,47.717111586272296,56.53761880166505,2.3858555793136147,0.8880908393938555,A,783.3163999985118,Correct
19,319,160,A,33.04716517914333,49.09416881253,1.6523582589571664,0.7711694003777069,A,487.03720000048634,Correct
19,319,161,B,72.91696621215851,41.77021161078148,3.6458483106079256,0.656124949676611,B,1273.0262000004586,Correct
19,319,162,A,25.370434526730904,51.18200693921705,1.2685217263365451,0.8039650849811305,A,561.062499999025,Correct
19,319,163,A,21.360567120509906,52.62472942602019,1.0680283560254953,0.8266273168096782,A,538.9956999988499,Correct
19,319,164,B,64.50451550981391,48.36608943137401,3.2252257754906957,0.7597327562023575,A,1587.3071999994863,Incorrect
19,319,165,B,32.74672073801455,18.70826667784862,1.6373360369007275,0.29386876578263976,B,709.273000000394,Correct
19,319,166,A,39.76292636952232,60.27334534595652,1.988146318476116,0.9467714947306877,A,790.3650999996898,Correct
19,319,167,A,37.48082333494741,49.54114210180243,1.8740411667473706,0.7781904403873525,A,550.384899999699,Correct
19,319,168,B,75.0700751834809,55.040252149184994,3.7535037591740443,0.8645702590180471,B,733.0264000011084,Correct
19,319,169,B,68.12114188907788,51.36457054531164,3.4060570944538937,0.8068327873997287,B,866.8327999985195,Correct
19,319,170,A,45.96258687550841,65.08443270905889,2.2981293437754204,1.0223438783091934,A,1810.8422999994218,Correct
19,319,171,A,53.44702147867727,65.72718612847264,2.6723510739338634,1.032440225411693,B,931.4261999988958,Incorrect
19,319,172,A,29.728804341140005,54.61939344891435,1.4864402170570004,0.857959426013199,A,680.1479000005202,Correct
19,319,173,B,46.351776305748395,31.034173619494716,2.3175888152874196,0.4874836592661738,A,644.310100000439,Incorrect
19,319,174,A,21.030736265596698,37.330413657511144,1.0515368132798348,0.5863847665095254,A,529.862299999877,Correct
19,319,175,A,34.280430111243774,56.056131914142846,1.7140215055621888,0.8805276610506575,A,559.9158000004536,Correct
19,319,176,A,33.86903183519636,58.88469494959193,1.6934515917598179,0.92495862531257,A,470.828800000163,Correct
19,319,177,A,39.88168232856449,62.946740159668664,1.9940841164282244,0.9887650822652033,A,481.60980000102427,Correct
19,319,178,B,56.56835693495756,31.31208388427465,2.8284178467478784,0.49184906349712304,B,623.9621999993687,Correct
19,319,179,B,51.69029126421395,36.153229751605906,2.584514563210697,0.5678936049559453,B,480.8035000005475,Correct
19,319,180,A,14.568807804709824,37.20079311532466,0.7284403902354911,0.5843486917940884,A,491.32140000074287,Correct
19,319,181,B,59.66176485400624,38.351119202333464,2.9830882427003123,0.6024179717149863,B,2155.5784000011045,Correct
19,319,182,B,48.35599026466562,28.060350714946125,2.4177995132332812,0.44077095831613927,B,530.8026000002428,Correct
19,319,183,B,64.00206506822116,48.05293626592325,3.200103253411058,0.754813757782215,B,532.4533999992127,Correct
19,319,184,B,60.32742180129536,43.89310223513501,3.016371090064768,0.6894712376258294,B,611.9330000001355,Correct
19,319,185,A,45.39108900114619,68.88197898692309,2.2695544500573095,1.0819955957502203,A,567.5415999994584,Correct
19,319,186,A,21.244598401471485,40.40510980756106,1.062229920073574,0.6346819806946136,A,538.856899998791,Correct
19,319,187,B,87.07695524092267,62.572281226046975,4.353847762046133,0.9828830950905185,B,686.1855999995896,Correct
19,319,188,B,31.198025190184662,16.955765810334125,1.559901259509233,0.2663405465286734,A,474.34289999910106,Incorrect
19,319,189,A,25.846181217553365,57.25500181018635,1.2923090608776682,0.8993594653407587,A,448.17069999953674,Correct
19,319,190,A,53.492669351217046,66.3251012362637,2.6746334675608523,1.041832253962227,B,638.8266000012663,Incorrect
19,319,191,A,65.9819370748747,85.77552645830714,3.2990968537437344,1.3473588188960732,A,740.3474000002461,Correct
19,319,192,A,49.054469536780644,77.16447710189348,2.452723476839032,1.2120967719070317,A,939.2584999986866,Correct
19,319,193,B,67.02727177493236,47.55087688773604,3.351363588746618,0.7469274275113212,B,601.3278999998874,Correct
19,319,194,B,39.176249406071655,16.229347056747955,1.9588124703035827,0.2549299874301925,B,671.9768000002659,Correct
19,319,195,B,75.90112771132561,51.25582717797968,3.795056385566281,0.8051246505800451,B,511.1761000007391,Correct
19,319,196,A,30.92725098722183,64.26929585414733,1.5463625493610913,1.009539738533891,A,728.5467000001518,Correct
19,319,197,A,28.733393383444714,39.56926581359096,1.4366696691722356,0.6215525739395955,A,594.2283000003954,Correct
19,319,198,B,77.20438462504718,65.06179872362787,3.860219231252359,1.0219883444974356,B,1422.9371000001265,Correct
19,319,199,B,40.1679331507881,17.239588797758156,2.008396657539405,0.27079882758972956,B,926.6734000011638,Correct
19,319,200,A,43.50613783911422,71.79439659155832,2.175306891955711,1.1277437445047587,A,876.2153999996372,Correct
19,319,201,A,16.553934438122617,40.07914013835101,0.8276967219061308,0.6295616611041966,A,495.28660000032687,Correct
19,319,202,A,50.787365902571324,80.15567690000309,2.539368295128566,1.259082428462834,B,892.2375999991345,Incorrect
19,319,203,B,35.55414455886135,22.912688962194704,1.7777072279430677,0.35991167658809414,B,650.877500000206,Correct
19,319,204,B,66.41411544849583,39.00334308094796,3.320705772424792,0.612663080442742,B,655.6046999994578,Correct
19,319,205,B,56.77619914133393,47.82070247734845,2.8388099570666965,0.7511658379617056,B,518.8075999994908,Correct
19,319,206,A,35.96543231787558,43.88323558244981,1.798271615893779,0.6893162526078727,B,606.7973000008351,Incorrect
19,319,207,A,34.13358491050661,61.51315424694023,1.7066792455253306,0.966246367406616,A,660.3780000004917,Correct
19,319,208,B,81.6746695682892,65.99543479007073,4.0837334784144605,1.0366538655347524,B,594.9787000008655,Correct
19,319,209,A,28.707166454542914,50.690285008742826,1.4353583227271458,0.7962411349591965,A,609.6027999992657,Correct
19,319,210,B,83.65817359620655,68.92190748246078,4.182908679810327,1.082622791091471,B,717.7609999998822,Correct
19,319,211,B,71.70373420213285,41.79244308785928,3.5851867101066426,0.6564741609019413,B,704.2935999998008,Correct
19,319,212,B,60.15608524850838,29.19522896598779,3.0078042624254193,0.4585975841970959,B,604.9839999996038,Correct
19,319,213,B,43.93313634447296,25.378089437555516,2.1966568172236483,0.3986380966958457,B,527.7641000011499,Correct
19,319,214,B,76.75704800542277,47.962233794717115,3.837852400271139,0.753389006696197,B,575.7730000004813,Correct
19,319,215,A,28.182272806688943,44.15821143043431,1.4091136403344473,0.6936355631275862,A,454.1444999995292,Correct
19,319,216,A,62.742313097986354,80.46729419659246,3.137115654899318,1.2639773015113174,A,1249.734000000899,Correct
19,319,217,B,44.890563904749065,19.197879198191135,2.244528195237453,0.3015595812677079,B,591.8383999996877,Correct
19,319,218,A,39.84050631855867,57.35761892156002,1.9920253159279333,0.9009713711568794,A,679.0194000004703,Correct
19,319,219,A,27.827032829589758,45.29645727602088,1.3913516414794878,0.7115150870599556,A,540.8403000001272,Correct
19,319,220,A,34.8501045210332,43.23212439987664,1.74250522605166,0.6790886220686625,B,1704.4280000009167,Incorrect
19,319,221,A,32.057970255112615,60.95667347900976,1.6028985127556308,0.9575051879446442,A,534.2543999995542,Correct
19,319,222,B,65.34986331791971,36.88947190258416,3.2674931658959854,0.5794584696198274,B,587.5154999994265,Correct
19,319,223,A,54.14847255102653,77.76937043575185,2.707423627551327,1.2215984141763063,A,717.1663000008266,Correct
19,319,224,A,69.84424983792519,87.4186666770706,3.4922124918962596,1.3731692050964992,A,1279.9447999987024,Correct
19,319,225,B,71.92943286560043,50.48463994993706,3.596471643280022,0.7930108699292403,B,771.8442999994295,Correct
19,319,226,B,75.87083035088963,63.78571398991146,3.7935415175444813,1.0019436523734275,B,914.477899999838,Correct
19,319,227,B,83.96911957665188,54.88285106697866,4.198455978832595,0.8620978086004146,B,532.697199998438,Correct
19,319,228,A,28.59311171928444,52.00146305915825,1.429655585964222,0.8168370716128629,A,461.2987999989855,Correct
19,319,229,A,52.03371054253593,60.23476713631711,2.6016855271267962,0.9461655096307285,B,1035.331999999471,Incorrect
19,319,230,B,39.30620327764865,26.12538468853215,1.9653101638824324,0.41037658304849933,A,613.0547000011575,Incorrect
19,319,231,B,47.51821304104335,21.147458022153042,2.3759106520521676,0.3321834938224727,B,1370.57200000163,Correct
19,319,232,A,65.866438530295,88.30228263946684,3.29332192651475,1.3870490121767927,A,711.5428000015527,Correct
19,319,233,A,62.09733116484327,82.4696375746852,3.104866558242163,1.295430037744219,A,1435.1385000009032,Correct
19,319,234,B,55.007348117432926,38.495003497985195,2.7503674058716463,0.6046781009459185,B,613.1048000006558,Correct
19,319,235,A,58.60538524323406,71.1392561387893,2.930269262161703,1.1174528223373155,A,1289.2566999998962,Correct
19,319,236,A,20.261342896660857,45.336680331005084,1.0130671448330428,0.7121469093301722,A,657.8461999997671,Correct
19,319,237,A,18.83095254861577,36.77328746920185,0.9415476274307885,0.5776334488079506,A,438.26219999937166,Correct
19,319,238,B,40.267643036883314,30.59716033672142,2.0133821518441657,0.48061907067276505,B,858.9587999995274,Correct
19,319,239,B,47.70603336718354,37.17634388519824,2.3853016683591766,0.5839646441853332,B,605.1845000001776,Correct
19,319,240,B,59.86437153151181,33.567334079777105,2.99321857657559,0.5272744507281103,B,592.8151000007347,Correct
19,319,241,B,76.7641461715989,45.43085921225932,3.838207308579945,0.7136262677375302,B,427.0673999999417,Correct
19,319,242,A,26.226695259652377,47.3646473444696,1.3113347629826189,0.744002140686285,A,579.0349999988393,Correct
19,319,243,A,52.75762317799581,80.28962496695911,2.6378811588997904,1.2611864797783918,A,810.5157999998482,Correct
19,319,244,A,28.577525052118038,41.02227835144504,1.428876252605902,0.6443764415120767,A,579.626400000052,Correct
19,319,245,B,59.59110476806665,40.205358227184185,2.979555238403332,0.6315442902073389,B,1537.418300000354,Correct
19,319,246,B,81.3124008939334,52.24228324018494,4.0656200446966695,0.8206198661706109,B,622.133800001393,Correct
19,319,247,A,35.61291419374548,59.30047686402789,1.7806457096872743,0.9314897123520075,A,621.04890000046,Correct
19,319,248,B,67.25860587922016,51.63922403224102,3.362930293961008,0.8111470342838293,A,749.3675000005169,Incorrect
19,319,249,B,43.80200046938188,14.824615467851398,2.190100023469094,0.23286451523047783,B,455.30999999937194,Correct
19,319,250,B,84.93040356977772,60.47586228996569,4.246520178488886,0.949952623448321,A,1015.8686000013404,Incorrect
19,319,251,B,50.505669468200026,30.15884306261181,2.5252834734100014,0.4737339990313438,B,416.45579999931215,Correct
19,319,252,B,76.18012657290373,52.94354150379324,3.8090063286451867,0.8316352052167156,B,843.233000001419,Correct
19,319,253,B,88.99954635199592,65.12536635579747,4.449977317599796,1.022986862528586,B,544.7502999995777,Correct
19,319,254,B,65.48747245348811,53.16820472935049,3.2743736226744056,0.835164206911428,B,546.1617999990267,Correct
19,319,255,A,25.401181048665194,55.270398056428995,1.2700590524332598,0.8681853824753045,A,560.5417999995552,Correct
19,319,256,B,38.841061900903185,16.556424701723525,1.9420530950451593,0.26006771106323606,B,487.419700000828,Correct
19,319,257,B,82.34310555119086,52.264269071007185,4.117155277559544,0.820965218793582,B,503.99149999975634,Correct
19,319,258,B,63.2481129063047,35.571664452046946,3.1624056453152347,0.5587583985925595,B,504.01659999988624,Correct
19,319,259,B,66.61380515750183,47.466178098196366,3.330690257875091,0.7455969820363924,B,572.4406999997882,Correct
19,319,260,A,34.21734335712414,58.86525010026955,1.7108671678562073,0.9246531863336632,A,505.15290000112145,Correct
19,319,261,B,62.556275449268995,35.016106822393375,3.1278137724634494,0.5500317197527324,B,513.4288999997807,Correct
19,319,262,A,67.61353289327165,86.50806231446033,3.3806766446635828,1.3588654652169831,A,631.7636999992828,Correct
19,319,263,B,73.51097451588544,53.51118956121921,3.675548725794272,0.8405518000518855,B,669.0392000000429,Correct
19,319,264,B,58.14664267704761,35.41561923181651,2.9073321338523805,0.5563072460050407,B,491.72640000142565,Correct
19,319,265,A,53.15611398725825,60.428885208341754,2.6578056993629127,0.9492147091757368,B,726.511599999867,Incorrect
19,319,266,A,54.07137468563095,68.08694592160583,2.7035687342815478,1.069507245563412,A,445.6530000006751,Correct
19,319,267,B,88.28671076854945,63.23798934351879,4.414335538427473,0.9933400137469414,B,697.2795000001497,Correct
19,319,268,A,43.50674664986404,64.64319268880969,2.175337332493202,1.0154128962787696,A,1101.4290000002802,Correct
19,319,269,A,19.35424557422817,39.66481861515216,0.9677122787114085,0.6230535138366684,A,413.14670000065234,Correct
19,319,270,B,53.056570034239925,31.446197596432782,2.6528285017119964,0.49395571676143113,B,490.717599999698,Correct
19,319,271,A,40.37433115389505,71.51458559284356,2.0187165576947526,1.123348483614979,A,1632.2104999999283,Correct
19,319,272,B,30.84734131743643,13.775243724902992,1.5423670658718214,0.21638102243782067,B,558.0147000000579,Correct
19,319,273,A,15.29781435152719,37.80404713468735,0.7648907175763595,0.5938245837714803,A,481.38420000032056,Correct
19,319,274,A,47.389491115239615,71.47853193493475,2.3694745557619807,1.1227821540808722,A,1085.2506999999605,Correct
19,319,275,B,72.93293231905821,42.845638435897875,3.64664661595291,0.6730177147429062,B,909.8195000005944,Correct
19,319,276,A,50.36803833112693,81.07133003061256,2.5184019165563467,1.2734654742046299,A,791.7386999997689,Correct
19,319,277,B,65.7917538806211,56.19836503414467,3.2895876940310553,0.8827618536751319,B,735.2408999995532,Correct
19,319,278,B,60.85542747835042,49.30042675481578,3.042771373917521,0.7744092925588546,A,1800.348299999314,Incorrect
19,319,279,B,59.950636615536276,26.882384972355258,2.997531830776814,0.42226751570061966,B,850.5633999993734,Correct
19,319,280,A,40.32219686198354,57.92518006671676,2.0161098430991773,0.9098866007773165,A,599.0915999991557,Correct
19,319,281,B,34.02411724475184,17.281315131786506,1.701205862237592,0.2714542633119531,B,508.55480000063835,Correct
19,319,282,A,36.75000119054164,48.43738994774128,1.8375000595270818,0.7608527420944404,B,618.90510000012,Incorrect
19,319,283,B,48.12824372697301,37.52340161174843,2.4064121863486507,0.5894162142058414,B,1284.2915000001085,Correct
19,319,284,A,24.537034869769602,46.65909981501527,1.22685174348848,0.7329194260098243,A,485.16469999958645,Correct
19,319,285,A,47.192645213828605,66.79097547121613,2.35963226069143,1.0491501893323432,A,454.0056000005279,Correct
19,319,286,A,62.19441382963265,79.14709161903376,3.1097206914816327,1.2432396079167738,A,2534.5803999989585,Correct
19,319,287,B,43.988954387716554,35.13828146498799,2.1994477193858275,0.5519508345508833,B,414.5801999984542,Correct
19,319,288,B,61.14572816754708,44.70336225988282,3.0572864083773537,0.7021987723320554,B,452.3955999993632,Correct
19,319,289,A,38.57428299694346,50.8902206434761,1.928714149847173,0.7993817165655407,B,542.8802999995241,Incorrect
19,319,290,A,45.78128238203577,54.40733430010175,2.2890641191017886,0.8546284086930183,B,1074.2350999989867,Incorrect
19,319,291,A,31.303562769323776,40.81402839708335,1.5651781384661887,0.6411052588784113,A,485.6251999990491,Correct
19,319,292,A,45.28989590330545,68.70643195089603,2.2644947951652723,1.07923810935651,A,653.2918000011705,Correct
19,319,293,B,69.68576895387264,43.28664730279714,3.4842884476936318,0.6799450658249996,B,694.978199999241,Correct
19,319,294,A,52.377538886680256,65.56950782510083,2.618876944334013,1.0299634204141759,B,704.1159000000334,Incorrect
19,319,295,A,41.16949250827025,71.06844490709867,2.0584746254135124,1.1163405221109606,A,633.7476999997307,Correct
19,319,296,A,54.20418808919578,71.07659769363333,2.710209404459789,1.1164685857823784,A,516.5377000012086,Correct
19,319,297,A,55.68408328834314,64.9662709147616,2.784204164417157,1.0204877971846962,A,651.1573999996472,Correct
19,319,298,A,12.838056514289526,33.186295101830105,0.6419028257144762,0.521289104458862,A,498.9260000002105,Correct
19,319,299,A,45.01693947748462,76.55108334060732,2.2508469738742307,1.2024616052359598,A,640.1898000003712,Correct
19,319,300,B,49.415981563181255,35.45171673488965,2.4707990781590627,0.5568742642573783,B,663.1119999983639,Correct
19,319,301,A,48.054355793888995,61.77541106769562,2.40271778969445,0.9703658879138108,B,683.5410000003321,Incorrect
19,319,302,A,51.737844555753746,65.49134181674106,2.5868922277876876,1.0287355916260585,A,445.18490000155,Correct
19,319,303,B,83.91328701635913,56.609199505820555,4.195664350817957,0.889215226465424,B,803.8406999985455,Correct
19,319,304,A,42.46540682743247,51.74708607841822,2.1232703413716236,0.8128413273431868,A,1198.9076000008936,Correct
19,319,305,B,40.628227731706744,14.410386711574159,2.0314113865853374,0.22635782514234676,B,558.3869000001869,Correct
19,319,306,A,36.528925143916744,50.62363484544362,1.8264462571958373,0.7951941966422896,B,851.0381999985839,Incorrect
19,319,307,B,84.15503057694947,61.11239466332182,4.207751528847473,0.9599512505878595,A,615.7794999999169,Incorrect
19,319,308,B,72.59092624410988,48.1840544320915,3.629546312205494,0.7568733571201468,B,581.8505000006553,Correct
19,319,309,A,57.55750872817313,68.55562137360153,2.8778754364086567,1.07686918234795,B,501.88080000043556,Incorrect
19,319,310,B,31.970824568262902,11.353709970031044,1.598541228413145,0.17834365916419362,B,686.9889000008698,Correct
19,319,311,A,30.227844761721418,52.83595977634824,1.511392238086071,0.8299453153937072,A,569.5179999984248,Correct
19,319,312,B,58.34954263429088,45.34238480485214,2.917477131714544,0.7122365149958246,B,639.5959000001312,Correct
19,319,313,A,19.12362176247896,40.276809785415,0.9561810881239481,0.6326666486594662,A,474.3720000005851,Correct
19,319,314,A,54.01230126330284,72.63741538488193,2.7006150631651415,1.1409858527444765,B,415.8771999991586,Incorrect
19,319,315,B,39.17315620962914,27.030733829274332,1.9586578104814572,0.42459777409594673,A,600.460399999065,Incorrect
19,319,316,B,73.065811625944,40.762991255620406,3.6532905812971994,0.6403035693350101,B,408.2018999997672,Correct
19,319,317,B,49.50479460151607,28.552732777962376,2.4752397300758036,0.44850527767579534,B,507.5378000001365,Correct
19,319,318,B,55.64175816220458,41.841567731220835,2.7820879081102294,0.6572458089954156,B,627.563400001236,Correct
19,319,319,B,49.90660479792821,27.300217812147874,2.4953302398964103,0.42883081860022493,B,421.7800000005809,Correct
19,319,320,B,81.45942988095939,52.52909567755854,4.0729714940479695,0.8251251054016663,B,524.4138000016392,Correct
19,319,321,B,79.90235130001604,59.720877571321665,3.995117565000802,0.9380933512199978,B,401.1114999993879,Correct
19,319,322,A,15.330526765428505,44.421023418207156,0.7665263382714252,0.6977638041778988,A,724.4049000000814,Correct
19,319,323,A,49.039774745544946,72.62752873999989,2.4519887372772473,1.140830553689826,A,754.537299999356,Correct
19,319,324,A,20.906704187939713,39.593528477656974,1.0453352093969857,0.6219336909755271,A,550.6987000007939,Correct
19,319,325,A,36.16524955631158,58.91314754185322,1.808262477815579,0.9254055575866883,A,550.1372000017,Correct
19,319,326,B,85.51331879802126,62.1728311146783,4.275665939901063,0.9766085474137612,B,1109.0461000003415,Correct
19,319,327,A,42.54778791280195,56.77078597496674,2.1273893956400975,0.8917534207873697,A,530.04300000066,Correct
19,319,328,B,42.852901754902945,17.378595154729062,2.142645087745147,0.27298233433903996,B,586.3437000007252,Correct
19,319,329,A,64.41962011723683,77.10675729881075,3.2209810058618418,1.211190111360375,A,599.0720999998302,Correct
19,319,330,B,64.09223507535219,54.26567105813747,3.2046117537676095,0.8524031676918246,B,636.8352999998024,Correct
19,319,331,A,65.70562536053353,77.40466661325863,3.2852812680266767,1.215869659928902,A,707.7640000006795,Correct
19,319,332,B,31.868582168749313,12.136865934669423,1.5934291084374654,0.19064544428980837,B,534.2686000003596,Correct
19,319,333,B,63.00846368595984,37.32095617111981,3.150423184297992,0.5862362086606833,B,572.6219000007404,Correct
19,319,334,A,40.94186833278239,58.57567069402876,2.04709341663912,0.9201044836572785,A,513.90739999988,Correct
19,319,335,A,17.972622230452664,42.12386805749423,0.8986311115226332,0.661680172151048,A,475.9302000002208,Correct
19,319,336,A,48.09882921877457,64.55190226646108,2.4049414609387285,1.0139789096778022,A,735.1467999997112,Correct
19,319,337,B,71.72464637738612,53.08882254424321,3.5862323188693064,0.8339172744636332,B,1225.3949000005377,Correct
19,319,338,A,61.609976190116726,76.85160209943554,3.0804988095058365,1.2071821428609633,A,778.2337999997253,Correct
19,319,339,A,17.189106001141425,47.56992710114567,0.8594553000570713,0.7472266675638063,A,418.82369999984803,Correct
19,319,340,A,46.667221414029086,72.95000844416482,2.3333610707014545,1.145896053037508,B,462.1439999991708,Incorrect
19,319,341,A,21.24952732281563,51.63758948591709,1.0624763661407814,0.8111213588902133,A,1043.927499998972,Correct
19,319,342,B,59.691392543104676,27.23580686009983,2.984569627155234,0.42781905373140056,A,941.349500000797,Incorrect
19,319,343,B,75.70058247106027,50.600448627776814,3.785029123553014,0.7948299883868568,B,1259.1356000011729,Correct
19,319,344,A,41.58953531384761,57.18622482630802,2.0794767656923807,0.8982791190043175,A,619.7505000000092,Correct
19,319,345,A,48.846838368398735,68.10361059453294,2.4423419184199364,1.0697690136336235,A,761.5395000011631,Correct
19,319,346,B,71.41528380264556,60.778817491933054,3.570764190132278,0.9547114326326583,B,583.3535000001575,Correct
19,319,347,B,37.1170179624135,19.067620850839052,1.8558508981206752,0.29951348793215765,B,563.5191999990639,Correct
19,319,348,B,72.65295290544383,59.080075126310206,3.6326476452721916,0.928027649951746,A,1049.8806000014156,Incorrect
19,319,349,A,26.860849478787916,51.240864827577155,1.3430424739393958,0.80488962252952,A,505.0736000011966,Correct
19,319,350,B,81.10912672033652,62.17639721068522,4.055456336016826,0.9766645635188479,B,915.8308999994915,Correct
19,319,351,B,43.33084461884058,17.883472115400025,2.1665422309420292,0.28091292309209326,B,535.16209999907,Correct
19,319,352,B,73.27321342647075,56.07344849892687,3.6636606713235373,0.8807996693283713,A,1059.0398000003916,Incorrect
19,319,353,B,81.47775925038746,67.98774947358402,4.073887962519374,1.0679490714015745,A,593.9562000003207,Incorrect
19,319,354,B,62.92719912228186,36.35528614509428,3.146359956114093,0.571067499362915,B,657.9765999995288,Correct
19,319,355,B,60.93741343982591,50.61465022347047,3.0468706719912957,0.795053066530359,B,657.164999998713,Correct
19,319,356,A,47.77283357741154,60.06845689363192,2.388641678870577,0.9435531144475461,A,566.4065000000846,Correct
19,319,357,A,56.74633963282006,84.49239494692631,2.837316981641003,1.3272034362473553,A,496.9377999987046,Correct
19,319,358,B,86.2191203350657,64.16995128435784,4.310956016753284,1.0079792376807677,B,659.1427000003023,Correct
19,319,359,B,51.34510254306532,28.020678821902422,2.567255127153266,0.4401477936774387,B,566.4613999997528,Correct
19,319,360,B,55.10695817274042,26.528674478411368,2.7553479086370207,0.416711444254261,B,848.9599000004091,Correct
19,319,361,A,51.55583203669262,69.96211122035827,2.577791601834631,1.0989622731975477,A,613.1368999995175,Correct
19,319,362,A,61.476892880071475,76.66292467770077,3.073844644003574,1.204218404850862,A,1997.4156000007497,Correct
19,319,363,B,38.517947490668675,23.667959445437365,1.9258973745334338,0.3717754375962358,B,481.8505000002915,Correct
19,319,364,A,30.08024647026575,47.818634053500915,1.5040123235132876,0.7511333472358858,A,540.6399000003148,Correct
19,319,365,A,42.28893607899586,54.2985091437199,2.114446803949793,0.8529189871339432,A,562.7256999996462,Correct
19,319,366,B,84.43270974467335,57.09905358825196,4.221635487233667,0.8969098363989114,B,714.4867000006343,Correct
19,319,367,A,47.223056732610615,60.943738317437315,2.3611528366305308,0.9573020029017992,A,590.9071000005497,Correct
19,319,368,B,49.62166761836834,36.29234514975057,2.481083380918417,0.5700788245200078,B,619.3439999988186,Correct
19,319,369,A,47.98638954806378,59.66465857865515,2.3993194774031887,0.9372102653482314,A,684.7005999989051,Correct
19,319,370,B,48.886280088128416,25.92929563572722,2.444314004406421,0.4072964234097926,B,509.8478999989311,Correct
19,319,371,A,35.26724095623898,53.864057614377835,1.7633620478119492,0.8460946384693339,A,585.7131000011577,Correct
19,319,372,B,59.05504258519439,40.39314474889164,2.9527521292597196,0.6344940339925357,B,565.8961000008276,Correct
19,319,373,A,63.875740983963176,76.05165840005137,3.193787049198159,1.1946166566146093,A,715.4073999990942,Correct
19,319,374,B,62.014314516323935,47.87962240956085,3.1007157258161966,0.7520913500926482,A,994.8675000014191,Incorrect
19,319,375,B,71.47520008874069,52.07586306352379,3.5737600044370343,0.818005744148572,B,516.3038999999117,Correct
19,319,376,B,63.45822469175745,54.43838217397062,3.1729112345878723,0.8551161075552983,B,493.6851000002207,Correct
19,319,377,B,78.57583265079381,48.096055104325856,3.9287916325396908,0.7554910669119999,B,676.8518999997468,Correct
19,319,378,B,53.79076478262301,29.337035977097365,2.6895382391311506,0.46082508351874274,B,612.6011999986076,Correct
19,319,379,B,87.84046303041157,65.98824911628392,4.392023151520578,1.0365409932348537,A,926.5338000004704,Incorrect
19,319,380,B,71.42717788165456,50.97992954821698,3.5713588940827274,0.8007908607460185,B,535.6288999992103,Correct
19,319,381,A,61.370292297258985,76.01363445213504,3.068514614862949,1.1940193778374373,A,657.6065999997809,Correct
19,319,382,B,75.32913910924056,60.675572894569,3.7664569554620275,0.9530896702896499,B,1385.8999999993102,Correct
19,319,383,B,31.4588062334318,12.146116687934331,1.57294031167159,0.1907907547822944,A,515.9363000002486,Incorrect
19,319,384,B,46.408526437429934,21.87004425183995,2.320426321871497,0.34353385177632034,B,1605.7927000001655,Correct
19,319,385,A,36.78620947121506,52.585810404808306,1.8393104735607528,0.8260159782540575,A,487.4822999991011,Correct
19,319,386,B,58.86586681212556,36.67027421786522,2.943293340606278,0.5760153204398428,B,582.9680999995617,Correct
19,319,387,A,39.18124204082123,62.79506304015099,1.9590621020410617,0.9863825436432315,A,551.2472999998863,Correct
19,319,388,B,78.96111236530791,67.16782537637576,3.948055618265396,1.0550697338001207,A,1053.6353999996209,Incorrect
19,319,389,B,64.42127240785987,35.79836106290939,3.221063620392994,0.5623193406289552,B,517.0447999989847,Correct
19,319,390,A,46.188730160589536,68.44586885367734,2.3094365080294765,1.0751451937964158,A,693.3478999999352,Correct
19,319,391,A,59.636840930353394,78.33471870976564,2.9818420465176696,1.2304788840981131,A,633.8013999993564,Correct
19,319,392,A,12.11279074175447,35.41682947322526,0.6056395370877234,0.5563262564326347,A,517.6787000000331,Correct
19,319,393,B,44.05598857704698,14.590999819309395,2.202799428852349,0.22919488920436196,B,657.5348999995185,Correct
19,319,394,A,65.65305447481232,79.72361265130334,3.2826527237406165,1.2522955791148644,A,1034.4048000006296,Correct
19,319,395,B,59.04265012252489,49.070235835757444,2.9521325061262447,0.770793462057671,B,1946.4081000005535,Correct
19,319,396,A,47.60368458085035,57.466706555307276,2.3801842290425173,0.9026849157007687,A,537.9000000011729,Correct
19,319,397,B,80.33863622524537,65.58994389082699,4.0169318112622685,1.030284429383944,B,717.4735000007786,Correct
19,319,398,A,25.4759400696496,44.40255608409585,1.27379700348248,0.6974737199720215,A,594.4741999992402,Correct
19,319,399,B,61.73223345862929,48.02284365398474,3.0866116729314643,0.7543410641392484,B,697.1224000008078,Correct
19,319,400,A,13.506846890403914,35.555806343370364,0.6753423445201957,0.5585093000039685,A,468.6766000013449,Correct
19,319,401,A,31.983609306103,64.57837494886041,1.59918046530515,1.0143947416005352,A,427.3374000003969,Correct
19,319,402,B,65.09490833999924,32.469851671069414,3.2547454169999614,0.5100352373649097,B,485.31439999896975,Correct
19,319,403,A,34.53218571770896,63.67030058378855,1.726609285885448,1.0001307428294202,A,566.6991999987658,Correct
19,319,404,B,50.481060204444844,29.138766997264767,2.524053010222242,0.45771068166635853,B,512.090399999579,Correct
19,319,405,A,30.31724182045628,40.87964838086306,1.515862091022814,0.6421360151732662,A,499.1539000002376,Correct
19,319,406,B,55.90102787172342,43.263785268687116,2.795051393586171,0.6795859498329688,A,711.5983000003325,Incorrect
19,319,407,B,49.463487732471734,18.75485427145528,2.4731743866235867,0.29460056199175527,B,451.7550999989908,Correct
19,319,408,B,46.13622260937494,31.91045171302679,2.306811130468747,0.5012482033718839,B,538.0968000008579,Correct
19,319,409,A,57.41505442138684,80.0190834251456,2.8707527210693424,1.256936823177131,A,631.3583999999537,Correct
19,319,410,A,28.461190764317088,57.4311411875936,1.4230595382158544,0.9021262562111112,A,581.4346999995905,Correct
19,319,411,B,63.72931623993218,38.458585945850665,3.1864658119966087,0.6041060553746805,B,636.0761000014463,Correct
19,319,412,B,34.597348437811675,22.9597131533465,1.7298674218905836,0.3606503308554115,B,724.9083000006067,Correct
19,319,413,B,45.76414075624333,19.308829494016393,2.2882070378121666,0.3033023844390991,B,618.6966000004759,Correct
19,319,414,B,69.42011646738975,38.24744379128613,3.471005823369487,0.6007894421664652,B,585.6284000001324,Correct
19,319,415,A,49.31219275678929,66.90837163091939,2.465609637839464,1.0509942438967605,A,599.1739999990386,Correct
19,319,416,A,31.434862533149264,55.76584148878281,1.5717431266574633,0.875967789712065,A,527.4632000000565,Correct
19,319,417,A,38.62703699387002,47.92125861702289,1.9313518496935012,0.7527453701100784,B,493.57030000101076,Incorrect
19,319,418,A,46.67267587072854,69.21845903026745,2.333633793536427,1.0872810119114715,A,527.7542999992875,Correct
19,319,419,A,64.07607416359754,85.83673141958425,3.2038037081798767,1.3483202241796304,A,757.0464000000356,Correct
19,319,420,B,56.2668499649263,48.67200077753198,2.8133424982463153,0.7645380003910559,B,643.4068999988085,Correct
19,319,421,B,81.45827910111454,52.648256762887016,4.072913955055728,0.8269968833529749,B,1911.0204999997222,Correct
19,319,422,A,65.18801442234127,82.43105257344264,3.2594007211170632,1.294823945962007,A,676.2742000009894,Correct
19,319,423,B,55.069066563138186,22.81507348175157,2.7534533281569096,0.3583783362069101,B,506.6305000000284,Correct
19,319,424,B,37.87417335675906,15.69717165450724,1.8937086678379529,0.24657059575968937,B,676.8634999989445,Correct
19,319,425,B,58.69011742202455,42.7733171528422,2.9345058711012273,0.6718816946851768,B,1392.1677999987878,Correct
19,319,426,A,41.67835061858111,71.20537198089701,2.0839175309290554,1.1184913675565726,A,544.4963999998436,Correct
19,319,427,A,32.1325406556676,42.28304267972169,1.6066270327833798,0.6641804812701868,A,1279.126700001143,Correct
19,319,428,B,51.01460046993097,43.948552012559354,2.5507300234965484,0.6903422406928269,B,544.4924999992509,Correct
19,319,429,A,19.351930401402704,33.356285550840084,0.9675965200701353,0.5239593081878129,A,496.78320000020904,Correct
19,319,430,B,45.46269413898469,27.33187273632622,2.2731347069492345,0.42932805298646803,B,624.8436999994738,Correct
19,319,431,B,61.32257173795362,30.990799323375033,3.0661285868976815,0.4868023374159526,B,473.1132999986585,Correct
19,319,432,A,19.215564297699824,41.15523752497526,0.9607782148849913,0.6464649593260263,A,440.60170000011567,Correct
19,319,433,B,81.5809328813296,66.374984996257,4.07904664406648,1.0426158262318685,A,710.1582000013877,Incorrect
19,319,434,A,55.196449309621784,82.81685102487305,2.7598224654810894,1.3008840538659074,B,1277.8472999998485,Incorrect
19,319,435,B,35.79572558540649,23.77941303388314,1.7897862792703245,0.37352614646962323,A,715.1334999998653,Incorrect
19,319,436,B,79.62000496973884,66.86969416479229,3.981000248486942,1.0503866996795386,B,638.4616000013921,Correct
19,319,437,B,38.43529710725663,17.152134291154642,1.9217648553628317,0.26942509541238496,B,546.8882999994094,Correct
19,319,438,B,52.77061852220113,45.377624881387064,2.6385309261100565,0.7127900648235951,B,539.1789000004792,Correct
19,319,439,A,36.981085886909185,47.074299478824905,1.849054294345459,0.7394413670778107,B,435.47849999959,Incorrect
19,319,440,B,65.46495554518786,39.40856218660667,3.2732477772593933,0.6190282472699001,B,1175.0664999999572,Correct
19,319,441,A,58.14318824621003,81.32169584459047,2.9071594123105013,1.277398211214145,A,718.8053999998374,Correct
19,319,442,B,56.72738110950312,48.914717687710194,2.836369055475156,0.7683505887006453,B,601.3401000000158,Correct
19,319,443,B,57.747700139971286,25.059509563525577,2.8873850069985645,0.39363385573667553,B,474.16640000119514,Correct
19,319,444,A,20.135915895501608,40.99586679331138,1.0067957947750805,0.6439615697270639,A,551.4321999999083,Correct
19,319,445,B,41.88777120049113,33.71631683018488,2.0943885600245564,0.5296146662990735,B,476.40169999976933,Correct
19,319,446,A,33.16754187760732,57.55520590952684,1.6583770938803661,0.9040750603060869,A,538.212299999941,Correct
19,319,447,B,49.45846463097904,41.29899342806873,2.472923231548952,0.6487230717713693,B,1061.2531999995554,Correct
19,319,448,B,77.28491059411725,63.6820154775681,3.8642455297058627,1.0003147599505973,A,809.6955999990314,Incorrect
19,319,449,A,35.09676241908674,64.04876589711927,1.7548381209543367,1.0060756620694118,A,618.7879999997676,Correct
19,319,450,B,77.85712237048101,50.47067398852508,3.8928561185240507,0.7927914931203793,B,471.26509999907285,Correct
19,319,451,A,31.941764996758103,52.51566242444926,1.5970882498379053,0.8249140963552566,B,641.4879000003566,Incorrect
19,319,452,A,17.01969788423366,39.495653913357884,0.8509848942116831,0.6203962809146505,A,970.8869000005507,Correct
19,319,453,A,10.848836939285992,32.178031982686306,0.5424418469642995,0.5054513444189236,A,419.9892999986332,Correct
19,319,454,A,45.524621989570925,55.55451957451646,2.2762310994785464,0.8726483528450563,A,611.9975999990857,Correct
19,319,455,A,56.71781720960129,81.48760163886475,2.835890860480065,1.2800042533365452,A,2364.5801000002393,Correct
19,319,456,B,53.54308165816692,23.539140514984485,2.6771540829083462,0.36975195456846566,B,925.7001000005403,Correct
19,319,457,A,41.51786128783775,54.15640192510853,2.0758930643918876,0.8506867721638853,A,993.0113000009442,Correct
19,319,458,A,47.934949772006064,61.54315494472499,2.3967474886003033,0.9667176172654319,B,726.3087000010273,Incorrect
19,319,459,B,58.1933337237505,41.393640712204665,2.9096666861875247,0.6502097878339878,B,717.215099999521,Correct
19,319,460,B,72.85780861847203,51.69047047840462,3.642890430923602,0.8119520115777802,A,536.8116999998165,Incorrect
19,319,461,B,65.04656556783354,44.88379248713503,3.252328278391677,0.7050329637141608,B,2486.346699999558,Correct
19,319,462,B,35.611727719781285,12.55381293539148,1.7805863859890645,0.19719483246183195,B,607.1828999993159,Correct
19,319,463,A,44.41616971437824,53.68565940399605,2.220808485718912,0.843292365933589,A,574.6799000007741,Correct
19,319,464,A,64.52376990747803,78.20548783815522,3.2261884953739015,1.2284489303137716,A,918.1134999998903,Correct
19,319,465,A,25.573058543012046,45.87776784604955,1.2786529271506024,0.7206462921412365,A,457.7117000008002,Correct
19,319,466,A,13.506257341360719,42.04258415056714,0.675312867068036,0.660403367526762,A,458.31059999909485,Correct
19,319,467,B,38.85754716345238,21.382708913496767,1.942877358172619,0.33587880618245214,B,519.2853999997169,Correct
19,319,468,A,61.40999769122017,86.52950144435543,3.0704998845610083,1.3592022302818723,A,1038.4477999996307,Correct
19,319,469,A,58.31236018450489,85.02191926973549,2.915618009225245,1.3355211848595274,A,1193.2577000006859,Correct
19,319,470,A,13.628293496778358,30.112086292356647,0.6814146748389178,0.4729995454016478,A,809.8396999994293,Correct
19,319,471,A,43.416108689694,59.18038357581953,2.1708054344847,0.9296032913921034,A,471.37089999887394,Correct
19,319,472,B,57.95887167506872,25.77765832665625,2.8979435837534364,0.4049145101288552,B,526.5466000000742,Correct
19,319,473,B,64.16027244385795,46.70163633777238,3.2080136221928974,0.7335875881468392,A,930.1507000000129,Incorrect
19,319,474,B,64.26482202863541,46.7416318564469,3.2132411014317706,0.7342158362850612,B,990.8603000003495,Correct
19,319,475,B,62.618289760805006,42.902401620128224,3.1309144880402506,0.6739093487557684,B,534.8733000009815,Correct
19,319,476,A,41.270264801393765,58.02777650318015,2.063513240069688,0.9114981818327059,A,634.2055999994045,Correct
19,319,477,A,41.79089401118972,69.32003371777472,2.089544700559486,1.088876543371789,A,491.0472999999911,Correct
19,319,478,A,64.11016068575353,83.82029293407713,3.2055080342876763,1.316646082517206,A,1472.5923999994848,Correct
19,319,479,A,48.448118949305595,59.72306728231347,2.4224059474652795,0.9381277471198247,A,1148.1930000009015,Correct
19,319,480,B,48.00928138221776,28.73495664918304,2.4004640691108876,0.4513676435514731,B,965.3132000003097,Correct
19,319,481,B,47.747103367753674,36.153002044826415,2.3873551683876837,0.5678900281462171,B,520.3639999999723,Correct
19,319,482,B,60.141704056334,46.05210868454435,3.0070852028167003,0.7233848316284163,B,533.6172000006627,Correct
19,319,483,A,60.45267882615909,86.08014090787613,3.022633941307954,1.3521436914807894,A,1089.218199998868,Correct
19,319,484,A,39.88919444067656,71.530339074079,1.994459722033828,1.1235959387195675,A,594.3336000000272,Correct
19,319,485,B,83.63509980814509,54.926937581191126,4.181754990407254,0.8627903179462758,B,527.8588000001037,Correct
19,319,486,B,62.635115348614306,53.824353956612775,3.1317557674307155,0.8454709748715571,A,1048.4730999996827,Incorrect
19,319,487,B,53.2315177595254,41.949857399917235,2.66157588797627,0.6589468191335971,B,1831.8980999993073,Correct
19,319,488,B,64.08875503771779,39.73365425349551,3.204437751885889,0.6241347815152917,A,1178.4250999990036,Incorrect
19,319,489,B,50.63287874847833,22.431403674758666,2.5316439374239166,0.35235166497164455,B,1359.1329999999289,Correct
19,319,490,A,43.527584659811026,54.20294647838668,2.176379232990551,0.8514178922971017,A,1522.20540000053,Correct
19,319,491,A,29.6783511355064,43.154586259883274,1.48391755677532,0.6778706558137816,A,498.5083999999915,Correct
19,319,492,B,56.824763871520645,25.954501491194947,2.8412381935760322,0.4076923560616169,B,526.3560000003054,Correct
19,319,493,A,51.61905960387176,61.73869194348329,2.580952980193588,0.9697891052594524,A,617.440699999861,Correct
19,319,494,A,34.73199669738858,42.57221930350599,1.7365998348694291,0.6687228570545399,A,505.9691999995266,Correct
19,319,495,A,55.55445206431509,73.5164734651633,2.7777226032157545,1.15479406477993,A,1304.6114999997371,Correct
19,319,496,B,68.16811833762266,40.270534668867036,3.408405916881133,0.6325680793592288,B,517.0634999994945,Correct
19,319,497,B,35.21693637736672,20.793517152132463,1.7608468188683362,0.32662380363716353,B,406.1853000002884,Correct
19,319,498,B,54.58367827125031,24.975272200450597,2.729183913562515,0.39231065833170486,B,493.3592999987013,Correct
19,319,499,B,56.636435252660085,46.29071726304779,2.8318217626330044,0.7271328864149657,B,659.990199999811,Correct
19,319,500,B,86.22277188662567,66.16304169604268,4.311138594331283,1.0392866286572142,B,480.67400000036287,Correct
19,319,501,B,79.13525303060564,63.7119156427337,3.956762651530282,1.000784430646724,B,490.6713000000309,Correct
19,319,502,B,84.44305635058043,57.923400063898306,4.222152817529022,0.9098586405584275,B,442.6956999996037,Correct
19,319,503,B,82.1809465225999,52.90642586276185,4.109047326129995,0.8310521940907284,B,440.20520000049146,Correct
19,319,504,A,37.34524913162752,67.41751047933654,1.867262456581376,1.0589917782259828,A,545.6205999998929,Correct
19,319,505,A,55.03286451048838,75.06801306649001,2.7516432255244188,1.179165591846338,A,1031.9681000000855,Correct
19,319,506,B,51.49617033977205,21.964593692122293,2.5748085169886026,0.34501903091128056,B,561.0898999984784,Correct
19,319,507,A,45.06265830931081,66.3047361028524,2.2531329154655406,1.0415123591946551,A,683.0527000001894,Correct
19,319,508,A,48.419640595273705,55.504769357034924,2.4209820297636853,0.871866878256284,B,650.5064000011771,Incorrect
19,319,509,B,58.72850277351089,42.33686846402245,2.936425138675544,0.6650259747128516,B,784.0395999992325,Correct
19,319,510,A,49.04213132185787,63.3828943823763,2.4521065660928936,0.9956161767746559,A,539.9290999994264,Correct
19,319,511,B,76.57822357777479,45.469584334260645,3.8289111788887396,0.714234560531474,B,702.9884999992646,Correct
19,319,512,B,45.228283565729626,19.497426034900872,2.261414178286481,0.3062648519757748,B,639.5419000000402,Correct
19,319,513,B,66.90414785781695,56.118868948171695,3.3452073928908477,0.8815131320767227,A,579.9580000002607,Incorrect
19,319,514,A,58.78502863460601,86.59350449717873,2.9392514317303005,1.360207587884657,A,664.9391999999352,Correct
19,319,515,A,31.236806729618575,42.43189484720463,1.5618403364809288,0.6665186456493634,A,556.5994000007777,Correct
19,319,516,A,46.44593243561731,56.000709044541125,2.322296621780865,0.8796570806507494,A,1143.8890000008541,Correct
19,319,517,A,52.23262707902613,80.77556194586334,2.6116313539513065,1.2688195599935577,A,717.4250000007305,Correct
19,319,518,A,15.72224202133038,39.93161873931818,0.786112101066519,0.6272444003869526,B,477.5563000002876,Incorrect
19,319,519,A,62.628844638905846,87.42082648345415,3.131442231945292,1.373203131255838,B,631.1079999995854,Incorrect
19,319,520,A,18.44756965226884,41.01852047154986,0.922378482613442,0.644317412872718,A,444.94119999944814,Correct
19,319,521,B,45.87511628956731,24.19346536178758,2.293755814478365,0.3800300652273549,B,687.6844999987952,Correct
19,319,522,A,11.463854151092185,37.70208099679118,0.5731927075546093,0.5922229034228326,A,506.20619999972405,Correct
19,319,523,A,15.361328772733877,41.045590405171346,0.7680664386366939,0.64474262639571,A,410.76799999973446,Correct
19,319,524,A,28.559861089540348,59.013198514140306,1.4279930544770172,0.9269771545842965,A,543.7510000010661,Correct
19,319,525,B,46.52616185658237,31.30298250918844,2.3263080928291187,0.49170609943158095,B,472.8727000001527,Correct
19,319,526,B,88.22419250560384,67.58752469299765,4.411209625280192,1.0616623552492008,B,587.6411000008375,Correct
19,319,527,B,61.79180525313724,35.6232563942482,3.089590262656862,0.5595688029255789,B,404.2098999998416,Correct
19,319,528,A,34.67191546963732,56.87877784174926,1.733595773481866,0.893449753064027,B,648.3440000010887,Incorrect
19,319,529,A,45.98489120720523,56.36224485081356,2.2992445603602616,0.885336071815725,A,483.9497000011761,Correct
19,319,530,A,19.524058893463767,43.36627388644176,0.9762029446731885,0.6811958372760416,A,392.11599999907776,Correct
19,319,531,B,72.03001414101752,48.49258962240003,3.601500707050876,0.7617198165563829,A,673.8084999997227,Incorrect
19,319,532,A,49.843833900464325,61.1175068754322,2.4921916950232164,0.9600315530279074,B,451.7374999995809,Incorrect
19,319,533,A,35.40890990704008,64.71175088282939,1.7704454953520041,1.0164898058721483,A,476.312599999801,Correct
19,319,534,B,62.31328219752068,45.49248300367191,3.115664109876034,0.7145942519894709,B,810.6869000002916,Correct
19,319,535,B,72.34092491722214,61.25734257888398,3.617046245861107,0.9622280871212756,A,839.9400999987847,Incorrect
19,319,536,B,46.769367335023006,20.35700075701765,2.33846836675115,0.31976702013684255,B,604.3427000004158,Correct
19,319,537,B,56.08706372173804,36.709785858450765,2.8043531860869018,0.576635967838817,B,967.6849999996193,Correct
19,319,538,B,65.93557089173322,46.88883471832989,3.296778544586661,0.7365280934324561,B,473.6188000006223,Correct
19,319,539,A,55.37154680489712,80.12647240257768,2.768577340244856,1.2586236852900166,A,721.0902000006172,Correct
19,319,540,B,71.20707234468311,45.51086849779695,3.560353617234156,0.7148830506558501,B,760.0012999992032,Correct
19,319,541,B,67.56506966427648,54.72288938621228,3.378253483213824,0.8595851363946566,A,984.8627999999735,Incorrect
19,319,542,B,76.23548366816888,51.12890913145877,3.8117741834084438,0.8031310265672548,B,915.6399999992573,Correct
19,319,543,B,80.47187234440173,60.292902742705934,4.023593617220087,0.9470787016004443,B,400.0701000004483,Correct
19,319,544,A,52.66130425371398,81.77857412817623,2.633065212685699,1.284574838510634,A,635.4057999997167,Correct
19,319,545,B,62.47492816455258,31.036937061261533,3.123746408227629,0.48752706730794004,B,619.1538000002765,Correct
19,319,546,A,47.1635811083964,64.57504367189118,2.3581790554198196,1.014342414024267,A,488.38399999840476,Correct
19,319,547,B,51.93001500756059,27.84499698230156,2.5965007503780293,0.4373881897941426,B,504.410800000187,Correct
19,319,548,A,36.998269854255106,48.63089783490898,1.8499134927127554,0.7638923568781291,A,388.08309999876656,Correct
19,319,549,A,62.81223842278206,87.78598333093869,3.140611921139103,1.378939001603165,A,759.0495000004012,Correct
