subject,day,trial,cat,x,y,xt,yt,resp,rt,fb
17,217,0,B,71.27148364709873,52.16952223047611,3.563574182354937,0.8194769389027659,B,863.1764000001567,Correct
17,217,1,A,19.43972536232233,42.53352682715537,0.9719862681161167,0.6681150770572785,A,532.9652000000351,Correct
17,217,2,B,51.545268085831495,40.46169493186619,2.5772634042915747,0.6355708177487108,B,317.2735999999077,Correct
17,217,3,A,55.63047913482691,71.53476711173863,2.781523956741346,1.123665494172474,B,460.4817000001731,Incorrect
17,217,4,A,28.647981738220466,60.191179590331224,1.4323990869110232,0.9454808380594423,A,598.7092000000303,Correct
17,217,5,B,40.010378393916824,30.713517621267904,2.0005189196958413,0.48244680662437955,B,854.4016999999258,Correct
17,217,6,A,60.76552077144962,71.92849323977235,3.038276038572481,1.1298501297292596,A,1049.760200000037,Correct
17,217,7,B,45.9959964784678,28.803522890688804,2.29979982392339,0.45244467955446693,B,576.9373999999061,Correct
17,217,8,B,78.74357505730077,48.6443045232954,3.9371787528650386,0.7641029486468478,B,377.79250000016873,Correct
17,217,9,A,61.4641129446995,78.88265813244428,3.073205647234975,1.2390858964226104,A,458.3526000001257,Correct
17,217,10,A,37.548559399585805,55.06837582302568,1.8774279699792902,0.8650120246536962,A,466.95309999995516,Correct
17,217,11,A,31.866640329026325,46.77809502981341,1.5933320164513163,0.7347885984729351,B,756.313000000091,Incorrect
17,217,12,B,75.18724186552276,60.68576053381462,3.7593620932761382,0.9532496973527071,B,437.41159999990487,Correct
17,217,13,B,86.52452146886611,59.15398797546281,4.326226073443306,0.9291886702712647,B,541.4442999999665,Correct
17,217,14,B,58.95761321519821,32.75426525849102,2.9478806607599104,0.5145027955490338,B,809.3541999999161,Correct
17,217,15,B,48.489213630707305,33.50943294651108,2.4244606815353653,0.526364941853595,B,619.2859000000226,Correct
17,217,16,B,61.7784714445027,29.279934864628167,3.088923572225135,0.45992814134151755,B,553.638600000113,Correct
17,217,17,B,31.97952519894565,15.890891129280476,1.5989762599472825,0.2496135341537138,B,584.2853000001469,Correct
17,217,18,A,20.942565479443257,36.13006948292109,1.0471282739721628,0.5675298043061683,B,630.393099999992,Incorrect
17,217,19,B,56.16253572809947,39.81647240869276,2.8081267864049733,0.6254356860550493,B,406.3939999998638,Correct
17,217,20,B,38.243250356565255,13.645833700286683,1.9121625178282629,0.21434825452464332,B,506.29670000012084,Correct
17,217,21,A,51.342818072120785,81.92805555713733,2.567140903606039,1.2869228873059952,A,646.9772000000376,Correct
17,217,22,A,61.74535371763061,76.3355559253772,3.0872676858815304,1.199076108514289,A,737.185300000192,Correct
17,217,23,B,74.81113115304309,58.343637877907355,3.740556557652155,0.9164597207046848,B,381.91890000007334,Correct
17,217,24,A,44.93680475073271,63.67252271353888,2.2468402375366354,1.000165647961915,A,1013.0953000000318,Correct
17,217,25,A,25.57357708036318,48.80517743285549,1.278678854018159,0.7666299344010257,A,622.2124999999323,Correct
17,217,26,B,57.69225525765195,48.38749821030366,2.8846127628825973,0.7600690445153963,B,594.9702999998863,Correct
17,217,27,A,23.463840563712907,47.0134519045086,1.1731920281856454,0.7384855756155063,A,621.6942000000927,Correct
17,217,28,A,25.291843304754828,40.700035880714516,1.2645921652377412,0.6393146686184685,A,724.8826000000008,Correct
17,217,29,B,41.28207516942065,21.666478970188486,2.0641037584710324,0.3403362558095095,B,459.2783000000509,Correct
17,217,30,B,41.894031097423415,15.241349451326826,2.0947015548711705,0.2394105573354159,B,338.4547999999086,Correct
17,217,31,B,71.33820478334316,48.860828902536156,3.5669102391671577,0.7675041056425771,B,390.5904999999166,Correct
17,217,32,B,77.87008879938234,59.571672587276204,3.893504439969117,0.9357496448112169,B,566.6289999999208,Correct
17,217,33,A,15.6437710688597,39.99453566003163,0.782188553442985,0.6282326970664519,A,499.8874000000342,Correct
17,217,34,B,39.685977410816214,20.303719100503045,1.9842988705408107,0.3189300738334557,B,363.90560000018013,Correct
17,217,35,A,32.070406257879505,46.099803236512045,1.6035203128939752,0.724134015898806,B,507.94489999998405,Incorrect
17,217,36,A,40.56735949260427,71.73775828524946,2.0283679746302137,1.1268540720697,A,508.77680000007786,Correct
17,217,37,A,31.216484922330217,49.289127142388956,1.5608242461165107,0.7742317986619122,A,430.1629999999932,Correct
17,217,38,A,19.570254427797614,34.26610486796701,0.9785127213898807,0.538250716601713,A,432.3837000001731,Correct
17,217,39,B,77.56140528704482,51.00223071128663,3.8780702643522407,0.801141166596349,B,434.86540000003515,Correct
17,217,40,B,56.99173333294676,47.183977733938974,2.849586666647338,0.7411641890804351,B,499.15690000011637,Correct
17,217,41,A,53.569912705649564,62.309044478303285,2.678495635282478,0.9787481819261864,B,460.2907999999388,Incorrect
17,217,42,A,49.92422979091306,69.0586452760381,2.4962114895456526,1.0847706633303238,A,397.9742999999871,Correct
17,217,43,B,56.77684006234649,45.67785933424571,2.8388420031173247,0.7175061365808713,B,435.237799999868,Correct
17,217,44,B,32.52543735965929,10.563286651138988,1.6262718679829646,0.16592771870490686,B,637.7239999999347,Correct
17,217,45,B,39.20778823570025,20.84885218407027,1.9603894117850127,0.32749300428627337,A,580.6359999999131,Incorrect
17,217,46,B,70.67448565984577,53.16064571587082,3.533724282992289,0.8350454702053474,B,687.4242999999751,Correct
17,217,47,A,61.31426502824766,87.00169330161714,3.0657132514123826,1.3666194026311635,A,554.2103999998744,Correct
17,217,48,A,56.124945805686565,72.3131590276208,2.8062472902843285,1.1358924457952198,A,625.9373000000323,Correct
17,217,49,B,32.720539874738705,12.679866743222732,1.6360269937369352,0.19917488104503037,B,652.7056999998422,Correct
17,217,50,B,61.90161904508245,32.32728515180935,3.0950809522541225,0.5077958077171332,B,350.11139999983243,Correct
17,217,51,B,61.87848214508122,52.79950188940432,3.0939241072540606,0.8293726362447651,B,683.3530000001247,Correct
17,217,52,A,15.211428208917631,40.28593047439952,0.7605714104458815,0.6328099161070135,A,506.7894000001161,Correct
17,217,53,B,66.49807552797004,42.6912405932931,3.3249037763985023,0.6705924391026198,B,389.3149000000449,Correct
17,217,54,A,54.98812183625173,69.25431642099282,2.7494060918125864,1.0878442584878703,A,677.0679999999629,Correct
17,217,55,A,49.06116670440262,78.96336767443353,2.453058335220131,1.2403536789435505,A,622.1958999999515,Correct
17,217,56,A,49.20736982186074,79.90423877130601,2.460368491093037,1.2551328475730985,A,553.2493000000613,Correct
17,217,57,B,58.701984960165674,40.00096596456598,2.9350992480082834,0.6283337040538791,B,503.62209999980223,Correct
17,217,58,B,79.06654578490631,64.36297316871767,3.953327289245316,1.0110112183502018,B,437.7014000001509,Correct
17,217,59,A,41.47078087090026,69.94220758723485,2.073539043545013,1.0986496276595465,A,564.8714999999811,Correct
17,217,60,B,52.6427427360697,22.79442553266412,2.632137136803485,0.35805399898108603,B,474.7001000000637,Correct
17,217,61,B,60.36400714856464,35.32859918179475,3.0182003574282317,0.5549403382557239,B,343.4175999998388,Correct
17,217,62,B,50.88440187663912,36.40560252492686,2.5442200938319557,0.5718578672091013,B,559.9627000001419,Correct
17,217,63,A,29.53424366982307,55.56967324372863,1.4767121834911534,0.8728863861244158,A,556.7095000001245,Correct
17,217,64,B,88.74701418453809,66.59875654060461,4.437350709226904,1.046130821430893,B,421.81090000008226,Correct
17,217,65,B,73.75971644649516,47.03649931391577,3.6879858223247584,0.7388476034758955,B,317.80079999998634,Correct
17,217,66,B,76.4998524025697,48.239278455524015,3.824992620128485,0.7577408140517332,B,361.1262999997962,Correct
17,217,67,B,32.97394078646781,12.90123342403145,1.6486970393233904,0.20265210073592146,B,606.6599000000679,Correct
17,217,68,A,46.555783044026626,76.01331445862834,2.327789152201331,1.1940143513911883,A,572.4766999999247,Correct
17,217,69,A,51.40492278706484,77.18743739435828,2.5702461393532423,1.2124574313376901,A,698.8633000000846,Correct
17,217,70,B,68.26773167911293,54.84258762231228,3.413386583955646,0.861465351890554,B,408.0931999999393,Correct
17,217,71,B,78.51336922078254,49.80722504508918,3.925668461039127,0.7823700614867287,B,303.83770000003096,Correct
17,217,72,A,61.77476028798324,87.90511798760659,3.0887380143991616,1.3808103644140441,A,565.619199999901,Correct
17,217,73,A,21.89284453173367,42.87961234526355,1.0946422265866835,0.6735513756632909,A,481.0041999999157,Correct
17,217,74,A,18.87199842833778,44.36941664893837,0.9435999214168889,0.6969531669418472,A,474.38579999993635,Correct
17,217,75,A,55.53809167370502,78.81096761093087,2.776904583685251,1.2379597843440178,A,798.2822999999826,Correct
17,217,76,A,50.128056144872104,63.5551290287496,2.5064028072436053,0.9983216322733556,A,474.11719999990964,Correct
17,217,77,A,49.669935197865684,71.60083168250084,2.4834967598932844,1.1247032340233198,A,893.1876999999986,Correct
17,217,78,A,35.364134181292336,45.23101034329133,1.768206709064617,0.71048704904464,A,1570.1692999998613,Correct
17,217,79,B,67.07619197037124,58.48573061541826,3.3538095985185623,0.9186917082061482,B,499.88349999989623,Correct
17,217,80,B,43.14516725589996,17.57015075564747,2.157258362794998,0.2759912826820362,B,508.94180000000233,Correct
17,217,81,B,59.794112182658395,31.465934694182973,2.98970560913292,0.49426574636790704,B,506.779300000062,Correct
17,217,82,A,38.67530465201877,69.32618660886139,1.9337652326009385,1.08897319275897,A,476.99770000008357,Correct
17,217,83,A,19.693083277029814,32.50239101385779,0.9846541638514907,0.5105463641661927,A,439.7817000001396,Correct
17,217,84,B,35.155403657417594,21.93473655692181,1.7577701828708796,0.3445500361282651,B,609.9997999999687,Correct
17,217,85,B,52.785485201496996,25.483959195544422,2.63927426007485,0.4003010949655221,B,741.6270999999597,Correct
17,217,86,A,28.56432126469941,43.75563024447685,1.4282160632349703,0.6873118326461991,A,438.73069999995096,Correct
17,217,87,A,58.726093122342114,82.77816896254564,2.936304656117106,1.30027643745174,A,626.3532000000396,Correct
17,217,88,A,13.632741480654008,40.32168145258413,0.6816370740327004,0.6333714911591305,A,498.90959999993356,Correct
17,217,89,B,53.01157875039278,39.06777785988852,2.6505789375196387,0.6136752195835188,B,1064.418700000033,Correct
17,217,90,B,83.93437624686646,64.71853174266725,4.196718812343323,1.0165963193694065,B,588.5861000001569,Correct
17,217,91,A,27.540545879459437,47.70231412469123,1.377027293972972,0.7493061980668131,A,695.9073999998964,Correct
17,217,92,B,50.67297206827999,26.688264474319265,2.5336486034139996,0.4192182780479143,B,515.506200000118,Correct
17,217,93,B,41.256100619738106,15.408051264490073,2.0628050309869055,0.2420291032932847,B,535.9435999998823,Correct
17,217,94,A,62.38910959693483,84.13115784629326,3.1194554798467413,1.321529137139591,A,595.567200000005,Correct
17,217,95,A,45.45587614357735,77.00317116044934,2.2727938071788674,1.2095629841039253,A,537.3724000000948,Correct
17,217,96,A,59.22996505571936,80.70187218453458,2.9614982527859683,1.2676620439293815,A,472.2471999998561,Correct
17,217,97,A,20.440783345091216,43.13379285542196,1.0220391672545608,0.6775440337802876,A,919.7306000000935,Correct
17,217,98,A,27.2118458642632,56.15922253973955,1.36059229321316,0.8821470048108006,A,466.49809999985337,Correct
17,217,99,A,56.29619982244499,70.63383490317139,2.8148099911222495,1.1095136841333877,A,874.8361000000386,Correct
17,217,100,B,48.02995834101654,39.34104068930085,2.401497917050827,0.6179676220704233,B,548.7501000000066,Correct
17,217,101,A,24.178197401206297,46.28712013026826,1.2089098700603147,0.727076382785395,A,570.3074999998989,Correct
17,217,102,B,57.61603524050546,43.19345363870679,2.880801762025273,0.6784811831726628,B,604.498299999932,Correct
17,217,103,B,78.72876117764122,57.197107077757074,3.936438058882061,0.8984500570103521,B,391.8671000001268,Correct
17,217,104,B,56.32405404645346,24.306241364107144,2.8162027023226734,0.3818015465292968,B,397.37739999986843,Correct
17,217,105,A,33.4839199963872,48.97486092052356,1.67419599981936,0.7692953163924933,A,612.005500000123,Correct
17,217,106,A,30.290529908871697,62.82514537394744,1.5145264954435849,0.9868550758375202,A,510.79909999998563,Correct
17,217,107,B,35.410011797798376,22.755877339115145,1.7705005898899189,0.35744848537277296,B,1329.276800000116,Correct
17,217,108,B,32.83645511646881,14.320262438889678,1.6418227558234406,0.22494215637746834,B,517.9788000000372,Correct
17,217,109,B,55.760431938703896,32.96146367564953,2.7880215969351947,0.517757460674937,B,498.7229999999272,Correct
17,217,110,A,33.67321903222549,60.942905089090154,1.6836609516112744,0.9572889145815282,A,526.0288999998011,Correct
17,217,111,B,48.00550861758691,29.795817500742835,2.4002754308793457,0.46803160684017947,B,1192.2587000001386,Correct
17,217,112,B,42.96648282437897,33.92520111362286,2.1483241412189487,0.5328958129505692,B,360.8236999998553,Correct
17,217,113,A,61.16084003267906,88.22602939135554,3.058042001633953,1.3858512289563987,A,501.2647000000925,Correct
17,217,114,B,75.88278505438777,51.54202649783041,3.7941392527193885,0.8096202589835725,B,486.937300000136,Correct
17,217,115,A,29.48261679875015,44.19435843232924,1.4741308399375075,0.6942033589055983,A,494.65359999999237,Correct
17,217,116,A,37.35935859454177,50.11475584050876,1.8679679297270884,0.7872007439249425,A,450.29410000006465,Correct
17,217,117,B,62.29691666806183,30.084615495663037,3.1148458334030913,0.47256803513624324,B,558.1240000001344,Correct
17,217,118,A,61.08547679901663,78.56087293339972,3.054273839950832,1.234031306335849,A,432.3653999999806,Correct
17,217,119,A,32.113528363746155,52.12966190300894,1.6056764181873078,0.818850814343063,A,563.4568999998919,Correct
17,217,120,B,85.20552644532287,60.36948823901895,4.260276322266144,0.9482817037633868,B,697.7885999999671,Correct
17,217,121,A,30.194701441179852,58.625034473319396,1.5097350720589926,0.920879888089143,A,637.669699999833,Correct
17,217,122,A,42.91286916959323,75.48673149497753,2.1456434584796615,1.1857428055406332,A,639.6033999999418,Correct
17,217,123,A,22.410372838795958,51.65750236338787,1.1205186419397979,0.8114341496380836,A,467.22909999994044,Correct
17,217,124,A,34.41472860701676,57.69380695885908,1.7207364303508381,0.9062522004978967,A,509.46539999995366,Correct
17,217,125,A,26.299746288699918,58.176238757946706,1.314987314434996,0.9138302214772558,A,492.65349999996033,Correct
17,217,126,A,55.00019466659417,81.11748793901288,2.7500097333297084,1.2741905209343076,A,403.0063000000155,Correct
17,217,127,A,36.84879400605332,48.57291553043784,1.8424397003026658,0.7629815729693055,B,725.4845999998452,Incorrect
17,217,128,A,67.30764271754984,82.88212919192455,3.365382135877492,1.3019094409161514,A,665.6625999999051,Correct
17,217,129,B,70.64509486035318,57.430323717635204,3.5322547430176594,0.902113415423032,B,626.773299999968,Correct
17,217,130,A,46.489817415140486,74.1772943150065,2.324490870757024,1.1651742144159618,A,501.8062000001464,Correct
17,217,131,B,70.84116353224998,39.82561830024554,3.542058176612499,0.6255793493836129,B,516.7509000000337,Correct
17,217,132,A,23.435458582099102,42.637036344027,1.171772929104955,0.6697410007461811,A,556.1794000000191,Correct
17,217,133,A,66.30368637840213,87.17970665233608,3.3151843189201067,1.3694156298054614,A,591.8440999998893,Correct
17,217,134,B,57.19462208028648,48.52017730438187,2.859731104014324,0.7621531628516015,B,1507.4491000000307,Correct
17,217,135,B,39.3304806388701,17.831285468114064,1.966524031943505,0.28009317715344784,B,608.9320000000953,Correct
17,217,136,A,30.582625812992756,52.88217128018113,1.529131290649638,0.830671203998471,A,616.1515000001145,Correct
17,217,137,A,51.57736227173645,79.44323504577771,2.578868113586822,1.2478914179861123,A,590.5032000000574,Correct
17,217,138,B,72.37643234080033,61.06663090423662,3.6188216170400165,0.9592323951411459,B,997.714999999971,Correct
17,217,139,A,63.75614761237965,78.61877820197401,3.187807380618983,1.2349408801676347,A,562.7145000000837,Correct
17,217,140,B,67.4129946777125,44.00961616846917,3.3706497338856254,0.6913014342108466,B,520.7344999998895,Correct
17,217,141,A,20.300973628627926,40.54964447685143,1.0150486814313964,0.6369523259707719,A,577.6203000000351,Correct
17,217,142,A,36.206028917775534,56.5530270293763,1.8103014458887767,0.888332871268768,A,549.2266999999629,Correct
17,217,143,A,47.382096762078184,66.92713600676147,2.3691048381039095,1.0512889940232337,A,668.4053999999833,Correct
17,217,144,A,62.80941186536349,74.6889998831163,3.1404705932681742,1.1732120666838353,A,1779.0677000000414,Correct
17,217,145,A,34.137235720162096,58.92098934113678,1.7068617860081048,0.925528736281789,A,488.59969999989517,Correct
17,217,146,B,62.87567243984136,52.23648449629187,3.1437836219920676,0.8205287797145383,B,803.897200000165,Correct
17,217,147,B,46.44689223579758,26.574669761338924,2.322344611789879,0.4174339364689859,B,667.1284999999898,Correct
17,217,148,B,69.30537439057804,43.14964652376572,3.465268719528902,0.6777930626202937,B,539.125199999944,Correct
17,217,149,B,73.03275616731652,47.89446075447742,3.651637808365826,0.7523244302695546,B,447.8093000000172,Correct
17,217,150,A,23.269845580587756,54.74908767784501,1.1634922790293878,0.8599966581973066,A,516.8023999999605,Correct
17,217,151,A,34.2422060846093,45.78022760512006,1.712110304230465,0.7191141336195692,B,605.9276999999383,Incorrect
17,217,152,A,30.36297047192997,51.061476433898626,1.5181485235964984,0.8020717962309214,A,533.9252999999644,Correct
17,217,153,B,32.93051326721443,20.089489158506346,1.6465256633607215,0.31556495777367666,B,531.7396000000372,Correct
17,217,154,B,88.03565283763804,66.58719495133218,4.401782641881902,1.0459492124112826,B,488.72340000002623,Correct
17,217,155,A,29.95632701072768,52.80662679227948,1.4978163505363842,0.8294845539574158,A,638.566899999887,Correct
17,217,156,B,40.044889157935515,28.34385079940549,2.0022444578967757,0.4452241672292873,B,1075.7942000000185,Correct
17,217,157,B,50.81112889672876,19.29784767991256,2.540556444836438,0.30312988250654066,B,515.5326999999943,Correct
17,217,158,A,37.12909091651983,50.897196833554915,1.8564545458259913,0.7994912983030489,B,1625.3670999999486,Incorrect
17,217,159,A,58.47032350078364,80.29137193264275,2.923516175039182,1.2612139210511808,A,652.6988999999048,Correct
17,217,160,B,62.52634968153393,50.63769909065083,3.1263174840766963,0.795415117289396,B,1267.0594000001074,Correct
17,217,161,B,73.325352542522,43.27404887403482,3.6662676271261,0.6797471701687672,B,534.3615000001591,Correct
17,217,162,A,42.085138695966,65.94623261619077,2.1042569347983,1.0358809995947427,A,660.7652000000144,Correct
17,217,163,B,32.50738818622912,12.888027640739391,1.6253694093114561,0.20244466477704534,B,500.7553000000371,Correct
17,217,164,A,16.669640613043068,32.40015737607122,0.8334820306521534,0.5089404819390925,A,481.7741000001661,Correct
17,217,165,B,55.789595988045285,24.446032864342875,2.7894797994022644,0.38399738628017116,B,534.197999999833,Correct
17,217,166,B,62.99847550313547,39.62986366360947,3.1499237751567732,0.6225044427418029,B,373.8955999999689,Correct
17,217,167,B,30.70985548419815,16.288484673596805,1.5354927742099076,0.25585891894340834,B,580.5625999998938,Correct
17,217,168,A,39.09358651593509,63.952320418605574,1.9546793257967545,1.004560700035559,A,408.7276000000202,Correct
17,217,169,B,73.68338696892792,61.14363860051689,3.6841693484463964,0.9604420292056658,B,382.7829000001657,Correct
17,217,170,B,42.358317837488315,28.28454104480883,2.1179158918744156,0.444292531782652,B,556.0553000000255,Correct
17,217,171,A,31.311786792072773,55.60194902399653,1.5655893396036387,0.8733933728953084,A,519.9304000000211,Correct
17,217,172,A,55.926687949198,76.93853137180133,2.7963343974599,1.2085476246781943,A,667.5184999999146,Correct
17,217,173,B,71.18268063361897,50.91787214046767,3.5591340316809488,0.7998160652645883,B,643.8287000000855,Correct
17,217,174,A,29.22259138595222,56.918244391037845,1.4611295692976112,0.8940696921705646,A,510.08580000006987,Correct
17,217,175,B,60.60836853600387,37.60114935877046,3.030418426800194,0.5906374729602292,B,455.7104000000436,Correct
17,217,176,B,64.69458959104418,39.18222047744738,3.234729479552209,0.6154728800164212,B,544.2766999999549,Correct
17,217,177,A,30.563617915273895,62.371601731463244,1.5281808957636946,0.9797308289609667,A,424.5813999998518,Correct
17,217,178,B,41.213962374184696,24.644443395010157,2.060698118709235,0.38711401160786707,B,556.9984999999633,Correct
17,217,179,B,59.53374543225169,45.18086551382165,2.9766872716125845,0.7096993759052526,B,584.3323999999939,Correct
17,217,180,A,44.73957832745284,53.14653951787967,2.236978916372642,0.8348238905654519,B,670.4268000000866,Incorrect
17,217,181,A,41.98019120694269,67.86770060179569,2.0990095603471346,1.0660633481331645,A,706.3157000000047,Correct
17,217,182,A,39.979120486875246,65.45688999354974,1.9989560243437623,1.0281944236528553,A,497.8206000000682,Correct
17,217,183,A,30.293620614232573,39.87835762155487,1.5146810307116285,0.6264077767055166,B,671.0201999999299,Incorrect
17,217,184,B,66.9441690922226,39.34968989728196,3.3472084546111294,0.6181034835116875,B,525.1358000000437,Correct
17,217,185,B,55.22176968843043,32.96415164943304,2.761088484421521,0.5177996832683935,B,485.12989999994716,Correct
17,217,186,B,39.596352878084815,22.27352895008927,1.9798176439042408,0.3498717745956001,B,441.5590000000975,Correct
17,217,187,A,68.15856191358621,83.27985358747154,3.4079280956793103,1.3081568811121707,A,748.8937000000533,Correct
17,217,188,B,56.60064387614506,43.20020070739153,2.830032193807253,0.6785871658797291,B,665.5662999999095,Correct
17,217,189,B,63.332266792870044,50.596371548347506,3.166613339643502,0.7947659457729407,A,1230.5826000001616,Incorrect
17,217,190,B,59.02235085135259,44.3071104901616,2.9511175425676295,0.6959744640884147,B,665.0773000001209,Correct
17,217,191,A,60.107182777633284,81.5637868892564,3.0053591388816643,1.2812009684512569,A,2081.06829999997,Correct
17,217,192,A,54.00666225373915,80.00947294022481,2.700333112686957,1.2567858620330081,A,704.610700000103,Correct
17,217,193,A,15.576047154406822,39.1255378024866,0.7788023577203411,0.6145825106402082,A,499.6393999999782,Correct
17,217,194,B,65.8128591388296,46.80549084757793,3.29064295694148,0.7352189309720757,B,421.3042999999743,Correct
17,217,195,B,34.751474399635185,11.51977377900992,1.7375737199817594,0.1809521833757695,B,414.7350999996888,Correct
17,217,196,B,59.7648256892003,31.182645218196043,2.988241284460015,0.48981584568490794,B,2078.722999999627,Correct
17,217,197,B,44.7727836818009,21.79697987600218,2.238639184090045,0.342386159244465,B,2611.167999999907,Correct
17,217,198,A,23.791485277836525,40.688644636902154,1.1895742638918263,0.6391357353790876,A,1910.4938999998922,Correct
17,217,199,A,32.58681966750428,48.37810318882897,1.629340983375214,0.7599214678631703,B,1349.4307999999364,Incorrect
17,217,200,B,55.253108088443994,43.39630080863274,2.7626554044221994,0.6816674990668671,B,3005.148400000053,Correct
17,217,201,A,47.016350089642756,55.122217270070784,2.3508175044821376,0.8658577641261739,A,550.2817999999934,Correct
17,217,202,A,26.443856107869472,37.14938475009631,1.3221928053934735,0.5835411710814162,A,1279.6763000001192,Correct
17,217,203,A,54.70243167190739,68.44290149299941,2.7351215835953697,1.0750985826038841,A,473.9128000001074,Correct
17,217,204,A,39.871692853711956,71.1188072865704,1.9935846426855977,1.117131612517789,A,425.38999999987936,Correct
17,217,205,B,52.12171977610092,34.809709559454845,2.606085988805046,0.5467896391278887,B,510.63090000025113,Correct
17,217,206,A,31.72609429804779,62.618577916806366,1.5863047149023897,0.9836103218083947,A,837.5615999998445,Correct
17,217,207,B,52.932185395499694,42.06371408465948,2.646609269774985,0.6607352757553386,B,940.210499999921,Correct
17,217,208,A,60.9735319518415,87.10809799379871,3.0486765975920753,1.368290803627489,A,521.1632999998983,Correct
17,217,209,B,79.8631498589883,51.29862452185152,3.993157492949415,0.8057969096855498,B,506.54130000020814,Correct
17,217,210,B,77.69087700361793,62.85899818890039,3.884543850180896,0.9873868346113178,B,574.9286999998731,Correct
17,217,211,A,41.73271711871971,59.96563497923253,2.0866358559359854,0.9419379915930204,A,565.9063999996761,Correct
17,217,212,B,57.62989989178976,26.048092742504643,2.881494994589488,0.409162483999391,B,1781.919900000048,Correct
17,217,213,A,17.081457124412815,47.090342547847,0.8540728562206408,0.7396933710167151,A,1293.4219000003395,Correct
17,217,214,A,24.299409081824205,37.26960756520472,1.2149704540912103,0.5854296266451086,A,2681.019500000275,Correct
17,217,215,A,21.70077329603664,46.263788428911376,1.085038664801832,0.7267098892775022,A,1421.1863999998968,Correct
17,217,216,B,44.32132057402971,25.80986286307622,2.2160660287014853,0.40542037780400136,B,1069.7119999999813,Correct
17,217,217,A,46.46726919891002,73.249838618033,2.323363459945501,1.1506057743952518,A,1487.1588999999403,Correct
17,217,218,B,47.25386101592919,22.381072879763792,2.3626930507964596,0.35156107069261844,B,728.8082000000031,Correct
17,217,219,A,13.689752051444998,35.130869656141165,0.6844876025722499,0.5518344101297683,A,460.6982999998763,Correct
17,217,220,B,54.19485876076396,22.482638537922202,2.7097429380381977,0.3531564603202558,B,377.9548000002251,Correct
17,217,221,A,23.44982182665399,49.56259947805721,1.1724910913326996,0.7785274920653892,A,530.254799999966,Correct
17,217,222,A,58.75719666920213,71.57471888212447,2.9378598334601067,1.1242930551141843,A,659.0853000002426,Correct
17,217,223,B,77.96378496085671,47.12294174854261,3.898189248042836,0.7402054380638061,A,1218.0088000000069,Incorrect
17,217,224,A,19.802898398382467,34.244487148784806,0.9901449199191233,0.5379111462628622,A,547.1253000000615,Correct
17,217,225,A,19.35600664728189,41.945415735095224,0.9678003323640945,0.6588770496257244,A,467.1240000002399,Correct
17,217,226,B,66.03550678340372,57.193238789153234,3.301775339170186,0.898389294075053,B,472.4099000000024,Correct
17,217,227,B,61.11972688276551,30.944271242477612,3.0559863441382755,0.4860714760302878,B,461.95529999977225,Correct
17,217,228,B,44.58615525917819,30.013475291461624,2.2293077629589093,0.4714505674217731,B,385.52919999983715,Correct
17,217,229,B,36.5564550325022,12.43059350057511,1.8278227516251098,0.19525930610583897,B,437.67269999989367,Correct
17,217,230,A,67.1728065972322,79.54035798280401,3.3586403298616094,1.2494170215133968,A,612.3317999999927,Correct
17,217,231,A,22.435728990200253,41.686467840123626,1.1217864495100127,0.6548095056031978,A,666.1644999999226,Correct
17,217,232,A,63.53754295763676,83.87477095131742,3.176877147881838,1.3175018212109268,A,590.2889999997569,Correct
17,217,233,A,37.321879616911154,51.93219207746045,1.8660939808455579,0.8157489655768191,A,442.4341000003551,Correct
17,217,234,B,82.7896206832936,66.8583523117235,4.13948103416468,1.0502085422681435,B,645.7764000001589,Correct
17,217,235,A,65.92611755864081,80.44073634707291,3.2963058779320407,1.2635601317865885,A,590.5999999999949,Correct
17,217,236,B,79.45209842181679,52.748637951460445,3.9726049210908396,0.8285736673758796,B,651.867200000197,Correct
17,217,237,B,41.889899555557506,28.56577732693773,2.0944949777778756,0.4487101809719473,A,450.50929999979417,Incorrect
17,217,238,A,14.26636987979333,38.30738788214202,0.7133184939896665,0.6017310417437601,A,515.0872000003801,Correct
17,217,239,A,51.42832998799915,76.48072031061423,2.5714164993999575,1.2013563453454066,A,620.2047000001585,Correct
17,217,240,A,46.1891869184477,57.247588848305426,2.3094593459223853,0.8992430228078265,A,489.2019000003529,Correct
17,217,241,A,56.35224172242698,67.52894135748991,2.817612086121349,1.0607421303669313,A,510.43739999977333,Correct
17,217,242,B,76.51505931041271,53.82605756229685,3.8257529655206355,0.8454977350470656,B,591.8346999997084,Correct
17,217,243,B,66.99452506804913,34.53443687931633,3.3497262534024568,0.542465665979603,B,403.7100000000464,Correct
17,217,244,A,35.968660219997275,68.89484052281306,1.7984330109998639,1.0821976242835494,A,509.43169999982274,Correct
17,217,245,A,45.17833306826408,57.7012287169083,2.2589166534132037,0.9063687812007176,A,671.925299999657,Correct
17,217,246,B,42.189207867285205,29.028283922925286,2.10946039336426,0.4559752175929038,B,689.8366999998871,Correct
17,217,247,B,50.16328373455196,39.10100472450612,2.508164186727598,0.614197145952441,B,854.8104000001331,Correct
17,217,248,B,75.89067198351941,59.15899215922674,3.79453359917597,0.9292672758060144,B,532.3687000000064,Correct
17,217,249,B,77.37917088051233,59.34908633299999,3.8689585440256167,0.9322532681050957,B,322.73629999963305,Correct
17,217,250,B,74.48048329771252,53.81958651785801,3.724024164885626,0.8453960881187151,B,514.4765000000007,Correct
17,217,251,A,28.490600862971483,46.02909351154562,1.4245300431485743,0.7230233101363467,A,388.6591000000408,Correct
17,217,252,B,42.01597926238273,26.617380935385754,2.1007989631191366,0.4181048420220445,B,636.4222000001973,Correct
17,217,253,A,31.88814537554795,45.417858950495145,1.5944072687773974,0.7134220601032649,A,522.1937000001162,Correct
17,217,254,B,73.68856510665401,42.61634651233317,3.6844282553327004,0.6694160056299144,B,439.7748000001229,Correct
17,217,255,B,58.0713981995109,27.74603752377905,2.903569909975545,0.43583373825465505,B,466.24640000027284,Correct
17,217,256,A,26.358087585653713,48.01303727140727,1.3179043792826857,0.7541870258419301,A,857.7436000000489,Correct
17,217,257,A,32.85839777151521,66.16697360585212,1.6429198885757603,1.0393483909520738,A,547.3919999999453,Correct
17,217,258,B,85.18278397717475,56.913566167407765,4.259139198858737,0.893996206805624,B,501.342300000033,Correct
17,217,259,A,56.183217574233915,63.567899569902984,2.8091608787116957,0.998522231464705,B,468.82670000013604,Incorrect
17,217,260,A,12.513141596386586,32.97649932832918,0.6256570798193293,0.5179936401549385,A,512.7073000003293,Correct
17,217,261,A,38.102511493915685,51.96245166620249,1.9051255746957845,0.8162242820852822,A,689.5125999999436,Correct
17,217,262,A,22.585276027179713,50.14678031246712,1.1292638013589857,0.7877037831541399,A,433.2589000000553,Correct
17,217,263,B,64.96188603169749,41.49446337731971,3.2480943015848744,0.6517935065541917,B,699.5019000000866,Correct
17,217,264,A,56.14656449040827,69.09096786524269,2.807328224520413,1.0852783853742745,A,546.9669000003705,Correct
17,217,265,B,62.71923624479546,30.238970044273305,3.1359618122397728,0.4749926307160542,B,381.45239999994374,Correct
17,217,266,A,22.800207724952525,51.67878798295174,1.1400103862476263,0.8117685033683284,A,521.3232999999491,Correct
17,217,267,A,57.35586768809511,75.30438026080625,2.8677933844047554,1.1828784390524056,A,677.7619999998024,Correct
17,217,268,A,12.639839968138574,34.76343710715295,0.6319919984069287,0.5460627931468126,A,475.88420000010956,Correct
17,217,269,A,60.63264602029145,86.94520345598684,3.0316323010145725,1.3657320622109907,A,606.1007999996946,Correct
17,217,270,A,25.342773056196982,38.2151758823363,1.2671386528098492,0.6002825790379477,A,572.7350000001934,Correct
17,217,271,A,24.947518766006954,50.328720991582514,1.2473759383003478,0.7905617006586302,A,495.4995000002782,Correct
17,217,272,B,75.68975278154554,52.34126041660074,3.7844876390772764,0.8221745960221156,B,522.8210999998737,Correct
17,217,273,B,61.264844871911265,48.71759713194598,3.063242243595563,0.7652542262513432,B,593.4729000000516,Correct
17,217,274,B,50.503622751230125,32.60637843199674,2.525181137561506,0.5121797947106482,B,595.7005999998728,Correct
17,217,275,B,75.47287173992667,54.69250068730017,3.773643586996334,0.8591077918283847,B,450.62099999995553,Correct
17,217,276,A,57.75993741894672,85.75749478485079,2.887996870947336,1.3470755780317611,A,517.9481000000123,Correct
17,217,277,B,75.45940969748477,47.549507225802486,3.7729704848742385,0.7469059129119794,B,518.4909999998126,Correct
17,217,278,B,57.127712405446516,47.059516596277355,2.856385620272326,0.7392091581017594,B,453.9647999999943,Correct
17,217,279,A,38.03543785311191,62.32354019617853,1.9017718926555955,0.9789758801301132,A,423.33910000024844,Correct
17,217,280,A,23.435119701832683,52.25506306240241,1.1717559850916341,0.8208206111485739,A,460.8759000002465,Correct
17,217,281,B,61.1221608579115,28.344578881244168,3.056108042895575,0.4452356039120653,B,369.5874999998523,Correct
17,217,282,B,54.04351875798193,26.120503806066043,2.7021759378990966,0.41029991432600654,B,356.63220000014917,Correct
17,217,283,A,34.58805026813707,56.339120925710695,1.7294025134068534,0.8849728420495985,A,558.6215999996966,Correct
17,217,284,A,16.440613777589267,30.8796136834065,0.8220306888794633,0.48505583746740355,A,445.80009999981485,Correct
17,217,285,A,35.77073366136709,55.377413989836086,1.7885366830683547,0.8698663848263485,A,359.46679999960907,Correct
17,217,286,A,67.56177076048765,85.55840819676632,3.3780885380243824,1.3439483332189892,A,515.0652000002083,Correct
17,217,287,A,53.93494453372071,78.31697704700596,2.696747226686035,1.2302001987111717,A,482.80720000002475,Correct
17,217,288,A,65.91867969843528,77.23717518366179,3.2959339849217644,1.2132387107050986,A,440.8694999997351,Correct
17,217,289,A,44.648952039467915,53.34397237518792,2.232447601973396,0.8379251586359361,A,563.6664999997265,Correct
17,217,290,A,26.573307257950695,50.63779775302,1.3286653628975347,0.7954166670742668,A,439.538900000116,Correct
17,217,291,B,45.98172096743972,23.9068976953211,2.299086048371986,0.37552867084871766,B,415.5588999997235,Correct
17,217,292,B,65.88472774360878,55.115583582768124,3.294236387180439,0.8657535624096927,B,372.222899999997,Correct
17,217,293,B,35.910448021917205,20.328594970449263,1.7955224010958601,0.31932082308482906,B,499.1869000000406,Correct
17,217,294,A,55.3588810380869,71.84321415216404,2.767944051904345,1.128510568953584,A,581.968599999982,Correct
17,217,295,B,59.96515075158999,45.47341969689034,2.9982575375794993,0.7142948062667803,B,873.8100000000486,Correct
17,217,296,A,47.51911589730714,54.49991450721875,2.375955794865357,0.856082655185751,A,1033.0380000000332,Correct
17,217,297,B,73.82849667332692,56.51313285730022,3.691424833666346,0.8877062150791916,B,502.5445999999647,Correct
17,217,298,A,51.83984263173624,75.91666795119036,2.591992131586812,1.1924962316023766,A,699.0212000000611,Correct
17,217,299,A,46.619643141737214,63.94772446304623,2.3309821570868605,1.0044885069344516,A,481.6232999996828,Correct
17,217,300,B,78.92313273077886,61.88211481464853,3.946156636538943,0.9720419864514996,B,441.64069999987987,Correct
17,217,301,B,81.434581514592,67.3907637682664,4.0717290757296,1.0585716418709545,B,634.1800000000148,Correct
17,217,302,A,55.76693884052608,80.26267971508936,2.7883469420263043,1.2607632247517764,A,488.84910000015225,Correct
17,217,303,B,74.00133671683697,54.894162371138016,3.7000668358418487,0.8622754861506623,B,597.8150999999343,Correct
17,217,304,A,42.47507448155045,53.77229905809918,2.1237537240775226,0.8446532984377887,A,519.7849000001042,Correct
17,217,305,A,60.835218489981656,78.57365508956812,3.041760924499083,1.2342320879754274,A,588.2151000000704,Correct
17,217,306,B,80.7037833858972,52.3926066864917,4.03518916929486,0.822981141343509,B,653.6017999997057,Correct
17,217,307,B,53.20513948807132,40.81192880026346,2.660256974403566,0.6410722784886869,A,467.1269000000393,Incorrect
17,217,308,B,58.502535635717564,42.368292813050054,2.925126781785878,0.6655195872330963,B,532.264099999793,Correct
17,217,309,B,77.43672064666032,45.365731893828624,3.871836032333016,0.7126032502118809,B,494.7572000000946,Correct
17,217,310,A,58.17716377761214,71.36472135613165,2.9088581888806067,1.1209944216895291,A,552.4660000000949,Correct
17,217,311,A,45.149457688611975,57.35274905113682,2.2574728844305985,0.900894875411152,A,482.93439999997645,Correct
17,217,312,B,72.16399007484002,61.36069601468104,3.6081995037420005,0.9638515590943924,B,425.83190000004834,Correct
17,217,313,A,10.442301423192983,32.10685045435936,0.5221150711596492,0.5043332275866074,A,607.379999999921,Correct
17,217,314,A,53.225146943121516,69.68519174843804,2.6612573471560754,1.0946124323044453,A,999.3675000000621,Correct
17,217,315,B,82.21265121731676,65.17991710505146,4.110632560865838,1.0238437436941068,A,483.8257000001249,Incorrect
17,217,316,A,54.87203028397691,63.69730356531199,2.7436015141988457,1.0005549046713154,B,480.5031000000781,Incorrect
17,217,317,B,35.298167337013,12.742233148973614,1.76490836685065,0.20015453025571925,B,505.09809999994104,Correct
17,217,318,A,46.57840425810301,64.30649037694046,2.3289202129051505,1.0101239887316946,A,439.47520000028817,Correct
17,217,319,B,67.87173671046783,36.081219926108815,3.3935868355233914,0.5667624772621056,B,513.9459000001807,Correct
17,217,320,A,52.57043205596462,62.11641974337116,2.6285216027982314,0.975722439665374,A,896.0447999997996,Correct
17,217,321,B,48.155765936942174,21.907461300409764,2.4077882968471087,0.3441215974008501,B,278.98430000004737,Correct
17,217,322,A,44.56802375815024,66.7501775088875,2.228401187907512,1.0485093364386782,A,464.0623999998752,Correct
17,217,323,A,28.268455879783893,50.00310597996193,1.4134227939891946,0.7854469520166012,A,533.054699999866,Correct
17,217,324,A,29.726093182415305,57.03380586903303,1.4863046591207651,0.8958849276221029,A,512.3707000002469,Correct
17,217,325,A,20.049750497198985,34.76690642049214,1.0024875248599492,0.5461172889933096,A,495.5696000001808,Correct
17,217,326,B,33.025051628739725,18.887101221228306,1.6512525814369863,0.29667789222108826,B,597.9263000003812,Correct
17,217,327,A,53.103151222548874,66.17692861212396,2.655157561127444,1.0395047638249242,A,464.69019999995,Correct
17,217,328,B,71.6991543075362,40.17514252996602,3.5849577153768104,0.6310696631453205,B,629.9840000001495,Correct
17,217,329,A,41.43578214670856,59.60555346295484,2.071789107335428,0.9362818443618628,A,416.7301999996198,Correct
17,217,330,A,38.36171639221162,64.71951075818936,1.918085819610581,1.0166116977092665,A,580.8756999999787,Correct
17,217,331,A,16.01279657740171,42.25985758573644,0.8006398288700853,0.6638162906655025,A,513.9028000003236,Correct
17,217,332,B,55.14371759896126,40.5879308320309,2.7571858799480626,0.6375537266315947,B,494.02790000021923,Correct
17,217,333,B,80.09518138464284,63.157501004851454,4.004759069232142,0.9920757058796564,B,511.4163000002918,Correct
17,217,334,A,18.065033621417584,33.28788608484173,0.9032516810708792,0.5228848918883634,A,694.3511999998009,Correct
17,217,335,A,37.45385254765846,65.44131124060027,1.872692627382923,1.0279497131737647,A,681.6650999999183,Correct
17,217,336,A,22.768394946373284,46.009077909079664,1.1384197473186644,0.7227089057880257,A,547.0623999999589,Correct
17,217,337,B,43.516481900226594,31.521585796733817,2.17582409501133,0.4951399118425966,B,482.5330999997277,Correct
17,217,338,A,64.93109196829666,87.78975284434975,3.2465545984148325,1.378998212981364,A,646.3909000003696,Correct
17,217,339,A,41.827782529822066,71.67671810520845,2.0913891264911033,1.1258952551637469,A,742.6690000002054,Correct
17,217,340,A,50.34846489637195,69.26922423098932,2.5174232448185974,1.0880784298197006,A,747.6799000000938,Correct
17,217,341,A,27.396299141824635,54.4745375090649,1.369814957091232,0.8556840342308996,B,1035.4059000001143,Incorrect
17,217,342,A,58.11061068281734,65.91531417104,2.905530534140867,1.035395333794012,A,1232.4035000001459,Correct
17,217,343,B,81.76238563510955,59.448970505668356,4.088119281755478,0.9338222450204201,A,667.768199999955,Incorrect
17,217,344,A,59.55010398768158,84.76702275922368,2.9775051993840793,1.3315172798352795,A,619.774100000086,Correct
17,217,345,B,40.51210400161903,21.386170858012896,2.0256052000809515,0.33593318627974716,B,664.7535000001881,Correct
17,217,346,B,62.39356405701528,47.52854351129958,3.119678202850764,0.746576615654608,B,597.1763000002284,Correct
17,217,347,A,24.725667242063196,39.67239790215299,1.2362833621031597,0.6231725689984747,A,1265.588100000059,Correct
17,217,348,A,35.37096929066071,46.45084006425296,1.7685484645330354,0.7296480894946578,B,527.7006999999685,Incorrect
17,217,349,A,59.7225523071235,73.15436669959988,2.986127615356175,1.1491061050073836,A,556.9424999998773,Correct
17,217,350,B,64.90050739511625,33.056590955439255,3.2450253697558127,0.5192517164916539,B,482.7256999997189,Correct
17,217,351,B,86.13060478348308,59.50313536818015,4.306530239174154,0.9346730646911688,B,526.6155999997864,Correct
17,217,352,A,28.989782820702413,52.108457728552686,1.4494891410351207,0.8185177399495771,A,481.9804999997359,Correct
17,217,353,B,56.8771041614595,39.78016105809646,2.843855208072975,0.624865308693673,B,483.6489999997866,Correct
17,217,354,B,51.97085969285763,31.265452780525933,2.5985429846428816,0.49111658383229423,B,525.8868000000803,Correct
17,217,355,B,66.66306573197707,57.00158960303839,3.333153286598854,0.8953788756992286,B,1126.443399999971,Correct
17,217,356,B,53.45547972583175,36.39738765784318,2.672773986291588,0.5717288283786998,B,563.1150999997772,Correct
17,217,357,A,29.108544392222427,49.36862238635463,1.4554272196111213,0.7754805070341015,A,589.6299000000909,Correct
17,217,358,A,55.06689853032199,76.42702537725613,2.753344926516099,1.2005129073045426,A,534.745699999803,Correct
17,217,359,A,39.66257818376826,56.40051281517499,1.983128909188413,0.8859371835942537,A,499.98809999988225,Correct
17,217,360,A,38.269362572818096,66.22514764384653,1.9134681286409048,1.0402621866040382,A,474.9074000001201,Correct
17,217,361,A,16.89390352352035,38.851904410746144,0.8446951761760175,0.6102842873738649,A,525.1293999999689,Correct
17,217,362,B,55.84566120963957,43.96956688234575,2.7922830604819784,0.6906723414955124,B,449.0225999998074,Correct
17,217,363,A,59.54531580738607,84.19161285020066,2.9772657903693034,1.322478762120332,A,536.7863999999827,Correct
17,217,364,A,66.39990252282324,84.09576455684669,3.319995126141162,1.3209731806490326,A,489.31130000028134,Correct
17,217,365,A,54.380440932341784,65.47980551645996,2.7190220466170896,1.0285543798449952,A,430.8424999999261,Correct
17,217,366,B,52.31150198988145,39.538185659176506,2.6155750994940723,0.6210643680156911,B,611.8729999998322,Correct
17,217,367,B,78.74510175700655,63.36711429030056,3.9372550878503274,0.9953683036679651,A,727.2014000000127,Incorrect
17,217,368,B,63.32236792147217,34.4302953067789,3.1661183960736086,0.5408298139835187,B,538.4805999997297,Correct
17,217,369,A,31.34700594383778,61.83115456849782,1.5673502971918891,0.9712415047768387,A,570.7844999997178,Correct
17,217,370,A,26.068007490892292,40.52708720355805,1.3034003745446145,0.6365979971504543,A,738.2582999998704,Correct
17,217,371,B,54.88097113565755,30.572549785031896,2.744048556782878,0.48023248903082205,B,646.1333000002014,Correct
17,217,372,B,35.28729984226342,15.835299841421044,1.7643649921131712,0.24874030824599985,B,630.9930999996141,Correct
17,217,373,B,86.94347222233037,64.55733862066067,4.347173611116518,1.0140643037298809,B,687.8287999998065,Correct
17,217,374,B,51.285656122373986,32.10331943543726,2.5642828061186993,0.5042777624710806,B,521.8105999997533,Correct
17,217,375,B,71.19936435680704,53.09889725375379,3.559968217840352,0.8340755276305608,B,491.16049999975075,Correct
17,217,376,B,61.90630463875706,32.28659537111728,3.0953152319378527,0.5071566541366413,B,775.6012999998347,Correct
17,217,377,A,59.13414733301244,78.18384766549798,2.9567073666506225,1.2281090072765597,A,665.2920999999878,Correct
17,217,378,B,30.064373919125142,13.345161700310836,1.5032186959562572,0.209625309793322,B,763.5095999999066,Correct
17,217,379,B,85.54681638009637,64.55416691174563,4.277340819004819,1.0140144826427469,B,1073.0222000001959,Correct
17,217,380,A,35.00381353041732,53.93122442972389,1.750190676520866,0.8471496923376147,A,383.09330000038244,Correct
17,217,381,A,16.51756640490527,31.114344871129607,0.8258783202452635,0.48874298634200014,A,470.3091999999742,Correct
17,217,382,A,28.261001382015067,61.3059187249683,1.4130500691007535,0.9629911194396668,A,528.5459000001538,Correct
17,217,383,A,45.923033857206796,67.68688521506857,2.29615169286034,1.063223106680175,B,473.0987000002642,Incorrect
17,217,384,A,31.36784629808972,47.70822760731585,1.568392314904486,0.7493990868346662,B,460.69189999980154,Incorrect
17,217,385,A,37.398338713612304,53.87700991313123,1.8699169356806151,0.8462980927023876,A,507.8905999998824,Correct
17,217,386,B,67.91384940006911,46.21295151373117,3.3956924700034556,0.7259113448811958,B,548.1885999997758,Correct
17,217,387,B,67.00129221870824,56.49693959444235,3.3500646109354126,0.8874518519010319,B,691.650799999934,Correct
17,217,388,A,49.699595683292614,60.12030876997247,2.4849797841646306,0.9443676018164777,B,979.4154999999591,Incorrect
17,217,389,B,89.4012186296127,65.06238088811133,4.470060931480635,1.0219974891157577,B,420.539799999915,Correct
17,217,390,A,47.144219312340354,72.77453471961223,2.3572109656170177,1.1431397182177456,A,643.1793000001562,Correct
17,217,391,A,32.1884339166409,43.808137870502996,1.6094216958320453,0.6881366205071051,A,713.77560000019,Correct
17,217,392,B,40.17622182066568,18.685041585466394,2.008811091033284,0.293503946884605,B,550.2440000000206,Correct
17,217,393,B,36.266534148175836,21.573972592808236,1.8133267074087918,0.33888316903156945,B,545.5577999996422,Correct
17,217,394,A,34.49305399880511,63.71365479653839,1.7246526999402556,1.0008117492108055,A,576.1976999997387,Correct
17,217,395,B,75.465421277804,55.55904214076796,3.7732710638902,0.8727193931496118,A,903.6762000000635,Incorrect
17,217,396,A,22.60256520867635,34.82061941069078,1.1301282604338174,0.5469610106703615,A,650.7322000002205,Correct
17,217,397,A,27.22044552199094,51.59818215195415,1.361022276099547,0.8105023499358356,A,690.4511000002458,Correct
17,217,398,A,31.920201813045512,55.7386382773646,1.5960100906522756,0.8755404826663373,A,682.1492000003673,Correct
17,217,399,B,48.389001990446644,19.424360093038267,2.419450099522332,0.30511713484485886,B,491.32609999969645,Correct
17,217,400,A,31.882427729048068,65.21977298945401,1.5941213864524033,1.024469798462314,A,543.2242000001679,Correct
17,217,401,B,36.29348549893547,11.115381925195596,1.8146742749467735,0.17460001099019629,B,518.6374000004434,Correct
17,217,402,A,46.535858307584924,59.52840951241181,2.3267929153792464,0.9350700700203884,A,552.6040999998258,Correct
17,217,403,A,55.33511956740931,70.49655515051673,2.7667559783704654,1.1073572988212552,A,581.8659999999909,Correct
17,217,404,B,80.17208163965928,62.75103780269308,4.008604081982964,0.98569099683038,B,448.08499999999185,Correct
17,217,405,B,45.185448200331926,27.14453987193393,2.2592724100165964,0.42638543523371436,B,522.0558000000892,Correct
17,217,406,A,42.401478145851605,60.725641171531585,2.1200739072925803,0.9538761409450677,A,769.0097999998216,Correct
17,217,407,B,83.89956559039426,57.0612980693421,4.194978279519713,0.8963167740947128,B,449.5219000000361,Correct
17,217,408,A,50.8895032493595,79.47284653520934,2.544475162467975,1.2483565541744135,A,489.01589999968564,Correct
17,217,409,A,22.981876542078233,37.648824818697136,1.1490938271039115,0.5913863573335401,A,517.4001000000317,Correct
17,217,410,B,45.080252885876966,17.807387816202862,2.2540126442938484,0.2797177937150365,B,379.1969999997491,Correct
17,217,411,B,31.43065523407557,10.335451028404908,1.5715327617037784,0.16234888511186965,B,578.1658999999308,Correct
17,217,412,A,66.4953687538733,87.32643832246893,3.324768437693665,1.371720485490153,A,447.106900000108,Correct
17,217,413,B,43.36869326750522,18.351183764553095,2.168434663375261,0.28825972049698145,B,425.60339999999997,Correct
17,217,414,A,48.35047102496528,78.45879438041557,2.417523551248264,1.2324278601751284,A,442.4402999998165,Correct
17,217,415,A,60.68351105509191,70.83490153598923,3.0341755527545957,1.1126720314161007,A,549.2480000002615,Correct
17,217,416,B,67.07553209114263,35.05462679175979,3.353776604557132,0.5506367900166225,B,551.4504000002489,Correct
17,217,417,A,41.09226880580957,51.85220984828365,2.0546134402904785,0.814492607658821,A,573.5732999996799,Correct
17,217,418,A,49.26654261393129,58.913184633745075,2.4633271306965643,0.9254061402247631,B,569.4200000002638,Incorrect
17,217,419,B,89.13885380058188,66.620931437737,4.456942690029094,1.0464791439005192,B,418.25010000002294,Correct
17,217,420,B,70.87777443472274,39.039463615570526,3.5438887217361366,0.613230460473812,B,472.63999999995576,Correct
17,217,421,B,54.93391380366379,41.74874453638914,2.7466956901831896,0.6557877456605857,B,928.6649999999099,Correct
17,217,422,B,81.76093861384454,54.871673623469775,4.088046930692227,0.8619222337283473,B,774.4669999997313,Correct
17,217,423,B,81.19714805859047,53.68466770251765,4.059857402929524,0.8432767883231934,B,418.0906999999934,Correct
17,217,424,B,61.74075678054743,31.227122058502665,3.0870378390273716,0.49051448625871874,B,400.9600999997929,Correct
17,217,425,B,72.42581686891225,44.1952769845513,3.6212908434456126,0.6942177874901622,B,384.72490000003745,Correct
17,217,426,B,42.24757532103878,19.080035651809165,2.112378766051939,0.29970849916977504,B,532.6125999999931,Correct
17,217,427,B,70.16065494210801,54.033514589415866,3.5080327471054007,0.8487564624087288,B,462.8195999998752,Correct
17,217,428,B,69.39029000812816,59.4972913109539,3.469514500406408,0.9345812664549229,A,1210.961899999802,Incorrect
17,217,429,B,38.97042055875129,26.164053685493343,1.9485210279375647,0.4109839942323742,B,1049.8848000002,Correct
17,217,430,B,66.68686900609757,47.853775224198706,3.3343434503048788,0.7516853434543997,B,504.5134000001781,Correct
17,217,431,B,78.03790174213214,49.185634249163726,3.901895087106607,0.7726061360966364,B,727.9875000003813,Correct
17,217,432,B,48.13167396555429,30.345597682904994,2.4065836982777147,0.4766675337470289,B,417.418699999871,Correct
17,217,433,B,71.87986126639369,61.11205444652258,3.5939930633196844,0.959945906474874,B,486.0899000000245,Correct
17,217,434,A,25.89884999196567,45.06276000433091,1.2949424995982834,0.7078441789004297,A,562.8014000003532,Correct
17,217,435,A,23.979444355404425,53.88444512160241,1.1989722177702213,0.8464148846839424,A,589.0373000002,Correct
17,217,436,B,52.35908221225784,42.07039830079899,2.617954110612892,0.6608402711769331,B,528.0640000000858,Correct
17,217,437,A,22.056311990384565,53.25544716319733,1.1028155995192281,0.8365346078577006,A,474.57699999995384,Correct
17,217,438,A,65.89280984951645,84.8143563770586,3.2946404924758226,1.3322607945655696,A,570.0454000002537,Correct
17,217,439,A,26.36524229421141,44.66263607142035,1.3182621147105704,0.7015590468596433,A,445.38360000024113,Correct
17,217,440,A,23.186168377797543,37.9531884351726,1.1593084188898772,0.5961672898412367,A,526.493599999867,Correct
17,217,441,B,33.92678170093511,17.102564338234266,1.6963390850467557,0.2686464524127178,B,661.9353999999475,Correct
17,217,442,B,69.68206666257828,39.08037535139896,3.484103333128914,0.613873100517433,B,389.9851999999555,Correct
17,217,443,B,62.3699312609201,36.91724863871206,3.118496563046005,0.5798947855706279,B,330.67590000018754,Correct
17,217,444,A,32.55987099421253,51.84856705338986,1.6279935497106266,0.8144353867704368,A,513.5718999999881,Correct
17,217,445,B,61.98449571753926,51.03147725735092,3.0992247858769635,0.8016005702676412,B,353.3228000001145,Correct
17,217,446,A,23.093459758260533,53.119111273315355,1.1546729879130266,0.8343930487073313,A,467.3069000000396,Correct
17,217,447,A,28.163387406650696,54.228409278762584,1.4081693703325349,0.8518178610301056,A,509.49469999977737,Correct
17,217,448,B,53.136563391683616,26.3386162579284,2.656828169584181,0.41372601670814274,B,440.2535999997781,Correct
17,217,449,A,48.12757012811758,66.03159387240228,2.406378506405879,1.037221851071819,A,510.9298000002127,Correct
17,217,450,B,36.69604635158037,23.80263308087251,1.8348023175790187,0.3738908861148123,B,372.95129999984056,Correct
17,217,451,B,59.48616083589911,35.59788142519708,2.9743080417949557,0.5591702138437985,B,437.0318999999654,Correct
17,217,452,A,35.94595864257647,55.73758802103682,1.7972979321288236,0.8755239852785187,A,603.3818999999312,Correct
17,217,453,A,52.723791771791426,63.7557964842335,2.636189588589571,1.0014737092931696,A,475.363500000185,Correct
17,217,454,B,47.64691668338899,33.00695335662557,2.3823458341694495,0.5184720109127793,B,476.5305000000808,Correct
17,217,455,A,20.52747678125027,41.502751625359146,1.0263738390625137,0.6519236980499508,A,418.87980000001335,Correct
17,217,456,B,47.55107099675663,31.31740225630705,2.3775535498378315,0.4919326042896532,B,419.4294000003538,Correct
17,217,457,B,67.13360104087229,39.590982718937404,3.3566800520436146,0.6218937022910709,B,373.65870000030554,Correct
17,217,458,A,45.817050954468336,66.64163926631062,2.2908525477234165,1.0468044217111125,A,480.41990000001533,Correct
17,217,459,B,75.48538548650279,57.82414181396003,3.7742692743251394,0.9082994956143561,B,469.414599999709,Correct
17,217,460,B,80.98968694894253,58.973619730830606,4.049484347447127,0.9263554525098774,B,542.5526999997601,Correct
17,217,461,B,39.21952078702725,13.914873315631471,1.9609760393513624,0.2185743189201024,B,547.2377000000961,Correct
17,217,462,A,28.579910808992555,44.152948780739706,1.4289955404496277,0.6935528976194913,A,633.0549000003884,Correct
17,217,463,B,87.79307441737686,67.34919649969005,4.389653720868843,1.0579187047430083,B,420.93889999978273,Correct
17,217,464,B,76.68577012856866,53.91911055672802,3.8342885064284333,0.8469594080655631,B,387.83890000013344,Correct
17,217,465,A,56.65292113837087,70.96089649415963,2.832646056918543,1.114651155590988,B,513.6311000001115,Incorrect
17,217,466,A,51.53523011434142,60.64113787345431,2.5767615057170707,0.952548766242849,A,819.057900000189,Correct
17,217,467,A,42.96916409093474,69.05496358979877,2.1484582045467366,1.0847128315381125,A,519.4326000000729,Correct
17,217,468,B,55.126184338621954,28.60684775848801,2.756309216931098,0.44935531380213783,B,407.2105999998712,Correct
17,217,469,B,52.15524824768062,23.923197233844864,2.607762412384031,0.3757847034011334,B,452.74590000008175,Correct
17,217,470,B,45.95814381225239,29.122859322984283,2.2979071906126194,0.4574608045030822,B,452.7828000000227,Correct
17,217,471,B,33.13278730365619,12.132973037719996,1.6566393651828093,0.1905842948075209,B,408.38940000003277,Correct
17,217,472,B,42.0022487769878,25.768026489692254,2.10011243884939,0.40476321358762185,B,376.0976999997183,Correct
17,217,473,B,79.0091329869451,53.00949398382996,3.9504566493472555,0.8326711843505625,A,476.8191000002844,Incorrect
17,217,474,B,46.58387973509365,22.813467966789876,2.329193986754683,0.35835311683686577,B,268.83310000039273,Correct
17,217,475,B,61.7901037303634,48.82895680978711,3.0895051865181697,0.7670034599804023,B,366.4911000000757,Correct
17,217,476,A,31.48723033493372,60.655541738968715,1.574361516746686,0.952775021633266,A,914.9250000000393,Correct
17,217,477,B,39.62253132435325,24.040432316630742,1.9811265662176623,0.3776262277752489,B,462.7944999997453,Correct
17,217,478,B,64.94005202013517,34.30568454352745,3.2470026010067583,0.5388724326915738,B,430.2892000000611,Correct
17,217,479,A,50.89896704888795,81.49825534104042,2.5449483524443974,1.2801716012989885,A,467.7945000003092,Correct
17,217,480,A,33.438759378660656,64.13353409102669,1.6719379689330327,1.0074071977456,A,505.5975000000217,Correct
17,217,481,A,19.806377156340833,34.79201378335232,0.9903188578170417,0.5465116745268723,A,495.96529999962513,Correct
17,217,482,B,81.23682634371202,62.930751459759136,4.061841317185602,0.9885139323543224,B,363.3105999997497,Correct
17,217,483,B,52.03012560283123,34.339908358370934,2.6015062801415616,0.5394100191180243,B,391.1800000000767,Correct
17,217,484,B,49.852797921692115,26.70443046479491,2.4926398960846057,0.4194722128324958,B,358.64300000002913,Correct
17,217,485,A,32.98545889065501,58.13694808296234,1.6492729445327508,0.9132130449978283,A,677.2906999999577,Correct
17,217,486,B,61.30047054913625,35.863115103959835,3.0650235274568125,0.5633364947272267,B,381.2914999998611,Correct
17,217,487,B,40.82416998781862,28.63687163891865,2.041208499390931,0.44982692781310357,B,527.7931000000535,Correct
17,217,488,B,65.5284815788238,46.405112678164905,3.27642407894119,0.728929805393647,B,511.85480000003736,Correct
17,217,489,B,51.413751088680506,31.096991620705126,2.5706875544340253,0.48847040212175286,B,477.8921000001901,Correct
17,217,490,A,44.0884504220747,70.1676298382959,2.204422521103735,1.1021905520989916,A,522.0792999998594,Correct
17,217,491,B,39.33707867968879,18.085013682635804,1.9668539339844393,0.28407873062719763,B,707.1853000002193,Correct
17,217,492,B,69.27101361920309,59.35868021551617,3.463550680960154,0.9324039684592569,B,445.1496000001498,Correct
17,217,493,A,30.241497395830205,61.868643620591335,1.51207486979151,0.9718303814300738,A,375.0869000000421,Correct
17,217,494,B,54.81205281968358,33.073092735177916,2.740602640984179,0.5195109258416445,B,467.24700000004304,Correct
17,217,495,A,47.98204636314581,74.2435415221199,2.3991023181572904,1.1662148231119032,A,481.3122000000476,Correct
17,217,496,B,76.75560577983813,51.87361694951139,3.8377802889919064,0.8148288696185797,B,397.7474000002985,Correct
17,217,497,B,55.60286472557816,43.54094197712741,2.7801432362789082,0.6839395172286146,B,800.5213000001277,Correct
17,217,498,B,76.76387522033093,48.74184765410705,3.8381937610165466,0.765635152562678,B,413.47670000004655,Correct
17,217,499,B,39.9088781260743,22.83179752733254,1.9954439063037148,0.35864103690058763,B,667.0579999999973,Correct
17,217,500,A,53.14314275817177,64.5212065955915,2.6571571379085883,1.0134967432072977,A,682.2222000000693,Correct
17,217,501,B,83.82869738261105,64.1344161945978,4.1914348691305525,1.0074210537960935,B,417.1462999997857,Correct
17,217,502,B,45.67951440571261,20.318579565808992,2.2839757202856306,0.3191635014766261,B,456.321200000275,Correct
17,217,503,B,63.07857805608333,33.549725537308085,3.153928902804166,0.5269978563898048,B,338.5422999999719,Correct
17,217,504,A,43.89995971520707,59.39690462990083,2.1949979857603537,0.9330043961563501,A,706.015600000228,Correct
17,217,505,A,30.222975743529858,53.55669146169829,1.5111487871764928,0.8412665422332327,B,450.55569999976797,Incorrect
17,217,506,A,34.5749970944021,64.75649048659014,1.728749854720105,1.0171925739246446,A,873.5277000000679,Correct
17,217,507,B,44.97578743760127,37.53661185648722,2.2487893718800636,0.589623720244959,B,816.4001000000098,Correct
17,217,508,B,74.90505753831857,56.22636275695257,3.745252876915929,0.8832016408765846,B,437.6628999998502,Correct
17,217,509,B,67.10710356985244,54.05779421736577,3.355355178492622,0.8491378459127256,B,350.2972999999656,Correct
17,217,510,B,79.05793094848124,57.31973490482883,3.9528965474240625,0.9003762904136233,B,459.8006000001078,Correct
17,217,511,A,18.992694202055716,49.52393871423587,0.9496347101027858,0.7779202102073727,A,1016.5015000002313,Correct
17,217,512,A,35.74744395379883,45.553689240745726,1.7873721976899415,0.7155556773131959,B,701.2027000000671,Incorrect
17,217,513,B,45.933104160843016,24.57146806160862,2.296655208042151,0.3859677177513294,B,513.0686999996215,Correct
17,217,514,A,31.68907856005461,52.843209892058326,1.5844539280027305,0.8300591999449697,A,516.6417999998885,Correct
17,217,515,A,55.920673553541285,66.53010624180095,2.7960336776770642,1.0450524650589514,A,912.7966999999444,Correct
17,217,516,B,61.206230150934026,50.565330292774654,3.0603115075467016,0.7942783508706114,B,424.0500000000793,Correct
17,217,517,A,40.20520954202514,58.96072495754498,2.010260477101257,0.9261529018847584,A,1008.5899000000609,Correct
17,217,518,B,69.28216196939972,41.399490862684004,3.4641080984699864,0.6503016817828292,B,509.0010999997503,Correct
17,217,519,A,28.906979204276766,52.16703405255339,1.445348960213838,0.8194378546953516,B,449.1712999997617,Incorrect
17,217,520,B,58.26805263955111,47.13219106485157,2.9134026319775552,0.7403507259846408,B,473.4886000001097,Correct
17,217,521,A,46.87181802216173,77.5605104401978,2.3435909011080867,1.2183176490379994,A,513.7575999997352,Correct
17,217,522,A,55.590516722690595,66.87753659446408,2.77952583613453,1.0505098882767545,A,514.0191999998933,Correct
17,217,523,A,45.41957900700635,69.16178257412307,2.2709789503503175,1.086390740220198,A,441.2631000000147,Correct
17,217,524,A,47.73268081490064,61.994509363145696,2.386634040745032,0.9738074758908107,A,350.4901000001155,Correct
17,217,525,B,65.1986965497981,56.29618837642144,3.2599348274899054,0.8842984591423634,A,526.7703000004076,Incorrect
17,217,526,B,54.59604631044525,29.09397594955214,2.7298023155222624,0.4570071055341556,B,585.2727999999843,Correct
17,217,527,B,71.84266587102407,57.34550474918885,3.5921332935512034,0.9007810821822514,B,421.1414999999761,Correct
17,217,528,A,22.935941427374804,42.23466157453714,1.14679707136874,0.663420512647085,A,446.2445999997726,Correct
17,217,529,B,77.51873752808878,60.04215422133142,3.8759368764044386,0.943139953037201,B,327.66750000018874,Correct
17,217,530,A,63.954480053016724,83.84979492014202,3.197724002650836,1.3171094986306444,A,534.5548999998755,Correct
17,217,531,A,50.18297118217443,59.88745300420182,2.5091485591087213,0.9407099120010222,A,546.9819999998435,Correct
17,217,532,A,55.47485909780377,78.18754987296111,2.773742954890189,1.2281671614154008,A,1100.9521999999379,Correct
17,217,533,B,43.68998344400967,15.842880594491977,2.1844991722004834,0.2488593864367814,B,1236.9625999999698,Correct
17,217,534,A,43.10918899425279,70.40077951962863,2.1554594497126396,1.1058528587293004,A,822.6791000001867,Correct
17,217,535,A,24.732265726027794,46.722036541100735,1.2366132863013897,0.7339080337913798,B,531.0872000000018,Incorrect
17,217,536,B,55.22304043345418,41.913501069041956,2.761152021672709,0.6583757352236508,B,492.2147000002042,Correct
17,217,537,A,46.617118054507046,73.29038827063751,2.3308559027253524,1.1512427268488916,A,762.5622999998996,Correct
17,217,538,B,45.33017208797884,36.19821731277742,2.266508604398942,0.568600267914342,B,515.1260000002367,Correct
17,217,539,A,48.35208616494629,74.14906200444788,2.4176043082473146,1.1647307423187376,A,493.09889999994994,Correct
17,217,540,B,71.09947327878798,51.17759969561433,3.554973663939399,0.8038958561605062,B,415.87070000014137,Correct
17,217,541,B,50.67141104227213,41.818100094651996,2.5335705521136065,0.6568771802222068,B,455.60539999996763,Correct
17,217,542,B,50.212613143854526,40.00314391221186,2.5106306571927264,0.6283679151755002,B,348.0248999999276,Correct
17,217,543,A,41.88567529982134,60.89171907588915,2.094283764991067,0.9564848865663341,A,462.778999999955,Correct
17,217,544,B,70.29272449423188,43.53837207632438,3.514636224711594,0.6838991493211982,B,366.5545999997448,Correct
17,217,545,A,31.31595851344601,45.19681878453042,1.5657979256723005,0.7099499692955497,A,667.2468000001572,Correct
17,217,546,B,33.86175878066463,21.612553407562718,1.6930879390332314,0.3394891950525804,B,339.8066999998264,Correct
17,217,547,A,34.097655813837676,59.89676496099847,1.7048827906918838,0.9408561838763366,A,415.70469999987836,Correct
17,217,548,B,54.94904116617467,48.13294459233768,2.747452058308734,0.756070525634663,B,842.7507000001242,Correct
17,217,549,B,52.04813007293636,34.053411893721034,2.6024065036468182,0.5349097431749064,B,712.5440999998318,Correct
