subject,day,trial,cat,x,y,xt,yt,resp,rt,fb
2,302,0,B,63.21966772525115,44.9966979060537,3.1609833862625574,0.7068064778872877,B,583.5192999998071,Correct
2,302,1,B,52.52403059683629,24.806190267327544,2.6262015298418144,0.38965472553693425,B,464.40060000031735,Correct
2,302,2,B,54.32427637029328,45.21288824977574,2.7162138185146643,0.7102023878653587,B,347.7191999995739,Correct
2,302,3,B,31.384084969817902,14.155793154347595,1.569204248490895,0.22235867889717548,B,518.7537000001612,Correct
2,302,4,B,58.68409527157124,40.000799288165254,2.9342047635785615,0.628331085907099,B,460.0188999997954,Correct
2,302,5,A,38.51013160702365,58.35820206091401,1.9255065803511826,0.9166884943563809,A,708.619699999872,Correct
2,302,6,A,42.301082435646904,67.14017290187859,2.115054121782345,1.0546353697464514,A,878.5705999998754,Correct
2,302,7,B,76.33911350026806,57.1811478658461,3.816955675013403,0.8981993702958688,B,535.6636000001345,Correct
2,302,8,A,61.45866593463754,76.15887818805446,3.072933296731877,1.1963008611061592,A,918.3133000001362,Correct
2,302,9,A,43.98260984849368,53.44502547852451,2.199130492424684,0.8395124970712595,A,655.9962999999698,Correct
2,302,10,B,51.14739696503702,22.780335008158602,2.557369848251851,0.3578326655397272,B,765.2354000001651,Correct
2,302,11,B,61.18014667797629,34.28290959484257,3.0590073338988146,0.5385146846342023,B,1007.7415999999175,Correct
2,302,12,B,64.22679711142882,53.17442222765203,3.211339855571441,0.8352618711463671,B,596.9952000000376,Correct
2,302,13,A,43.954053638819175,63.351309708287154,2.197702681940959,0.9951200458742333,A,455.50279999997656,Correct
2,302,14,B,65.53021059217666,37.99424367308866,3.2765105296088333,0.596812184010379,B,576.9144999999298,Correct
2,302,15,A,47.34670666370699,74.80498422856651,2.3673353331853493,1.1750339445218243,A,577.7562000002945,Correct
2,302,16,A,44.24708041360962,74.01970032336736,2.2123540206804813,1.1626987337840446,A,385.2010999999038,Correct
2,302,17,B,73.59356463697416,44.932916656153935,3.6796782318487082,0.7058046043566782,B,589.6569000001364,Correct
2,302,18,B,57.41479719171698,27.84111980467409,2.870739859585849,0.43732728723038705,B,571.9910000002528,Correct
2,302,19,B,63.26767858700533,51.57963359543498,3.1633839293502666,0.810210989891359,B,524.3128999995861,Correct
2,302,20,B,70.1522682686693,59.4132447230716,3.5076134134334653,0.9332610657396714,A,821.6911999998047,Incorrect
2,302,21,B,58.94758182049689,31.505182952032435,2.9473790910248447,0.4948822565605374,B,740.3377999999066,Correct
2,302,22,B,68.5684949195621,57.16443807734435,3.428424745978105,0.8979368935518681,B,508.91860000001543,Correct
2,302,23,A,62.72330533875489,80.48040466339498,3.1361652669377444,1.264183240242277,A,551.9650999999612,Correct
2,302,24,B,69.78760223428658,40.938359745907945,3.489380111714329,0.6430582511388026,B,493.79599999974744,Correct
2,302,25,A,37.61408745578748,68.77882702489404,1.880704372789374,1.0803752885196514,A,495.4555999997865,Correct
2,302,26,A,57.137210127698054,70.46332326730334,2.8568605063849026,1.1068352936204147,A,742.3694999997679,Correct
2,302,27,A,45.91314794047555,66.59054944883194,2.2956573970237772,1.0460019047347913,A,881.6855000000032,Correct
2,302,28,B,35.716160300347006,20.6129298283171,1.7858080150173503,0.3237871445880146,B,1081.7008999997597,Correct
2,302,29,B,89.49766420502394,68.01244381196497,4.474883210251197,1.0683369691617888,B,969.9961999999687,Correct
2,302,30,A,46.338269375984574,65.77208796615247,2.3169134687992288,1.0331455418286313,A,1027.6803000001564,Correct
2,302,31,A,16.614685907124638,36.92001758812518,0.8307342953562319,0.5799382801263,A,543.279800000164,Correct
2,302,32,B,48.64656570235552,41.588083151828265,2.432328285117776,0.6532640825333256,B,709.6560999998474,Correct
2,302,33,A,48.260232184132406,74.51360998587015,2.4130116092066203,1.1704570486203234,A,463.0405000002611,Correct
2,302,34,A,38.572601719182956,52.18770367968506,1.9286300859591479,0.819762532439098,A,513.2688000003327,Correct
2,302,35,A,50.14542972008384,61.94483498596917,2.507271486004192,0.9730271925987637,A,407.6528000000508,Correct
2,302,36,A,63.26691552520488,88.54987975293807,3.1633457762602437,1.390938258540449,A,681.5590999999586,Correct
2,302,37,A,59.743499307252904,74.55683683314166,2.9871749653626454,1.1711360543494538,A,436.88820000033957,Correct
2,302,38,B,62.669771748853364,36.701927847218705,3.133488587442668,0.5765125344870247,B,742.5604000000021,Correct
2,302,39,B,65.36379425184266,51.200862509176645,3.268189712592133,0.8042612675814521,B,648.529999999937,Correct
2,302,40,A,60.48771566868237,76.30702626341386,3.0243857834341186,1.198627965632122,A,550.8900999998332,Correct
2,302,41,A,14.776413563260867,31.761873592363962,0.7388206781630433,0.4989143437100914,A,583.1775999999991,Correct
2,302,42,B,71.5643072785489,48.319064794427014,3.5782153639274448,0.7589940949325055,B,697.7028000001155,Correct
2,302,43,B,33.29933677686276,18.840314307132065,1.664966838843138,0.2959429650930438,B,866.5096999998241,Correct
2,302,44,A,44.079579296537595,71.27523744751282,2.2039789648268795,1.1195888117398718,A,675.9391999999025,Correct
2,302,45,A,16.19536169751359,38.46458378054072,0.8097680848756795,0.6042002691416792,A,474.26669999958904,Correct
2,302,46,B,53.64153199987794,43.299283805698,2.682076599993897,0.6801435595484017,B,816.1207000002833,Correct
2,302,47,B,45.899668140142566,19.881644268360255,2.2949834070071287,0.312300137873831,B,790.4404000000795,Correct
2,302,48,A,22.821713306355118,39.92994341535952,1.141085665317756,0.627218084459748,A,559.0207000000191,Correct
2,302,49,A,48.85720018069355,59.89405304486412,2.4428600090346775,0.9408135851973125,A,764.0273000001798,Correct
2,302,50,A,53.96652210684576,75.61017408035372,2.698326105342288,1.1876818371374231,A,529.7974999998587,Correct
2,302,51,B,66.70704428356416,37.00148669538992,3.3353522141782084,0.5812179938706872,B,527.1112000000358,Correct
2,302,52,A,44.934778568192655,70.17119269109297,2.246738928409633,1.1022465172598575,A,476.61809999999605,Correct
2,302,53,A,31.734437935914052,64.08614109793803,1.5867218967957026,1.006662750351005,A,466.4514999999483,Correct
2,302,54,A,52.104204340799555,75.56020896931845,2.605210217039978,1.1868969870086021,A,667.5740999999107,Correct
2,302,55,A,46.22891274565659,56.63060701602288,2.3114456372828296,0.8895514948493403,A,672.5565000001552,Correct
2,302,56,B,37.05463492531261,21.38112059434231,1.8527317462656305,0.33585385692351616,B,648.2673999998951,Correct
2,302,57,A,30.393876718830505,53.78865881661873,1.5196938359415253,0.8449102769236864,B,975.2063000000817,Incorrect
2,302,58,B,52.85958853417641,39.098273705133636,2.6429794267088202,0.6141542472004541,B,1107.362899999771,Correct
2,302,59,B,60.37604587171816,52.83290785385983,3.018802293585908,0.8298973759073627,B,1022.6904999999533,Correct
2,302,60,B,32.58983326974216,16.06116252644547,1.6294916634871077,0.25228815100596386,B,521.2123999999676,Correct
2,302,61,B,77.82830049880437,64.3437889851235,3.891415024940218,1.0107098738989788,B,618.86289999984,Correct
2,302,62,B,78.56625224896362,51.56413260945334,3.928312612448181,0.8099675009729426,B,837.3489999999038,Correct
2,302,63,B,67.18480103439997,39.205817458550456,3.3592400517199987,0.6158435405288228,B,589.1215000001466,Correct
2,302,64,A,62.696186561329995,78.95899603462685,3.1348093280665,1.2402850093860467,A,616.4479999997639,Correct
2,302,65,A,57.960970574285504,79.55382483800852,2.898048528714275,1.249628558380284,A,687.8720999998222,Correct
2,302,66,A,20.562239893162037,41.24943474481688,1.0281119946581017,0.6479446057952413,A,616.7344000000412,Correct
2,302,67,A,31.3665012375676,46.05448861425664,1.56832506187838,0.7234222154769172,A,595.2160000001641,Correct
2,302,68,A,44.57894051330876,75.66198418683217,2.228947025665438,1.1884956683868952,A,546.4286999999786,Correct
2,302,69,A,37.41800338864813,64.73228131248278,1.8709001694324063,1.0168122971070188,A,446.32080000019414,Correct
2,302,70,B,50.67244197836999,20.374646019815113,2.5336220989184994,0.3200441912767184,B,710.3465999998662,Correct
2,302,71,B,41.10016481862161,26.205236808634687,2.0550082409310804,0.41163089721793783,B,659.3085999998038,Correct
2,302,72,A,38.5221658565792,50.18551799843627,1.92610829282896,0.7883122733024288,A,552.0055000001776,Correct
2,302,73,A,44.31888178911745,66.0601177101335,2.2159440894558724,1.0376699024671618,A,673.9919999999984,Correct
2,302,74,B,46.33436244865099,34.10142812740157,2.3167181224325497,0.5356639804098255,B,2162.5082999998995,Correct
2,302,75,A,26.63323141725072,47.06436622115595,1.3316615708625361,0.7392853358312157,A,2215.306099999907,Correct
2,302,76,A,65.40767644387552,76.15306144754496,3.270383822193776,1.1962094919598967,B,777.4909999998272,Incorrect
2,302,77,B,85.58497031798979,65.06932967357264,4.279248515899489,1.0221066403825407,B,505.21859999980734,Correct
2,302,78,A,13.49668730408004,31.02967737067153,0.6748343652040021,0.48741303235481565,A,549.1142999999283,Correct
2,302,79,B,35.8929522532237,22.960510153913763,1.794647612661185,0.3606628501110467,B,607.8881999997066,Correct
2,302,80,B,66.26179387887686,51.00430165524329,3.313089693943843,0.8011736969079503,B,672.4798000000192,Correct
2,302,81,A,35.9378081397529,46.046734373968704,1.7968904069876452,0.7233004121553034,A,521.8429999999898,Correct
2,302,82,B,40.76371231495892,13.421236917753621,2.0381856157479463,0.21082029651451445,B,436.630900000182,Correct
2,302,83,B,58.402279281209545,37.860654977767815,2.920113964060477,0.594713777691266,B,480.49859999991895,Correct
2,302,84,B,67.85019994703538,56.21899431719336,3.3925099973517687,0.883085897695505,B,729.3641999999636,Correct
2,302,85,B,54.87792190115455,36.6239134376103,2.7438960950577274,0.5752870870065251,B,609.3602000000828,Correct
2,302,86,A,46.42460455639067,56.41727883195461,2.3212302278195334,0.8862005435699778,B,607.9994000001534,Incorrect
2,302,87,A,61.769621560398214,71.22921693366024,3.088481078019911,1.1188659231987035,A,618.7734999998611,Correct
2,302,88,A,45.356340149942405,60.072864057414634,2.2678170074971202,0.9436223420143608,A,927.1773000000394,Correct
2,302,89,A,68.70022000131861,85.33105681053792,3.4350110000659306,1.340377105995196,B,1187.9336000001786,Incorrect
2,302,90,A,56.21841733203162,70.2727622232816,2.810920866601581,1.103841967740619,A,947.1195999999509,Correct
2,302,91,A,59.139983686197276,69.80593756813896,2.9569991843098635,1.0965091032050653,A,703.5740999999689,Correct
2,302,92,B,63.200000137116895,49.198842841525774,3.160000006855845,0.7728136161802809,B,530.5788000000575,Correct
2,302,93,A,28.78995533100033,46.51014464374307,1.4394977665500164,0.7305796436509093,A,964.559200000167,Correct
2,302,94,B,59.77499610961794,34.73991316226078,2.988749805480897,0.545693279884529,B,439.3279999999322,Correct
2,302,95,B,62.50549437888273,30.419676262057077,3.1252747189441368,0.47783115734729165,B,416.46080000009533,Correct
2,302,96,B,74.26580402622686,57.23365691742103,3.7132902013113434,0.8990241805492428,B,544.5110000000568,Correct
2,302,97,B,59.37695374060313,28.04659698835745,2.9688476870301566,0.44055491528408697,B,583.6481000001186,Correct
2,302,98,A,52.39775233767715,62.13294701169085,2.6198876168838576,0.9759820493890594,B,668.3685000002697,Incorrect
2,302,99,A,36.25640844856895,51.57924554775067,1.8128204224284474,0.8102048944525879,A,687.6940000001923,Correct
2,302,100,A,38.02638230389167,51.819823869870326,1.9013191151945836,0.8139838898995082,A,694.8627000001579,Correct
2,302,101,B,39.13307836934048,16.786585549852003,1.956653918467024,0.26368306921135815,B,554.4786999998905,Correct
2,302,102,B,34.13196132777807,10.794964337365826,1.7065980663889035,0.16956690329016147,B,628.439999999955,Correct
2,302,103,B,56.560791509931846,43.65360512229323,2.828039575496592,0.6857092257745309,B,733.0200000001241,Correct
2,302,104,A,38.874025035507685,70.6390646535917,1.9437012517753842,1.1095958328608906,A,546.5461999997387,Correct
2,302,105,A,41.95735954919239,69.56569303248624,2.09786797745962,1.0927353508637072,A,482.2657999998228,Correct
2,302,106,A,41.689623174049814,72.58945536387098,2.0844811587024905,1.1402324984961063,A,590.6887999999526,Correct
2,302,107,A,37.69001530030238,57.323412557571075,1.8845007650151189,0.9004340588478109,A,503.8466000000881,Correct
2,302,108,A,29.037869735945478,40.68334448250176,1.451893486797274,0.6390524807484519,A,643.9988000001904,Correct
2,302,109,B,46.780299121371016,36.26225339982047,2.3390149560685507,0.5696061444174374,B,661.380200000167,Correct
2,302,110,B,52.31252006166855,25.49099683323213,2.615626003083428,0.4004116419198137,B,417.78560000011566,Correct
2,302,111,B,61.75822403781302,51.559266161602146,3.087911201890651,0.8098910589888506,B,506.92819999994754,Correct
2,302,112,A,51.64591269472283,58.62350633651416,2.5822956347361417,0.9208558841723379,B,512.1747999996842,Incorrect
2,302,113,A,43.66402881394765,64.42022662343797,2.1832014406973825,1.0119105535139117,A,753.0169999999998,Correct
2,302,114,B,75.60564761956218,48.026716942775835,3.780282380978109,0.754401905617305,B,749.7503999998116,Correct
2,302,115,A,45.74004297253641,75.9294497819277,2.2870021486268204,1.192697008130096,A,632.2593999998389,Correct
2,302,116,B,70.16970013097752,39.902894205421205,3.5084850065488755,0.62679319646361,B,683.8556999996399,Correct
2,302,117,B,40.303801170398685,28.056193504157108,2.0151900585199343,0.4407056570017682,B,483.3131999998841,Correct
2,302,118,A,60.3612508385333,70.44919984026957,3.0180625419266653,1.1066134433473505,A,509.82939999994414,Correct
2,302,119,B,53.716360428400584,23.044477066196645,2.685818021420029,0.3619817992849092,B,465.1475999999093,Correct
2,302,120,A,15.484002534571022,30.4593738997382,0.7742001267285511,0.4784547263818111,A,703.5197000000153,Correct
2,302,121,A,63.53200602118551,85.39660170631119,3.1766003010592754,1.341406682810404,A,784.6064999998816,Correct
2,302,122,B,79.25546039768017,51.22219588223494,3.9627730198840085,0.8045963714218333,B,675.1356999998279,Correct
2,302,123,A,38.8851037481075,59.52235035366471,1.9442551874053748,0.9349748929773545,B,1085.9064000001126,Incorrect
2,302,124,B,42.26838220522692,24.718092095519573,2.1134191102613458,0.38827088269020116,B,837.0867999997245,Correct
2,302,125,B,55.43127534992558,38.52579759067111,2.771563767496279,0.6051618134226986,B,752.1507999999812,Correct
2,302,126,B,43.82446479460826,32.71058916522404,2.191223239730413,0.5138167330803087,B,1232.1875999996337,Correct
2,302,127,A,15.789921659513336,45.42553263668009,0.7894960829756669,0.7135425980839879,A,527.0957999996426,Correct
2,302,128,B,64.10616209694821,35.51105253333782,3.2053081048474104,0.5578063087998765,B,671.6606999998476,Correct
2,302,129,A,34.37128870784623,60.120582566370715,1.7185644353923117,0.9443719026002441,B,746.4012000000366,Incorrect
2,302,130,A,56.55032845279594,79.46568730836246,2.827516422639797,1.2482440973020759,A,462.01810000002297,Correct
2,302,131,A,20.56779262884834,50.587247242837435,1.028389631442417,0.7946226215171431,A,461.2228999999388,Correct
2,302,132,B,50.93037318259776,29.086393144483395,2.546518659129888,0.4568879951106678,B,1278.0594999999266,Correct
2,302,133,A,46.18601961223106,66.21187392784039,2.3093009806115528,1.0400536835605847,A,534.0922000000319,Correct
2,302,134,A,39.736525337967436,54.850638789643504,1.9868262668983718,0.8615918193312568,A,460.4565999998158,Correct
2,302,135,B,58.59374883044066,29.63486720077304,2.9296874415220326,0.4655034054402885,B,465.1641999998901,Correct
2,302,136,A,22.822356062862358,36.444263082073874,1.141117803143118,0.572465145820685,A,643.4134000000995,Correct
2,302,137,A,15.092090566474585,37.97280651608149,0.7546045283237293,0.5964754499355411,A,406.1556000001474,Correct
2,302,138,B,48.938416721164074,27.506481476161635,2.4469208360582035,0.43207080065806563,B,693.8905000001796,Correct
2,302,139,B,82.12826367318303,58.38521215312407,4.106413183659152,0.9171127678926804,B,618.309599999975,Correct
2,302,140,B,47.9096394966726,29.98583859616287,2.3954819748336296,0.4710164512271727,B,657.7980000001844,Correct
2,302,141,B,68.31409480842964,45.46268937001708,3.4157047404214826,0.7141262546864022,B,706.9295999999667,Correct
2,302,142,B,74.48672227677797,49.0496315018722,3.7243361138388984,0.770469809937841,B,565.9567999996398,Correct
2,302,143,A,53.98446530855313,72.67650559491683,2.6992232654276567,1.141599880327841,A,748.3412999999928,Correct
2,302,144,B,41.48279168364646,30.25688017604638,2.074139584182323,0.47527396240806974,B,494.24550000003364,Correct
2,302,145,B,31.772041719469847,17.794593838703555,1.5886020859734924,0.27951682638642644,B,495.098699999744,Correct
2,302,146,A,53.4095003842633,81.2255919767345,2.670475019213165,1.2758886151879558,A,526.0428000001411,Correct
2,302,147,A,25.34172267475801,49.9048062651852,1.2670861337379007,0.7839028637076385,A,493.7982000001284,Correct
2,302,148,A,37.485300983551205,53.0358991571227,1.8742650491775603,0.8330859558427289,A,544.5725999998103,Correct
2,302,149,B,68.37903626042169,51.50614408578659,3.418951813021084,0.8090566193732226,B,451.6135000003487,Correct
2,302,150,A,34.1879140990015,56.14282410185862,1.709395704950075,0.8818894187509152,A,561.1402999998063,Correct
2,302,151,A,65.67629072987198,80.98032638665191,3.2838145364935993,1.2720359923080466,A,753.1543999998576,Correct
2,302,152,A,35.23041500918754,46.05899629389356,1.7615207504593768,0.7234930219430775,B,557.5886999999966,Incorrect
2,302,153,A,42.30473484280755,64.0120059742826,2.115236742140377,1.005498238551761,A,730.5702999997266,Correct
2,302,154,A,67.55882294414006,81.33728543935933,3.377941147207003,1.2776430919961368,A,615.5393999997614,Correct
2,302,155,A,53.006328824312035,61.3472095667724,2.650316441215602,0.9636397144660284,A,1045.3718999997363,Correct
2,302,156,B,71.57560648645193,52.90645608044963,3.5787803243225964,0.8310526687490579,B,897.5015000000894,Correct
2,302,157,B,62.04925958887886,40.38540135961594,3.1024629794439433,0.6343724011182234,B,668.5541000001649,Correct
2,302,158,B,47.15818081873124,37.25427024479745,2.357909040936562,0.5851887085795225,B,481.5432000000328,Correct
2,302,159,B,52.77152285484268,22.73829453324109,2.638576142742134,0.35717229530395583,B,938.9809999997851,Correct
2,302,160,B,47.73749383025139,30.89988687749744,2.3868746915125696,0.48537428805550803,B,495.1196999995773,Correct
2,302,161,B,82.98731069002116,55.62037763799998,4.149365534501058,0.8736828488871536,A,646.840400000201,Incorrect
2,302,162,B,44.80346943164716,31.982625604545035,2.240173471582358,0.5023819082087575,B,420.92860000002474,Correct
2,302,163,B,75.96114450490677,45.45729925423627,3.7980572252453384,0.7140415869457073,B,735.9984999998233,Correct
2,302,164,B,57.78160820176016,42.61742347582466,2.889080410088008,0.6694329225328796,B,467.8750000002765,Correct
2,302,165,B,54.32651410872734,25.510344049127195,2.716325705436367,0.4007155472764305,B,422.6708999999573,Correct
2,302,166,A,51.368340478287315,80.09141704222296,2.5684170239143658,1.2580730369772202,A,465.13469999990775,Correct
2,302,167,B,48.8912166813477,29.34355045570628,2.444560834067385,0.46092741270944126,B,485.85700000012366,Correct
2,302,168,B,42.808651679721905,14.829279154474758,2.140432583986095,0.2329377722486508,B,409.1848000002756,Correct
2,302,169,A,49.71118354710895,67.01961978373215,2.4855591773554475,1.0527417257947707,A,562.8302999998596,Correct
2,302,170,B,58.91328941181293,31.064938873036574,2.9456644705906467,0.4879669187387385,B,496.36229999987336,Correct
2,302,171,A,35.633409945472366,52.3684291351425,1.7816704972736181,0.8226013612550067,A,549.9095000000125,Correct
2,302,172,B,30.61923922845799,15.951877438740443,1.5309619614228995,0.2505715048625587,B,638.233599999694,Correct
2,302,173,A,14.120528645861373,40.33854493991872,0.7060264322930686,0.633636382198752,A,662.7862000000277,Correct
2,302,174,B,43.173011828585715,33.851863902002975,2.1586505914292857,0.5317438347242702,B,855.6265000001986,Correct
2,302,175,A,41.44107976335257,55.89495849737848,2.0720539881676285,0.877995954940353,A,577.8385999997226,Correct
2,302,176,A,20.096708357110057,46.922359240051854,1.0048354178555028,0.7370546953882402,A,709.6990000000005,Correct
2,302,177,A,21.073515032429153,45.968994325101406,1.0536757516214577,0.7220792743232474,A,518.0117999998402,Correct
2,302,178,B,79.39289869185417,67.2177478729769,3.9696449345927083,1.0558539145429757,B,637.4926999997115,Correct
2,302,179,B,81.63536196035662,59.62566620818363,4.081768098017831,0.9365977746251343,B,503.71460000042134,Correct
2,302,180,A,43.76400467613886,53.25954328391989,2.188200233806943,0.8365989495715517,A,1158.882100000028,Correct
2,302,181,B,42.33486889024542,20.82827979891434,2.116743444512271,0.32716985401591,B,520.0239000000693,Correct
2,302,182,A,47.862522651590524,74.78735267580238,2.393126132579526,1.1747569887386486,A,610.243999999966,Correct
2,302,183,B,79.37519297972617,54.61021212445504,3.9687596489863086,0.857815206105841,B,665.9897999998066,Correct
2,302,184,B,60.74591395184072,50.14705489400878,3.0372956975920364,0.7877080962709103,B,433.73550000023897,Correct
2,302,185,A,44.235842204176336,54.75304593245052,2.2117921102088167,0.8600588343152553,A,852.7730999999221,Correct
2,302,186,A,51.85012673892191,72.88322629310372,2.5925063369460952,1.1448470414616854,A,810.5943999998999,Correct
2,302,187,B,67.34441436382497,57.820954985354405,3.3672207181912484,0.9082494370276777,A,750.2150000000256,Incorrect
2,302,188,A,60.32213993480623,79.0304886709262,3.0161069967403114,1.2414080130909657,A,508.28950000004625,Correct
2,302,189,B,72.90067044108665,57.375204661068054,3.645033522054332,0.9012476073071112,B,888.9933999998902,Correct
2,302,190,A,43.82860161305022,53.75204480680249,2.191430080652511,0.8443351454024003,A,653.4280999999282,Correct
2,302,191,B,51.14940907359163,21.009917109433005,2.5574704536795814,0.33002300621762615,B,889.0438999997059,Correct
2,302,192,A,53.202705342646254,74.09173976318546,2.6601352671323126,1.163830326658551,A,514.9925000000621,Correct
2,302,193,B,63.36229831560931,30.251149809619644,3.168114915780466,0.47518395002272673,B,468.93069999987347,Correct
2,302,194,A,46.10709891619817,71.38939837157076,2.3053549458099085,1.1213820473416092,A,1383.7274000002253,Correct
2,302,195,A,40.29762136427248,70.23021143940026,2.014881068213624,1.1031735815903887,A,399.4474999999511,Correct
2,302,196,A,58.4119855414439,81.01971800874574,2.9205992770721947,1.2726547544609617,A,526.6388000000006,Correct
2,302,197,B,89.47767205318651,68.50924354987784,4.473883602659325,1.0761406811964507,B,635.0905999997849,Correct
2,302,198,A,25.867873805908687,43.62586456255515,1.2933936902954344,0.6852734780811328,A,613.3146000001943,Correct
2,302,199,B,68.69878723188164,51.25078983877081,3.4349393615940818,0.8050455242407839,A,556.7525999999816,Incorrect
2,302,200,A,36.94434514602107,69.1770681715723,1.8472172573010537,1.0866308458234593,A,553.4561999998004,Correct
2,302,201,A,10.074287897007604,32.59659798427771,0.5037143948503803,0.5120261637971335,A,725.3446999998232,Correct
2,302,202,B,37.53802269987936,15.9734390195569,1.8769011349939684,0.25091019338202253,B,584.9605000003066,Correct
2,302,203,A,41.83792132518973,48.87118376295652,2.0918960662594865,0.767666759409705,A,473.2451000004403,Correct
2,302,204,A,60.13830552625254,82.44890498001453,3.0069152763126272,1.2951043709086827,A,532.5735999999779,Correct
2,302,205,A,27.237843756134012,53.27314988006056,1.3618921878067005,0.836812681483931,A,493.42350000006263,Correct
2,302,206,A,43.23025276029833,63.32983992477961,2.1615126380149166,0.994782799303526,A,958.7833000000501,Correct
2,302,207,B,75.81387393006983,53.26606554469838,3.7906936965034914,0.836701401004284,A,674.6840000000702,Incorrect
2,302,208,B,40.739844809340596,19.57495412284104,2.0369922404670295,0.3074826603333732,B,564.9293999999827,Correct
2,302,209,B,45.393707860566245,31.940556049274008,2.2696853930283125,0.5017210811798613,B,1027.0025999998325,Correct
2,302,210,A,56.096338694478945,65.88991382050804,2.8048169347239473,1.0349963460208633,A,469.50809999998455,Correct
2,302,211,B,79.29963113157143,59.875498949748206,3.964981556578572,0.9405221381527616,B,602.4676000001818,Correct
2,302,212,B,78.68198661326211,63.35493189232204,3.9340993306631056,0.995176943008003,A,590.0845000001027,Incorrect
2,302,213,B,45.89665254348583,33.57568058477523,2.2948326271742916,0.5274055573220365,B,805.2950000001147,Correct
2,302,214,B,43.426256171599604,21.627161530959782,2.17131280857998,0.3397186589183152,B,503.5004999999728,Correct
2,302,215,A,63.58762443757401,77.62986006112466,3.1793812218787,1.2194069903361644,A,437.87520000023505,Correct
2,302,216,A,56.00818694155969,83.57617973392696,2.8004093470779843,1.3128115613360256,A,555.1267999999254,Correct
2,302,217,A,22.704122552312956,46.628071532755214,1.1352061276156478,0.7324320348918157,A,463.0319999996573,Correct
2,302,218,A,62.363384257394955,83.93324937985813,3.1181692128697476,1.3184203982184117,A,719.5638999996845,Correct
2,302,219,B,39.76703471544145,28.012151030062086,1.9883517357720724,0.440013839436454,B,760.9928000001673,Correct
2,302,220,A,38.756773638085825,58.08893618622126,1.9378386819042914,0.9124588758873952,B,666.6156999999657,Incorrect
2,302,221,A,23.496442324956895,52.26693525799223,1.1748221162478447,0.8210070991608087,A,439.5892000002277,Correct
2,302,222,A,26.470589819447152,51.5322016857111,1.3235294909723576,0.8094659311956878,A,881.302499999947,Correct
2,302,223,A,63.04843432474452,74.42955930136264,3.152421716237226,1.1691367835554338,A,608.4928000000218,Correct
2,302,224,A,53.20570465799148,82.86506620819418,2.6602852328995743,1.3016414161944732,A,406.5470999998979,Correct
2,302,225,A,24.787638066177397,39.269546477649314,1.2393819033088698,0.61684459361993,A,463.1469000000834,Correct
2,302,226,A,59.50832331299642,75.65576072579107,2.9754161656498206,1.1883979104894622,A,435.30890000010913,Correct
2,302,227,A,35.12155740372925,59.24668008493404,1.7560778701864623,0.9306446745220674,A,462.35200000000987,Correct
2,302,228,A,42.088176087141385,73.75292926892381,2.1044088043570692,1.1585083038598931,A,441.6931000000659,Correct
2,302,229,A,30.682014700336676,54.8271415420465,1.5341007350168336,0.8612227254291054,A,403.3441000001403,Correct
2,302,230,A,61.9022454744227,77.05349986040825,3.0951122737211345,1.2103535454742034,A,415.2085000000625,Correct
2,302,231,A,54.0178052520209,74.6271218936938,2.700890262601045,1.172240089498892,A,588.8138000000254,Correct
2,302,232,A,45.87088931414246,70.35458082802538,2.293544465707123,1.1051271713785693,A,733.3165999998528,Correct
2,302,233,B,33.68651810501133,19.11096366452959,1.6843259052505664,0.3001943152575381,B,473.2250000001841,Correct
2,302,234,A,30.65783658073879,50.813787484755935,1.5328918290369393,0.7981811073159111,B,495.5226000001858,Incorrect
2,302,235,A,52.278108633525335,73.81399748511392,2.6139054316762667,1.1594675611566467,A,431.5937000001213,Correct
2,302,236,B,72.29601898044672,43.900397079929874,3.614800949022336,0.6895858247799126,B,563.1745999999112,Correct
2,302,237,A,33.00225016415296,65.9715178651302,1.6501125082076482,1.036278179356304,A,600.9765000003426,Correct
2,302,238,A,42.75361338215434,54.50190708044322,2.1376806691077173,0.8561139544527696,A,479.63530000015453,Correct
2,302,239,A,54.26161817886525,73.31332056382738,2.7130809089432626,1.151602946467968,A,435.2774999997564,Correct
2,302,240,A,49.783881450660196,73.44792898953268,2.4891940725330097,1.1537173706745034,A,453.7159999999858,Correct
2,302,241,B,72.90138269103109,56.7521992764031,3.6450691345515542,0.8914614616090598,A,644.908100000066,Incorrect
2,302,242,B,69.30747011720581,44.02454602509565,3.4653735058602906,0.6915359518503311,B,902.3157000001447,Correct
2,302,243,A,16.688862994870366,47.002547572411686,0.8344431497435183,0.7383142907674665,A,1127.976800000397,Correct
2,302,244,B,73.89929410306048,42.658082680430525,3.694964705153024,0.6700715958253326,B,1046.9004000001405,Correct
2,302,245,A,56.62241346173258,70.33375430550088,2.8311206730866285,1.104800029127755,A,584.0462999999545,Correct
2,302,246,B,76.45980872797062,64.45622167958491,3.8229904363985314,1.0124759625336957,B,382.1425999999519,Correct
2,302,247,B,31.358983697026265,16.557624757706908,1.5679491848513132,0.2600865614985425,B,1144.0857000002325,Correct
2,302,248,A,52.417313485517795,71.88363262191919,2.62086567427589,1.1291454607918447,A,360.09180000019114,Correct
2,302,249,A,58.25606718848971,73.03456999307646,2.9128033594244855,1.1472243427416928,A,479.2864000000918,Correct
2,302,250,A,28.635174098029324,44.16390112806397,1.4317587049014662,0.6937249366889587,A,635.69600000028,Correct
2,302,251,B,46.97549565759938,20.135707383988365,2.348774782879969,0.31629095196185797,B,403.1670999997914,Correct
2,302,252,A,49.951922237106885,64.96529997012972,2.4975961118553442,1.0204725456220838,A,615.325600000233,Correct
2,302,253,A,49.76810491262397,61.780743573168124,2.4884052456311987,0.9704496507138989,A,519.6203999998943,Correct
2,302,254,B,52.936285798866464,33.7711482102308,2.6468142899433236,0.5304759556027658,B,456.4918000000944,Correct
2,302,255,A,42.90171537120227,49.87842429596095,2.1450857685601137,0.7834884567041278,B,869.9940000001334,Incorrect
2,302,256,B,83.65742274946422,60.89975042343802,4.182871137473211,0.956611042678624,B,425.5934000002526,Correct
2,302,257,B,73.71340072618169,52.396527164435085,3.6856700363090846,0.8230427240670365,B,549.7713999998268,Correct
2,302,258,B,39.66305227456711,17.218608727701607,1.9831526137283555,0.2704692734199223,B,477.7489000002788,Correct
2,302,259,A,52.75414618201353,81.74321770897458,2.6377073091006764,1.284019461176528,A,626.2031000001116,Correct
2,302,260,B,42.572322251409894,31.454792838694388,2.1286161125704948,0.4940907305111556,B,432.30339999990974,Correct
2,302,261,A,25.649128315049992,40.78165771025113,1.2824564157524998,0.6405967813186926,B,648.6061000000518,Incorrect
2,302,262,B,75.01595595865558,59.62219573667894,3.750797797932779,0.9365432605862162,B,936.6064999999253,Correct
2,302,263,B,45.66139084769071,20.418031775059756,2.2830695423845357,0.32072569312645344,B,1800.3412000002754,Correct
2,302,264,B,81.10111585818775,64.48926669280436,4.055055792909388,1.0129950323875356,A,629.0576999999757,Incorrect
2,302,265,A,16.930852288863075,35.79392248726836,0.8465426144431538,0.562249619645824,A,569.7610000001987,Correct
2,302,266,B,42.08025779996335,29.534648437706203,2.1040128899981676,0.4639291727912754,B,733.3883999999671,Correct
2,302,267,A,33.827277135741966,51.19600425290826,1.691363856787098,0.804184954270442,A,631.8464000000859,Correct
2,302,268,B,78.64145820648119,64.52887443815524,3.932072910324059,1.0136171893966337,B,750.2183999999943,Correct
2,302,269,A,32.936037603874595,62.187879844790174,1.6468018801937296,0.9768449323135878,A,586.668599999939,Correct
2,302,270,A,48.959785278333754,62.582113380537955,2.447989263916688,0.9830375382121076,A,507.7616000003218,Correct
2,302,271,B,35.045457597887214,22.60780767931265,1.7522728798943605,0.35512261259549766,B,712.5048000002607,Correct
2,302,272,A,60.65287384791588,76.13533848766369,3.032643692395794,1.1959311003570825,A,562.1215999999549,Correct
2,302,273,B,66.69996585250992,58.44683684778916,3.334998292625496,0.9180807663328782,B,476.1125999998512,Correct
2,302,274,A,68.83604576390421,87.64231416394487,3.441802288195211,1.3766822516052897,A,693.7842000002092,Correct
2,302,275,B,66.76415378929455,48.424724349680915,3.3382076894647277,0.7606537913453418,B,1028.1520000003184,Correct
2,302,276,A,52.099486397523506,69.17742300878758,2.6049743198761752,1.086636419593403,B,565.5351999998857,Incorrect
2,302,277,B,75.09322952168891,59.48065648231723,3.7546614760844452,0.9343199671777296,B,502.38709999985076,Correct
2,302,278,B,40.158728205330355,26.302888815829697,2.007936410266518,0.4131648113599985,B,764.2003000000841,Correct
2,302,279,A,39.33000019621358,68.1523692123447,1.966500009810679,1.0705349122112064,A,678.9475000000493,Correct
2,302,280,B,63.577198588941705,45.54349486837078,3.178859929447085,0.7153955444863903,B,407.8106000001753,Correct
2,302,281,A,46.73809587236262,76.57814679396637,2.3369047936181313,1.2028867169672275,A,855.0083000000086,Correct
2,302,282,B,42.35949349911901,23.942102970951616,2.117974674955951,0.37608167402515974,B,1257.533599999988,Correct
2,302,283,B,78.86061058085693,62.20796128211088,3.9430305290428462,0.9771603707933891,B,698.0762000002869,Correct
2,302,284,B,83.15252810500691,67.38494806582572,4.157626405250346,1.0584802890306393,B,867.4768000000768,Correct
2,302,285,A,33.13018454962404,43.56171493490599,1.6565092274812019,0.6842658180863672,A,1215.6166999998277,Correct
2,302,286,A,55.10532378375253,77.51835653912045,2.7552661891876267,1.2176554971082756,A,702.0158000000265,Correct
2,302,287,B,58.82285864033221,33.73349155629335,2.9411429320166103,0.5298844462659226,B,666.4318000002822,Correct
2,302,288,A,33.104522202483565,51.96953176891744,1.6552261101241783,0.816335496078662,B,697.088000000349,Incorrect
2,302,289,B,81.03978138804155,49.899985176199124,4.051989069402078,0.7838271342189336,B,522.4649000001591,Correct
2,302,290,A,38.82254796702477,50.16199304601495,1.9411273983512385,0.7879427442139143,B,667.034799999783,Incorrect
2,302,291,A,27.24410271109118,36.993978672252645,1.362205135554559,0.581100058119032,B,853.0111000000034,Incorrect
2,302,292,B,74.46217946680079,54.469146632570265,3.723108973340039,0.8555993545409396,B,585.3951999997662,Correct
2,302,293,B,37.28413802256925,16.37576215987946,1.8642069011284628,0.2572298704920552,B,434.78670000013153,Correct
2,302,294,A,14.016280354192492,31.096343621642678,0.7008140177096246,0.48846022337628237,A,561.7360999999619,Correct
2,302,295,A,35.38115073487759,52.42338138024572,1.7690575367438797,0.8234645491025796,A,372.2501000002012,Correct
2,302,296,B,55.665012627816374,34.24137860809718,2.7832506313908185,0.537862317419924,B,472.3898000002009,Correct
2,302,297,A,17.125211862650307,39.868248074180386,0.8562605931325153,0.6262489763067026,A,616.6748000000553,Correct
2,302,298,B,84.45711802351657,56.67726818616985,4.222855901175828,0.8902844467960486,B,447.36409999995885,Correct
2,302,299,A,23.160462260988535,46.79989570266224,1.1580231130494267,0.7351310426412612,A,469.6804999998676,Correct
2,302,300,B,61.07930810989791,50.99758311150053,3.0539654054948953,0.8010681622696251,A,785.0137000000359,Incorrect
2,302,301,B,59.04041828939905,49.4820507587411,2.9520209144699527,0.7772622357410917,B,514.9450999997498,Correct
2,302,302,A,56.51323009982622,84.57351914419513,2.8256615049913107,1.3284777321581958,A,463.93110000008164,Correct
2,302,303,B,84.08561007439525,69.35480454846964,4.204280503719763,1.089422722303141,A,547.8128999998262,Incorrect
2,302,304,B,65.6855186356282,51.5228715001304,3.2842759317814103,0.8093193729833029,A,2044.3769000003158,Incorrect
2,302,305,A,50.51323021353019,76.60978039315937,2.5256615106765095,1.2033836163813842,B,763.8382000000092,Incorrect
2,302,306,B,65.02380884855374,53.96589650651906,3.251190442427687,0.8476943200463368,A,584.5178999998097,Incorrect
2,302,307,A,43.514590282280366,57.14568838554267,2.1757295141140185,0.8976423740817622,A,353.9818999997806,Correct
2,302,308,A,44.25190928117581,59.83521193722434,2.212595464058791,0.9398893112398614,A,518.670899999961,Correct
2,302,309,B,54.118296363923285,24.281806569493188,2.7059148181961645,0.38141772567304094,B,395.34909999974843,Correct
2,302,310,A,41.20230717668607,61.71498277747064,2.0601153588343037,0.9694166825506119,A,526.9795999997768,Correct
2,302,311,A,50.1256209296698,74.99902063336005,2.50628104648349,1.178081861240966,A,1400.9206000000631,Correct
2,302,312,B,69.07884887638937,41.68040739232361,3.453942443819469,0.6547143083117678,B,962.8658000001451,Correct
2,302,313,B,83.74869612287371,67.06025035606669,4.187434806143686,1.053379949332557,A,1058.8995000002797,Incorrect
2,302,314,B,63.49147974048587,40.21378809577809,3.174573987024294,0.6316767062735656,B,861.0757000001286,Correct
2,302,315,B,52.110171246384986,26.931152296788625,2.6055085623192493,0.42303355104149515,B,544.470100000126,Correct
2,302,316,B,47.31881031765976,30.744206718173295,2.365940515882988,0.4829288698312959,B,973.4183000000485,Correct
2,302,317,B,47.029498694909876,31.000943412231656,2.351474934745494,0.4869616803910993,B,608.2143000003271,Correct
2,302,318,A,42.18257728191877,49.58055820841502,2.1091288640959385,0.7788095871421887,A,686.2780999999814,Correct
2,302,319,B,41.19911566070059,31.045477256935698,2.0599557830350297,0.48766121638789095,B,1216.4837000000261,Correct
2,302,320,A,31.766260142817792,52.86493853470435,1.5883130071408897,0.8304005126655157,B,537.0670000002065,Incorrect
2,302,321,B,81.92011308171345,60.66234489969078,4.096005654085673,0.952881885431994,B,628.1048999999257,Correct
2,302,322,B,57.70846852136505,31.962526052618678,2.885423426068252,0.5020661851853961,B,571.331900000132,Correct
2,302,323,B,48.43131431587574,27.307949808494637,2.421565715793787,0.42895227251482776,B,775.2130999997462,Correct
2,302,324,A,44.3526341159403,60.156841065326276,2.217631705797015,0.944941449769989,B,460.4810999999245,Incorrect
2,302,325,A,21.746394883183115,46.71055764505105,1.0873197441591558,0.7337277237138745,A,734.1252999999597,Correct
2,302,326,A,46.11697454191075,56.055639165630154,2.3058487270955372,0.8805199209751199,A,773.3276999997543,Correct
2,302,327,A,33.92832381963222,51.190124280288615,1.6964161909816111,0.804092591876516,A,739.1249999996035,Correct
2,302,328,A,65.26282465507124,83.76551822204914,3.2631412327535623,1.3157856833526576,A,517.630900000313,Correct
2,302,329,B,37.291240477682734,12.188094498324528,1.8645620238841365,0.19145014068597258,B,507.4456999996073,Correct
2,302,330,A,47.44161910418336,69.33799394532883,2.372080955209168,1.0891586619664932,A,540.5169999999089,Correct
2,302,331,B,44.28121836270043,33.69088819245466,2.2140609181350213,0.5292152341916533,B,349.4239000001471,Correct
2,302,332,A,24.506695099741336,42.58154418089795,1.2253347549870668,0.668869331886091,B,475.2317000002222,Incorrect
2,302,333,A,43.10096571601634,66.23642390808432,2.155048285800817,1.040439313748485,A,692.3199000002569,Correct
2,302,334,A,10.639179634562183,32.123801889736846,0.5319589817281092,0.504599500110856,B,462.8281000000243,Incorrect
2,302,335,B,53.888235196288434,32.885476828573736,2.6944117598144213,0.516563862072223,B,589.7457000000941,Correct
2,302,336,A,64.2500682761181,74.47559665293532,3.212503413805905,1.1698599365828908,A,513.0555000000641,Correct
2,302,337,B,35.65608783291679,13.285227200777172,1.7828043916458396,0.20868386087616425,B,372.12499999986903,Correct
2,302,338,B,30.91537225670807,13.07138725457759,1.5457686128354036,0.20532487085604106,B,502.9186000001573,Correct
2,302,339,B,54.399528531911706,33.95699989270833,2.7199764265955855,0.5333953070044094,B,408.2679999996799,Correct
2,302,340,B,52.7391730275466,40.89891883942982,2.6369586513773298,0.6424387148285895,B,418.2525999999598,Correct
2,302,341,A,15.529492072116305,40.260953529863144,0.7764746036058153,0.6324175791796904,A,529.1661999999633,Correct
2,302,342,A,34.44707880121698,61.63878034829448,1.722353940060849,0.9682196975921844,A,568.90199999998,Correct
2,302,343,B,71.20666005835054,39.904190478129884,3.5603330029175266,0.6268135582677031,B,406.44079999992755,Correct
2,302,344,B,69.40157647318449,47.26074011313992,3.4700788236592244,0.7423699697132841,B,484.8013999999239,Correct
2,302,345,B,67.03004946649683,34.58816422954271,3.351502473324842,0.5433096132234432,B,428.54639999995925,Correct
2,302,346,A,18.22267267008965,32.865074646563286,0.9111336335044825,0.5162433853466168,A,392.14280000032886,Correct
2,302,347,A,29.71005586949144,39.62495558990652,1.4855027934745721,0.6224273469003606,A,444.58080000003974,Correct
2,302,348,B,76.9354414239564,57.842658272866856,3.84677207119782,0.908590351470717,B,493.4272999998939,Correct
2,302,349,A,24.327764744487233,54.739619954273046,1.2163882372243617,0.8598479395432073,A,444.3569000000025,Correct
2,302,350,B,70.15325194534049,49.096787077609726,3.507662597267024,0.7712105279894051,B,429.17830000033064,Correct
2,302,351,B,72.10177788105366,52.31514623421006,3.605088894052683,0.8217643954043503,B,451.26859999982116,Correct
2,302,352,A,24.07381898255359,53.68052330477979,1.2036909491276795,0.8432116882757594,A,414.0313999996579,Correct
2,302,353,B,88.2697858412004,66.87461798604889,4.41348929206002,1.0504640428829752,B,440.79180000017004,Correct
2,302,354,B,64.2445171723953,45.96479838501534,3.2122258586197656,0.7220133646505009,B,464.2684999998892,Correct
2,302,355,B,69.09150394441973,35.8308897923268,3.4545751972209864,0.562830300715797,B,460.43139999983396,Correct
2,302,356,B,44.48830083280635,32.95273881041231,2.2244150416403174,0.517620410812273,B,525.8121000001665,Correct
2,302,357,B,76.20788033503356,45.61296943240088,3.8103940167516783,0.716486848386232,B,620.4812000000857,Correct
2,302,358,B,38.982527914567314,15.067760673773503,1.9491263957283655,0.23668383119388012,B,667.6678999997421,Correct
2,302,359,A,49.61290948751708,81.02478322837894,2.4806454743758537,1.2727343187449036,B,558.7264999999206,Incorrect
2,302,360,A,30.51889475153736,49.31673210487139,1.5259447375768678,0.7746654163985994,A,968.9377999998214,Correct
2,302,361,B,51.3437109411862,21.933985347824027,2.56718554705931,0.3445382361633506,B,400.40650000037203,Correct
2,302,362,A,32.009068863245275,51.168711451299345,1.6004534431622637,0.8037562399452896,A,640.6867000000602,Correct
2,302,363,B,65.94823680210249,43.43164059312697,3.2974118401051244,0.6822226151035997,B,517.3933999999463,Correct
2,302,364,B,52.30304143660753,41.343337143307494,2.6151520718303765,0.6494196212215042,B,727.3393999998916,Correct
2,302,365,B,54.33244678824663,33.96348377796768,2.716622339412331,0.533497155635897,B,406.2211999998908,Correct
2,302,366,B,43.69665617476513,34.07613944053083,2.1848328087382565,0.5352667466453653,B,451.24759999998787,Correct
2,302,367,B,66.545651274607,39.647925453427504,3.32728256373035,0.6227881566728181,B,493.4376000001066,Correct
2,302,368,A,47.09638896302714,64.90146875811001,2.354819448151357,1.0194698872883294,B,475.8366000000933,Incorrect
2,302,369,B,89.32184138826385,66.91636919473257,4.466092069413192,1.051119869335371,B,1672.5381999999627,Correct
2,302,370,A,59.31113160770963,83.62277798672906,2.9655565803854818,1.3135435249793914,A,1042.4800999999206,Correct
2,302,371,A,26.195203910513417,53.235069146285326,1.309760195525671,0.836214510716573,A,621.8295999997281,Correct
2,302,372,A,31.252307795382055,46.73975490733842,1.5626153897691029,0.7341863532374094,A,932.1709000000737,Correct
2,302,373,A,45.28255692325078,59.473089676071496,2.264127846162539,0.9342011080631659,A,742.4074000000473,Correct
2,302,374,B,40.35311514852719,14.253460000162647,2.0176557574263594,0.22389282612373473,B,557.5733999999102,Correct
2,302,375,A,43.62071472445697,71.29462952366961,2.1810357362228485,1.1198934217598322,A,680.3295999998227,Correct
2,302,376,A,50.528032676459745,65.97396785557441,2.5264016338229873,1.0363166637162087,A,469.6188000002621,Correct
2,302,377,A,17.856196792311255,32.667833097687094,0.8928098396155627,0.5131451223419563,A,478.73470000013185,Correct
2,302,378,B,40.28972543271004,30.43041539553043,2.0144862716355023,0.47799984726142075,B,549.1001999998844,Correct
2,302,379,B,55.35044912649111,39.52196570596107,2.767522456324555,0.6208095855863752,B,554.3625000000247,Correct
2,302,380,B,87.41143072693248,65.41949210812292,4.370571536346624,1.0276069790422722,B,613.1454999999733,Correct
2,302,381,B,44.8234408189666,29.273432000309725,2.2411720409483302,0.459825994587667,B,525.9794999997212,Correct
2,302,382,B,39.643661933008474,13.938915388784125,1.9821830966504237,0.21895197092206964,B,601.0187000001679,Correct
2,302,383,A,51.93760042019819,78.00758430205488,2.5968800210099094,1.2253402688381103,A,628.9108000000851,Correct
2,302,384,B,42.695899199772356,14.541112524031394,2.134794959988618,0.22841126140259782,B,533.766999999898,Correct
2,302,385,A,22.410252559448736,43.39511911782739,1.120512627972437,0.6816489371111025,A,643.3015000002342,Correct
2,302,386,B,62.59226231157489,49.16971742106537,3.1296131155787448,0.7723561151455253,B,430.9006000003137,Correct
2,302,387,B,45.66149727922753,16.62832602378886,2.2830748639613767,0.26119713438915526,B,447.74690000031114,Correct
2,302,388,A,26.675910560989685,40.46987610492292,1.3337955280494842,0.6356993273145747,A,663.7510000000475,Correct
2,302,389,A,30.15061598454659,53.74450835628665,1.5075307992273295,0.8442167631145269,A,503.2216999998127,Correct
2,302,390,A,69.84239177891622,87.73996661982565,3.4921195889458114,1.3782161727952897,A,622.9514000001473,Correct
2,302,391,B,76.02212475319544,45.59659242112707,3.801106237659772,0.7162295988947042,A,546.8086999999286,Incorrect
2,302,392,A,49.54340476769678,70.19193211004996,2.477170238384839,1.1025722912910323,A,507.6513000003615,Correct
2,302,393,A,69.4563628725779,85.73131496911394,3.4728181436288947,1.3466643464478052,A,415.84869999996954,Correct
2,302,394,B,31.693028111498187,13.131001354181983,1.5846514055749095,0.2062612869428787,B,498.6068000002888,Correct
2,302,395,A,27.226147686404943,46.57722295952111,1.3613073843202472,0.7316333073712268,A,384.15249999980006,Correct
2,302,396,B,63.51299714567065,53.32160431584687,3.1756498572835326,0.8375738019814316,A,853.6647999999332,Incorrect
2,302,397,A,41.24101272919399,63.53572736184574,2.0620506364596993,0.9980168716022929,A,533.7182999996912,Correct
2,302,398,B,51.00138475810322,38.134677692319926,2.550069237905161,0.5990181164260343,B,1223.3681000002434,Correct
2,302,399,A,36.41866059636477,49.06644141126891,1.8209330298182382,0.770733859377182,A,849.5997999998508,Correct
2,302,400,A,54.764197346662755,81.2845024638203,2.7382098673331376,1.2768139789551964,A,447.13720000027024,Correct
2,302,401,B,69.34865144321074,42.287427517657726,3.4674325721605372,0.6642493581434219,B,354.47720000001937,Correct
2,302,402,A,44.51084646863377,58.23834715036386,2.2255423234316885,0.9148058178239757,A,488.8074000000415,Correct
2,302,403,B,76.92534234643159,58.74409725500095,3.8462671173215797,0.9227501218903766,B,462.9077999998117,Correct
2,302,404,A,41.97715902166318,71.40430856065925,2.0988579510831586,1.1216162560441294,A,534.9300999996558,Correct
2,302,405,B,49.78783993134962,36.78510845148083,2.4893919965674813,0.5778191323633799,B,620.9789999998065,Correct
2,302,406,A,57.82547547479929,70.30484230162484,2.8912737737399645,1.1043458804328676,A,1264.8831000001337,Correct
2,302,407,A,50.697243140780685,67.31670121984463,2.5348621570390346,1.0574082700808147,A,546.2886000000253,Correct
2,302,408,B,36.321819552324186,15.01173036575572,1.8160909776162095,0.23580370917364493,B,416.0799000001134,Correct
2,302,409,B,52.424406920630716,38.20021207496273,2.6212203460315355,0.6000475281013751,B,624.101100000189,Correct
2,302,410,B,40.72704203952824,31.946642560530208,2.036352101976412,0.5018166878751036,B,684.2681000002813,Correct
2,302,411,B,66.2379318920953,50.15594765517274,3.311896594604765,0.7878477834366244,B,601.2565999999424,Correct
2,302,412,B,82.30820282600376,56.2426762305294,4.115410141300188,0.8834578923203023,B,578.3704000000398,Correct
2,302,413,A,53.16524960858837,60.22732803943282,2.6582624804294186,0.9460486565701236,A,507.2236000000885,Correct
2,302,414,A,27.673349215436158,37.10215312779087,1.3836674607718078,0.5827992584931568,B,576.2117999997827,Incorrect
2,302,415,B,58.24550340140535,29.11038711227343,2.9122751700702674,0.457264891475366,B,1581.1155000001236,Correct
2,302,416,B,64.73075677936302,32.718853123398944,3.2365378389681507,0.5139465430317679,B,554.1739999998754,Correct
2,302,417,B,75.63969297762895,49.15329516012571,3.7819846488814477,0.7720981548739083,B,487.70639999975174,Correct
2,302,418,B,47.792695674674476,37.584810029672376,2.3896347837337237,0.5903808153789336,B,712.8245999997489,Correct
2,302,419,A,31.31302927571933,53.03640274441499,1.5656514637859664,0.8330938661734185,B,941.7985999998564,Incorrect
2,302,420,B,76.30757044995293,55.06808491916445,3.815378522497647,0.8650074551465294,B,1403.6009999999806,Correct
2,302,421,B,70.16654571264571,43.05477872274424,3.5083272856322854,0.6763028826865372,B,3643.6375999996926,Correct
2,302,422,A,56.93307973446991,81.15978360632694,2.8466539867234957,1.2748548997228701,A,2779.68890000011,Correct
2,302,423,A,58.188161716110166,79.08540408682029,2.909408085805508,1.2422706224266742,A,3561.7596000001868,Correct
2,302,424,B,56.330200750395804,49.658437523894065,2.8165100375197905,0.7800329125690666,A,607.8449000001456,Incorrect
2,302,425,A,50.620599232057465,71.20029040810394,2.531029961602873,1.1184115463977957,A,688.7098999995942,Correct
2,302,426,B,50.896140467634766,37.29687662939483,2.5448070233817384,0.5858579681037582,A,691.4898999998513,Incorrect
2,302,427,B,50.02677893797386,32.51278873343796,2.501338946898693,0.5107096911634285,B,1016.7305999998462,Correct
2,302,428,A,68.48796374804178,84.87743400198886,3.424398187402089,1.3332516155810035,A,466.4252000002307,Correct
2,302,429,A,39.56583244503582,61.3885075330579,1.978291622251791,0.9642884214034818,A,643.5578999999052,Correct
2,302,430,A,45.45703578310148,58.90962873070738,2.272851789155074,0.9253502842304625,A,597.204199999851,Correct
2,302,431,B,44.5068420476299,27.19398745645283,2.225342102381495,0.42716215607502606,B,873.3366999999816,Correct
2,302,432,A,63.71776515286925,74.22163600920958,3.185888257643462,1.1658707321197423,A,643.314499999633,Correct
2,302,433,A,42.51683351067836,59.027536834117534,2.125841675533918,0.9272023803878229,A,1046.374399999877,Correct
2,302,434,B,55.22437492125208,45.49248436715254,2.761218746062604,0.7145942734069746,B,726.1051999998926,Correct
2,302,435,A,25.11288240773993,51.28263797797486,1.2556441203869966,0.8055457936415535,A,406.10209999977087,Correct
2,302,436,A,52.30629999773595,82.84751013517354,2.6153149998867975,1.3013656460443355,A,617.4211000002288,Correct
2,302,437,B,52.92386309398134,30.794447914890373,2.646193154699067,0.48371805670386553,B,550.1626000000215,Correct
2,302,438,A,56.48740700450969,67.233248668306,2.8243703502254847,1.0560974004666295,A,584.0730999998414,Correct
2,302,439,A,11.6865686130344,32.34981491492499,0.5843284306517199,0.5081497044085894,A,845.6372999999076,Correct
2,302,440,B,50.26221806076053,40.79684250637437,2.5131109030380263,0.6408353035384277,B,416.7081999999027,Correct
2,302,441,A,56.63527811538137,79.333375629377,2.8317639057690682,1.2461657503086516,A,602.8968000000532,Correct
2,302,442,A,64.68226497889553,77.90488024889568,3.2341132489447766,1.2237269973436162,A,399.87509999991744,Correct
2,302,443,B,42.548211046115064,17.507278726540655,2.127410552305753,0.27500369115824497,B,457.30790000015986,Correct
2,302,444,B,76.67012709263875,55.207192502230924,3.8335063546319375,0.867192551951631,B,497.0491999997648,Correct
2,302,445,B,74.39141222209979,49.40113251074261,3.7195706111049898,0.7759911748738244,B,730.1606999999422,Correct
2,302,446,A,55.568794616377886,72.12148496487757,2.7784397308188944,1.1328816366582304,A,628.6699000002045,Correct
2,302,447,B,34.502089193365336,15.991461529621258,1.725104459668267,0.2511932903081097,B,386.71819999990475,Correct
2,302,448,A,33.46189108130159,46.12337444037455,1.6730945540650795,0.7245042715032595,B,568.813500000033,Incorrect
2,302,449,B,74.15005974156335,58.82055750824815,3.707502987078168,0.9239511567398417,B,447.7620000002389,Correct
2,302,450,B,77.23790452717103,50.653272782332174,3.8618952263585515,0.7956597482662728,B,1240.8559999998943,Correct
2,302,451,A,45.7206650007242,67.33493968633674,2.28603325003621,1.0576947592425365,A,494.9649000000136,Correct
2,302,452,B,80.83383865903593,65.62685738365329,4.041691932951796,1.0308642651733513,B,527.2463999999673,Correct
2,302,453,B,38.893800173678585,24.37858485121047,1.9446900086839292,0.38293791536739114,B,1419.1329000000223,Correct
2,302,454,A,48.41839598340566,65.42262189322511,2.4209197991702833,1.027656141591694,B,390.4835999996976,Incorrect
2,302,455,A,40.39768470276074,64.18079944519788,2.019884235138037,1.0081496401927674,A,883.1729000003179,Correct
2,302,456,A,50.20256629279574,75.96797890450107,2.5101283146397866,1.1933022221722247,A,912.9567999998471,Correct
2,302,457,B,73.78774711744606,48.28922021380496,3.689387355872303,0.7585252973563469,B,633.5476000003837,Correct
2,302,458,A,30.778667949405204,59.12708791142815,1.5389333974702601,0.9287661250535025,A,474.9413000004097,Correct
2,302,459,A,50.96219616257544,76.4506093069975,2.5481098081287716,1.2008833628066342,B,354.11729999987074,Incorrect
2,302,460,A,29.21713123709963,44.09031145551242,1.4608565618549816,0.6925689928156186,A,1959.67759999985,Correct
2,302,461,A,27.39488020050149,55.34322409935889,1.3697440100250744,0.8693293312825975,A,1756.662399999641,Correct
2,302,462,A,47.835863476571795,55.35147202882118,2.39179317382859,0.8694588894556278,A,984.2655000002196,Correct
2,302,463,A,22.262223747594163,51.675497562955165,1.1131111873797082,0.8117168175718861,A,539.5896999998513,Correct
2,302,464,B,33.77600302057222,10.290501338347354,1.6888001510286108,0.16164281703153988,B,583.7553000001208,Correct
2,302,465,A,56.043308752414596,72.51958343846898,2.80216543762073,1.1391349528584311,A,595.3601999999591,Correct
2,302,466,A,51.71427216714447,81.81937456430934,2.585713608357224,1.285215730262729,A,543.4895999997025,Correct
2,302,467,A,23.108567054077906,50.31259527567689,1.1554283527038953,0.7903083985055154,A,568.0607999997846,Correct
2,302,468,A,60.26407712607215,75.15557077372726,3.0132038563036074,1.1805409450954465,B,617.480500000056,Incorrect
2,302,469,B,78.45502630632075,58.54550423476209,3.922751315316037,0.9196306300231936,B,531.6876000001685,Correct
2,302,470,B,62.19863007590525,48.76428537184843,3.1099315037952624,0.7659876034087763,B,581.0786000001826,Correct
2,302,471,B,62.19894532736759,46.89695522644022,3.1099472663683794,0.7366556500755702,B,1996.55840000014,Correct
2,302,472,B,34.42936885095488,17.34188385981956,1.721468442547744,0.2724056746670827,B,915.7391999997344,Correct
2,302,473,A,45.647327881692014,67.05362850170411,2.2823663940846006,1.053275933487464,A,1498.6769000001914,Correct
2,302,474,B,62.522789137275396,45.33453836997398,3.1261394568637697,0.7121132634849742,B,1356.597899999997,Correct
2,302,475,A,25.127417718772932,40.27308358921561,1.2563708859386467,0.6326081177064371,A,921.3486999997258,Correct
2,302,476,B,47.11985697604635,39.524444735342385,2.3559928488023174,0.6208485260888371,B,501.1958999998569,Correct
2,302,477,A,62.96493377465393,74.61685069134124,3.148246688732696,1.1720787498296203,A,979.5933000000332,Correct
2,302,478,A,47.03726597678672,70.78467531271434,2.351863298839336,1.1118830797458108,A,1050.7636000002094,Correct
2,302,479,B,51.09237541101226,29.031137163469516,2.554618770550613,0.4560200361905673,B,601.4187000000675,Correct
2,302,480,A,52.55849053173982,63.37665257591647,2.627924526586991,0.9955181307080588,A,790.1204999998299,Correct
2,302,481,B,68.98176787561144,49.42135196257819,3.4490883937805723,0.7763087812805558,A,399.24980000023425,Incorrect
2,302,482,A,57.09077356800907,66.97282386540012,2.8545386784004534,1.052006657228521,A,784.1005000000223,Correct
2,302,483,A,27.534764239719678,39.79225235922646,1.3767382119859837,0.6250552384076847,A,406.155900000158,Correct
2,302,484,B,35.40349965344519,10.528043113849968,1.7701749826722593,0.16537411451573836,B,528.677400000106,Correct
2,302,485,A,36.156470220610636,57.03057459795579,1.8078235110305316,0.8958341709347128,A,482.33399999980975,Correct
2,302,486,B,79.84639018932072,48.131663892412455,3.9923195094660353,0.7560504084472803,B,530.6015000001025,Correct
2,302,487,A,11.480711049875772,30.461230455632446,0.5740355524937886,0.4784838890936028,A,648.1638000000203,Correct
2,302,488,A,50.500466507446276,79.51035794638369,2.525023325372314,1.2489457820432694,B,475.75559999995676,Incorrect
2,302,489,B,45.12449467232234,15.677081455936705,2.2562247336161168,0.24625501965849766,B,405.70590000015727,Correct
2,302,490,B,38.358901875569146,22.792176396633778,1.9179450937784572,0.35801866963493684,B,402.69850000004226,Correct
2,302,491,A,48.220602527399464,63.82988666414199,2.4110301263699734,1.002637515117688,A,536.7783000001509,Correct
2,302,492,B,50.291641761791354,36.5782742503993,2.514582088089568,0.5745701883302358,B,612.3615000001337,Correct
2,302,493,B,43.83715558520814,18.308140408262382,2.191857779260407,0.2875835970374377,B,501.7702999998619,Correct
2,302,494,A,61.261528883201734,81.24725263414123,3.0630764441600866,1.2762288599988603,A,1622.2992000002705,Correct
2,302,495,B,45.504794701723355,34.45359550075704,2.275239735086168,0.5411958125746634,B,2289.129099999627,Correct
2,302,496,A,60.6428715471085,69.41677445512454,3.032143577355425,1.0903961433205944,A,1971.905500000048,Correct
2,302,497,A,63.1343250542685,74.28857021670697,3.156716252713425,1.1669221321924808,A,595.935400000144,Correct
2,302,498,B,85.62806742518161,69.60048939064343,4.28140337125908,1.0932819307794988,B,540.786599999592,Correct
2,302,499,A,36.354599002884555,56.572415364854436,1.8177299501442277,0.888637422530285,A,539.6688999999242,Correct
2,302,500,B,83.74560449814923,54.37956086250828,4.187280224907462,0.8541921445554753,B,544.1223000002537,Correct
2,302,501,A,33.02410481149522,41.99116885165208,1.651205240574761,0.6595957378999936,A,385.2491000002374,Correct
2,302,502,B,53.587464351100316,27.671957002582737,2.679373217555016,0.4346700841488328,B,1126.2063999997736,Correct
2,302,503,B,73.8515657621522,47.21987480438735,3.69257828810761,0.7417280589444654,B,567.6340999998502,Correct
2,302,504,A,29.01542083926051,59.54860000789231,1.4507710419630255,0.9353872215817579,A,1514.6615000003294,Correct
2,302,505,B,72.98198093278212,46.17951033249357,3.649099046639106,0.7253860520346788,B,820.9037999999964,Correct
2,302,506,B,80.40700721981834,59.47616770079537,4.020350360990917,0.9342494575624664,B,481.0784000001149,Correct
2,302,507,A,37.73949189524653,45.26299164476177,1.8869745947623267,0.7109894101533988,B,568.786799999998,Incorrect
2,302,508,B,51.02039147112413,32.17815361643586,2.5510195735562062,0.5054532550373937,B,465.64119999993636,Correct
2,302,509,B,59.36848017069642,47.310826485952106,2.968424008534821,0.7431567246176426,B,450.7585999999719,Correct
2,302,510,A,50.15252125797334,61.65150742122778,2.5076260628986673,0.968419613986329,A,708.7194000000636,Correct
2,302,511,B,50.75646768584072,37.86215566530877,2.537823384292036,0.594737350436036,B,501.5117999996619,Correct
2,302,512,B,73.16901686996442,53.2005524850108,3.6584508434982212,0.8356723242691408,B,1045.6033000000389,Correct
2,302,513,B,64.44142464658803,50.29478399918916,3.2220712323294016,0.7900286196286908,A,707.6458999999886,Incorrect
2,302,514,B,62.088729549781576,45.79362357138223,3.104436477489079,0.7193245569655539,B,657.7402999996593,Correct
2,302,515,B,80.4590415949318,49.508070693140475,4.022952079746591,0.7776709559148713,B,477.63450000002194,Correct
2,302,516,B,45.09609288638256,30.59171871995421,2.254804644319128,0.4805335939564675,B,737.2213999997257,Correct
2,302,517,A,32.639987555683454,46.40040885640898,1.6319993777841728,0.7288559179342863,A,1005.1115999999638,Correct
2,302,518,A,53.404436359035785,64.85004810132116,2.6702218179517896,1.0186621735002765,A,1395.4756000002817,Correct
2,302,519,A,30.74554791935686,41.02184288505106,1.537277395967843,0.6443696012219556,B,423.09290000002875,Incorrect
2,302,520,A,28.51639253571269,39.19805851687359,1.4258196267856347,0.6157216633579645,A,646.0068000001229,Correct
2,302,521,B,74.38848481180305,59.12591354399853,3.7194242405901523,0.9287476781330553,A,553.3233000001019,Incorrect
2,302,522,B,51.59920393752759,26.757212334280858,2.5799601968763795,0.42030130849959474,B,513.0740999998125,Correct
2,302,523,A,52.8945319403205,70.58244061943472,2.644726597016025,1.1087063846122698,B,567.7008000002388,Incorrect
2,302,524,B,58.26455199884299,38.22934145088746,2.9132275999421493,0.6005050912684191,B,842.1949999997196,Correct
2,302,525,A,28.751463069393644,58.750119172505464,1.4375731534696823,0.9228447139493401,A,410.2341999996497,Correct
2,302,526,B,61.07386391014615,45.2992644585455,3.0536931955073077,0.7115591821799389,B,543.4737000000496,Correct
2,302,527,B,89.93123235646209,66.7193230792868,4.4965616178231045,1.0480246761918566,A,454.9231000000873,Incorrect
2,302,528,A,66.81387875867863,85.7025601528864,3.3406939379339313,1.3462126668507264,A,521.4615999998387,Correct
2,302,529,A,29.18834473478158,40.869112007488795,1.4594172367390792,0.641970510207326,B,715.9575999999106,Incorrect
2,302,530,B,67.96976093304339,52.02521520625372,3.3984880466521696,0.8172101694669733,B,417.7401000001737,Correct
2,302,531,A,53.20963751046841,71.8734285404216,2.6604818755234203,1.1289851754544975,A,547.9841999999735,Correct
2,302,532,A,50.986894309353495,60.2706662893071,2.5493447154676745,0.9467294122072459,A,834.6160999999483,Correct
2,302,533,A,62.68548218489935,77.22754240638054,3.1342741092449677,1.2130873993933966,A,704.4239000001653,Correct
2,302,534,B,69.05036055648173,57.70178477274081,3.4525180278240866,0.9063775157053097,B,991.901400000188,Correct
2,302,535,A,53.726621610037114,61.18256830374309,2.686331080501856,0.9610535355539751,B,639.6445000000313,Incorrect
2,302,536,B,42.48503150125511,26.570403180215514,2.1242515750627553,0.41736691716941965,B,485.7344000001831,Correct
2,302,537,B,62.0663587640229,33.474146445168586,3.1033179382011453,0.5258106627866527,B,418.1404000000839,Correct
2,302,538,B,43.8244070300601,35.43689518114434,2.1912203515030053,0.5566414478355729,B,530.4597999997895,Correct
2,302,539,A,35.58488068772409,47.82083660395249,1.7792440343862044,0.7511679448174753,A,504.8072999998112,Correct
2,302,540,B,68.6714822934637,45.979581560421735,3.4335741146731844,0.7222455782267683,B,455.16029999998864,Correct
2,302,541,B,51.86094365398746,31.833225390419507,2.5930471826993733,0.50003513513305,B,1054.3612000001303,Correct
2,302,542,B,50.146530092203335,24.34087790372797,2.507326504610167,0.38234561602138956,B,573.539399999845,Correct
2,302,543,A,62.73189613853724,78.90172668280377,3.136594806926862,1.2393854245112301,A,551.2266999999156,Correct
2,302,544,B,67.24935623142558,54.426515029751215,3.3624678115712787,0.8549296988898045,B,1961.4294999996673,Correct
2,302,545,A,34.22437783204166,62.899146653865586,1.711218891602083,0.9880174852242557,B,873.1891000002179,Incorrect
2,302,546,B,81.25085253839708,52.537786486864356,4.062542626919854,0.8252616203150108,B,752.9411000000437,Correct
2,302,547,B,42.297167164370876,17.48071690385613,2.1148583582185436,0.2745864590231866,B,446.1802999999236,Correct
2,302,548,B,47.28596235470546,32.002417172326474,2.3642981177352733,0.5026927934284834,B,661.9485000001077,Correct
2,302,549,B,61.89074165201104,45.4406509072656,3.0945370826005516,0.71378007532302,B,509.40410000021075,Correct
