subject,day,trial,cat,x,y,xt,yt,resp,rt,fb
14,314,0,B,71.75519347080153,61.93512734453343,3.5877596735400767,0.9728747053236726,B,529.444699999658,Correct
14,314,1,B,39.54258049051374,14.03180899398469,1.977129024525687,0.22041114026038744,A,563.4439000004932,Incorrect
14,314,2,A,33.15111397384029,60.606482300158305,1.6575556986920146,0.9520043977704858,B,494.4814000009501,Incorrect
14,314,3,B,36.974455832630355,19.961188097522662,1.8487227916315176,0.313549609420506,B,642.3617999989801,Correct
14,314,4,A,50.55566653331245,67.48113140459739,2.527783326665622,1.0599911333830532,B,533.4178000011889,Incorrect
14,314,5,A,18.915631096521167,33.57087200748823,0.9457815548260584,0.5273300243666412,A,498.6941000006482,Correct
14,314,6,A,22.49616453686322,50.979760827831406,1.124808226843161,0.8007882104923992,B,981.7038000001048,Incorrect
14,314,7,B,69.02273646990243,59.75626017085783,3.4511368234951214,0.9386491397938366,A,555.7946999997512,Incorrect
14,314,8,A,10.150044718696947,33.26890687643185,0.5075022359348473,0.5225867671798062,A,563.2688000005146,Correct
14,314,9,A,49.568842125955975,76.16916924392771,2.478442106297799,1.1964625126338047,B,589.4979000004241,Incorrect
14,314,10,B,56.91182792666008,31.328791095817095,2.845591396333004,0.4921114997623416,B,518.9155999996728,Correct
14,314,11,A,47.27881119232458,70.83866354092169,2.3639405596162293,1.1127311248513936,B,579.5881999983976,Incorrect
14,314,12,A,43.48380749398701,59.91817691057878,2.1741903746993505,0.9411925219938392,B,1525.269699999626,Incorrect
14,314,13,A,18.10083840259498,34.14807560728838,0.9050419201297489,0.53639671731043,A,689.1709999999875,Correct
14,314,14,A,21.957260643098866,34.076602616167364,1.0978630321549432,0.5352740221912506,A,858.828899999935,Correct
14,314,15,B,50.44020835086753,38.812186420860144,2.522010417543376,0.6096603986476589,B,469.8570999989897,Correct
14,314,16,A,29.83193383466884,56.481386218402676,1.4915966917334418,0.8872075400415081,B,998.991800001022,Incorrect
14,314,17,A,33.137858904890734,66.29554665069313,1.6568929452445367,1.0413680116176847,B,848.6480000010488,Incorrect
14,314,18,B,36.41695718912123,19.39676998737483,1.8208478594560615,0.3046837504785388,B,490.0861000005534,Correct
14,314,19,B,59.07750581414007,39.53861294278038,2.9538752907070034,0.6210710797708457,B,479.0726999999606,Correct
14,314,20,B,59.98714772509046,40.82253082762126,2.999357386254523,0.641238814744989,B,496.42390000008163,Correct
14,314,21,B,37.65092428153825,25.453404986766156,1.8825462140769127,0.3998211505763518,B,539.5242999984475,Correct
14,314,22,A,61.842568411058636,80.25576086996487,3.0921284205529322,1.2606545437867043,B,508.90269999945303,Incorrect
14,314,23,B,44.55143311538352,29.051573340311876,2.227571655769176,0.4563410469057444,B,401.0521999989578,Correct
14,314,24,B,47.924580419438605,29.90952157317144,2.3962290209719304,0.46981766623330407,B,511.13839999925403,Correct
14,314,25,A,59.333537474216186,72.1399701804389,2.9666768737108096,1.1331720017452678,B,396.40759999929287,Incorrect
14,314,26,B,86.20053394671734,65.54022081056448,4.310026697335867,1.0295033810656113,B,479.4638000003033,Correct
14,314,27,B,38.698189020235816,16.258178509962175,1.9349094510117908,0.25538287083824307,A,591.4518999998108,Incorrect
14,314,28,B,37.15618899118327,21.287849052175048,1.8578094495591637,0.33438875096520787,A,456.606699999611,Incorrect
14,314,29,B,46.67518307494326,22.830903621319816,2.333759153747163,0.3586269954577747,B,545.6503000004886,Correct
14,314,30,B,35.634379506587564,20.415930482811003,1.781718975329378,0.32069268610499485,B,479.51780000039435,Correct
14,314,31,B,50.3201828533348,43.435667740234265,2.51600914266674,0.6822858733824356,A,617.1873000002961,Incorrect
14,314,32,A,36.230106027288144,55.100101734047186,1.8115053013644071,0.8655103740986644,B,383.5332999988168,Incorrect
14,314,33,A,16.04279732729886,35.90288285028747,0.8021398663649429,0.5639611650257904,A,560.3497000010975,Correct
14,314,34,A,47.283426496920434,54.490149496455096,2.364171324846022,0.8559292667553644,B,613.8915000010456,Incorrect
14,314,35,B,44.015800791572694,21.441344756473324,2.2007900395786346,0.3367998558501131,B,733.6266999991494,Correct
14,314,36,B,70.16536712095885,54.881341982982946,3.508268356047943,0.8620741039644416,B,510.83900000048743,Correct
14,314,37,B,36.843033348901095,27.230201877329733,1.8421516674450547,0.4277310108679304,B,577.5534999993397,Correct
14,314,38,A,31.772674965929532,63.924485389404225,1.5886337482964765,1.004123468419302,A,790.826599999491,Correct
14,314,39,A,50.529881110632786,61.25999240124045,2.5264940555316393,0.9622697104335177,A,919.915200000105,Correct
14,314,40,A,47.87679666834057,68.00360993749078,2.3938398334170286,1.0681982069860345,A,671.3970999990124,Correct
14,314,41,A,37.04470212445615,61.77559908496029,1.8522351062228075,0.9703688412820979,A,520.819899998969,Correct
14,314,42,B,83.8813611407312,58.850345394679245,4.19406805703656,0.9244190637657311,B,487.6887999998871,Correct
14,314,43,A,37.81735194084954,60.21212152689919,1.8908675970424769,0.9458097932298116,B,661.2646000012319,Incorrect
14,314,44,A,51.74718232037267,67.77032636517946,2.5873591160186336,1.0645337972011524,A,428.7257999985741,Correct
14,314,45,A,13.998844966903526,32.20397951611603,0.6999422483451764,0.5058589273209315,A,550.400999998601,Correct
14,314,46,A,46.37217139119363,60.55705962102576,2.3186085695596814,0.951228068142068,A,717.0145999989472,Correct
14,314,47,A,20.780500286553135,45.530431766807574,1.0390250143276567,0.7151903497668701,A,628.2336999993277,Correct
14,314,48,A,40.94024770259284,67.59502478797143,2.047012385129642,1.061780166465555,A,843.1408999986161,Correct
14,314,49,A,64.67608121976482,75.76591175406462,3.233804060988241,1.1901281587955097,B,613.3694000000105,Incorrect
14,314,50,A,20.897902959801595,35.51293159820014,1.0448951479900799,0.5578358250817119,A,523.1590000003052,Correct
14,314,51,B,75.5560574487084,64.7045384585437,3.7778028724354202,1.0163765133763956,B,558.5072999983822,Correct
14,314,52,A,26.91590159126529,59.353807614528684,1.3457950795632643,0.9323274298219262,A,544.9835999988863,Correct
14,314,53,B,48.0088206597749,26.50203239036192,2.400441032988745,0.41629295131379873,B,534.8315000010189,Correct
14,314,54,B,68.3116833804691,50.48075805242206,3.415584169023455,0.7929498932256647,B,602.4426999993011,Correct
14,314,55,A,46.98696841201942,67.41221403667004,2.349348420600971,1.0589085818991266,B,721.3325000011537,Incorrect
14,314,56,A,15.854427500511186,37.24132490516832,0.7927213750255592,0.5849853636601369,A,579.5364000005065,Correct
14,314,57,B,61.780439337812325,45.2427436913934,3.0890219668906163,0.7106713560456372,B,467.7928000000975,Correct
14,314,58,B,41.773226035983726,31.03565167954117,2.088661301799186,0.4875068765790914,A,563.561099999788,Incorrect
14,314,59,B,52.694750579293974,25.06657104762506,2.6347375289646986,0.39374477726952745,B,420.6926000006206,Correct
14,314,60,B,35.557357439351335,18.901821465784753,1.7778678719675667,0.2969091172818762,B,433.1137999997736,Correct
14,314,61,B,72.97708947520934,41.29625724881194,3.6488544737604673,0.6486800919681092,B,593.41570000106,Correct
14,314,62,B,48.248224090184735,40.63619782002426,2.4124112045092367,0.6383119027060489,B,525.0281000007817,Correct
14,314,63,A,45.08477148260349,55.762576020003266,2.2542385741301745,0.8759164958484231,B,508.730800000194,Incorrect
14,314,64,A,42.827697048822074,51.216213203955256,2.141384852441104,0.8045023957311719,B,580.2149999999529,Incorrect
14,314,65,A,26.425289593523658,36.14251213686359,1.3212644796761828,0.567725253057253,A,427.99209999975574,Correct
14,314,66,B,71.94184428105034,41.317997116569266,3.597092214052517,0.6490215810122913,B,472.13489999921876,Correct
14,314,67,B,51.2552317236349,34.957477298181665,2.562761586181745,0.5491107693399975,B,728.6914000014804,Correct
14,314,68,A,66.68530481715348,85.11376410917057,3.3342652408576736,1.3369638802237243,B,703.3152000003611,Incorrect
14,314,69,B,38.01858957010562,27.76781568743331,1.900929478505281,0.43617582884937944,A,895.3431000009004,Incorrect
14,314,70,A,50.40845007399803,79.2200240248294,2.5204225036999017,1.2443852274680547,B,525.7292000005691,Incorrect
14,314,71,B,75.88771185679505,43.209986456031146,3.794385592839752,0.6787408800599095,B,506.42420000076527,Correct
14,314,72,B,65.80229806345308,33.56401244901076,3.290114903172654,0.5272222746740428,B,469.7465999997803,Correct
14,314,73,A,54.90786453752433,80.74485418684142,2.745393226876217,1.2683372036428002,B,487.6760999995895,Incorrect
14,314,74,A,40.684358199661794,48.23450898786777,2.0342179099830897,0.757665895428981,B,434.1809000015928,Incorrect
14,314,75,A,16.31848765835944,38.09868167687219,0.8159243829179721,0.5984526923375886,A,633.3684000001085,Correct
14,314,76,A,67.97950294074576,82.41750548470466,3.398975147037288,1.2946111487897234,B,437.8063000003749,Incorrect
14,314,77,A,47.428705000211764,72.97421324375128,2.371435250010588,1.14627626114032,A,731.8644000006316,Correct
14,314,78,B,55.35258393682676,41.113543882494,2.7676291968413382,0.6458100371214236,B,543.2156000006216,Correct
14,314,79,B,83.28271619097802,67.06649136005838,4.164135809548901,1.0534779827940137,B,495.4985999993369,Correct
14,314,80,B,35.52886834959633,20.142648972905228,1.7764434174798165,0.3163999901855853,B,623.816799999986,Correct
14,314,81,B,61.5871080920026,45.74992839650668,3.07935540460013,0.7186381947636222,A,624.6552000011434,Incorrect
14,314,82,B,45.90237866786007,38.286364204942814,2.2951189333930033,0.6014008025945579,B,558.7310999999318,Correct
14,314,83,B,67.46454147634553,37.164510374897844,3.3732270738172763,0.5837787638402037,B,444.5244000016828,Correct
14,314,84,B,67.47949179246321,37.63331569543848,3.37397458962316,0.5911427405950749,B,625.7958999995026,Correct
14,314,85,A,13.2477342158003,35.47492167015553,0.6623867107900151,0.5572387665281698,A,564.8356000001513,Correct
14,314,86,A,56.373574814319824,71.64576073770264,2.818678740715991,1.1254089779720933,B,559.3325999998342,Incorrect
14,314,87,A,40.48359164725161,66.33813091253066,2.0241795823625806,1.0420369236384213,A,913.023199998861,Correct
14,314,88,A,12.566933005282756,34.53618419763944,0.6283466502641378,0.5424931127916399,A,555.5430999993405,Correct
14,314,89,A,25.472922013108732,57.509593562326856,1.2736461006554365,0.9033585832317044,A,1034.1640999995434,Correct
14,314,90,B,52.809807268830426,43.000052247744186,2.640490363441521,0.6754432412274519,A,590.6032999992021,Incorrect
14,314,91,B,38.40085357574495,14.845027187620065,1.9200426787872473,0.23318514177483973,B,662.3348000011902,Correct
14,314,92,B,72.29150801893012,50.290454666895094,3.614575400946506,0.7899606146360406,B,440.8408999988751,Correct
14,314,93,B,49.494592888312766,27.301567976936433,2.474729644415638,0.4288520269391292,A,974.0904999998747,Incorrect
14,314,94,B,50.08271651173261,20.409992171431508,2.5041358255866304,0.3205994073279721,B,612.4797999982547,Correct
14,314,95,A,19.661399991491525,36.06938647293627,0.9830699995745762,0.5665765978143382,A,854.3786000009277,Correct
14,314,96,A,56.12251641346637,80.19452159963028,2.8061258206733184,1.2596925995777324,B,433.16889999914565,Incorrect
14,314,97,B,76.83259016335315,52.416641458978546,3.841629508167657,0.8233586786668858,B,611.6846999993868,Correct
14,314,98,A,64.3686491152466,87.79136775024985,3.21843245576233,1.379023579863924,B,1343.5384000003978,Incorrect
14,314,99,B,78.36235748360548,57.122094443541165,3.918117874180274,0.8972717613074563,B,806.4942000000883,Correct
14,314,100,A,39.5876219085495,67.62026464094696,1.9793810954274749,1.062176633148983,B,496.1617999997543,Incorrect
14,314,101,B,76.30688441429609,45.441748076516106,3.8153442207148043,0.7137973096173055,B,446.50800000090385,Correct
14,314,102,B,42.267476079372685,27.218637418683223,2.113373803968634,0.42754935677629735,B,673.0019000005996,Correct
14,314,103,A,26.368636305126252,48.084898280473766,1.3184318152563126,0.7553158159327443,A,965.6887000001007,Correct
14,314,104,B,43.48197273832412,17.660117685361065,2.174098636916206,0.27740447990930756,B,479.91580000052636,Correct
14,314,105,B,79.85800468733288,61.24454982035813,3.992900234366644,0.962027138940256,B,644.065500000579,Correct
14,314,106,B,72.25535417241122,48.88026407394172,3.6127677086205607,0.7678093926011219,B,468.4003999991546,Correct
14,314,107,B,53.374882788677574,33.99792400506457,2.668744139433879,0.5340381414580746,B,462.8866000002745,Correct
14,314,108,B,45.89789450276632,36.53228024197019,2.294894725138316,0.5738477161352855,B,456.5622000009171,Correct
14,314,109,A,35.687131972407016,44.15125368949952,1.784356598620351,0.6935262711885547,B,414.8981999987882,Incorrect
14,314,110,B,64.54884727791949,55.34696426822918,3.2274423638959746,0.8693880817178279,B,499.6123999990232,Correct
14,314,111,B,58.002124812307464,45.980834688532774,2.9001062406153735,0.7222652623171063,B,534.6493999986706,Correct
14,314,112,B,48.10546308968054,24.752003011373468,2.405273154484027,0.3888035541108166,B,619.9295999995229,Correct
14,314,113,B,46.18908213618975,28.139636052294094,2.309454106809487,0.4420163694828881,B,441.96569999985513,Correct
14,314,114,B,69.12115718087229,55.07371357440977,3.4560578590436144,0.8650958698563711,B,437.9160000007687,Correct
14,314,115,A,22.0666277766717,33.39496988068022,1.1033313888335852,0.5245669602199869,A,552.4229000002379,Correct
14,314,116,A,28.44606652673459,47.95810366640645,1.4223033263367295,0.7533241307924012,B,435.4198000000906,Incorrect
14,314,117,B,53.941528827097734,30.084060471447707,2.697076441354887,0.4725593168362559,B,564.5715999999084,Correct
14,314,118,A,47.52328437904904,71.63730815768037,2.376164218952452,1.125276205155584,A,905.2783999995881,Correct
14,314,119,A,24.862345984092258,39.12815493972113,1.243117299204613,0.6146236205357554,B,552.4836000004143,Incorrect
14,314,120,A,38.10034888369372,70.8409561729639,1.905017444184686,1.1127671374312995,A,526.2980999996216,Correct
14,314,121,B,44.50632075133861,21.024461119683217,2.2253160375669307,0.3302514629964051,B,458.4273000000394,Correct
14,314,122,A,29.06054116332124,41.35628251339242,1.4530270581660618,0.6496229666192883,A,607.9803000011452,Correct
14,314,123,A,29.75855525259866,50.22046671797915,1.487927762629933,0.7888612465052701,A,605.7643999993161,Correct
14,314,124,B,72.4154587840082,40.797248819180176,3.6207729392004095,0.6408416858850565,B,434.47960000048624,Correct
14,314,125,A,36.85442350144247,69.68019498267974,1.8427211750721233,1.0945339432914551,A,580.1406000009592,Correct
14,314,126,B,85.26682950117346,66.38322076791083,4.263341475058673,1.04274519343049,B,488.01259999891045,Correct
14,314,127,B,82.91530508762254,57.55728051865313,4.145765254381127,0.9041076481900379,B,457.43100000072445,Correct
14,314,128,B,61.07561337414651,52.55249369920261,3.053780668707326,0.825492640666194,B,377.1447999988595,Correct
14,314,129,B,41.20494943299336,31.67031376112348,2.060247471649668,0.4974761252441463,B,449.2223000015656,Correct
14,314,130,A,17.64380953142576,45.88625784738486,0.882190476571288,0.7207796527703563,A,474.02690000126313,Correct
14,314,131,B,49.75289865974702,23.95884978378923,2.487644932987351,0.37634473234606824,B,554.0319000010641,Correct
14,314,132,A,32.45081766216159,42.06136509145099,1.6225408831080796,0.660698377856303,A,536.6429000005155,Correct
14,314,133,B,53.120843932302655,46.019541138009004,2.656042196615133,0.7228732618037117,B,426.6301999996358,Correct
14,314,134,A,17.124809424614998,43.67706552635529,0.8562404712307499,0.6860777409397889,A,619.1872999988846,Correct
14,314,135,B,45.144421364624165,24.783417392715094,2.2572210682312086,0.3892970100590163,B,542.7931000012904,Correct
14,314,136,A,58.18025613003495,79.11351726800342,2.9090128065017473,1.2427122232440437,B,494.26520000088203,Incorrect
14,314,137,A,29.998344981575386,40.72163682485416,1.499917249078769,0.6396539754555671,A,477.15880000032485,Correct
14,314,138,B,52.83512425049895,36.348088202828926,2.6417562125249474,0.5709544343502059,B,381.69630000084,Correct
14,314,139,B,61.38465678818971,40.7132130047174,3.0692328394094854,0.6395216543982832,B,417.0713000003161,Correct
14,314,140,A,59.95192395897176,74.62065858582932,2.997596197948588,1.1721385640963675,A,600.7970999999088,Correct
14,314,141,B,79.48952792860946,57.766003274119896,3.974476396430473,0.907386257566095,B,415.1400000009744,Correct
14,314,142,B,55.12686790938335,30.885710239888837,2.7563433954691674,0.485151601952689,B,386.2230000013369,Correct
14,314,143,B,65.54598161516002,55.530186320003295,3.277299080758001,0.8722661269769738,B,537.6689000004262,Correct
14,314,144,B,73.44675796369114,58.282459255622086,3.672337898184557,0.9154987291530439,B,467.66740000020945,Correct
14,314,145,B,66.30660357824092,45.349808358919674,3.3153301789120464,0.7123531239104353,B,407.23829999842565,Correct
14,314,146,B,82.39141818039464,64.39606443879052,4.119570909019732,1.011531014804996,B,440.61129999863624,Correct
14,314,147,B,37.33995247764804,19.393870431789612,1.866997623882402,0.30463820436591277,A,582.438400000683,Incorrect
14,314,148,B,66.62443246752066,50.331309431027485,3.331221623376033,0.790602359770353,B,420.7845000000816,Correct
14,314,149,A,49.74698953232859,62.50314355253271,2.4873494766164295,0.9817970830545251,B,407.7765999991243,Incorrect
14,314,150,A,63.03843345520198,81.9121254989354,3.151921672760099,1.286672658536903,A,473.2285000009142,Correct
14,314,151,B,81.67068052288911,57.83657067803183,4.083534026144456,0.9084947277546582,B,598.7542999992002,Correct
14,314,152,A,42.69184751944413,73.39142997990861,2.1345923759722067,1.1528298863066528,A,687.0483000002423,Correct
14,314,153,A,34.34824051586745,55.50652197172905,1.7174120257933725,0.8718944082635222,A,777.0149999996647,Correct
14,314,154,B,51.32538217832238,29.675892344952018,2.566269108916119,0.4661478268981142,B,1141.1803000009968,Correct
14,314,155,A,44.669935541743,62.05419280234391,2.23349677708715,0.9747449811614413,B,766.2789999994857,Incorrect
14,314,156,B,80.96821499895464,65.6884426663493,4.048410749947732,1.0318316445317863,A,1179.0100999987772,Incorrect
14,314,157,B,65.00233669658502,52.97767876889439,3.250116834829251,0.8321714321229928,B,521.3089999997464,Correct
14,314,158,A,39.891602541668014,49.88853685167303,1.9945801270834007,0.7836473043577984,B,1036.1482000007527,Incorrect
14,314,159,B,65.04856531644572,36.68582101290703,3.252428265822286,0.5762595289252939,B,908.159099999466,Correct
14,314,160,A,36.06895558351835,58.55314281488011,1.8034477791759176,0.9197506165591068,A,822.1152999994956,Correct
14,314,161,B,54.47695398369234,37.00408115793769,2.723847699184617,0.5812587475930877,B,1316.7351000010967,Correct
14,314,162,B,38.13203877722006,15.969177038780781,1.906601938861003,0.2508432463445425,A,1069.851700000072,Incorrect
14,314,163,A,26.366293595276353,38.198382419395614,1.3183146797638177,0.6000187879389338,B,499.93699999868113,Incorrect
14,314,164,B,71.51967972326065,40.22667840331306,3.5759839861630325,0.6318791867508374,B,634.2715000009775,Correct
14,314,165,A,29.832777007170193,48.45678506193509,1.4916388503585096,0.7611573998357745,A,1165.419800001473,Correct
14,314,166,A,46.79595791252397,53.66484190505781,2.3397978956261984,0.8429653654249366,B,1119.302900000548,Incorrect
14,314,167,B,44.56586376415912,21.284470530909502,2.228293188207956,0.33433568127726865,B,644.3027999994229,Correct
14,314,168,B,51.0175267317491,32.488456353258,2.5508763365874554,0.51032747902934,B,624.9962000001688,Correct
14,314,169,A,56.06083827797048,70.8608415385361,2.803041913898524,1.1130794960232773,B,936.1892999986594,Incorrect
14,314,170,B,32.43164462491446,11.454267974805063,1.621582231245723,0.17992322060948215,A,559.636899999532,Incorrect
14,314,171,B,63.707882754972324,45.36613067942872,3.185394137748616,0.712609514321439,B,623.6418000007689,Correct
14,314,172,B,43.63842103447183,31.26230359210812,2.1819210517235916,0.49106711649630336,B,628.6120999993727,Correct
14,314,173,B,47.35012277428304,25.82623037793693,2.367506138714152,0.40567747812622107,B,546.7142999987118,Correct
14,314,174,A,59.177685314551596,73.53772712492679,2.95888426572758,1.1551279164868045,B,574.3495999995503,Incorrect
14,314,175,B,42.14868035908683,30.068962577311538,2.1074340179543416,0.47232215966974167,B,550.8945999990829,Correct
14,314,176,A,20.347095541972234,42.07347897966902,1.0173547770986118,0.6608886623674639,A,608.8803000002372,Correct
14,314,177,B,44.47881554290551,34.48255386887691,2.2239407771452755,0.54165068955739,A,699.3682000011177,Incorrect
14,314,178,A,49.806410640227945,74.14573877194248,2.4903205320113972,1.1646785411046119,B,710.684499999843,Incorrect
14,314,179,B,46.84397805727108,16.703583921044995,2.342198902863554,0.2623792826748777,B,555.395999999746,Correct
14,314,180,B,75.31638806624782,64.27192615254754,3.7658194033123915,1.0095810551645454,B,770.295399999668,Correct
14,314,181,B,53.87708858910935,45.6682366359622,2.6938544294554676,0.7173549835896954,B,517.6277000009577,Correct
14,314,182,A,43.16995445068049,58.8581628750475,2.1584977225340247,0.9245418604602037,B,476.8072000006214,Incorrect
14,314,183,B,63.5534999514923,39.96938121944956,3.177674997574615,0.6278375720377629,B,510.76540000030946,Correct
14,314,184,B,52.53660969674838,37.584849813748754,2.626830484837419,0.5903814403057439,B,492.57289999877685,Correct
14,314,185,A,44.82362693098161,69.28627896334359,2.2411813465490806,1.0883463249290664,B,434.92390000028536,Incorrect
14,314,186,A,31.64898619790814,56.04994432487493,1.582449309895407,0.88043046662572,A,594.676900000195,Correct
14,314,187,B,81.8207777162497,59.83219772503355,4.091038885812485,0.9398419641054866,B,640.229200000249,Correct
14,314,188,A,38.04879308307581,70.06095536555864,1.9024396541537902,1.1005149133996073,B,740.3733999999531,Incorrect
14,314,189,A,63.230022381745826,73.72337048769681,3.161501119087291,1.1580439956101345,B,1200.8025000013731,Incorrect
14,314,190,A,40.32180235152284,70.303848516098,2.0160901175761423,1.1043302700863158,A,673.3800000001793,Correct
14,314,191,A,66.21696060220623,78.82083529242183,3.310848030110311,1.2381147855224177,B,627.2943000003579,Incorrect
14,314,192,B,49.93125931191318,26.842723236274395,2.496562965595659,0.4216445106071184,B,496.85479999970994,Correct
14,314,193,B,60.79485769560469,53.1686118262909,3.039742884780235,0.8351706015752144,B,397.5524999987101,Correct
14,314,194,A,58.17630676881169,66.9514514312348,2.9088153384405846,1.0516709398177055,B,508.4624999999505,Incorrect
14,314,195,A,26.952788219877625,36.75434476600064,1.3476394109938812,0.5773358975218703,A,598.1424000001425,Correct
14,314,196,A,28.87729551355408,42.339846127793194,1.443864775677704,0.6650727477459868,A,940.7983000000968,Correct
14,314,197,A,50.54734572946312,80.67199954217074,2.5273672864731562,1.2671928055604138,B,642.8383000002214,Incorrect
14,314,198,B,57.18942500620987,35.74836900691504,2.8594712503104938,0.5615340672497068,A,606.4544999990176,Incorrect
14,314,199,A,29.719545946885262,54.79804541748663,1.485977297344263,0.8607656845732791,A,595.9746999997151,Correct
14,314,200,B,70.07792153214089,36.96657253864378,3.5038960766070444,0.5806695635789875,B,523.7514000000374,Correct
14,314,201,B,49.46222512334885,32.477216563984136,2.4731112561674427,0.5101509248322865,B,557.9436999996688,Correct
14,314,202,B,63.82892286401103,36.483631719265844,3.1914461432005514,0.5730835469276057,B,486.53050000029907,Correct
14,314,203,A,38.842145956160586,63.10433699355437,1.9421072978080292,0.9912406075430251,B,816.1877000002278,Incorrect
14,314,204,A,39.302671236858096,53.634652796447334,1.9651335618429047,0.8424911560157909,A,1407.1095999988756,Correct
14,314,205,A,47.42597651503764,66.4236451225665,2.371298825751882,1.043380177708552,B,692.6659000000654,Incorrect
14,314,206,B,88.23411437343378,64.92858054097212,4.411705718671689,1.019895758177656,B,992.5002999989374,Correct
14,314,207,A,25.44079421818284,44.93245553721813,1.2720397109091421,0.7057973611173725,A,690.7178000001295,Correct
14,314,208,A,40.78464206627169,57.53734857579625,2.0392321033135845,0.9037945579637832,A,668.948200000159,Correct
14,314,209,B,47.82245702039221,31.733618346679037,2.3911228510196105,0.4984705113487457,B,567.200599998614,Correct
14,314,210,B,67.33948500344961,41.841330801648915,3.366974250172481,0.6572420873144028,B,475.6330000000162,Correct
14,314,211,A,38.521458588872875,64.25170240021333,1.9260729294436436,1.0092633812057394,B,1087.2328999994352,Incorrect
14,314,212,A,67.12000766357289,89.58191981241302,3.3560003831786447,1.4071495058857335,B,878.1407000005856,Incorrect
14,314,213,A,47.67240572880915,64.62514691702337,2.3836202864404576,1.0151294339584085,A,874.0409999991243,Correct
14,314,214,A,28.191655447341926,44.1088754742203,1.4095827723670962,0.6928605957395875,B,1273.7736999988556,Incorrect
14,314,215,A,24.24309291316169,40.32257360614797,1.2121546456580845,0.6333855050745407,A,1013.6457000007795,Correct
14,314,216,B,47.1538294385479,35.114439767314124,2.3576914719273954,0.5515763300395767,B,610.8841999994183,Correct
14,314,217,B,39.2945766725301,25.993934381946907,1.964728833626505,0.4083117664610978,B,403.76970000033907,Correct
14,314,218,A,14.1288486963226,30.470538437117398,0.7064424348161299,0.4786300985248672,A,629.9643999991531,Correct
14,314,219,B,33.015980284731114,14.821369110255091,1.6507990142365556,0.23281352156460042,A,728.163300000233,Incorrect
14,314,220,A,68.37216764950949,87.49991501605368,3.4186083824754747,1.3744454510208273,B,549.7125000001688,Incorrect
14,314,221,B,36.81288766109098,24.13231640686022,1.8406443830545494,0.3790695396894824,A,499.2545000004611,Incorrect
14,314,222,A,59.927615500890276,78.0226577697494,2.9963807750445137,1.2255770423149766,B,492.1233000004577,Incorrect
14,314,223,A,47.417670645236996,66.48937449791457,2.37088353226185,1.0444126523221449,B,494.06050000106916,Incorrect
14,314,224,B,49.08334824488371,27.43359186822168,2.4541674122441854,0.4309258533739295,A,440.5723999989277,Incorrect
14,314,225,A,50.45673468703403,73.5770703337563,2.5228367343517015,1.1557459181659413,B,685.2851999992708,Incorrect
14,314,226,B,52.37489296079802,44.26073127380448,2.6187446480399013,0.6952459410614809,B,565.8268999995926,Correct
14,314,227,B,55.143754502141704,45.38436516570331,2.757187725107085,0.71289594096205,B,888.5824000008142,Correct
14,314,228,A,27.06006182457795,58.80043896374275,1.3530030912288975,0.9236351353817462,A,727.5208000010025,Correct
14,314,229,B,51.40933904121351,43.88926564292306,2.5704669520606753,0.6894109725762899,B,814.9831999999151,Correct
14,314,230,B,57.91687169352278,49.98460205142658,2.8958435846761392,0.7851562929868551,B,518.6942999989697,Correct
14,314,231,B,43.511099463133334,15.576387874019353,2.175554973156667,0.24467332857242166,B,704.9087999985204,Correct
14,314,232,B,66.40185786539861,41.70436428575663,3.3200928932699303,0.6550906223138279,B,510.2170999998634,Correct
14,314,233,A,32.11780017717438,54.3954969789033,1.6058900088587191,0.8544424684864419,A,580.8734000002005,Correct
14,314,234,A,35.737752781575814,53.78490138799196,1.7868876390787907,0.8448512553728349,B,587.7368999990722,Incorrect
14,314,235,B,48.02187749101597,34.05659719885551,2.4010938745507984,0.534959777830956,B,433.0202000001009,Correct
14,314,236,B,82.37121884604628,54.37493854298422,4.118560942302314,0.8541195373301786,B,768.7470999990182,Correct
14,314,237,A,59.55944693587307,85.77114369871364,2.9779723467936536,1.3472899746693663,B,790.2971000003163,Incorrect
14,314,238,A,46.943466084548035,68.63849895306882,2.347173304227402,1.0781710203219583,A,656.8012999996427,Correct
14,314,239,B,58.6759754819235,36.37709967579671,2.933798774096175,0.5714101455019329,B,427.58360000152607,Correct
14,314,240,B,50.29306397843343,31.933491601336634,2.5146531989216716,0.5016101130911527,B,424.81539999971574,Correct
14,314,241,B,53.87994938311332,30.606613377004397,2.693997469155666,0.4807675586823005,B,350.34430000087013,Correct
14,314,242,B,51.59378623572344,38.799027712547556,2.579689311786172,0.609453702140831,B,441.9637999999395,Correct
14,314,243,B,52.2742344920582,43.52597772693715,2.61371172460291,0.6837044593362935,B,624.8384999998962,Correct
14,314,244,B,88.2636584606174,68.14302185594275,4.41318292303087,1.0703880842801923,B,507.11319999936677,Correct
14,314,245,A,39.19191607018319,56.63995376086761,1.9595958035091596,0.8896983131740364,B,396.49000000099477,Incorrect
14,314,246,A,39.252259986867045,69.26995140759297,1.9626129993433523,1.0880898522830802,A,567.2576000015397,Correct
14,314,247,A,19.825983250896194,47.75108256861271,0.9912991625448098,0.7500722509925667,A,625.2669999994396,Correct
14,314,248,B,63.03366995452474,32.878664559491185,3.151683497726237,0.516456855199703,B,1120.6797000013466,Correct
14,314,249,B,83.27322102308754,60.59481606677749,4.163661051154377,0.9518211450050647,B,466.0593999997218,Correct
14,314,250,A,12.751488142925893,33.386802796370766,0.6375744071462947,0.5244386719596478,A,624.4513999990886,Correct
14,314,251,B,58.33883615737696,49.67616365084387,2.916941807868848,0.780311353920077,B,864.1556000002311,Correct
14,314,252,A,35.720216680562324,43.28467447644225,1.786010834028116,0.679914076741083,B,1032.2176999998192,Incorrect
14,314,253,A,22.382560630265175,36.7157997348882,1.1191280315132588,0.5767304335889942,A,692.3507999999856,Correct
14,314,254,B,57.781448343286634,35.35826788662858,2.889072417164332,0.5554063731814612,B,538.4507999988273,Correct
14,314,255,B,74.10237652906508,58.92518013657009,3.705118826453254,0.925594565142519,B,522.705200000928,Correct
14,314,256,A,39.72954893948602,53.90935684270124,1.9864774469743012,0.8468061970839044,B,691.3048000005801,Incorrect
14,314,257,B,55.905460480201576,47.40653269190299,2.7952730240100787,0.7446600741852339,B,529.9214999995456,Correct
14,314,258,B,72.68522036200201,48.4820760714363,3.634261018100101,0.761554670084029,B,523.6110999994708,Correct
14,314,259,B,57.21232086618183,29.121177785649337,2.8606160433090912,0.4574343909763912,B,532.1784999996453,Correct
14,314,260,A,52.70448950149392,70.67602584713346,2.6352244750746956,1.110176417931384,B,715.3706999997667,Incorrect
14,314,261,B,51.34438028417098,32.33233391372191,2.567219014208549,0.5078751134838044,A,483.64369999944756,Incorrect
14,314,262,A,43.86969686994021,64.24094985339185,2.1934848434970107,1.0090944805952307,B,696.3682999994489,Incorrect
14,314,263,A,33.86262295256414,62.582678607669806,1.693131147628207,0.9830464167791327,B,512.1048000000883,Incorrect
14,314,264,A,30.055334378423687,50.802660317327394,1.5027667189211842,0.7980063221786673,A,587.1467999986635,Correct
14,314,265,B,73.49841983293189,48.51203855669307,3.674920991646594,0.7620253197018586,B,469.08890000122483,Correct
14,314,266,A,15.198063706120234,43.09063933017309,0.7599031853060118,0.6768661797907959,A,495.91829999917536,Correct
14,314,267,A,17.95529469011085,42.921692937560664,0.8977647345055425,0.6742123760613874,A,502.50839999898744,Correct
14,314,268,A,37.68785668518181,58.46742464384023,1.8843928342590908,0.9184041586770165,B,591.3491000010254,Incorrect
14,314,269,B,56.74048658423366,33.4755048418279,2.837024329211683,0.5258320004314804,B,637.7128000003722,Correct
14,314,270,A,10.404348012838575,31.440603465337624,0.5202174006419288,0.4938678443556723,A,545.6090000006952,Correct
14,314,271,B,52.91828403406247,35.94267725502942,2.6459142017031234,0.564586254073747,B,878.287999999884,Correct
14,314,272,B,77.32509905435529,52.514207973327885,3.8662549527177648,0.8248912498904671,B,612.3619999998482,Correct
14,314,273,A,43.097473387641806,73.87640161990105,2.15487366938209,1.160447803013651,B,590.899900000295,Incorrect
14,314,274,A,45.215183927125395,67.3670921912548,2.2607591963562697,1.058199809608762,B,667.0103999986168,Incorrect
14,314,275,B,74.96233534653118,58.83365391496007,3.7481167673265587,0.9241568746154145,B,898.2144999990851,Correct
14,314,276,A,25.397494772973815,37.639667873368694,1.2698747386486908,0.5912425203726742,B,1231.186400000297,Incorrect
14,314,277,B,52.758593345347855,22.10803812146021,2.6379296672673926,0.34727225073831247,B,557.0079000008263,Correct
14,314,278,A,29.23792172173009,45.93269430297216,1.4618960860865045,0.7215090749090155,B,1113.437400001203,Incorrect
14,314,279,A,39.986740383492595,47.85761468155456,1.9993370191746296,0.7517456535095142,B,1374.4338000014977,Incorrect
14,314,280,A,38.198528837500184,55.592712406817185,1.9099264418750093,0.873248284451935,B,549.3607999997039,Incorrect
14,314,281,A,20.293870787522984,51.280681939801404,1.0146935393761494,0.8055150682657745,B,627.454299999954,Incorrect
14,314,282,B,74.17099075416596,63.37561454021852,3.7085495377082975,0.9955018252814448,B,571.1531000015384,Correct
14,314,283,A,28.112137566985375,42.66559659334942,1.4056068783492688,0.6701896240934613,B,587.7515000011044,Incorrect
14,314,284,A,29.025480077466007,46.301226395469875,1.4512740038733003,0.7272979634810298,B,556.0312999987218,Incorrect
14,314,285,B,40.0104478610933,18.447457648234376,2.000522393054665,0.28977198712550983,A,577.5828000005276,Incorrect
14,314,286,B,73.72029130431517,56.08386622382865,3.6860145652157588,0.8809633105684641,B,484.87390000082087,Correct
14,314,287,B,49.50877089239229,32.47495409928828,2.4754385446196148,0.5101153861199491,B,542.2490000000835,Correct
14,314,288,B,54.35786072873861,31.794423867701184,2.71789303643693,0.4994256422394501,B,621.7398000007961,Correct
14,314,289,B,38.23179052866854,12.864684804476344,1.911589526433427,0.20207799636245566,B,573.7850000004983,Correct
14,314,290,B,53.21314674136789,21.57315468811085,2.6606573370683946,0.33887032141462625,B,509.78050000048825,Correct
14,314,291,B,82.27658976114324,51.521756064606166,4.113829488057162,0.8093018517630605,B,467.3280999995768,Correct
14,314,292,B,86.58562279632822,58.6804131442174,4.329281139816411,0.9217497742174365,B,699.9052999999549,Correct
14,314,293,A,53.31127846984886,69.30308152273149,2.6655639234924426,1.088610258914739,B,2370.264799999859,Incorrect
14,314,294,B,88.71622615239414,66.43980924125714,4.435811307619707,1.0436340830912034,B,534.9905000002764,Correct
14,314,295,B,79.72432729303225,49.51035119447491,3.9862163646516127,0.7777067779460651,B,1066.3041999996494,Correct
14,314,296,B,79.83882923852151,66.62965873678229,3.9919414619260754,1.0466162319933512,B,835.3996999994706,Correct
14,314,297,B,53.7518070153467,24.28822952527463,2.687590350767335,0.3815186172265274,B,476.8007000002399,Correct
14,314,298,A,47.677030524723826,73.55561330023748,2.383851526236191,1.1554088718715887,B,603.7277999985236,Incorrect
14,314,299,B,30.736240890551436,12.086842460360991,1.536812044527572,0.18985967739283632,A,508.5841000000073,Incorrect
14,314,300,A,12.012864209193744,36.05060242028057,0.6006432104596872,0.5662815386051991,A,596.3000000010652,Correct
14,314,301,A,42.93959845575907,73.68400628200406,2.1469799227879536,1.1574256641130407,B,321.57549999828916,Incorrect
14,314,302,A,14.313782884340451,35.98136387114981,0.7156891442170226,0.5651939420187272,A,565.7393000001321,Correct
14,314,303,A,15.30587666372191,31.92563099974722,0.7652938331860955,0.5014866390501221,A,450.69230000081006,Correct
14,314,304,B,30.717630337472944,11.309059505561795,1.5358815168736473,0.17764229130841375,B,465.85030000096594,Correct
14,314,305,A,43.11565174811933,56.09291791487325,2.1557825874059664,0.8811054941989053,B,447.6981000007072,Incorrect
14,314,306,A,49.19139026261589,62.374978206833035,2.4595695131307944,0.9797838665120504,B,634.4811999988451,Incorrect
14,314,307,B,67.11429745771073,45.34104872046704,3.3557148728855366,0.7122155278313808,B,482.19109999990906,Correct
14,314,308,A,20.888590709507607,32.827935932515516,1.0444295354753803,0.5156600117905358,B,677.2374000011041,Incorrect
14,314,309,A,32.36550817462393,59.43058607736938,1.6182754087311966,0.9335334630959974,A,563.6417000005167,Correct
14,314,310,B,73.33299604221135,49.2136006177103,3.6666498021105673,0.7730454307865039,B,608.0634999998438,Correct
14,314,311,A,45.51927847033646,77.55920259580537,2.275963923516823,1.218297105466323,B,475.39359999973385,Incorrect
14,314,312,A,26.317526592518373,57.431912745209615,1.3158763296259186,0.9021383758098025,B,504.38169999870297,Incorrect
14,314,313,A,47.62840326298196,75.47711120765973,2.381420163149098,1.1855916904208181,A,574.1742999998678,Correct
14,314,314,A,15.818899105179455,31.037344683878253,0.7909449552589727,0.4875334702290307,A,472.9480000005424,Correct
14,314,315,A,38.370828934863646,47.89539176788587,1.9185414467431823,0.7523390545939765,B,469.68220000053407,Incorrect
14,314,316,A,56.5434358833126,80.88267757323563,2.82717179416563,1.2705021283337448,A,530.6473000000551,Correct
14,314,317,A,36.86564951839882,67.18368515224151,1.8432824759199409,1.0553188585768578,B,727.0539000001008,Incorrect
14,314,318,B,74.29632739105473,60.86327855944889,3.7148163695527363,0.9560381439787691,B,452.05669999995735,Correct
14,314,319,B,37.73110278539359,11.243035594872655,1.8865551392696795,0.17660519014450243,B,493.7289999998029,Correct
14,314,320,B,40.19088662988864,19.258517979981676,2.009544331494432,0.3025120930246869,B,410.6809000004432,Correct
14,314,321,B,47.67916741958982,31.697744815655508,2.383958370979491,0.4979070112411364,B,502.0382000002428,Correct
14,314,322,A,24.558790925541523,42.234131118646175,1.2279395462770761,0.6634121802654345,B,459.5625999991171,Incorrect
14,314,323,A,67.74453450775957,83.1271766917547,3.387226725387978,1.3057586380423862,A,543.990300000587,Correct
14,314,324,B,66.86186275578662,38.14705277892354,3.3430931377893307,0.5992125038318414,B,406.3455999985308,Correct
14,314,325,A,42.41241656493354,55.9482498767421,2.120620828246677,0.8788330539698952,B,397.2451000008732,Incorrect
14,314,326,B,65.69529875151969,41.15620018065016,3.284764937575984,0.6464800806860073,B,603.6287000006268,Correct
14,314,327,A,53.219234336295955,62.57639315245822,2.6609617168147977,0.982947685079547,B,440.3164999985165,Incorrect
14,314,328,B,57.10387148476409,34.07554517372382,2.8551935742382044,0.5352574119241893,B,562.0130999996036,Correct
14,314,329,B,35.233047974585816,19.651635285139523,1.7616523987292907,0.30868716521410144,B,652.4964000000182,Correct
14,314,330,B,62.3383766097587,37.997543287383166,3.116918830487935,0.5968640142305156,B,420.77900000003865,Correct
14,314,331,B,59.48311380555202,30.27969228156394,2.974155690277601,0.47563229412360414,B,459.40949999931036,Correct
14,314,332,B,74.75149854384898,59.04841719204251,3.737574927192449,0.92753036828313,B,465.7632999987982,Correct
14,314,333,B,46.07537690131588,32.68304185909736,2.303768845065794,0.5133840210075398,B,414.5109000000957,Correct
14,314,334,B,83.38518249549774,56.994150229843314,4.169259124774888,0.895262018298344,B,519.8597999988124,Correct
14,314,335,A,32.68350238889566,59.040233564109066,1.6341751194447829,0.9274018201561529,B,343.3272999991459,Incorrect
14,314,336,B,48.20625425671008,34.16318911023817,2.410312712835504,0.5366341196596153,A,509.13480000053823,Incorrect
14,314,337,A,29.963532620646937,39.13955859221682,1.4981766310323468,0.6148027486902782,B,663.6238999999478,Incorrect
14,314,338,A,30.053817777071124,62.26564665546231,1.5026908888535562,0.9780664905190914,A,625.5853999991814,Correct
14,314,339,B,77.60377985817053,48.1636070734932,3.8801889929085265,0.756552170762358,B,625.8964000007836,Correct
14,314,340,A,59.679634871399486,83.07420928680236,2.983981743569974,1.3049266279909963,B,524.1038000003755,Incorrect
14,314,341,A,52.46650310015713,67.23165957980491,2.6233251550078562,1.0560724391228247,B,474.4515999991563,Incorrect
14,314,342,A,51.101962081209706,73.1717005009468,2.555098104060485,1.149378383722235,A,602.4832000002789,Correct
14,314,343,A,66.29124962322913,89.78770665388923,3.314562481161457,1.410381998032669,B,478.67589999987104,Incorrect
14,314,344,A,14.498673291996553,41.45683315497555,0.7249336645998277,0.6512024124038447,A,493.5640000003332,Correct
14,314,345,A,42.040657654448175,51.13232078637146,2.102032882722409,0.8031846167173062,B,525.8353000008356,Incorrect
14,314,346,B,52.78210522438732,45.962987156871534,2.6391052612193664,0.721984913945348,B,442.57939999988594,Correct
14,314,347,A,48.57499059064425,72.79754766120737,2.428749529532212,1.1435012046590096,B,685.0453999995807,Incorrect
14,314,348,B,86.5972774792881,68.35399493267514,4.329863873964404,1.0737020416200307,B,430.472699999882,Correct
14,314,349,A,40.73110560376208,48.34331654782456,2.036555280188104,0.7593750405840575,B,453.07580000007874,Incorrect
14,314,350,A,22.87244709283709,46.47095503192747,1.1436223546418545,0.7299640546680248,A,561.8030000005092,Correct
14,314,351,A,60.85134269393991,77.1957029979751,3.0425671346969954,1.2125872671356908,B,377.5132999999187,Incorrect
14,314,352,A,63.23349968369864,82.88686994012028,3.1616749841849323,1.3019839084146725,B,541.9747000014468,Incorrect
14,314,353,A,34.04660511659354,63.03921671574303,1.702330255829677,0.9902177006111659,A,589.3980000000738,Correct
14,314,354,B,79.78798013073788,64.79651620186698,3.989399006536894,1.0178212963899864,B,845.1748000006774,Correct
14,314,355,A,21.412293679811675,44.69728290885372,1.070614683990584,0.7021032781093974,A,818.1616000001668,Correct
14,314,356,A,18.412794354857326,43.29549658724626,0.9206397177428662,0.680084070060074,B,403.0031999991479,Incorrect
14,314,357,A,56.81370327595921,80.85050208229715,2.8406851637979607,1.269996716903955,B,514.744600000995,Incorrect
14,314,358,B,61.97657134333129,48.240430688743416,3.098828567166564,0.7577589132888196,B,456.54189999913797,Correct
14,314,359,A,57.19866496148696,84.91817705382115,2.859933248074348,1.3338916059426094,B,497.1084000007977,Incorrect
14,314,360,A,55.86464037465449,64.6171982911795,2.793232018732725,1.0150045772356224,B,746.814699999959,Incorrect
14,314,361,B,68.95926514063041,59.94043165715531,3.44796325703152,0.9415420987356009,B,448.0165999993915,Correct
14,314,362,A,33.292817163898896,58.75285252852788,1.6646408581949448,0.9228876494053384,A,566.09539999954,Correct
14,314,363,A,47.798820962669765,67.52954535108593,2.389941048133488,1.0607516178761516,B,513.4544000011374,Incorrect
14,314,364,A,28.518578945578,50.49570340666996,1.4259289472788998,0.7931846543012172,B,330.2975000005972,Incorrect
14,314,365,A,36.12358427861425,61.839819103609,1.8061792139307127,0.9713776069760989,A,603.4276000009413,Correct
14,314,366,B,31.282701534659676,16.009835578687255,1.5641350767329838,0.25148190919592184,B,466.06450000035693,Correct
14,314,367,A,17.946636749841346,46.97404183589909,0.8973318374920674,0.737866523705401,A,661.1165999984223,Correct
14,314,368,B,47.08999112159544,30.249131455097462,2.3544995560797717,0.4751522457840306,B,746.3619999998627,Correct
14,314,369,A,18.411740322971838,43.395485621816036,0.9205870161485918,0.6816546941422937,A,825.2807000008033,Correct
14,314,370,A,22.801253793843678,47.47482157558691,1.1400626896921837,0.7457327534617502,A,562.376800000493,Correct
14,314,371,A,22.39037962731421,42.59560996784697,1.1195189813657107,0.669090276750821,A,471.36049999971874,Correct
14,314,372,A,42.53780038180652,69.50690033830423,2.1268900190903257,1.0918118373830725,A,1173.4524000003148,Correct
14,314,373,B,32.13690860104342,15.9957523375803,1.606845430052171,0.25126069016192015,A,681.885300000431,Incorrect
14,314,374,A,37.17070209779106,46.57525405687031,1.8585351048895529,0.7316023799207099,B,401.6400000000431,Incorrect
14,314,375,B,68.1888188245848,42.762559591487864,3.4094409412292404,0.6717127153065702,B,441.10189999992144,Correct
14,314,376,B,34.673507840568504,12.993765152426604,1.7336753920284251,0.20410558572667242,A,631.1629000010726,Incorrect
14,314,377,B,34.98250392764828,14.144356784752201,1.7491251963824141,0.22217903682365228,B,473.93749999901047,Correct
14,314,378,A,16.349036114942887,35.02289610069147,0.8174518057471444,0.5501383654868546,A,630.0823999990826,Correct
14,314,379,A,20.061625487716782,42.883143468159226,1.003081274385839,0.6736068424120307,A,665.7062000012957,Correct
14,314,380,A,58.990346642953696,77.65882301376453,2.9495173321476846,1.219861939332363,B,439.1823000005388,Incorrect
14,314,381,B,46.14072257600991,17.53051343307635,2.3070361288004957,0.2753686610750492,A,1133.0756999996083,Incorrect
14,314,382,A,46.67963602001157,74.29726109834792,2.3339818010005784,1.1670586482420626,B,391.27819999703206,Incorrect
14,314,383,B,84.76543896751,69.60262617707625,4.2382719483755,1.093315495342297,B,601.5153999978793,Correct
14,314,384,B,61.267250337156874,50.28360652649913,3.0633625168578438,0.7898530442982472,B,543.5887999992701,Correct
14,314,385,B,61.97859253175234,43.63918524071312,3.098929626587617,0.6854827188043424,B,540.0281000001996,Correct
14,314,386,A,63.033363381198235,87.38282274822404,3.1516681690599118,1.3726061699787984,B,619.7557000014058,Incorrect
14,314,387,A,37.36646450028165,52.27967344201963,1.8683232250140827,0.8212071900876114,A,850.3739999978279,Correct
14,314,388,A,58.36019276372585,78.42261322822036,2.9180096381862928,1.2318595279654538,B,469.6976999985054,Incorrect
14,314,389,B,31.17077199464094,13.57720075755564,1.558538599732047,0.21327017078125282,B,340.9243000023707,Correct
14,314,390,A,34.618116623565136,47.517211385742584,1.7309058311782568,0.7463986110426108,A,856.2157999986084,Correct
14,314,391,B,75.52820547265594,60.543681176975,3.776410273632797,0.9510179200343365,B,531.2994999985676,Correct
14,314,392,B,45.95050541246002,16.358185226401314,2.2975252706230007,0.2569537726666173,B,520.5335999999079,Correct
14,314,393,A,19.95371481572127,35.546491006501284,0.9976857407860635,0.5583629750346004,B,554.2107000001124,Incorrect
14,314,394,A,22.458927048538346,53.1719237938545,1.1229463524269172,0.8352226258400481,A,599.4664999998349,Correct
14,314,395,B,46.39074836113956,37.413129136382565,2.319537418056978,0.5876840582133286,B,525.8317999978317,Correct
14,314,396,B,43.32698565943208,30.404461312251364,2.166349282971604,0.47759216147461986,B,408.07659999700263,Correct
14,314,397,B,75.81700221527373,59.54159765089314,3.790850110763687,0.9352772288152258,B,810.0162999980967,Correct
14,314,398,B,42.08560548922708,25.073118682223885,2.104280274461354,0.3938476272732978,B,424.6430000021064,Correct
14,314,399,A,17.047828972851473,41.74975568624127,0.8523914486425737,0.6558036287653214,A,742.1719999983907,Correct
14,314,400,B,31.464130048403252,16.466391656153522,1.5732065024201625,0.25865347529052085,B,1443.4204999997746,Correct
14,314,401,A,62.6140324868546,84.96566837411599,3.13070162434273,1.334637597857347,B,1823.3016999984102,Incorrect
14,314,402,B,37.112810006326065,26.012661564984633,1.8556405003163032,0.4086059323643665,A,690.6715000004624,Incorrect
14,314,403,A,59.60009493756682,85.56477704827758,2.9800047468783415,1.3440483749045868,B,387.19750000018394,Incorrect
14,314,404,B,59.04558088877416,37.15101530279313,2.9522790444387077,0.5835667837432844,B,1036.8979000013496,Correct
14,314,405,A,52.528767597060714,65.48278835749912,2.6264383798530355,1.0286012342024724,B,1141.7058999977598,Incorrect
14,314,406,A,32.8564942945423,65.57884900283418,1.642824714727115,1.030110151290891,B,492.3850000013772,Incorrect
14,314,407,B,57.94872385905356,47.397316562313556,2.8974361929526777,0.7445153075601705,B,414.8681000006036,Correct
14,314,408,B,77.0053238901309,49.79143071245611,3.850266194506545,0.7821219646898866,B,464.28779999769176,Correct
14,314,409,A,57.31245102777271,67.93314599164728,2.8656225513886353,1.06709136191301,B,451.5939000011713,Incorrect
14,314,410,A,30.96768598380203,55.4058751246359,1.5483842991901016,0.870313451286348,B,400.2903000000515,Incorrect
14,314,411,B,48.80698086092953,33.9841159486171,2.440349043046476,0.533821245014596,B,744.6105999988504,Correct
14,314,412,B,70.71095336424686,41.126505994358844,3.535547668212343,0.6460136454984717,B,483.9143999997759,Correct
14,314,413,A,59.43195909716667,80.27287875888216,2.9715979548583333,1.2609234309570416,B,621.5719000028912,Incorrect
14,314,414,B,86.74865928311823,62.738428784953,4.337432964155911,0.9854929348428739,B,540.7579999991867,Correct
14,314,415,A,60.582319300919934,86.65586869668292,3.029115965045997,1.361187202439704,B,1054.4726000007358,Incorrect
14,314,416,A,21.856073958679243,35.21419255200088,1.0928036979339621,0.5531432431173119,A,511.2890000018524,Correct
14,314,417,B,62.328861783389165,44.72407702650243,3.1164430891694583,0.7025241591252203,B,519.31649999824,Correct
14,314,418,A,41.67299953649004,72.3674993833813,2.083649976824502,1.1367460221074728,B,429.9683000026562,Incorrect
14,314,419,A,47.70542182225355,60.06802422640755,2.3852710911126773,0.9435463181266783,B,484.8394000000553,Incorrect
14,314,420,A,53.498696696444284,83.04744285273416,2.6749348348222144,1.3045061818278392,B,506.9437999991351,Incorrect
14,314,421,A,25.011585832965537,44.24770710353569,1.2505792916482767,0.6950413578733031,A,447.11499999903026,Correct
14,314,422,B,51.250990378526474,42.18666599738167,2.562549518926324,0.6626665998841028,B,413.19080000175745,Correct
14,314,423,B,51.012144442055586,23.210881386655817,2.550607222102779,0.36459567223830996,A,962.7274000013131,Incorrect
14,314,424,A,30.668954183230845,50.77652282557708,1.5334477091615424,0.797595755418337,B,442.17850000131875,Incorrect
14,314,425,B,52.088762855027184,42.6773022927369,2.604438142751359,0.6703734967894655,B,507.32090000019525,Correct
14,314,426,B,51.74352163700863,20.45602872909244,2.5871760818504312,0.32132254788469283,B,388.13049999953364,Correct
14,314,427,A,46.92706110460434,65.4292314744354,2.346353055230217,1.0277599646505615,B,479.19529999853694,Incorrect
14,314,428,A,42.08552040210321,67.79025360086446,2.1042760201051602,1.0648468134873241,A,579.0858999971533,Correct
14,314,429,B,40.029719101941026,23.690563615263198,2.0014859550970514,0.3721305030655625,B,493.0184000004374,Correct
14,314,430,A,30.012822939633395,57.593521297286784,1.5006411469816698,0.9046769170096173,A,954.536500001268,Correct
14,314,431,B,51.2997215865067,20.382824846107468,2.564986079325335,0.32017266397969363,B,487.52040000181296,Correct
14,314,432,A,34.22930888301089,62.437467957103664,1.7114654441505446,0.9807654532139249,B,1028.5210000001825,Incorrect
14,314,433,B,58.91758749799739,27.687126343992993,2.945879374899869,0.4349083636065041,B,316.0102999972878,Correct
14,314,434,A,38.66198227865039,53.26160143665151,1.9330991139325195,0.8366312789590598,B,792.126799999096,Incorrect
14,314,435,B,65.46341982136839,39.28278565798781,3.2731709910684197,0.617052554178385,A,530.3433999979461,Incorrect
14,314,436,A,47.057832507999734,56.732294615219516,2.3528916253999865,0.891148799922327,B,392.4349999979313,Incorrect
14,314,437,A,66.38657462208195,83.62809413039572,3.3193287311040978,1.3136270307688347,A,600.1744999994116,Correct
14,314,438,B,80.52996000590964,50.723728510652364,4.026498000295482,0.7967664642587431,B,546.9812000010279,Correct
14,314,439,B,36.06543335839575,10.821131274102186,1.8032716679197875,0.1699779325712509,B,807.3755000004894,Correct
14,314,440,A,61.82820178308104,86.13307751710417,3.0914100891540524,1.352975217794073,B,598.5760000003211,Incorrect
14,314,441,B,52.35784320150637,35.233579891281565,2.6178921600753187,0.553447778730596,B,234.447499999078,Correct
14,314,442,B,86.06675609638832,64.80070988958789,4.3033378048194155,1.0178871706826638,B,434.48150000040187,Correct
14,314,443,B,62.137046324196916,37.64218383414277,3.1068523162098463,0.591282040992097,B,519.7312999989663,Correct
14,314,444,B,61.30457700773869,41.49335281420218,3.0652288503869345,0.6517760618695346,B,442.8029999980936,Correct
14,314,445,B,52.96812018385925,41.407498627706985,2.6484060091929624,0.6504274674616686,B,809.4141999972635,Correct
14,314,446,B,67.54714322128405,58.56125291291062,3.3773571610642024,0.9198780096810694,B,2117.2802000000956,Correct
14,314,447,A,38.52980985895679,66.60852477821042,1.9264904929478393,1.046284260548398,B,353.18269999697804,Incorrect
14,314,448,A,50.6236445994653,75.54208371206664,2.531182229973265,1.1866122761334685,B,710.9650999991572,Incorrect
14,314,449,A,24.39107775967073,40.34079840288936,1.2195538879835366,0.6336717795123203,A,564.5089000026928,Correct
14,314,450,A,47.02648537324835,56.51801173019624,2.3513242686624176,0.8877828522354314,B,388.5227999999188,Incorrect
14,314,451,A,26.913039788853176,44.83359322643319,1.3456519894426588,0.704244435570978,A,434.6265000021958,Correct
14,314,452,B,59.29198620520983,45.35698703263493,2.9645993102604917,0.7124658862534672,B,980.845699999918,Correct
14,314,453,B,39.67239976883224,21.572017335678083,1.9836199884416121,0.3388524559243896,B,1964.8679999991145,Correct
14,314,454,B,63.26869706768868,53.293565990767064,3.163434853384434,0.8371333770009831,B,299.2411999985052,Correct
14,314,455,B,42.74382065892236,14.317692380806893,2.137191032946118,0.22490178599950744,B,269.16950000304496,Correct
14,314,456,B,73.36529614751235,53.06980185265972,3.6682648073756177,0.8336184981389088,B,1693.4729000022344,Correct
14,314,457,A,61.52718736868304,77.0057707648624,3.076359368434152,1.2096038185945568,A,866.166499999963,Correct
14,314,458,A,66.08221266406878,88.66251932631725,3.3041106332034387,1.3927075968216067,B,615.1381999989098,Incorrect
14,314,459,A,35.422675560038854,51.6778461824111,1.7711337780019425,0.8117537096000303,A,720.8299999983865,Correct
14,314,460,A,13.267790215349823,40.363014989799495,0.6633895107674911,0.634020756843444,A,579.6274999993329,Correct
14,314,461,A,55.69929182734668,82.10929055600978,2.7849645913673338,1.2897697200111504,B,627.3632000011276,Incorrect
14,314,462,B,68.75934143908412,39.41445217737926,3.437967071954206,0.6191207670286045,B,451.3679999981832,Correct
14,314,463,B,37.86484221781805,19.367532489156527,1.8932421108909026,0.30422448893047893,A,750.9802999993553,Incorrect
14,314,464,A,51.87543982280797,73.1122331185402,2.5937719911403985,1.1484442722637513,B,499.96310000278754,Incorrect
14,314,465,B,56.316359367188866,46.815540773170795,2.8158179683594433,0.7353767948341341,B,623.0028000027232,Correct
14,314,466,A,68.05887695115271,86.5389689010005,3.4029438475576352,1.3593509447430936,B,903.0265000001236,Incorrect
14,314,467,A,25.892769799495692,46.3939906596222,1.2946384899747847,0.7287551011349129,A,504.14350000210106,Correct
14,314,468,A,23.686986040532517,49.8327760057017,1.1843493020266258,0.782771415037491,A,636.5838000019721,Correct
14,314,469,B,76.6841095533399,57.67008960506895,3.8342054776669947,0.9058796491757486,B,628.0194999999367,Correct
14,314,470,A,26.6444730306056,47.522041833149316,1.3322236515302799,0.7464744875330435,B,506.4015999996627,Incorrect
14,314,471,A,32.87501638172889,55.38991678092229,1.6437508190864447,0.8700627782094773,B,785.0263999971503,Incorrect
14,314,472,A,35.48629188564467,49.63351605008979,1.7743145942822336,0.7796414469739658,A,449.86900000003516,Correct
14,314,473,B,45.36921883829678,18.21409688720896,2.268460941914839,0.2861063648631419,B,485.4586000001291,Correct
14,314,474,B,69.09099209098083,52.13532841581065,3.4545496045490416,0.8189398237180096,B,455.432099999598,Correct
14,314,475,B,64.78139425191807,44.02573039283913,3.239069712595904,0.6915545558553414,B,398.3518999993976,Correct
14,314,476,A,42.6337197896382,55.56287880714692,2.1316859894819102,0.8727796593641638,B,256.56330000128946,Incorrect
14,314,477,B,55.42241619261732,34.84915418074627,2.771120809630866,0.5474092337902524,B,384.5655999975861,Correct
14,314,478,B,80.73128610168739,49.837899160499404,4.03656430508437,0.7828518893648692,B,240.5782999994699,Correct
14,314,479,B,75.62371661864901,62.711734543629625,3.781185830932451,0.9850736226807004,B,309.8612000030698,Correct
14,314,480,A,31.353855553667373,51.60307101822927,1.5676927776833685,0.8105791440677073,B,513.1853999992018,Incorrect
14,314,481,B,83.84401751279165,59.67298330981769,4.192200875639583,0.9373410299195479,A,890.0111000002653,Incorrect
14,314,482,B,70.46395542080735,60.912423847075814,3.5231977710403672,0.9568101163516055,B,391.56369999909657,Correct
14,314,483,A,16.852703609336448,39.77854986013432,0.8426351804668224,0.6248400000552663,B,287.00880000178586,Incorrect
14,314,484,B,60.30391508799285,47.75797299746074,3.015195754399642,0.7501804855958117,A,503.86280000020633,Incorrect
14,314,485,B,81.36363849364191,65.7934641066055,4.068181924682096,1.0334813174576778,B,784.3987999985984,Correct
14,314,486,B,72.26565191948197,55.458363845719454,3.6132825959740984,0.8711379421891101,B,335.04570000150125,Correct
14,314,487,B,43.563525493990944,28.951579980509287,2.178176274699547,0.45477035488292655,B,940.5684000012116,Correct
14,314,488,A,30.860542781551512,47.69426593701942,1.5430271390775756,0.7491797774304906,B,629.1582999983802,Incorrect
14,314,489,A,58.12215130609813,82.63570350335027,2.906107565304907,1.2980385952517477,B,510.30249999894295,Incorrect
14,314,490,A,35.895675884843556,64.1341634530345,1.7947837942421778,1.0074170837409009,B,411.2630999989051,Incorrect
14,314,491,A,41.34082304110646,50.0468034455338,2.067041152055323,0.7861333502007066,A,540.930399998615,Correct
14,314,492,B,57.554167334681324,32.27675382476706,2.8777083667340664,0.5070020634880723,B,464.22769999844604,Correct
14,314,493,B,70.02775494227399,49.751510112802855,3.501387747113699,0.7814948933768987,B,340.7006999987061,Correct
14,314,494,B,40.7081648258974,12.970673199830852,2.0354082412948697,0.2037428581835131,A,340.1549000009254,Incorrect
14,314,495,A,44.505383787378115,60.554919107706745,2.225269189368906,0.9511944450374784,B,476.1870000002091,Incorrect
14,314,496,A,48.417893134134054,71.60230997580628,2.420894656706703,1.124726455000261,A,649.6947999985423,Correct
14,314,497,B,67.73717365329234,52.26419361890263,3.3868586826646174,0.8209640335946953,B,503.7704999995185,Correct
14,314,498,A,44.6165511392168,58.92461799550712,2.2308275569608402,0.9255857350513504,A,440.34150000152295,Correct
14,314,499,A,11.86777383198513,37.90070992253413,0.5933886915992566,0.595342959292355,B,389.62030000038794,Incorrect
14,314,500,B,42.64549042853478,17.168207539598512,2.132274521426739,0.26967757340853793,A,661.9586999986495,Incorrect
14,314,501,B,66.24589162346334,56.89180310630218,3.3122945811731666,0.8936543534411794,B,446.99519999994664,Correct
14,314,502,A,40.64311263275499,48.29510725325984,2.0321556316377496,0.7586177707558612,B,621.370199998637,Incorrect
14,314,503,A,18.223219851170022,43.23982146112998,0.9111609925585011,0.6792095272241011,A,606.2324999984412,Correct
14,314,504,B,50.45340980270551,31.889423792679093,2.5226704901352752,0.500917897571461,A,553.0225000002247,Incorrect
14,314,505,B,72.15241789551753,56.69000439707066,3.6076208947758768,0.8904845067290512,B,650.9761999986949,Correct
14,314,506,B,51.2025157679182,34.140077488996404,2.56012578839591,0.5362710831620868,A,666.1314999983006,Incorrect
14,314,507,B,45.583360449432256,20.488832950050167,2.279168022471613,0.3218378353825305,B,578.4492999991926,Correct
14,314,508,A,59.95092463851785,82.19704315423466,2.9975462319258925,1.291148134600734,B,543.1334999993851,Incorrect
14,314,509,A,45.11070245517095,75.83129551153911,2.2555351227585474,1.1911552044562395,B,623.1728999991901,Incorrect
14,314,510,A,28.4858084005443,46.03060063825555,1.424290420027215,0.7230469840273464,A,599.1576000014902,Correct
14,314,511,B,42.80165192959224,35.1067572999207,2.140082596479612,0.5514556541239536,B,456.58220000041183,Correct
14,314,512,A,21.681290737390395,49.303529580178996,1.0840645368695199,0.7744580316256869,A,385.4107000006479,Correct
14,314,513,A,66.89532838690451,81.65383686322835,3.3447664193452256,1.282615470134688,B,411.0813000006601,Incorrect
14,314,514,B,56.38921793832139,37.31438676753602,2.8194608969160693,0.5861330167104969,B,541.0363000009966,Correct
14,314,515,A,55.4857321754005,80.25899290337279,2.7742866087700246,1.2607053124487564,B,519.2839999981516,Incorrect
14,314,516,A,47.55660854260994,76.19540481475656,2.377830427130497,1.1968746200166975,B,461.6478999996616,Incorrect
14,314,517,B,64.3073769623953,35.29116944029896,3.215368848119765,0.554352393251179,B,693.0643000014243,Correct
14,314,518,A,37.65708328068964,45.52407636850299,1.882854164034482,0.7150905194037486,B,661.1085000004095,Incorrect
14,314,519,B,39.3830468613665,19.83686177057386,1.969152343068325,0.31159669604355533,B,687.0433000003686,Correct
14,314,520,A,28.595386116404384,59.92047852754313,1.429769305820219,0.9412286757085723,A,468.8127000008535,Correct
14,314,521,B,58.519279416006555,41.03501514122742,2.9259639708003276,0.6445765105381299,B,426.6802000020107,Correct
14,314,522,A,54.68451531863364,80.05878457424629,2.7342257659316824,1.2575604473689,B,444.0622000001895,Incorrect
14,314,523,A,66.46227487381844,84.82716939872547,3.3231137436909224,1.3324620610392643,B,483.78450000018347,Incorrect
14,314,524,B,71.98585428814988,62.68997618048327,3.599292714407494,0.9847318431116269,B,450.16790000227047,Correct
14,314,525,B,86.34345896596908,67.49040527695195,4.317172948298454,1.0601368070293502,B,431.39720000181114,Correct
14,314,526,B,49.232195626815205,24.90872315098639,2.4616097813407603,0.39126530830720424,B,383.1374000001233,Correct
14,314,527,A,40.27484838147072,49.89121453990291,2.013742419073536,0.7836893653861563,B,419.3185000003723,Incorrect
14,314,528,A,27.761145365991755,53.303406544325235,1.3880572682995878,0.8372879520548113,B,1417.647999998735,Incorrect
14,314,529,B,60.1761274949811,42.92859371384546,3.0088063747490548,0.6743207732017893,B,871.985499998118,Correct
14,314,530,A,43.43197038989291,57.82407400953306,2.1715985194946454,0.9082984305449077,B,968.0561000022863,Incorrect
14,314,531,A,47.93739762224149,59.51344811094809,2.3968698811120746,0.9348350568757593,B,801.7212999984622,Incorrect
14,314,532,A,42.14364096822256,68.12250222495862,2.1071820484111283,1.0700657626704217,B,777.4749999989581,Incorrect
14,314,533,B,66.55686023726165,36.71167248180983,3.327843011863082,0.5766656028492417,B,474.5705999994243,Correct
14,314,534,B,57.49092800469235,41.06862477161003,2.8745464002346175,0.6451044493776295,B,420.8180000023276,Correct
14,314,535,A,68.44377974748036,84.85449523422236,3.422188987374018,1.3328912942595152,B,431.3118999998551,Incorrect
14,314,536,A,18.03527049734212,47.52720147521032,0.9017635248671059,0.7465555350010137,A,553.5301999989315,Correct
14,314,537,B,52.5500869278882,28.373804095071264,2.6275043463944097,0.4456946724973594,B,523.7581000001228,Correct
14,314,538,B,78.73583362005309,65.42549171811861,3.936791681002654,1.0277012206957064,B,435.2301000035368,Correct
14,314,539,B,50.85722755832843,28.02897185013687,2.5428613779164215,0.44027806026032545,B,430.80619999818737,Correct
14,314,540,A,26.436627418729508,41.66735490032676,1.3218313709364753,0.654509280246926,B,587.2448999980406,Incorrect
14,314,541,A,52.566203125517355,66.36809076663894,2.6283101562758677,1.0425075319262675,B,524.1051000011794,Incorrect
14,314,542,A,44.95160814605281,60.51157080817704,2.2475804073026406,0.9505135315407378,A,366.8476999991981,Correct
14,314,543,B,81.39036942315937,52.116234928026415,4.069518471157968,0.8186399039132379,B,400.8038000029046,Correct
14,314,544,A,65.52156764263971,77.01946172328681,3.276078382131985,1.2098188756665906,B,390.0719000012032,Incorrect
14,314,545,B,61.8954994336668,45.766524220237784,3.09477497168334,0.7188988813531918,B,655.4630000027828,Correct
14,314,546,A,36.95665006231094,51.32356923642654,1.847832503115547,0.8061887403458237,B,682.4802000010095,Incorrect
14,314,547,B,56.272986652486004,40.68575364754759,2.8136493326243004,0.6390903238244983,B,507.90129999950295,Correct
14,314,548,B,32.207618893935546,10.280048727764914,1.6103809446967774,0.16147862780845673,B,393.71200000095996,Correct
14,314,549,A,48.514460203058675,72.38687211365523,2.4257230101529337,1.1370503282430156,B,472.09339999972144,Incorrect
