subject,day,trial,cat,x,y,xt,yt,resp,rt,fb
1,101,0,B,46.5730516134828,21.06020677003704,2.32865258067414,0.3308129543591519,B,1393.0396000000655,Correct
1,101,1,B,82.27369783576039,65.2143249088391,4.1136848917880195,1.024384220212134,A,65.35069999995358,Incorrect
1,101,2,B,80.24016351471502,50.17524267137489,4.012008175735751,0.7881508688423823,B,475.58089999984077,Correct
1,101,3,B,33.28312536031298,13.447837508798575,1.6641562680156488,0.21123813762155436,A,821.2215999999444,Incorrect
1,101,4,B,49.17718968577945,24.723615144448946,2.458859484288973,0.3883576385399109,B,677.5164000000586,Correct
1,101,5,A,12.577423770603229,32.367511882076144,0.6288711885301614,0.5084276877185537,A,652.7099999998427,Correct
1,101,6,A,57.03350544672746,71.81443523359465,2.851675272336373,1.1280585107578047,B,585.2551999998923,Incorrect
1,101,7,A,53.538036973699896,65.8157428010907,2.676901848684995,1.0338312703723096,A,1038.6948999998822,Correct
1,101,8,B,35.85253637103602,10.826780448240598,1.7926268185518008,0.17006666959111133,A,684.5034999998916,Incorrect
1,101,9,A,66.76394122714302,85.75140298343098,3.3381970613571514,1.346979888238823,A,577.2216000000299,Correct
1,101,10,A,18.69234934408964,35.18558133182927,0.9346174672044819,0.552693819121805,A,663.8559999998961,Correct
1,101,11,A,31.99068857318812,63.07582646933332,1.599534428659406,0.990792765275811,A,586.9513000000097,Correct
1,101,12,B,59.26628382517715,41.55604452038626,2.9633141912588576,0.6527608208874792,A,1212.847199999942,Incorrect
1,101,13,B,68.66369014933727,36.906326596700524,3.433184507466864,0.5797232225358998,A,610.9464000001026,Incorrect
1,101,14,B,78.84568378653266,54.80899761318959,3.9422841893266334,0.8609377212610847,A,986.1322000001564,Incorrect
1,101,15,A,33.67658473173169,51.74532571422082,1.6838292365865843,0.8128136756070359,A,593.050200000107,Correct
1,101,16,B,49.915474615147886,34.498156395427415,2.4957737307573944,0.5418957734713326,B,652.3644999997487,Correct
1,101,17,A,59.503558464282705,75.26095544426659,2.9751779232141353,1.1821963236292834,A,731.3187999998263,Correct
1,101,18,A,33.57463701378342,63.984472297814435,1.678731850689171,1.0050657405731673,A,605.2349000001414,Correct
1,101,19,A,17.21461158046599,36.73304129849806,0.8607305790232996,0.5770012634368599,B,651.0423999998238,Incorrect
1,101,20,A,40.969475642640006,63.42833926902738,2.0484737821320005,0.996330023384887,A,548.1340000001182,Correct
1,101,21,A,68.88853873177344,84.19609588859079,3.444426936588672,1.322549181522693,A,996.762100000069,Correct
1,101,22,A,40.243452930472344,57.29097285715418,2.0121726465236174,0.899924497225239,B,1683.0887000000985,Incorrect
1,101,23,B,68.52033672313445,53.46138593584042,3.4260168361567223,0.8397694865338248,A,992.0680999998694,Incorrect
1,101,24,B,56.60503712780343,25.96674561676543,2.8302518563901713,0.4078846863363262,A,1390.4700000002777,Incorrect
1,101,25,B,80.93756274907028,58.93562940348592,4.046878137453514,0.9257587018434097,B,908.8383000002977,Correct
1,101,26,A,31.369985333607012,60.791949987659684,1.5684992666803508,0.9549177173931489,A,450.64769999999044,Correct
1,101,27,A,50.763702950429646,60.32346018767626,2.5381851475214825,0.9475586968236005,A,855.0961999999345,Correct
1,101,28,A,28.973620320382587,60.60148652029424,1.4486810160191295,0.9519259242438863,A,844.597899999826,Correct
1,101,29,B,62.08674973807381,49.365703885121505,3.1043374869036904,0.7754346633239341,B,359.965000000102,Correct
1,101,30,B,34.8187007288394,14.642331208851083,1.7409350364419702,0.2300012007857756,B,1054.2853000001742,Correct
1,101,31,A,32.95375849599158,56.68369938935867,1.6476879247995788,0.8903854678995072,A,783.4391999999752,Correct
1,101,32,A,47.366729702963674,67.51837181281073,2.3683364851481836,1.0605761043473518,B,1162.5057000001107,Incorrect
1,101,33,A,45.780896807063336,68.26461418993755,2.2890448403531667,1.0722980521962466,B,741.5448000001561,Incorrect
1,101,34,B,65.67262500847873,57.12893795688281,3.283631250423937,0.8973792589636508,B,393.17339999979595,Correct
1,101,35,A,49.31327784525455,61.246544614867034,2.4656638922627274,0.9620584730991288,B,1089.9868000001334,Incorrect
1,101,36,B,66.88133904089347,52.24591531398098,3.344066952044673,0.8206769186523856,B,558.7264000000687,Correct
1,101,37,A,54.72542546629492,74.05143428367131,2.7362712733147463,1.1631972096668455,A,844.7980999999345,Correct
1,101,38,A,68.27760950579426,82.14880699742173,3.413880475289713,1.2903904428213293,A,814.4320000001244,Correct
1,101,39,B,56.04405724808803,48.93404642173649,2.8022028624044015,0.7686542037447464,B,1786.8803999999727,Correct
1,101,40,A,27.082435251420016,53.816704762418446,1.3541217625710007,0.8453508216101232,A,682.0846999999048,Correct
1,101,41,A,55.35048149193923,62.7493320018705,2.7675240745969614,0.9856642021737163,B,798.7921000003553,Incorrect
1,101,42,A,46.95005902509622,59.603683286757395,2.347502951254811,0.9362524677028488,B,553.3105999998043,Incorrect
1,101,43,B,76.8193512937724,56.334511532536055,3.84096756468862,0.8849004378709238,A,3210.9737000000678,Incorrect
1,101,44,B,52.859925774433165,45.57489725496758,2.6429962887216583,0.715888812021579,B,630.584799999724,Correct
1,101,45,A,52.753069997925934,63.53919220587135,2.6376534998962966,0.9980712972449766,B,776.570300000003,Incorrect
1,101,46,B,56.617797208838645,28.7092919228181,2.8308898604419324,0.45096450297245066,B,706.7649999999048,Correct
1,101,47,A,33.01353926491305,52.34548962002489,1.6506769632456524,0.8222410281941548,A,4223.478100000193,Correct
1,101,48,B,57.11345382297075,40.64986363707843,2.8556726911485373,0.6385265648583623,A,497.39610000005996,Incorrect
1,101,49,B,56.677638548537395,34.05392591102978,2.8338819274268694,0.5349178173399113,A,486.97390000006635,Incorrect
1,101,50,A,48.973488063913805,61.63360414953304,2.44867440319569,0.9681383900521718,A,693.0477999999312,Correct
1,101,51,A,63.14951829604031,77.04299461096153,3.1574759148020153,1.2101885294017738,A,1674.3204999997943,Correct
1,101,52,B,80.46716702341396,50.38264941635877,4.023358351170698,0.7914088063741139,B,489.86210000020947,Correct
1,101,53,B,74.05008748563026,54.072206869830815,3.7025043742815127,0.8493642393282401,B,611.7401999999856,Correct
1,101,54,A,40.25073055732536,50.92048462889794,2.0125365278662684,0.7998571021368885,A,907.7655000000959,Correct
1,101,55,A,63.13648919450432,77.14547604064244,3.156824459725216,1.2117983039348483,B,923.2185000000754,Incorrect
1,101,56,A,65.12921117441918,89.53210995968169,3.2564605587209594,1.4063670945486475,B,1023.1218999997509,Incorrect
1,101,57,A,45.00073723239639,62.0288465882469,2.250036861619819,0.9743468437614239,B,986.1692999998013,Incorrect
1,101,58,A,31.626161370795774,42.49142181210293,1.5813080685397887,0.6674536930274382,A,1636.383300000034,Correct
1,101,59,A,54.880127082635994,82.40085492765704,2.7440063541318,1.2943496024512284,A,717.7818999998635,Correct
1,101,60,B,39.374377047725105,25.455561522349612,1.968718852386255,0.39985502535808276,A,792.307400000027,Incorrect
1,101,61,A,49.19532153397953,65.47318726772905,2.4597660766989766,1.0284504206370317,A,593.4280999999828,Correct
1,101,62,A,53.65780988389567,63.498765543745755,2.6828904941947838,0.9974362767212617,A,779.8895999999331,Correct
1,101,63,A,49.69282761121393,70.5378438659967,2.4846413805606966,1.1080058604473955,A,817.1646999999211,Correct
1,101,64,A,65.47309195792678,76.39411973219482,3.273654597896339,1.1999960266406116,B,1478.700800000297,Incorrect
1,101,65,B,71.2616910288323,42.19770886581382,3.563084551441615,0.6628400608558079,B,437.0550000003277,Correct
1,101,66,B,38.71680381277427,21.280291983648283,1.9358401906387137,0.33427004481037603,B,1007.0428000003631,Correct
1,101,67,B,47.607221070645,31.981761831683293,2.3803610535322495,0.5023683400963734,B,641.5658000000803,Correct
1,101,68,A,40.80113845740126,67.5061613088092,2.040056922870063,1.0603843021990125,A,552.1803000001455,Correct
1,101,69,B,63.05012987524338,48.24847038630135,3.1525064937621687,0.757885200562745,A,1805.721899999753,Incorrect
1,101,70,A,48.681235396295186,74.77357957710535,2.4340617698147593,1.1745406414102297,A,674.447599999894,Correct
1,101,71,B,53.386495578622096,23.13478475153457,2.669324778931105,0.36340034908901087,B,1281.8853999997373,Correct
1,101,72,A,40.09657950325739,55.301703474351335,2.0048289751628694,0.8686771268301166,A,926.8512999997256,Correct
1,101,73,B,61.435746047938046,42.53764776748622,3.0717873023969027,0.6681798086366249,B,512.5207000000955,Correct
1,101,74,A,35.676286592797965,43.79564507844425,1.7838143296398983,0.6879403841883323,A,1879.7366000003422,Correct
1,101,75,B,73.46742007172534,46.44292111936667,3.673371003586267,0.729523698999263,B,1041.9605000001866,Correct
1,101,76,B,51.65637419118505,43.39982736103185,2.5828187095592523,0.6817228940224149,A,977.1779999996397,Incorrect
1,101,77,B,65.0161375774631,54.647647429190755,3.250806878873155,0.8584032384975541,A,856.890999999905,Incorrect
1,101,78,B,73.69882858477496,44.149408759829086,3.684941429238748,0.6934972911010596,B,815.2807999999823,Correct
1,101,79,B,58.5118396337469,46.77712401188327,2.925591981687345,0.734773345758956,B,554.5851000001676,Correct
1,101,80,B,60.10907466876368,51.36923330806342,3.005453733438184,0.8069060299057608,B,640.9668999999667,Correct
1,101,81,B,84.66160026600399,65.39823251667414,4.233080013300199,1.027273034160703,B,1976.9662999997308,Correct
1,101,82,A,67.02491778557527,82.22654143652841,3.3512458892787635,1.291611492535472,A,784.1584000002513,Correct
1,101,83,B,55.10930287168547,35.62464536558348,2.755465143584274,0.5595906208362936,B,1412.8633999998783,Correct
1,101,84,B,42.771512426681426,21.156469383381786,2.138575621334071,0.3323250439536479,B,826.6631000001325,Correct
1,101,85,B,48.50396229938503,21.040178907812408,2.4251981149692514,0.3304983574349919,B,768.4901000002355,Correct
1,101,86,A,59.54666235473569,75.24682139331912,2.9773331177367846,1.1819743064761732,A,985.0637999998071,Correct
1,101,87,A,52.55322868546167,66.15266955750195,2.6276614342730835,1.0391237034860064,A,946.1865999996917,Correct
1,101,88,B,80.82987992515686,57.087245004740296,4.041493996257843,0.8967243476028638,B,940.9502000003158,Correct
1,101,89,B,58.909427155634965,45.21055331837663,2.945471357781748,0.7101657108487084,A,1267.0521000000008,Incorrect
1,101,90,B,50.87979496814554,22.58744065018192,2.543989748407277,0.35480268805003495,B,1368.327700000009,Correct
1,101,91,A,49.45814472665019,61.07231832631769,2.4729072363325093,0.9593217329582848,A,1185.4152000000795,Correct
1,101,92,B,47.932505060877354,38.74135710109712,2.396625253043868,0.6085478142945274,B,969.4522999998298,Correct
1,101,93,B,53.44711898470339,43.11941150375674,2.6723559492351696,0.677318132036587,A,975.2887999998165,Incorrect
1,101,94,B,79.67898361749226,66.87351605673507,3.983949180874613,1.0504467338177896,B,645.6583999997747,Correct
1,101,95,A,61.03664799263236,78.75207734881042,3.0518323996316177,1.2370347382697897,B,1181.0991000002105,Incorrect
1,101,96,B,43.862524294850225,17.87672968844351,2.1931262147425112,0.28080701329712343,B,518.4979000000567,Correct
1,101,97,B,58.682604421870664,38.84443656028956,2.9341302210935334,0.6101669826532022,B,782.5465000000804,Correct
1,101,98,A,57.05429430495388,69.92690739053666,2.8527147152476937,1.098409292731819,A,2290.1514000000134,Correct
1,101,99,A,65.9103018166682,83.90418131928968,3.29551509083341,1.317963798190732,A,698.7144999998236,Correct
1,101,100,B,72.70841206163274,60.39441696733593,3.6354206030816374,0.9486732833121065,A,1646.01920000041,Incorrect
1,101,101,A,48.943320237454564,56.56250232573885,2.4471660118727283,0.8884817088759838,A,623.1520999999702,Correct
1,101,102,A,29.31137810793892,60.79037990009705,1.4655689053969463,0.9548930545153876,A,859.5716999998331,Correct
1,101,103,A,17.653113880193985,37.31064949909319,0.8826556940096992,0.5860743118350743,B,1023.750199999995,Incorrect
1,101,104,B,87.34369214165616,63.01945090944497,4.367184607082808,0.9899072200518747,B,511.2458999997216,Correct
1,101,105,A,61.67719152539989,84.04137287438576,3.0838595762699947,1.320118798098854,B,663.5285000002114,Incorrect
1,101,106,B,48.94594500458191,41.16011001984426,2.4472972502290955,0.6465414962964519,B,470.15520000013566,Correct
1,101,107,B,54.173991324376516,27.539161259862237,2.708699566218826,0.4325841335000392,B,990.1761999999508,Correct
1,101,108,A,46.838402555633714,65.23210735762551,2.3419201277816857,1.0246635462644849,B,1644.2547000001468,Incorrect
1,101,109,A,44.206777802540714,56.75266590510389,2.2103388901270358,0.8914687913955517,B,415.0319000000309,Incorrect
1,101,110,B,87.06958631232324,66.9517050023441,4.353479315616162,1.051674922903376,B,989.955000000009,Correct
1,101,111,A,59.23308597377028,77.45245628194345,2.9616542986885137,1.2166203382891907,A,852.0656000000599,Correct
1,101,112,A,26.07338402769689,58.36077154917678,1.3036692013848443,0.91672885578363,A,958.8378000003104,Correct
1,101,113,B,43.522658743633386,15.939437365039542,2.176132937181669,0.25037609664181437,B,992.7434000001085,Correct
1,101,114,B,46.69339245439444,17.885965321557066,2.334669622719722,0.2809520862828274,B,839.124399999946,Correct
1,101,115,A,47.320585706387234,55.2666284197835,2.366029285319362,0.8681261691613437,A,1307.3144999998476,Correct
1,101,116,A,56.584836792907964,74.98212251059155,2.8292418396453978,1.1778164261492212,A,1270.9046999998463,Correct
1,101,117,B,78.66744927617064,60.3950593022977,3.9333724638085323,0.9486833730860919,B,1458.4442000000308,Correct
1,101,118,A,50.18984292843311,80.17902378233003,2.5094921464216555,1.2594491604328468,A,1137.4072999997225,Correct
1,101,119,B,76.7854339439906,57.829217094761205,3.8392716971995298,0.9083792179387553,A,1023.7874000004012,Incorrect
1,101,120,B,68.86823085781803,45.33122851712667,3.443411542890902,0.7120612724380264,B,1598.9615999997113,Correct
1,101,121,A,48.197531579337046,78.2572642723127,2.4098765789668524,1.229262232639663,B,1999.8120999998719,Incorrect
1,101,122,A,29.964829515518865,41.74812643140547,1.4982414757759432,0.6557780364902065,A,414.99579999981506,Correct
1,101,123,B,59.066551021661134,39.720472599483834,2.953327551083057,0.6239277245782655,B,780.0300000003517,Correct
1,101,124,A,63.50014249590526,79.70816206646842,3.175007124795263,1.252052881895809,B,1667.4714999999196,Incorrect
1,101,125,B,68.25367620493577,58.09853710909043,3.4126838102467887,0.9126096868311624,B,687.6257999997506,Correct
1,101,126,B,42.985863512127935,14.706046390636889,2.1492931756063967,0.23100203652087772,B,610.6623000000582,Correct
1,101,127,A,35.775161752804,56.33350421625064,1.7887580876402,0.8848846149837133,A,1200.1834000002418,Correct
1,101,128,A,20.865997619491516,36.90930160151267,1.0432998809745757,0.5797699538022109,A,597.7322000003369,Correct
1,101,129,A,49.59202461547443,68.17439538006494,2.4796012307737216,1.0708808984446896,A,1505.3867999999966,Correct
1,101,130,B,73.67197685489036,61.8413767047705,3.683598842744518,0.9714020737179296,B,1036.6761000000224,Correct
1,101,131,B,51.97491487279002,37.67932155704669,2.598745743639501,0.591865398979327,B,807.1678999999676,Correct
1,101,132,B,47.291262869257594,18.916554718287845,2.3645631434628798,0.2971405466710122,B,1615.4974000000948,Correct
1,101,133,B,87.9635443259982,69.01368735201903,4.39817721629991,1.084064465911229,A,1826.281199999812,Incorrect
1,101,134,B,59.52372660043724,47.55410257899133,2.9761863300218625,0.7469780965510732,B,1470.6936000002315,Correct
1,101,135,A,32.85175053473205,63.92397089615051,1.6425875267366024,1.004115386778171,A,765.3420000001461,Correct
1,101,136,B,61.565038388313326,33.14150312460239,3.078251919415666,0.5205855137258701,B,1453.070999999909,Correct
1,101,137,B,55.99944188309468,37.58520173724868,2.799972094154734,0.590386968307154,B,920.4399000000194,Correct
1,101,138,B,56.033753979838664,26.356553397739756,2.801687698991933,0.41400777264143157,B,628.8500000000568,Correct
1,101,139,B,70.27821072412112,53.08954704834755,3.513910536206056,0.8339286549474916,B,2430.814900000314,Correct
1,101,140,A,56.66394730134861,71.77565396520555,2.8331973650674303,1.1274493360184643,A,838.2622999997693,Correct
1,101,141,A,42.274245677288114,63.36689903085503,2.113712283864406,0.9953649223805018,A,972.3621000002822,Correct
1,101,142,B,49.98714465176997,29.32875957137672,2.4993572325884985,0.4606950780416922,A,1005.7232999997723,Incorrect
1,101,143,A,48.177836205814124,58.472503181322544,2.408891810290706,0.9184839321572436,A,667.3190999999861,Correct
1,101,144,A,39.91255328049252,52.843001790190954,1.9956276640246258,0.8300559310884809,A,851.5827000001082,Correct
1,101,145,B,63.762031206820915,35.92113954296,3.1881015603410456,0.5642479404836847,A,2056.822999999895,Incorrect
1,101,146,B,55.367941512814426,40.872942085537055,2.768397075640721,0.6420306729326214,B,992.8734000000077,Correct
1,101,147,A,58.467085013840084,81.61186239227798,2.9233542506920043,1.2819561366868084,A,1330.2797000001192,Correct
1,101,148,A,48.60760904039775,63.79222936341496,2.4303804520198873,1.0020459956210976,B,797.3002000003362,Incorrect
1,101,149,A,14.123583670795977,35.64004426513638,0.7061791835397989,0.5598325061848374,A,681.7409000000225,Correct
1,101,150,B,51.21715046496329,20.327681709919684,2.5608575232481643,0.3193064776219764,B,1847.5705000000744,Correct
1,101,151,B,55.53166179973859,25.443506527486583,2.77658308998693,0.39966566594157904,B,1106.0476000002382,Correct
1,101,152,B,51.94045891691006,24.187435215493608,2.597022945845503,0.37993534391086886,B,770.6299999999828,Correct
1,101,153,A,43.85006919598539,61.426377090106456,2.1925034597992696,0.9648832750145742,B,1187.7975000002152,Incorrect
1,101,154,A,48.86289773757922,62.261780864281846,2.4431448868789607,0.978005766813227,A,638.2723000001533,Correct
1,101,155,A,15.379269853911342,39.89424911300736,0.7689634926955671,0.6266573996695253,A,700.8662999996886,Correct
1,101,156,A,42.076005104370815,54.26978568515768,2.1038002552185406,0.8524678001019194,A,834.158699999989,Correct
1,101,157,B,79.71354047764989,54.09749514165293,3.985677023882494,0.8497614665731318,A,1036.6540999998506,Incorrect
1,101,158,B,64.45189651608112,31.61923199280249,3.2225948258040558,0.4966737347036983,A,834.738500000185,Incorrect
1,101,159,B,51.986821553466015,44.41236378217855,2.599341077673301,0.6976277789332477,B,599.2074000000684,Correct
1,101,160,A,46.169678797860755,54.42689383980798,2.3084839398930375,0.8549356492242615,B,600.604100000055,Incorrect
1,101,161,A,13.545729482077068,39.076122979918026,0.6772864741038533,0.6138063044224088,A,669.5632000000842,Correct
1,101,162,B,69.76415917208865,59.94494792930224,3.4882079586044323,0.9416130401725931,A,755.9274000000187,Incorrect
1,101,163,A,17.008665580481914,39.72640340311787,0.8504332790240957,0.6240208854238983,A,462.94040000020686,Correct
1,101,164,B,56.041212793788986,45.04008469633016,2.8020606396894494,0.7074879959952646,A,2095.2194999999847,Incorrect
1,101,165,A,60.227424220753505,71.17744956577222,3.0113712110376754,1.11805276328544,A,1344.7063000003254,Correct
1,101,166,A,40.699286418821565,49.08806717329657,2.034964320941078,0.7710735560527539,B,890.3991999995924,Incorrect
1,101,167,B,54.47618145558115,29.360533833989447,2.7238090727790576,0.4611941869916791,B,766.5258000001813,Correct
1,101,168,B,38.564071422253505,18.995023593375375,1.9282035711126753,0.2983731328785643,A,675.7269999998243,Incorrect
1,101,169,B,43.327050830191,26.119488999803867,2.16635254150955,0.41028397378651627,B,1056.480499999907,Correct
1,101,170,B,36.78047451305593,16.381140946727655,1.8390237256527966,0.25731436027829274,B,810.9958999998526,Correct
1,101,171,B,72.98829302840913,50.13786199152394,3.649414651420457,0.7875636944963527,A,893.4898000002249,Incorrect
1,101,172,B,44.03547515370026,21.78697956007718,2.2017737576850127,0.3422290746492473,B,907.311700000264,Correct
1,101,173,B,51.21526552553742,38.786518317528724,2.560763276276871,0.609257205023371,B,684.7117000002072,Correct
1,101,174,B,36.664719840443645,18.427044833628123,1.8332359920221821,0.28945134338347933,B,1049.119299999802,Correct
1,101,175,B,67.31823444296181,40.72386543970056,3.3659117221480903,0.6396889824557127,B,1054.3770999997832,Correct
1,101,176,B,51.61106685180878,38.834236210290186,2.580553342590439,0.6100067559300919,A,586.2916000000951,Incorrect
1,101,177,B,59.81923497581565,50.61062963452652,2.9909617487907827,0.7949899112669119,B,1121.1699999998928,Correct
1,101,178,B,66.86603165057373,36.9189386821387,3.343301582528687,0.579921332710695,B,501.07089999983145,Correct
1,101,179,A,56.60182799026811,80.97340366451326,2.8300913995134054,1.2719272504429784,B,525.3485999996883,Incorrect
1,101,180,B,30.387663571056095,14.93284431281294,1.5193831785528047,0.23456456995166625,B,996.2756999998419,Correct
1,101,181,A,37.408468675638154,70.52793586110536,1.8704234337819077,1.1078502258705036,A,480.7043999999223,Correct
1,101,182,A,39.2379150947174,49.29133779335314,1.9618957547358702,0.7742665234860557,A,653.9653000004364,Correct
1,101,183,B,81.81042496255573,60.92642040631466,4.090521248127787,0.9570299737900071,A,695.8887999999206,Incorrect
1,101,184,B,37.34621264573682,27.710413226239588,1.867310632286841,0.43527415309745865,A,696.2114000002657,Incorrect
1,101,185,A,66.36433462288595,85.71851040080459,3.3182167311442976,1.3464632127591398,A,750.8504000002176,Correct
1,101,186,A,38.609677279232365,68.66087523311637,1.9304838639616182,1.0785225061070187,A,1006.5717999996195,Correct
1,101,187,B,86.89197491926244,64.56683713936329,4.344598745963122,1.0142135061127615,A,912.7960000000712,Incorrect
1,101,188,B,60.62967335896721,36.59472672699081,3.0314836679483608,0.5748286232282018,B,1335.4786999998396,Correct
1,101,189,B,64.9538107197341,54.69977325440813,3.2476905359867043,0.85922202904538,B,604.4220999997378,Correct
1,101,190,A,58.37533488768585,85.38492811548039,2.918766744384293,1.3412233144744288,B,986.7616000001362,Incorrect
1,101,191,B,64.69270658746397,43.30561619588161,3.234635329373199,0.6802430285008042,B,794.2705000000387,Correct
1,101,192,B,61.85174414156391,33.351416442056276,3.092587207078196,0.5238828244058892,B,738.5750999997072,Correct
1,101,193,A,38.51924242531136,51.181491500455515,1.925962121265568,0.8039569884879975,B,647.0079000000624,Incorrect
1,101,194,B,75.5971846258717,54.12168883312667,3.7798592312935853,0.8501415001901175,B,1257.2322999999415,Correct
1,101,195,A,28.481434403946096,50.846610436028335,1.4240717201973048,0.7986966890288436,A,510.2073000002747,Correct
1,101,196,A,38.807864392440464,56.60221678342259,1.9403932196220233,0.8891055421184866,B,1205.3713000000243,Incorrect
1,101,197,A,40.3683124916154,61.741402019169314,2.01841562458077,0.9698316750287818,A,409.28319999966334,Correct
1,101,198,B,47.63155044655845,22.141426004348347,2.3815775223279223,0.3477967063763138,B,929.8468999995748,Correct
1,101,199,A,29.35045404073329,56.20560004685505,1.4675227020366646,0.8828755009890297,A,1710.8103999999003,Correct
1,101,200,A,25.770755148956923,38.65291126443077,1.2885377574478463,0.6071585103409693,B,841.3519000000633,Incorrect
1,101,201,A,19.956224626176382,37.159904152972274,0.9978112313088191,0.5837064094753928,A,748.6825000000863,Correct
1,101,202,B,49.850273607803324,31.024522640246616,2.492513680390166,0.4873320620386449,B,758.6326000000554,Correct
1,101,203,A,60.78281616861412,83.98980224882955,3.0391408084307057,1.319308728606912,A,758.0766000000949,Correct
1,101,204,B,62.58273462115486,39.43654586339103,3.129136731057743,0.6194678138369312,B,777.397800000017,Correct
1,101,205,B,52.19327674291385,31.1310748949282,2.6096638371456926,0.48900578094130037,B,480.5977000000894,Correct
1,101,206,A,22.945725602849425,42.618593622641185,1.1472862801424712,0.6694513031560918,A,1598.403099999814,Correct
1,101,207,A,23.939736492043558,37.59374174965377,1.1969868246021778,0.5905211145083209,A,683.9596999998321,Correct
1,101,208,A,56.530301532616534,75.09794386228529,2.8265150766308267,1.1796357436872709,A,912.6529000000119,Correct
1,101,209,A,66.1936553595291,83.19721086767501,3.309682767976455,1.3068587323052436,A,658.8980999999876,Correct
1,101,210,A,50.23279327426433,65.77923493046026,2.5116396637132166,1.0332578060814552,A,799.3667000000642,Correct
1,101,211,B,61.37249434157452,46.33240879391888,3.068624717078726,0.7277877754504734,A,1026.9106000000647,Incorrect
1,101,212,A,43.967174500246294,57.78896279023198,2.198358725012315,0.9077469048018334,A,804.5753000001241,Correct
1,101,213,A,43.51348146676702,68.27372159624387,2.175674073338351,1.0724411109999727,A,762.6743999999235,Correct
1,101,214,A,33.661146702938474,66.83892855869023,1.6830573351469238,1.0499034346689713,A,517.1930999999859,Correct
1,101,215,A,21.551182125074167,53.64542970463202,1.0775591062537082,0.842660439293698,A,1632.2249999998348,Correct
1,101,216,B,70.7853918690855,59.77677166968445,3.539269593454275,0.9389713336639758,B,437.4875000003158,Correct
1,101,217,B,39.121037283696324,17.444054252671343,1.9560518641848161,0.27401056344507035,B,768.8419000000977,Correct
1,101,218,B,55.81281420387366,30.261721656503283,2.7906407101936828,0.47535001220524925,B,670.3744000001279,Correct
1,101,219,A,14.01311542581508,35.18153594654623,0.700655771290754,0.5526302743583743,A,686.6598000001432,Correct
1,101,220,B,54.59723529953394,38.907640292631406,2.729861764976697,0.6111597845592254,B,1968.053499999769,Correct
1,101,221,B,59.8757554032974,35.22863737187233,2.99378777016487,0.5533701418172647,B,758.9505000000827,Correct
1,101,222,B,42.42436648513532,32.24663755636189,2.121218324256766,0.5065289982501961,B,648.3506999998099,Correct
1,101,223,A,61.15481045798995,76.73622984395053,3.0577405228994974,1.2053698797096641,B,1239.292199999909,Incorrect
1,101,224,A,32.15996236427963,48.90649693666062,1.6079981182139815,0.7682214574451237,A,496.1350000003222,Correct
1,101,225,B,51.8776587210611,41.563472396866814,2.5938829360530553,0.6528774976983946,B,843.4324999998353,Correct
1,101,226,B,56.15727434213806,24.32860866537728,2.807863717106903,0.38215289127605123,B,720.9784000001491,Correct
1,101,227,A,25.57253796243439,36.18459233526396,1.2786268981217193,0.568386247268034,B,739.2194000003656,Incorrect
1,101,228,B,57.69920281523583,31.221149447290152,2.8849601407617915,0.4904206687011788,B,650.7027000002381,Correct
1,101,229,B,68.47725798228755,56.38189497196727,3.4238628991143774,0.8856447351970183,B,782.2664999998779,Correct
1,101,230,A,36.65802521091915,45.80632392364875,1.8329012605459576,0.7195240536324464,B,1270.317200000136,Incorrect
1,101,231,B,61.207945975939154,44.0140881784612,3.0603972987969574,0.6913716803795353,B,740.6760999997459,Correct
1,101,232,A,21.8740594590113,47.87008746778254,1.093702972950565,0.7519415755774322,A,545.6125000000611,Correct
1,101,233,A,25.849272970307137,46.26179250393578,1.2924636485153567,0.7266785373613001,A,728.2832000000781,Correct
1,101,234,B,62.25411379533941,30.616750141435304,3.1127056897669707,0.4809267866056371,B,614.6676000003026,Correct
1,101,235,A,16.19981399731634,34.725166370329376,0.8099906998658171,0.5454616378185506,A,634.780999999748,Correct
1,101,236,A,33.57116034570633,46.28940092095713,1.6785580172853167,0.7271122093617576,A,516.7750999999043,Correct
1,101,237,A,34.28404112265139,58.92751557172456,1.7142020561325695,0.9256312500721401,A,711.5235000001121,Correct
1,101,238,B,72.32767652370305,62.71033334863135,3.6163838261851526,0.9850516127611363,B,958.9937000000646,Correct
1,101,239,A,24.940564132886173,40.01969182503207,1.2470282066443088,0.6286278491822412,A,634.0637000002971,Correct
1,101,240,B,62.016960791646376,45.949519963083276,3.100848039582319,0.7217733717599998,B,948.288600000069,Correct
1,101,241,B,46.06441019839242,34.81750968951285,2.303220509919621,0.546912163284325,B,711.6115999997419,Correct
1,101,242,A,47.40987852180804,61.58671578870338,2.370493926090402,0.9674018694025652,B,557.9698000001372,Incorrect
1,101,243,B,33.08559739848991,17.61604509226645,1.6542798699244954,0.27671218923585406,B,949.7046999999839,Correct
1,101,244,B,53.07582564841486,39.278045711460074,2.6537912824207432,0.6169780992724353,B,704.464000000371,Correct
1,101,245,B,67.29570990161845,54.417677048319476,3.364785495080923,0.8547908722021118,B,937.8538999999364,Correct
1,101,246,A,60.580125421824775,83.30560823393063,3.029006271091239,1.3085614341527292,A,994.4757999996909,Correct
1,101,247,A,41.29608636510487,73.22170989631626,2.0648043182552436,1.1501639294677508,A,553.9217000000463,Correct
1,101,248,A,23.436878053497583,55.84948333728331,1.171843902674879,0.877281632795974,A,542.0908000000964,Correct
1,101,249,B,78.72006287345123,63.49658412093698,3.9360031436725613,0.9974020110119097,B,731.8511999997099,Correct
1,101,250,B,64.34565199438566,41.270296228576825,3.217282599719283,0.6482722972158576,B,684.7335000002204,Correct
1,101,251,A,13.976812705588337,41.91917972840935,0.6988406352794169,0.6584649353964049,A,746.5170000000398,Correct
1,101,252,A,61.48872250004668,80.6676857141098,3.0744361250023338,1.2671250441076882,B,796.2266999998064,Incorrect
1,101,253,B,58.973870915249236,45.525122925780714,2.9486935457624615,0.7151069586870248,B,813.6125999999422,Correct
1,101,254,A,54.16380595898056,79.1218896732978,2.708190297949028,1.2428437366788727,A,1074.0305999997872,Correct
1,101,255,B,42.79169736231823,31.13857848786813,2.1395848681159118,0.4891236471035784,B,797.896000000037,Correct
1,101,256,B,40.335923427834004,19.435298434198597,2.0167961713917,0.30528895390601757,B,538.0793999997877,Correct
1,101,257,A,18.56313420333487,38.777669512088934,0.9281567101667434,0.6091182083125576,A,994.0911999997297,Correct
1,101,258,A,57.91721975267258,73.50121290603927,2.895860987633629,1.1545543524777613,B,1665.2910999996493,Incorrect
1,101,259,B,68.08046992875299,55.192700981552775,3.4040234964376497,0.8669649196771217,B,405.73330000006536,Correct
1,101,260,B,65.57059069791697,39.656654355780866,3.2785295348958483,0.6229252699503542,B,897.0594999996138,Correct
1,101,261,A,59.709488273104554,71.44821705001752,2.985474413655228,1.1223059689821204,B,1671.1239000001115,Incorrect
1,101,262,B,81.85029729234729,56.275742766742916,4.092514864617365,0.8839773002565424,B,823.7275000001318,Correct
1,101,263,B,48.02920551464699,24.56800404376056,2.4014602757323495,0.3859133050862125,B,840.2532999998584,Correct
1,101,264,B,78.83090538669927,63.131596835220016,3.9415452693349637,0.9916688041345992,B,990.9020999998575,Correct
1,101,265,A,14.7396637833392,40.71327841530072,0.7369831891669599,0.6395226818653232,A,448.3414999999695,Correct
1,101,266,B,73.34693307114847,50.874277964874324,3.667346653557423,0.7991312895556713,B,663.2424999997966,Correct
1,101,267,A,45.76101874356866,64.65526385982147,2.288050937178433,1.015602509789624,A,2103.2703000000765,Correct
1,101,268,A,37.96079090071756,51.87334621991922,1.8980395450358782,0.8148246170080905,B,968.9187999997557,Incorrect
1,101,269,B,73.0264336742782,61.95611435278871,3.65132168371391,0.9732043684784508,B,491.1686999998892,Correct
1,101,270,A,42.07078212146309,66.11693110633959,2.1035391060731543,1.0385623252078946,A,826.3369999999668,Correct
1,101,271,B,89.60596331606465,65.45912122085153,4.480298165803232,1.0282294716893543,B,535.6130999998641,Correct
1,101,272,A,60.07791855652922,74.08475385746804,3.003895927826461,1.1637205923081486,A,957.128499999726,Correct
1,101,273,A,32.99285971358807,61.82801941154256,1.6496429856794035,0.9711922578465462,A,1881.8691999999828,Correct
1,101,274,B,84.89584982027662,56.926719614544325,4.244792491013831,0.8942028206700923,B,516.098200000215,Correct
1,101,275,A,47.86759723021988,64.97077357621434,2.393379861510994,1.020558524825404,B,634.1643999999178,Incorrect
1,101,276,A,40.73744445099797,49.497352347822336,2.0368722225498983,0.7775025925403208,A,1054.3456000000333,Correct
1,101,277,A,42.15180476754984,61.21718502815451,2.107590238377492,0.9615972937894866,A,788.6833000002298,Correct
1,101,278,A,46.44215018614573,63.00599402765064,2.3221075093072865,0.9896958398469482,A,674.2107999998552,Correct
1,101,279,A,36.62017695035682,56.74515724909828,1.8310088475178412,0.8913508457028239,A,1764.7133999998914,Correct
1,101,280,B,85.80469739450537,62.07863466029355,4.290234869725269,0.9751289129683147,B,731.9244000000253,Correct
1,101,281,A,45.79138924268495,55.68979887588498,2.2895694621342475,0.8747733151418668,A,1343.518000000131,Correct
1,101,282,A,34.385273192572804,58.62700471059283,1.7192636596286404,0.9209108365038633,A,732.2494999998526,Correct
1,101,283,B,61.5417352157488,53.159196021204146,3.07708676078744,0.8350226984547735,B,1393.7842999998793,Correct
1,101,284,A,34.79480969626977,64.56873027690743,1.7397404848134885,1.0142432434477662,A,766.215000000102,Correct
1,101,285,B,76.6278377969255,60.23570729925167,3.8313918898462753,0.9461802776755707,B,731.4906999999948,Correct
1,101,286,A,52.64888713587302,81.55481501712848,2.632444356793651,1.2810600386134268,A,722.1121000002313,Correct
1,101,287,B,67.59948536043103,44.29133891871749,3.3799742680215514,0.6957267248234928,B,688.2074000000102,Correct
1,101,288,A,29.06608613781234,42.848191933522614,1.453304306890617,0.6730578249898004,A,1250.697300000411,Correct
1,101,289,B,70.43371091233799,37.827492462981766,3.521685545616899,0.594192862127134,B,718.2953000001362,Correct
1,101,290,A,30.04527677089118,47.121003856375836,1.5022638385445592,0.7401749977248332,A,1814.3310999998903,Correct
1,101,291,B,73.17758785183979,51.80190883512914,3.65887939259199,0.8137024811918495,B,1237.2301999998854,Correct
1,101,292,A,29.35865969961297,43.19711942099446,1.4679329849806486,0.6785387651461859,B,1041.3943999997173,Incorrect
1,101,293,A,33.38126266991199,65.79541210612336,1.6690631334955994,1.0335119165625504,A,732.7185000003738,Correct
1,101,294,B,64.13663558474268,46.36778256899212,3.206831779237134,0.7283434254099725,B,662.9425999999512,Correct
1,101,295,B,74.14188794266198,49.892246763015166,3.707094397133099,0.7837055795088879,B,3979.125500000009,Correct
1,101,296,B,68.15447841109192,59.183105358441395,3.407723920554596,0.9296460450535512,B,2000.6779999998798,Correct
1,101,297,A,49.22347030447107,70.85986207201553,2.4611735152235537,1.1130641105991501,A,1155.4487999997036,Correct
1,101,298,A,61.52417160841196,85.50468850962011,3.076208580420598,1.3431045063465306,A,918.2208999995964,Correct
1,101,299,A,29.48186633949221,51.589007066351364,1.4740933169746107,0.8103582280282069,A,833.266900000126,Correct
1,101,300,A,26.30616813767789,56.457243745286725,1.3153084068838945,0.8868283109606052,A,670.5501000001277,Correct
1,101,301,B,67.64561473716293,41.637622273571225,3.3822807368581467,0.6540422412379906,B,708.88849999983,Correct
1,101,302,B,52.05461777423874,39.746723205729275,2.602730888711937,0.6243400681369302,B,620.6237999999757,Correct
1,101,303,B,69.74319111304037,51.43373970217977,3.4871595556520187,0.8079192939750882,B,923.8362000000961,Correct
1,101,304,B,83.86050065046106,56.64480232896816,4.193025032523053,0.889774474303662,B,942.5872000001618,Correct
1,101,305,B,40.64266106710197,20.45118356352855,2.0321330533550985,0.32124644020198806,B,754.7380999999405,Correct
1,101,306,A,48.529143554786515,73.81498215054451,2.4264571777393256,1.1594830282450617,A,1041.666300000088,Correct
1,101,307,B,72.28361430664347,47.657409955538164,3.6141807153321737,0.7486008450271787,B,1639.4930999999815,Correct
1,101,308,A,48.035206665240906,66.9032788352617,2.4017603332620454,1.0509142464496384,A,579.93660000011,Correct
1,101,309,B,74.37890712246517,45.667180391108175,3.7189453561232586,0.7173383921343265,B,918.123999999807,Correct
1,101,310,B,52.20111395905333,35.778129982852775,2.6100556979526663,0.562001551566555,B,709.3282999999246,Correct
1,101,311,B,43.569835767041894,17.44088191356064,2.178491788352095,0.273960732458846,B,1325.0680999999531,Correct
1,101,312,A,38.512804749561674,48.2919688769648,1.9256402374780837,0.7585684732562977,A,589.9061000000074,Correct
1,101,313,B,86.35969323433991,63.92016659832419,4.317984661716996,1.0040556290076548,B,766.204099999868,Correct
1,101,314,B,66.81633274173524,55.672613548585076,3.340816637086762,0.8745033686518923,B,1704.4706000001497,Correct
1,101,315,B,58.50968275096015,47.707305288328236,2.9254841375480076,0.7493845990818874,B,1265.8716999999342,Correct
1,101,316,B,50.55830613287546,41.694088596055586,2.5279153066437727,0.654929212157451,B,856.2044000000242,Correct
1,101,317,A,61.723395926802304,79.55431993915342,3.086169796340115,1.2496363354108817,A,728.4847999999329,Correct
1,101,318,B,62.95864034048092,32.858754993585116,3.1479320170240457,0.5161441164697697,B,720.7730999998603,Correct
1,101,319,A,53.16809662484434,80.16569193176664,2.658404831242217,1.2592397442139034,A,743.4420000004138,Correct
1,101,320,A,30.977234265838376,55.945563723184236,1.548861713291919,0.8787908599684762,A,1070.3413999999611,Correct
1,101,321,A,33.33520581096069,49.74886819098978,1.6667602905480345,0.7814533941661023,A,1337.9630999997971,Correct
1,101,322,A,56.399478408977835,70.94602465747391,2.819973920448892,1.114417549326602,A,1198.4009999996488,Correct
1,101,323,B,77.62238479276301,51.02488386329213,3.8811192396381506,0.8014970014759547,B,945.1490999999805,Correct
1,101,324,A,67.00275478061685,81.61695842264552,3.3501377390308424,1.282036184944634,A,920.057799999995,Correct
1,101,325,A,30.915502257371454,43.73746828045434,1.5457751128685726,0.6870265451824598,A,1173.913999999968,Correct
1,101,326,A,17.70784494476917,44.35244065325683,0.8853922472384584,0.6966865086252446,A,1256.9487999999183,Correct
1,101,327,B,63.544477992955244,44.33398774043758,3.177223899647762,0.6963966509484932,B,1361.5335999998024,Correct
1,101,328,A,44.36650126656092,65.00651201294109,2.218325063328046,1.021119902876762,A,821.425999999974,Correct
1,101,329,B,65.88970998178884,45.17406942371484,3.2944854990894417,0.7095926231714891,B,1879.068400000051,Correct
1,101,330,A,38.77744990404884,51.87258940031285,1.9388724952024419,0.8148127289135131,A,714.980100000048,Correct
1,101,331,B,57.08285548977333,37.959458744051936,2.8541427744886665,0.596265783622792,B,1003.8214999999582,Correct
1,101,332,B,76.19098160343073,62.130412606069925,3.809549080171536,0.9759422390386597,B,627.8405000002749,Correct
1,101,333,A,63.38945848839572,88.9272025626346,3.1694729244197855,1.3968652313753216,A,767.9901000001337,Correct
1,101,334,B,73.48633532995143,46.17398210116788,3.6743167664975713,0.7252992147800782,B,1142.3608000000058,Correct
1,101,335,A,29.578674651369273,57.94909406611816,1.4789337325684635,0.9102622410015033,A,656.0346000001118,Correct
1,101,336,A,30.519825779300927,51.78773098207597,1.5259912889650462,0.8134797759968719,A,491.0957000001872,Correct
1,101,337,B,54.75181769054451,46.029502570414635,2.7375908845272257,0.7230297356180355,B,2299.664600000142,Correct
1,101,338,B,33.12094715363122,13.563044814132166,1.656047357681561,0.21304780974193374,B,862.4213000002783,Correct
1,101,339,A,54.654884086145714,74.8463120423903,2.732744204307286,1.1756831203033131,A,862.9934000000503,Correct
1,101,340,B,56.13293591608839,40.25566075607295,2.8066467958044194,0.6323344404834086,A,872.1507999998721,Incorrect
1,101,341,A,63.06903663299986,83.08981739465153,3.153451831649993,1.3051717995757732,A,528.6897999999383,Correct
1,101,342,B,55.80655979197006,30.403395782265918,2.790327989598503,0.4775754241687475,B,949.685899999622,Correct
1,101,343,B,50.399416423099254,30.971894868777,2.5199708211549625,0.4865053869375261,B,666.9396000002052,Correct
1,101,344,A,61.12256144351372,73.61226177199788,3.056128072175686,1.1562987039851866,A,1226.1387000003197,Correct
1,101,345,A,37.96480823368468,56.357711189074045,1.8982404116842337,0.8852648572236514,A,2641.8745999999373,Correct
1,101,346,B,51.73836225293314,39.05823619708602,2.586918112646657,0.6135253394947019,A,1000.5645000001095,Incorrect
1,101,347,B,60.86032625094534,44.45397906008508,3.0430163125472673,0.698281470189989,B,1488.278199999968,Correct
1,101,348,A,46.18443316934448,60.19846095948565,2.3092216584672243,0.9455952135386604,A,476.69290000021647,Correct
1,101,349,B,79.01196870124926,52.49657878398047,3.9505984350624628,0.8246143312317541,B,873.1305000001157,Correct
1,101,350,B,34.19354287958164,16.0077228967732,1.7096771439790819,0.251448723266019,B,1923.9354999999705,Correct
1,101,351,B,54.688222852070645,41.01628654532482,2.7344111426035322,0.6442823224416315,B,1877.8581999999915,Correct
1,101,352,B,58.09838006172694,45.001778362962796,2.904919003086347,0.7068862815178001,B,1558.6880000000747,Correct
1,101,353,A,55.704311358849644,63.143058833601984,2.7852155679424824,0.9918488487841605,B,726.7104000002291,Incorrect
1,101,354,B,45.8750186219012,34.05141952453081,2.29375093109506,0.5348784471128502,B,599.8644999999669,Correct
1,101,355,A,42.46970544532015,53.85599675977197,2.1234852722660076,0.8459680188612767,A,1080.141299999923,Correct
1,101,356,A,41.28427813518732,57.527167313279456,2.064213906759366,0.9036346310661482,A,836.8304999999054,Correct
1,101,357,A,39.03980244944965,69.58325776673021,1.9519901224724827,1.093011257064023,A,1265.0066000001061,Correct
1,101,358,A,37.926249256761395,69.81100352782467,1.8963124628380696,1.0965886791137254,A,566.0026000000471,Correct
1,101,359,A,55.33017381793148,75.83501899838367,2.766508690896574,1.1912136928508228,B,1408.4834000000228,Incorrect
1,101,360,A,20.81309108307378,34.17301129448138,1.040654554153689,0.5367884061689185,A,710.8868000000257,Correct
1,101,361,B,35.29634922434914,15.640384077117673,1.7648174612174572,0.24567857857997827,B,1283.2948999998735,Correct
1,101,362,B,77.73435106940363,53.92902634699,3.886717553470181,0.847115164934771,B,1581.2496999997165,Correct
1,101,363,A,50.33191808100362,70.25948608903508,2.516595904050181,1.1036334267115344,A,1150.3806000000623,Correct
1,101,364,A,49.91438172065803,61.745124402757476,2.495719086032901,0.9698901460934538,A,1070.3941000001578,Correct
1,101,365,A,12.661179124882501,33.7452041056812,0.6330589562441251,0.530068426561481,B,1314.2895000000863,Incorrect
1,101,366,B,47.63481561002196,33.332707642677384,2.381740780501098,0.5235889472724581,B,1230.4306000000906,Correct
1,101,367,B,34.06748363125908,20.5010933340221,1.703374181562954,0.32203042104361257,A,1803.6956000000828,Incorrect
1,101,368,A,60.29155743344727,70.1687763743587,3.0145778716723637,1.1022085618453517,A,930.9213999999884,Correct
1,101,369,B,53.84500584418964,38.849382987706974,2.692250292209482,0.6102446809533826,B,2537.0005999998284,Correct
1,101,370,A,28.77032439988168,45.79860148972584,1.438516219994084,0.7194027499240464,A,720.1772000003075,Correct
1,101,371,B,58.05087795863027,43.35672278268335,2.9025438979315137,0.6810458088890361,B,1236.3623999999618,Correct
1,101,372,A,41.830050713459286,67.68299391898094,2.0915025356729644,1.0631619823441658,A,1108.9074000001347,Correct
1,101,373,B,86.2875448250202,61.39513643605114,4.31437724125101,0.9643925479682065,B,1366.0264000000097,Correct
1,101,374,B,71.03141449077462,42.73736694814448,3.551570724538731,0.6713169901903097,B,615.7392000000073,Correct
1,101,375,B,53.44868201521565,37.58593365751629,2.6724341007607824,0.5903984652838327,B,3151.185699999587,Correct
1,101,376,A,46.035387816669505,73.42413269769622,2.301769390833475,1.1533435793964228,A,1277.2745999996005,Correct
1,101,377,B,80.92147175585426,66.75163068643454,4.046073587792713,1.0485321628982087,B,973.3111000000463,Correct
1,101,378,A,36.54594162234052,54.08211673605084,1.8272970811170262,0.8495199031428147,A,1127.503600000182,Correct
1,101,379,A,20.48167872206139,40.9366828773363,1.0240839361030694,0.6430319109488741,B,2341.9088000000556,Incorrect
1,101,380,A,31.61196695447037,57.514607491261835,1.5805983477235186,0.9034373418432433,A,2381.9335000002866,Correct
1,101,381,A,27.721733392047604,58.26181255344081,1.3860866696023804,0.9151744115135763,A,604.8353999999563,Correct
1,101,382,B,70.53986565088765,40.95549707346404,3.526993282544382,0.6433274436505645,B,558.2586000000447,Correct
1,101,383,B,68.01765193310474,53.00674255810854,3.400882596655237,0.8326279650563961,B,1095.0678999997763,Correct
1,101,384,B,82.15974528905087,59.97878895796161,4.107987264452544,0.9421446138077241,B,902.578000000176,Correct
1,101,385,A,43.03900791707389,70.78376542438937,2.1519503958536945,1.1118687872534245,A,1406.0147000000143,Correct
1,101,386,B,64.65638408948097,53.34900916295801,3.2328192044740485,0.8380042763132173,B,2805.9830000001966,Correct
1,101,387,B,60.28771132702375,33.701595192315686,3.0143855663511876,0.5293834193521801,B,555.0177000000076,Correct
1,101,388,A,42.81359894422126,60.35040796897894,2.1406799472110634,0.9479819915824559,A,861.8302999998377,Correct
1,101,389,B,47.59399061118532,28.896529278933464,2.379699530559266,0.4539056204846987,B,843.6312999997426,Correct
1,101,390,B,45.401090638558635,22.908700172125922,2.2700545319279315,0.35984902082021014,B,888.6029000000235,Correct
1,101,391,A,22.188843116842524,37.61879596796946,1.1094421558421261,0.590914665249331,A,1674.8302999999396,Correct
1,101,392,A,33.43117316450019,45.60740883763619,1.6715586582250095,0.7163995027679203,A,1178.5683000002791,Correct
1,101,393,A,43.76083079193972,60.82800900230633,2.188041539596986,0.9554841310706969,B,1769.1970999999285,Incorrect
1,101,394,A,48.52788270690844,57.44595251648174,2.426394135345422,0.9023589120212356,B,1987.164600000142,Incorrect
1,101,395,B,68.74605195347331,57.07483407714244,3.4373025976736655,0.8965293972080354,B,1200.682499999857,Correct
1,101,396,B,85.4702205238269,64.88382237178666,4.273511026191345,1.01919269850015,B,653.696299999865,Correct
1,101,397,A,44.669559438834646,52.906338234293685,2.2334779719417326,0.8310508176259691,A,805.1485000000866,Correct
1,101,398,A,35.24599887310325,55.930926699586344,1.7622999436551623,0.8785609421394485,A,1701.1539000000084,Correct
1,101,399,B,37.228758003946645,12.16333726985502,1.8614379001973322,0.1910612550505573,B,2085.167300000194,Correct
1,101,400,A,59.80104218819119,84.56054066317208,2.9900521094095596,1.3282738666550118,A,1267.0153999997638,Correct
1,101,401,B,44.22867076076342,27.172393356880807,2.211433538038171,0.42682295675214416,B,1669.2447000000357,Correct
1,101,402,A,60.908503380231465,78.0579663598659,3.0454251690115735,1.2261316683515697,B,957.7894999997625,Incorrect
1,101,403,B,39.39973708074717,11.987532115324964,1.9699868540373586,0.18829971414088312,B,679.5050999999148,Correct
1,101,404,B,83.31778676506991,60.027678170671166,4.165889338253495,0.9429125637651645,B,751.2129000001551,Correct
1,101,405,B,60.68210760333957,51.59437654810499,3.0341053801669786,0.8104425716503608,B,882.5615000000653,Correct
1,101,406,B,35.830603696286516,17.850151885817745,1.791530184814326,0.2803895301497351,B,2247.8111000000354,Correct
1,101,407,A,62.809284003286336,88.0733215237093,3.140464200164317,1.3834524993806845,A,890.8742000003258,Correct
1,101,408,A,44.27254714988722,72.46542497825985,2.2136273574943606,1.1382842337548171,A,1118.2212000003346,Correct
1,101,409,B,40.35532971547261,27.28068197824848,2.01776648577363,0.4285239504389245,B,1601.2845000000198,Correct
1,101,410,B,61.17615238623288,33.29121688218836,3.058807619311644,0.5229372119307372,B,2069.1444000003685,Correct
1,101,411,B,64.84707053667815,50.180003183733895,3.242353526833907,0.7882256467956542,B,651.2533999998595,Correct
1,101,412,A,31.716390167602675,41.25608851204689,1.5858195083801336,0.6480491229264838,B,911.365399999795,Incorrect
1,101,413,B,77.43135375586522,66.24639681798928,3.8715676877932608,1.0405959678509469,B,786.7183999996996,Correct
1,101,414,B,69.85780159475546,47.43804389419647,3.492890079737773,0.7451550509933889,B,494.5919000001595,Correct
1,101,415,A,63.13043646176808,85.46516729663853,3.156521823088404,1.3424837085847112,A,576.5610000003107,Correct
1,101,416,B,73.08490832265217,49.429924824711485,3.6542454161326083,0.7764434434840467,B,1430.9210999999777,Correct
1,101,417,B,69.9965700155924,57.58431386661994,3.49982850077962,0.9045322870269104,B,763.0819999999403,Correct
1,101,418,A,63.09223249472579,84.46547084613177,3.15461162473629,1.326780513461052,B,953.4236999998029,Incorrect
1,101,419,A,31.768145575496476,55.84563516451102,1.5884072787748238,0.8772211858394183,A,1121.469100000013,Correct
1,101,420,B,49.94763506123729,30.986345944461586,2.4973817530618647,0.48673238390356205,B,1131.4051000003928,Correct
1,101,421,B,56.58180881161113,37.234904221244776,2.8290904405805564,0.5848845077929108,B,721.7359999999644,Correct
1,101,422,B,46.50462817408528,20.808232249616527,2.325231408704264,0.3268549478479275,B,1045.9077000000434,Correct
1,101,423,A,17.55261813092596,48.36708953745391,0.877630906546298,0.7597484658319248,A,2123.1949000002714,Correct
1,101,424,A,13.11750315862422,32.12817761269993,0.655875157931211,0.5046682338064307,A,545.5631999998332,Correct
1,101,425,B,48.89443702654981,40.075692497119604,2.4447218513274906,0.6295075056823727,A,1319.9202000000696,Incorrect
1,101,426,A,69.44960191344536,85.37719766529847,3.472480095672268,1.3411018848469265,B,1315.5163000001266,Incorrect
1,101,427,B,62.673042787595804,44.002889643799584,3.1336521393797905,0.6911957742084157,B,833.6223000001155,Correct
1,101,428,B,46.69366884437858,29.2458457648706,2.334683442218929,0.4593926710146882,B,967.1615000002021,Correct
1,101,429,A,22.294994885367103,45.691432309241286,1.1147497442683552,0.7177193403735386,A,2091.570000000047,Correct
1,101,430,A,38.586467039831916,62.86929297334774,1.9293233519915958,0.9875485447072683,A,2603.8986000003206,Correct
1,101,431,B,81.47288414203885,52.38186898768607,4.0736442071019425,0.8228124739650877,B,728.6059999996723,Correct
1,101,432,B,48.72626194747609,35.36329054238597,2.4363130973738043,0.5554852688736058,B,941.0643999999593,Correct
1,101,433,A,11.229740342592049,30.919187307238598,0.5614870171296025,0.48567745849693783,A,733.2793999999012,Correct
1,101,434,B,38.21002396278284,16.223154708131958,1.910501198139142,0.2548327182455901,B,1009.1982999997526,Correct
1,101,435,B,54.42237866290268,25.76234011788542,2.7211189331451338,0.40467389226815215,B,843.4323000001314,Correct
1,101,436,B,54.631633591646754,22.569867144560707,2.7315816795823378,0.3545266440692478,B,1331.7314999999326,Correct
1,101,437,B,70.68723844675844,40.49535617721839,3.534361922337922,0.6360995673542568,B,1496.9725000000835,Correct
1,101,438,B,60.34230745934275,48.508588398724314,3.0171153729671376,0.7619711247472167,B,839.0845999997509,Correct
1,101,439,B,71.40504388853277,53.98176248947525,3.5702521944266383,0.8479435423238226,B,1117.4825999996756,Correct
1,101,440,A,11.755637335561968,38.172832223691074,0.5877818667780984,0.599617446403318,A,922.4530000001323,Correct
1,101,441,B,55.93442148647953,33.34446788594604,2.7967210743239765,0.5237736767417442,B,952.7898999999707,Correct
1,101,442,B,71.30784411177673,55.05728550434902,3.5653922055888363,0.8648378183352934,B,1246.0578999998688,Correct
1,101,443,A,54.46504493098345,78.62598399669442,2.723252246549173,1.235054068526419,A,1438.3487999998579,Correct
1,101,444,A,31.35550452549297,44.72642628928551,1.5677752262746487,0.7025610612587238,A,1566.634900000281,Correct
1,101,445,A,42.90266430247486,69.89133054672058,2.145133215123743,1.0978504529759665,A,1730.0098999999136,Correct
1,101,446,B,62.40110371988101,53.2466651517955,3.12005518599405,0.8363966603451819,B,1399.2549999998118,Correct
1,101,447,A,66.34606848029819,88.08424016127228,3.3173034240149093,1.3836240089384597,B,674.5485000001281,Incorrect
1,101,448,A,56.08688393070166,74.32159668184943,2.8043441965350833,1.1674409106938084,A,1206.1338999997133,Correct
1,101,449,A,38.30288275826561,58.2528000579321,1.9151441379132805,0.9150328435651728,A,1364.8404999999002,Correct
1,101,450,A,15.899249055603079,42.0866278801033,0.794962452780154,0.6610952048124995,A,722.0486000001074,Correct
1,101,451,A,28.669736210701103,40.16641161177044,1.4334868105350551,0.6309325182030089,A,1201.545200000055,Correct
1,101,452,A,14.88641547705097,43.169371247320925,0.7443207738525486,0.6781028978533693,A,940.8798999997998,Correct
1,101,453,B,64.928147305151,42.78535503680606,3.24640736525755,0.6720707853243048,B,1076.0765999998512,Correct
1,101,454,A,23.72140242119378,34.632227574416895,1.186070121059689,0.5440017586261899,B,3606.015099999695,Incorrect
1,101,455,A,41.365940075488595,49.701878726835886,2.06829700377443,0.7807152853891921,B,700.3740000000107,Incorrect
1,101,456,B,50.8786795999892,35.99550996243022,2.54393397999946,0.565416148300945,B,592.5680000000284,Correct
1,101,457,A,50.600256214834786,66.89811619657041,2.5300128107417392,1.0508331519107097,A,847.1804000000702,Correct
1,101,458,A,54.38742212032073,64.01608105194606,2.7193711060160366,1.0055622497220125,A,853.8347999997313,Correct
1,101,459,B,65.55218829352144,49.04339747218471,3.277609414676072,0.7703718860284986,B,707.633800000167,Correct
1,101,460,A,34.220884446843826,60.145438772380885,1.7110442223421913,0.9447623429712324,A,999.1869999998926,Correct
1,101,461,A,61.0194212623202,81.69705772724612,3.0509710631160103,1.2832943818790883,B,2373.075400000289,Incorrect
1,101,462,A,33.76157917448601,62.19528515700542,1.6880789587243004,0.9769612546858527,A,1328.9624000003641,Correct
1,101,463,B,71.49593112013989,53.47908115436975,3.574796556006994,0.8400474423765018,A,3587.6969999999346,Incorrect
1,101,464,B,61.996804575385475,51.904295040563795,3.0998402287692737,0.8153107599459618,B,564.5666999998866,Correct
1,101,465,B,53.098442057039286,34.750584099786444,2.6549221028519643,0.5458608985792168,A,1150.789799999984,Incorrect
1,101,466,B,68.90459613900208,44.88248953359344,3.445229806950104,0.7050124969677897,B,657.2873000000072,Correct
1,101,467,A,37.59733722576803,49.684570370210665,1.8798668612884015,0.7804434063590946,A,1790.3100000003178,Correct
1,101,468,B,62.24832517847537,39.411611553009784,3.1124162589237687,0.6190761466053507,B,1778.4492999999202,Correct
1,101,469,B,69.49291958840311,58.29020403387697,3.4746459794201554,0.9156203838453899,A,2659.3133000001217,Incorrect
1,101,470,A,54.73551945714783,72.79184161347663,2.7367759728573913,1.1434115742708497,A,577.9575000001387,Correct
1,101,471,A,65.69644729093865,88.88077288420237,3.2848223645469323,1.3961359156919655,A,1089.4121999999697,Correct
1,101,472,A,34.05955828136,60.56180612580422,1.702977914068,0.9513026260647793,A,756.7641999999069,Correct
1,101,473,A,58.26404032234354,69.75039524427845,2.913202016117177,1.095636646422048,B,1897.4675999997999,Incorrect
1,101,474,A,35.19210085307898,46.32764217071629,1.7596050426539491,0.727712901508295,A,957.3500000001332,Correct
1,101,475,A,35.4618180072887,43.666631193594554,1.7730909003644348,0.6859138388240577,A,639.5545999998831,Correct
1,101,476,A,29.844675758457157,60.77397020342416,1.4922337879228578,0.9546352916028117,A,674.5866000001115,Correct
1,101,477,B,32.97560473567333,16.663123180559428,1.6487802367836664,0.26174372684953645,B,2143.5953000000154,Correct
1,101,478,A,57.2497784723423,74.48595923935656,2.862488923617115,1.1700227117097568,A,1424.9998000000232,Correct
1,101,479,A,33.106286287164565,59.83554591079875,1.655314314358228,0.9398945572845007,A,1958.2596999998714,Correct
1,101,480,B,43.15408842782621,32.64211486856631,2.15770442139131,0.5127411413436104,B,841.877100000147,Correct
1,101,481,A,29.385740425399554,54.16871339829292,1.4692870212699776,0.8508801603324401,A,803.270700000212,Correct
1,101,482,B,44.639539196385904,35.79141689127777,2.231976959819295,0.5622102618360394,A,1057.3656000001392,Incorrect
1,101,483,A,18.610810409314258,49.61189243615248,0.9305405204657129,0.7793017840405183,A,842.478999999912,Correct
1,101,484,A,56.750471134008734,75.9372833850157,2.837523556700437,1.1928200580796577,A,1259.3425000000025,Correct
1,101,485,B,57.87375759255335,44.05641804918957,2.8936878796276675,0.6920365964340736,B,883.3277000003363,Correct
1,101,486,A,47.974597496861655,73.99314965742943,2.3987298748430828,1.1622816768987518,A,1168.325300000106,Correct
1,101,487,B,62.7149975280887,30.612027997974273,3.135749876404435,0.4808526113496052,B,577.7061999997386,Correct
1,101,488,A,26.803273183894003,57.29925558436035,1.3401636591947002,0.900054601999952,A,752.3658000000069,Correct
1,101,489,A,27.87928688614084,54.164751453390174,1.393964344307042,0.8508179262474381,A,661.3860000002205,Correct
1,101,490,A,37.40373363571446,66.83459534798813,1.870186681785723,1.0498353687544304,A,745.2132999997048,Correct
1,101,491,A,39.50535321782624,58.46768883123133,1.975267660891312,0.9184083085228517,A,819.706899999801,Correct
1,101,492,B,47.026329772820965,26.564367964367754,2.3513164886410483,0.4172721162205689,B,493.6745999998493,Correct
1,101,493,B,37.535113155633134,21.37437120386614,1.8767556577816566,0.33574783774583544,B,751.6160000000127,Correct
1,101,494,B,76.98324857948027,57.85355662318672,3.849162428974014,0.9087615423572225,B,745.8507000001191,Correct
1,101,495,A,16.32743789968791,38.82510594773733,0.8163718949843956,0.6098633381012848,A,670.0011000002632,Correct
1,101,496,B,56.787992273548234,50.07968560061854,2.8393996136774113,0.7866498618849488,A,1073.0607000000418,Incorrect
1,101,497,B,64.44837004691975,43.692398842726625,3.2224185023459877,0.6863185961101258,B,638.5992000000442,Correct
1,101,498,A,38.05989111327375,63.98454576134424,1.9029945556636876,1.005066894535595,A,1006.6216000000168,Correct
1,101,499,B,47.61641242529359,35.75297698984348,2.3808206212646796,0.561606449276286,B,784.3895000000884,Correct
1,101,500,A,34.84871969866848,62.151906381506215,1.742435984933424,0.9762798624737026,A,871.2098000000879,Correct
1,101,501,A,58.01039582162106,71.66540989953027,2.9005197910810527,1.1257176262843278,A,3544.0655000002153,Correct
1,101,502,A,44.883750513204006,72.49952275029763,2.2441875256602004,1.1388198403055054,A,1380.7556000001568,Correct
1,101,503,A,33.952098715902025,66.87455034682539,1.6976049357951013,1.0504629804085368,A,735.8414000000266,Correct
1,101,504,B,39.7235159315039,28.867732037222396,1.986175796575195,0.453453274469683,B,920.6860999997843,Correct
1,101,505,A,17.770753231331362,48.12126151737456,0.888537661566568,0.7558870083222857,A,784.9750000000313,Correct
1,101,506,B,55.172836937906766,41.555428201263666,2.758641846895338,0.6527511397693403,B,1254.230600000028,Correct
1,101,507,A,49.27349659440726,73.22399942688014,2.4636748297203632,1.1501998933297495,A,926.2260999998944,Correct
1,101,508,A,25.17905055846348,39.35197390378711,1.258952527923174,0.6181393606019743,B,2201.029600000311,Incorrect
1,101,509,A,47.76129371360628,67.98269215925325,2.388064685680314,1.067869631293832,A,863.0998999997246,Correct
1,101,510,B,62.09158177217234,51.09468536902371,3.104579088608617,0.802593440964034,B,846.8723999999384,Correct
1,101,511,B,61.705917419817766,33.42250694012406,3.085295870990888,0.5249995113382381,B,711.9830999999976,Correct
1,101,512,B,67.37783724281174,52.42088242164861,3.3688918621405866,0.8234252955527279,B,768.8392999998541,Correct
1,101,513,A,33.233817558895765,62.11023742404913,1.6616908779447883,0.9756253280205529,A,2955.620199999885,Correct
1,101,514,B,59.40572402101036,37.81017769872576,2.970286201050518,0.5939208824462074,B,1012.1732999996311,Correct
1,101,515,B,50.39322750968291,34.256514111774955,2.5196613754841453,0.5381000653557363,B,611.9320000002517,Correct
1,101,516,A,58.68023968965974,69.74415967695455,2.934011984482987,1.0955386983595696,A,1689.7472999999081,Correct
1,101,517,B,40.16502473610748,27.837906994980706,2.008251236805374,0.43727682053373645,B,868.7885999997889,Correct
1,101,518,B,55.04651628287001,44.66983034270167,2.7523258141435,0.7016720542086701,B,939.7051999999348,Correct
1,101,519,A,37.39814189073242,56.57362108885409,1.8699070945366207,0.888656361998583,A,1224.6932999996716,Correct
1,101,520,B,87.63338402504604,63.72224634227361,4.381669201252302,1.000946704895629,B,2301.977999999963,Correct
1,101,521,A,40.57522403500743,68.71186344805471,2.028761201750372,1.0793234271143688,A,825.5887000000257,Correct
1,101,522,B,59.41589468085976,46.098317039389094,2.970794734042988,0.7241106707689897,B,1377.867199999855,Correct
1,101,523,B,80.37389176701556,60.092882178835524,4.018694588350778,0.9439367859303335,B,758.566399999836,Correct
1,101,524,A,26.732633429262044,52.71835026375453,1.3366316714631024,0.8280979094899239,A,804.0949999999611,Correct
1,101,525,A,65.8667487142703,89.03122962310738,3.2933374357135152,1.3984992846201003,B,1065.6319999998232,Incorrect
1,101,526,A,45.02426134833298,57.65115385242799,2.2512130674166486,0.9055822070688132,B,1235.5891000001975,Incorrect
1,101,527,B,64.9636229663999,36.79667541313613,3.2481811483199947,0.5780008257721831,B,628.1378000003315,Correct
1,101,528,B,62.07668792883678,37.30303477009578,3.103834396441839,0.5859546999516876,B,684.4545999992988,Correct
1,101,529,A,34.04943509672445,60.50150646381243,1.7024717548362225,0.9503554411891426,A,634.4970999998623,Correct
1,101,530,B,78.33216463791088,47.27564890645705,3.9166082318955437,0.7426041564910791,B,597.8533000006792,Correct
1,101,531,A,28.585866826250957,45.95794143908549,1.429293341312548,0.7219056559957046,A,1925.0329999995301,Correct
1,101,532,B,74.54910519620579,44.216069952129516,3.7274552598102897,0.6945444026611124,B,571.4004999999815,Correct
1,101,533,A,65.21837979956999,79.22881578569189,3.2609189899785,1.2445233281247434,A,1946.0624000003008,Correct
1,101,534,A,64.91328410756324,85.95940885461508,3.245664205378162,1.3502472368229008,B,1882.343100000071,Incorrect
1,101,535,A,55.600504985501416,74.62475574409947,2.7800252492750706,1.1722029221079782,A,2122.3869000004925,Correct
1,101,536,B,72.66711095410085,59.818090901735985,3.6333555477050425,0.9396203746433011,B,904.7442000000956,Correct
1,101,537,B,39.32281226669549,15.739501111950009,1.9661406133347747,0.24723550532235264,B,1110.5631999998877,Correct
1,101,538,B,42.8972099164387,19.972961711640227,2.144860495821935,0.31373454891859576,B,590.3097999998863,Correct
1,101,539,A,37.5736664703178,68.38205633047569,1.8786833235158897,1.0741428290259294,A,845.2062999995178,Correct
1,101,540,A,32.58645694778071,53.021041499315196,1.6293228473890355,0.8328525722996409,B,996.4312000001883,Incorrect
1,101,541,B,79.95332562084792,52.6975550705432,3.997666281042396,0.8277712593588105,B,582.3516000000382,Correct
1,101,542,A,56.84668827986992,81.35445286581441,2.842334413993496,1.2779127573002982,A,737.1398000004774,Correct
1,101,543,B,33.555916024410266,17.461371886167516,1.6777958012205132,0.27428258819591605,B,825.4561000003378,Correct
1,101,544,A,44.19514915717637,54.739248845096796,2.209757457858818,0.8598421101738983,A,1317.872200000238,Correct
1,101,545,B,58.15584873846111,49.09234180417006,2.9077924369230557,0.7711407017974988,B,561.182700000245,Correct
1,101,546,A,19.886771117383176,48.34659633945039,0.9943385558691589,0.7594265594304427,A,697.7574000002278,Correct
1,101,547,A,60.60414211075074,73.5895941636742,3.030207105537537,1.155942642026266,B,929.5139999994717,Incorrect
1,101,548,B,45.21329396298224,23.441843075258188,2.260664698149112,0.36822360995917947,B,779.1521999997713,Correct
1,101,549,B,84.28155872907197,59.743169402728626,4.214077936453599,0.9384435104889137,B,1033.5273999999117,Correct
