subject,day,trial,cat,x,y,xt,yt,resp,rt,fb
15,115,0,A,25.337923675352496,49.855743517094325,1.266896183767625,0.7831321878628026,B,2382.5771000001623,Incorrect
15,115,1,A,50.42207399327435,77.72096951192496,2.5211036996637177,1.2208381342426988,A,2350.894700000026,Correct
15,115,2,A,27.31640754836982,47.880083430031476,1.365820377418491,0.7520985917852664,B,5880.565499999648,Incorrect
15,115,3,A,30.816568713297393,49.21886535745406,1.5408284356648696,0.7731281291250143,A,1450.002599999607,Correct
15,115,4,A,50.99532414588187,73.57316403840021,2.549766207294093,1.1556845582219744,A,1096.114299999499,Correct
15,115,5,B,69.261956630669,54.20397117404694,3.4630978315334504,0.8514339881788939,A,1061.1111999996865,Incorrect
15,115,6,B,65.98528853236334,49.34317096028353,3.2992644266181674,0.7750807169682598,B,1187.7670999992915,Correct
15,115,7,B,57.0063185571348,32.62074821067982,2.8503159278567396,0.5124055146663706,A,2826.66639999934,Incorrect
15,115,8,B,80.34612011656657,61.959989745461186,4.0173060058283285,0.973265243004199,B,949.9712999995609,Correct
15,115,9,B,49.30024086514141,21.13614536952406,2.4650120432570706,0.3320057950905135,A,1473.3194000000367,Incorrect
15,115,10,B,82.16401191796727,57.1734618168674,4.108200595898364,0.8980786381208358,B,1111.428899999737,Correct
15,115,11,B,35.51089179669262,14.672688308733044,1.775544589834631,0.23047804899564286,B,1298.4753999999157,Correct
15,115,12,A,15.641985121255438,34.38582591457531,0.7820992560627719,0.5401312904042366,A,2957.2314999995797,Correct
15,115,13,B,81.8174321321345,51.09953520094555,4.090871606606725,0.8026696219457179,B,1278.4039999996821,Correct
15,115,14,B,39.80189285462697,23.375518121738605,1.9900946427313486,0.36718178002554536,B,1464.5933000001605,Correct
15,115,15,B,39.51088568505675,19.67584771416667,1.9755442842528372,0.3090674931598877,B,1348.2314000002589,Correct
15,115,16,B,54.48652899470453,24.322558067991185,2.7243264497352264,0.38205784871456133,B,1334.7502000005989,Correct
15,115,17,A,69.2365844366247,83.47086079949692,3.461829221831235,1.3111572153825788,B,1089.5338999998785,Incorrect
15,115,18,B,68.66135176480724,35.36430435111738,3.433067588240362,0.5555011937439197,B,1076.0282999999617,Correct
15,115,19,A,45.277887949912966,60.83118367944314,2.263894397495648,0.9555339987825495,A,1055.052199999409,Correct
15,115,20,B,51.975831915744614,26.299162207466296,2.598791595787231,0.4131062739327122,B,898.9695000000211,Correct
15,115,21,A,51.66700308670183,68.83459665031502,2.5833501543350916,1.0812513157472312,A,1307.2136000000683,Correct
15,115,22,A,44.53013922758664,64.63715991736136,2.226506961379332,1.0153181337264554,A,930.1822000006723,Correct
15,115,23,A,54.334641149016996,71.61294038177795,2.71673205745085,1.1248934370267871,A,868.6643000000913,Correct
15,115,24,A,69.06329961164175,87.8955683592261,3.4531649805820877,1.380660359202221,A,1103.9937999994436,Correct
15,115,25,B,54.16438786327927,31.77334875541778,2.7082193931639638,0.49909459514983445,B,897.9382000006808,Correct
15,115,26,B,50.4961095695297,37.31749189324894,2.524805478476485,0.5861817919111377,B,874.8131000002104,Correct
15,115,27,A,48.79957962424009,77.26287019927648,2.4399789812120045,1.2136423270665435,A,842.0188000000053,Correct
15,115,28,B,45.29377280827443,17.72399436445914,2.2646886404137216,0.2784078524382587,B,624.9035999999251,Correct
15,115,29,B,58.618215193190885,37.20948484344164,2.930910759659544,0.5844852211400852,B,709.9162000004071,Correct
15,115,30,B,39.31814050766195,25.510673273403683,1.9659070253830975,0.4007207187192725,B,715.4368000001341,Correct
15,115,31,A,15.956284302929461,43.0619773439829,0.7978142151464731,0.676415958364534,B,937.503299999662,Incorrect
15,115,32,B,44.03369290517132,31.550098014486124,2.2016846452585663,0.49558778071173765,B,737.5397999994675,Correct
15,115,33,A,49.41591003892628,62.680069656007525,2.470795501946314,0.9845762317890486,A,1541.7215999996188,Correct
15,115,34,A,55.22815067395354,65.77402794074122,2.761407533697677,1.033176014878212,A,852.3364000002402,Correct
15,115,35,B,61.97839122525468,43.01225340609678,3.098919561262734,0.675634896574681,A,3039.9518999993234,Incorrect
15,115,36,B,61.16328534231809,34.27063537568337,3.0581642671159046,0.5383218816505068,B,1470.837300000312,Correct
15,115,37,B,49.63631661600898,33.89442533700424,2.481815830800449,0.5324123881819014,B,612.9884000001766,Correct
15,115,38,B,56.549711024850964,30.285761728105335,2.8274855512425483,0.47572763276693314,B,626.777100000254,Correct
15,115,39,A,44.05836661915787,68.31375156421072,2.202918330957894,1.073069900266413,A,882.2451000005458,Correct
15,115,40,A,50.569590571838,63.75760687736402,2.5284795285919,1.0015021468819643,A,902.3905000003651,Correct
15,115,41,A,38.592273429851915,54.81923124301734,1.9296136714925956,0.8610984707425169,A,736.0815999991246,Correct
15,115,42,A,49.28832490658501,58.692635360472096,2.4644162453292506,0.9219417603414182,A,952.6536000003034,Correct
15,115,43,A,44.58156509663611,74.65348595687206,2.2290782548318053,1.1726542152348902,A,561.4976999995633,Correct
15,115,44,A,53.86366946614535,66.19163196628135,2.6931834733072675,1.039735723571944,A,771.6637999992599,Correct
15,115,45,B,62.37195938575985,34.38002932308956,3.1185979692879924,0.5400402377580991,B,861.6761999992377,Correct
15,115,46,A,30.818171247457144,59.64303605075615,1.5409085623728571,0.9368706194742337,A,1068.865100000039,Correct
15,115,47,A,43.640824149318135,59.11784532022024,2.1820412074659066,0.9286209427703084,A,826.9438999996055,Correct
15,115,48,B,80.5517335395558,56.805665519374,4.02758667697779,0.892301307389722,A,869.1702000005535,Incorrect
15,115,49,B,61.79003276172892,32.253672104857785,3.0895016380864457,0.5066394966795762,B,679.6640000002299,Correct
15,115,50,B,79.93034218654753,64.47470744150219,3.996517109327377,1.0127663362028723,B,1510.5954999999085,Correct
15,115,51,A,25.701523295435507,38.04600428943395,1.2850761647717752,0.5976252378706572,A,2683.864999999969,Correct
15,115,52,B,80.43185225065301,58.83275133283338,4.02159261253265,0.9241426968885224,B,782.9282999991847,Correct
15,115,53,A,49.412446012882114,76.78591413109795,2.4706223006441057,1.20615031866717,A,1455.2008999999089,Correct
15,115,54,B,45.72358219402648,19.602586402765585,2.2861791097013238,0.3079167071714376,B,774.7005000001081,Correct
15,115,55,B,56.23495799603559,32.10236506584894,2.8117478998017793,0.5042627712686433,B,1841.7205000005197,Correct
15,115,56,A,43.57429843607955,58.63214639295152,2.1787149218039774,0.9209916018614889,A,1249.7715999998036,Correct
15,115,57,B,48.54341233489541,28.640124998356452,2.42717061674477,0.4498780314636501,B,603.9730000002237,Correct
15,115,58,A,48.45825701467592,68.9184892086116,2.422912850733796,1.0825690969714081,A,1415.045900000223,Correct
15,115,59,B,72.56360748654338,59.82103313366743,3.6281803743271688,0.939666591114406,A,970.3564000001279,Incorrect
15,115,60,B,55.53246082190499,35.21285038447337,2.7766230410952493,0.5531221603990902,B,698.6480000005031,Correct
15,115,61,A,12.923008706113393,38.586121969799805,0.6461504353056696,0.606109386554214,A,1241.0381999998208,Correct
15,115,62,B,61.99700517144311,37.85381534397339,3.0998502585721552,0.5946063409748569,B,996.0903999999573,Correct
15,115,63,A,64.10991157229026,82.84395973063437,3.2054955786145127,1.301309876420248,A,1100.6396000002496,Correct
15,115,64,B,50.20180063733305,38.826684449273685,2.510090031866653,0.6098881331454363,B,1433.077400000002,Correct
15,115,65,B,63.75339045320521,31.90052232074171,3.1876695226602605,0.5010922328425969,B,3436.707299999398,Correct
15,115,66,A,58.89878839259352,67.58813419341881,2.944939419629676,1.0616719292594283,A,921.969199999694,Correct
15,115,67,B,51.82813148749142,30.43850716329971,2.591406574374571,0.47812695245231324,B,658.8151999994807,Correct
15,115,68,A,48.60695431752308,58.37713387790465,2.430347715876154,0.9169858746422654,A,757.3468999999022,Correct
15,115,69,B,42.15228986452993,19.763527814006043,2.107614493226497,0.3104447689474947,B,705.7493000002069,Correct
15,115,70,A,23.057478851612622,47.23315684403252,1.152873942580631,0.7419366927353351,A,1643.4338999997635,Correct
15,115,71,A,33.64389996817775,54.06374491898237,1.6821949984088875,0.8492313193151375,A,1000.9731000000102,Correct
15,115,72,B,72.75066684627214,41.44344941408097,3.6375333423136067,0.6509921810934849,B,739.7503000001961,Correct
15,115,73,A,36.71843490702526,67.34143209333965,1.835921745351263,1.057796741733259,A,801.2987000001885,Correct
15,115,74,B,44.37447662476995,28.120549529979677,2.2187238312384974,0.4417165590914603,B,711.355100000219,Correct
15,115,75,B,66.70172604995462,55.89568434396705,3.335086302497731,0.8780073565119044,A,2955.809600000066,Incorrect
15,115,76,A,37.09008050208116,45.03445734227314,1.8545040251040579,0.7073996017244412,B,884.9052999994456,Incorrect
15,115,77,A,31.14731391649164,41.07617097890632,1.557365695824582,0.6452229849246518,A,1039.42139999981,Correct
15,115,78,B,84.14080652378854,62.134747708543856,4.207040326189428,0.976010334669083,A,818.4906999995292,Incorrect
15,115,79,A,15.114404990461647,36.72210397433662,0.7557202495230824,0.5768294603506824,A,988.715499999671,Correct
15,115,80,A,41.26844028297154,62.422645141710454,2.063422014148577,0.9805326169742007,A,1095.7440000001952,Correct
15,115,81,A,37.35102300632843,55.083206842038244,1.8675511503164217,0.8652449897555717,A,896.6175000005023,Correct
15,115,82,B,81.07789155823254,52.06706489071457,4.053894577911627,0.8178675427732598,A,708.7686999993821,Incorrect
15,115,83,B,54.58481302872954,39.32018113336526,2.7292406514364767,0.6176399609320014,A,868.243099999745,Incorrect
15,115,84,A,12.88639967525856,34.650698862352684,0.644319983762928,0.5442919049385969,A,802.2847000002002,Correct
15,115,85,B,61.03770038933445,45.183347071024315,3.051885019466722,0.7097383561146394,B,1418.08409999976,Correct
15,115,86,B,57.356339146336296,37.818447202062515,2.8678169573168146,0.5940507795008654,B,563.7515999997049,Correct
15,115,87,A,56.05144716727281,66.24973523699721,2.802572358363641,1.0406484076140965,A,1212.8585000000385,Correct
15,115,88,A,45.9934773584236,57.6928104795552,2.29967386792118,0.9062365478375942,A,1235.2430000000822,Correct
15,115,89,B,46.28409408743906,23.091574181346267,2.314204704371953,0.36272159903970586,B,800.4569000004267,Correct
15,115,90,A,63.68404197982393,78.65831675316153,3.1842020989911966,1.2355619502773558,B,1339.2784999996366,Incorrect
15,115,91,A,40.128463330809545,54.411351588558574,2.0064231665404773,0.8546915121125347,A,2564.3982000001415,Correct
15,115,92,B,33.165531673344375,19.67536054983054,1.6582765836672189,0.3090598408003903,B,1595.0616999998601,Correct
15,115,93,A,35.77135882418815,62.82257362926091,1.7885679412094075,0.9868146789664498,A,2621.5696999997817,Correct
15,115,94,B,69.77596471607652,53.167563099154734,3.4887982358038254,0.8351541282078815,B,1118.9512000000832,Correct
15,115,95,B,36.99493802086266,23.281094172851798,1.849746901043133,0.3656985721048167,B,1281.705299999885,Correct
15,115,96,A,26.30430808016916,44.56795645050987,1.315215404008458,0.7000718228521582,A,860.7805000001463,Correct
15,115,97,B,46.796265718245046,31.19109706437949,2.3398132859122525,0.48994860697430387,B,864.3988000003446,Correct
15,115,98,A,46.12897846124048,74.0553634451387,2.3064489230620238,1.163258928790849,A,1175.8522000000085,Correct
15,115,99,B,43.01007499719802,25.547363077378257,2.150503749859901,0.40129704081241335,B,1144.9992999996539,Correct
15,115,100,A,46.441907727489976,64.96012103231479,2.322095386374499,1.0203911950571198,A,917.1591999993325,Correct
15,115,101,B,38.324553817796314,15.939043653058565,1.9162276908898155,0.25036991222847904,B,870.5225000003338,Correct
15,115,102,B,68.87213296131061,40.414618916969225,3.443606648065531,0.634831349435908,B,1519.632599999568,Correct
15,115,103,A,49.16517642210383,69.40813301603816,2.4582588211051917,1.0902604039128432,A,922.7266999996573,Correct
15,115,104,A,65.11928504419075,79.0227748997763,3.2559642522095373,1.2412868454570853,A,1863.4037000001626,Correct
15,115,105,B,57.5218465225705,27.82419688986131,2.876092326128525,0.4370614627061213,B,807.2038000000248,Correct
15,115,106,A,61.00920629418956,72.3128436863772,3.050460314709478,1.1358874924265485,A,769.6635000002061,Correct
15,115,107,A,45.040538677155666,57.082690567048125,2.2520269338577834,0.8966528066628888,A,707.0877000005567,Correct
15,115,108,A,33.64509430814473,46.058811915241385,1.6822547154072365,0.7234901257299818,A,1098.2707999992272,Correct
15,115,109,A,55.70888215360131,64.4495621184247,2.7854441076800653,1.0123713543916102,A,886.1698000000615,Correct
15,115,110,A,22.33901386553921,34.81941285296904,1.1169506932769606,0.5469420581059877,A,884.512700000414,Correct
15,115,111,B,39.25498189822612,15.995127833853413,1.9627490949113058,0.2512508804803176,B,845.6249000000753,Correct
15,115,112,A,22.782941327185494,39.304162560343556,1.1391470663592747,0.6173883417753716,A,872.6697000001877,Correct
15,115,113,B,77.21908030628128,60.578595752630704,3.8609540153140642,0.9515663569062524,B,2407.844900000782,Correct
15,115,114,A,55.53349707541244,65.13265135579026,2.7766748537706225,1.0231012950408798,A,1000.1695000000836,Correct
15,115,115,A,38.026658821532465,49.243465763745135,1.9013329410766233,0.7735145514034111,A,984.1851999999562,Correct
15,115,116,A,51.229024196765415,69.66759454895237,2.561451209838271,1.0943360161413052,A,3993.0154000003313,Correct
15,115,117,B,84.52334015453471,60.63773832429449,4.226167007726735,0.952495366249519,B,1899.0005000005112,Correct
15,115,118,A,34.37776562073801,45.09472825182208,1.7188882810369006,0.7083463349577618,A,1128.2435000002806,Correct
15,115,119,A,18.62752961164735,33.125372022787644,0.9313764805823674,0.5203321269710927,A,2002.4999999995998,Correct
15,115,120,A,55.28570283684181,67.73175830091945,2.76428514184209,1.0639279714644403,A,1480.913600000349,Correct
15,115,121,B,67.4017443987867,51.67445727153184,3.3700872199393355,0.8117004767124205,B,992.8828000001886,Correct
15,115,122,B,36.67409409550157,17.17641627827688,1.8337047047750787,0.2698065159741739,B,1787.67070000049,Correct
15,115,123,B,74.51342714757091,61.00857162602611,3.725671357378545,0.9583204021316517,B,981.3629999998739,Correct
15,115,124,A,29.353091538163845,42.653358223620614,1.4676545769081923,0.6699973842313015,A,767.5592999994478,Correct
15,115,125,A,39.12877419771042,72.01981607898098,1.956438709885521,1.1312846255330733,A,962.618399999883,Correct
15,115,126,A,40.74023018768,48.9259292345258,2.037011509384,0.7685266992662019,A,1116.5450000007695,Correct
15,115,127,A,20.959891051452892,47.4027760573716,1.0479945525726446,0.7446010651080036,A,613.1531999999424,Correct
15,115,128,B,52.42170959985609,38.95114257562079,2.621085479992804,0.6118431168224945,B,758.2320000001346,Correct
15,115,129,B,57.107611312603,26.855419995435415,2.85538056563015,0.4218439508336417,B,2031.6659000000072,Correct
15,115,130,B,64.48066243798051,48.23848991933603,3.224033121899026,0.7577284277542569,B,1510.8580000005531,Correct
15,115,131,A,43.9752695415528,57.821277828083204,2.1987634770776396,0.9082545082294028,A,1409.0853999996398,Correct
15,115,132,A,56.26697151454646,67.4916587632679,2.813348575727323,1.0601564967463581,A,1209.6444999997402,Correct
15,115,133,B,67.93165953030906,43.75986729825104,3.396582976515453,0.6873783881312485,B,944.8251000003438,Correct
15,115,134,B,70.47666633618746,59.69310987699314,3.523833316809373,0.9376571772974499,B,634.7935000003417,Correct
15,115,135,A,32.24263101434289,57.24703212200875,1.6121315507171445,0.899234277771608,A,697.7309000003515,Correct
15,115,136,B,41.42065738541598,20.044725381063586,2.071032869270799,0.31486181000187113,B,3535.2096000005986,Correct
15,115,137,A,45.522895608688266,63.09396896538046,2.276144780434413,0.9910777469373083,A,1085.3391000000556,Correct
15,115,138,B,75.76735230367333,46.75468586194277,3.7883676151836663,0.7344208881238898,B,1443.9922000001388,Correct
15,115,139,B,70.93660815370419,45.951279764644234,3.546830407685209,0.7218010146582783,B,1763.7273000000278,Correct
15,115,140,A,57.791195302585436,78.66363656204572,2.8895597651292717,1.2356455136399016,A,1253.1490000001213,Correct
15,115,141,B,61.51876882241995,49.68727721747044,3.075938441120998,0.7804859254164231,B,878.2703999995647,Correct
15,115,142,A,49.07482719791247,76.40755548689408,2.4537413598956235,1.2002070749819047,A,697.0205999996324,Correct
15,115,143,B,45.28170692419393,31.134852949080276,2.2640853462096966,0.4890651264771455,A,1433.8935999994646,Incorrect
15,115,144,A,17.476575962254817,39.43413644552297,0.8738287981127408,0.6194299667895624,A,647.1407999997609,Correct
15,115,145,B,58.38415093022896,40.03950928932363,2.919207546511448,0.628939141183397,B,827.0264000002499,Correct
15,115,146,A,50.38392300549154,70.4576348310496,2.5191961502745768,1.1067459398726887,A,1441.3478999995277,Correct
15,115,147,B,79.44224893620343,65.78051759320847,3.9721124468101716,1.0332779541007895,B,692.4331999998685,Correct
15,115,148,B,68.64673428840094,46.251326945859034,3.4323367144200465,0.7265141447594519,B,668.9931999999317,Correct
15,115,149,A,50.961809933678204,80.40271731564457,2.54809049668391,1.262962930237429,A,841.7184999998426,Correct
15,115,150,A,30.957157746656964,53.41071620076124,1.5478578873328481,0.8389735681964042,A,1171.9241999999213,Correct
15,115,151,B,47.5227430260042,37.65787911987001,2.37613715130021,0.5915285819637803,B,2353.200300000026,Correct
15,115,152,A,40.128764949287586,67.96777349270376,2.0064382474643794,1.067635289427666,A,2296.423199999481,Correct
15,115,153,A,29.875939281646996,46.45113580193501,1.4937969640823499,0.7296527349313043,A,1594.4554999996399,Correct
15,115,154,A,58.942949899237014,71.33138327089821,2.9471474949618504,1.1204707482712584,A,2425.5645000002914,Correct
15,115,155,B,87.76805318414574,60.47871375890897,4.388402659207287,0.9499974142177419,B,1194.1345999994155,Correct
15,115,156,B,42.98947841588394,27.542154716937915,2.149473920794197,0.4326311546138281,B,3843.775800000003,Correct
15,115,157,B,44.99365716697313,20.826566427809635,2.2496828583486566,0.3271429404455328,B,1123.8225000006423,Correct
15,115,158,A,28.870640813942323,40.21256997872161,1.4435320406971162,0.6316575721355863,A,1207.1293999997579,Correct
15,115,159,B,55.40941219656893,44.90170072207315,2.7704706098284464,0.7053142656107626,B,1528.312100000221,Correct
15,115,160,A,32.67764889509016,45.37208580454795,1.633882444754508,0.7127030572080678,A,979.3694999998479,Correct
15,115,161,A,15.633791255645981,42.35220217584027,0.781689562782299,0.6652668360948472,A,833.730899999864,Correct
15,115,162,A,25.573001493416132,42.329462157205185,1.2786500746708065,0.6649096367174149,A,1390.9978000001502,Correct
15,115,163,A,51.6477557951582,59.44989062747584,2.58238778975791,0.9338366982599738,B,1771.3917000000947,Incorrect
15,115,164,B,68.70410715200371,39.031611632524196,3.4352053576001857,0.6131071218125396,B,546.6157999999268,Correct
15,115,165,B,57.60224906205263,41.613471565791734,2.8801124531026314,0.6536628828072952,A,1853.3922999995411,Incorrect
15,115,166,A,31.532809961845082,43.6422091132371,1.5766404980922542,0.6855302176828759,A,838.2242999996379,Correct
15,115,167,A,50.58434317931442,61.70881917068642,2.529217158965721,0.9693198648416472,A,912.4552999992375,Correct
15,115,168,B,45.68501166558275,36.771059798435,2.2842505832791375,0.577598456637372,A,827.5166000003082,Incorrect
15,115,169,A,62.36066215302665,80.84211286404913,3.1180331076513323,1.2698649393718684,B,1124.3524000001344,Incorrect
15,115,170,A,54.39867139850255,69.47532028381956,2.7199335699251277,1.0913157790472272,A,1564.104000000043,Correct
15,115,171,B,67.86016595800155,55.963366829746356,3.393008297900077,0.8790705105124095,B,1095.9930999997596,Correct
15,115,172,A,51.213335730400544,78.17041887608664,2.560666786520027,1.2278980683457534,A,926.8873000000895,Correct
15,115,173,B,63.62131165951436,48.36783083762043,3.181065582975718,0.7597601101477108,B,904.592999999295,Correct
15,115,174,B,44.05665194197906,19.536024594362154,2.202832597098953,0.30687115672998827,B,1041.9899999997142,Correct
15,115,175,A,24.11554652810311,39.995976785497405,1.2057773264051554,0.6282553342123328,A,751.2569999998959,Correct
15,115,176,B,65.33933473801875,44.674991984788576,3.2669667369009376,0.7017531330929734,B,1372.7687999999034,Correct
15,115,177,B,72.97138195438377,52.533482185464294,3.648569097719189,0.8251940085067245,B,996.786599999723,Correct
15,115,178,B,35.106996433237455,11.496598294905628,1.7553498216618726,0.18058814372274232,B,1032.404200000201,Correct
15,115,179,A,14.990499508236645,40.062149827284244,0.7495249754118322,0.6292947779220489,A,681.783699999869,Correct
15,115,180,A,20.26995610337674,38.40710580124559,1.013497805168837,0.6032974071541954,A,741.1056000000826,Correct
15,115,181,B,42.55278200617759,31.139904435526258,2.1276391003088793,0.4891444750406876,B,704.4308000004094,Correct
15,115,182,A,43.621982733468386,61.17990533038537,2.181099136673419,0.9610117056662884,A,1998.2612999992853,Correct
15,115,183,A,52.16847307762403,74.71520306522909,2.6084236538812013,1.1736236653059666,A,1228.3714000004693,Correct
15,115,184,A,66.10642806054311,79.17890891523396,3.305321403027156,1.243739392836772,A,4740.098100000068,Correct
15,115,185,A,61.02405923779327,74.80884005380699,3.0512029618896634,1.1750945116830698,A,2082.7656999999817,Correct
15,115,186,A,61.51065028221967,75.16765611589128,3.0755325141109835,1.1807307812062398,A,1207.7495000003182,Correct
15,115,187,B,63.73394369438282,47.98423104170831,3.186697184719141,0.7537345386439308,B,1171.3411999999153,Correct
15,115,188,A,62.498963485669684,87.60740368845225,3.1249481742834844,1.3761338791385844,A,1418.81740000008,Correct
15,115,189,B,54.12507814563892,30.657287763739316,2.706253907281946,0.4815635500877585,B,1483.0910000000586,Correct
15,115,190,A,21.314890506089117,41.04401002255868,1.0657445253044557,0.644717801803681,A,1004.2413000001034,Correct
15,115,191,A,56.67380961731867,66.89762206268625,2.8336904808659336,1.050825390073808,B,1366.1887999996907,Incorrect
15,115,192,B,78.83443024718214,60.35104078419913,3.941721512359107,0.9479919318206897,B,1086.2312999997812,Correct
15,115,193,B,60.358347173259006,52.97054262137734,3.01791735866295,0.8320593377799204,A,1332.3161999996955,Incorrect
15,115,194,B,32.20953442163363,12.25067925262531,1.6104767210816815,0.19243321970766286,A,1373.1400999995458,Incorrect
15,115,195,A,39.89952582514337,67.09129496489852,1.9949762912571685,1.0538675969077553,A,916.8982000001051,Correct
15,115,196,B,68.22052647368864,37.1685574799186,3.4110263236844323,0.5838423356172111,B,1459.7930999998425,Correct
15,115,197,B,82.85542630791954,60.961219590781525,4.142771315395977,0.9575765981013671,B,1095.6704000000173,Correct
15,115,198,B,54.42110946251509,25.6363509229063,2.721055473125755,0.40269485862126175,B,1554.2083000000275,Correct
15,115,199,A,27.541626474089426,49.46740529251157,1.3770813237044712,0.777032185295516,A,1159.731499999907,Correct
15,115,200,B,68.63472738633232,40.058373076508616,3.431736369316616,0.6292354528595933,B,999.7643000006065,Correct
15,115,201,B,78.00944021454356,66.33899122246507,3.9004720107271784,1.0420504373552701,B,1114.5391999998537,Correct
15,115,202,A,59.19834615806089,86.51747907945764,2.9599173079030447,1.3590133834156637,A,1583.238999999594,Correct
15,115,203,A,68.85278096627006,85.03112569471918,3.442639048313503,1.3356657990450003,B,2576.1105000001407,Incorrect
15,115,204,B,66.91304991842955,55.66395922184595,3.345652495921478,0.8743674268053653,B,1261.9150999998965,Correct
15,115,205,B,52.547670309884914,26.986730756357932,2.627383515494246,0.423906575442899,B,1365.3938999996171,Correct
15,115,206,A,47.80351852571353,59.815331856266425,2.3901759262856763,0.9395770356584106,A,1961.2769000004846,Correct
15,115,207,A,16.767584928997575,33.22774380680622,0.8383792464498788,0.5219401791941307,A,903.6115999997492,Correct
15,115,208,A,54.70963823135548,79.96405142498287,2.7354819115677738,1.256072382540013,A,1480.4809999995996,Correct
15,115,209,A,23.091034691703037,50.31346202764007,1.154551734585152,0.7903220134135154,A,994.1666000004261,Correct
15,115,210,A,41.588070974142674,54.46106038068679,2.0794035487071336,0.8554723359933789,A,1468.943500000023,Correct
15,115,211,A,31.278840516676603,57.50512814121322,1.5639420258338301,0.9032884405608756,A,1056.0161000003063,Correct
15,115,212,B,64.75353445281965,43.42148604280971,3.237676722640982,0.6820631078002136,B,1458.747399999993,Correct
15,115,213,A,23.904721877975177,54.675381790016836,1.195236093898759,0.8588388888186702,A,1065.1395000004413,Correct
15,115,214,B,52.08353926896539,32.488570891880556,2.6041769634482694,0.5103292781978157,B,1733.572600000116,Correct
15,115,215,A,13.465776956514958,39.566537559018656,0.6732888478257479,0.6215097186169881,A,739.6671999995306,Correct
15,115,216,B,70.26204031445562,56.39170656123234,3.513102015722781,0.8857988552807944,B,1970.0033999997686,Correct
15,115,217,A,43.518161737221206,64.03284385468355,2.1759080868610603,1.0058255592116807,A,1119.255399999929,Correct
15,115,218,A,39.10478925078944,67.92335224660398,1.955239462539472,1.066937522125614,A,786.3514999999097,Correct
15,115,219,A,21.902183350568013,33.8745247176748,1.0951091675284006,0.532099789984465,A,796.2915000007342,Correct
15,115,220,B,77.64263075035137,57.62908602745448,3.8821315375175685,0.9052355664847259,B,714.9113000004945,Correct
15,115,221,A,35.17354945456565,66.43836278831046,1.7586774727282828,1.043611362261448,A,593.2932999994591,Correct
15,115,222,A,45.06682711009727,61.060577843247046,2.2533413555048636,0.9591373138814631,A,1140.8784000004744,Correct
15,115,223,B,61.81561061467934,43.124146725471185,3.0907805307339675,0.677392512725343,B,909.1999000002033,Correct
15,115,224,A,53.474320803481675,76.00787838613033,2.6737160401740834,1.1939289617640674,A,1006.0795999997936,Correct
15,115,225,A,62.08720081011231,76.9889898103474,3.1043600405056155,1.209340223977434,A,677.4957999996332,Correct
15,115,226,A,24.01375443616343,52.87584062319705,1.2006877218081715,0.8305717622711029,A,758.0879000006462,Correct
15,115,227,B,81.65075255404838,64.86295511206643,4.082537627702419,1.018864916350962,B,785.6965999999375,Correct
15,115,228,A,52.80219277329337,75.62560883360376,2.6401096386646685,1.1879242856745247,A,1017.9556000002776,Correct
15,115,229,B,85.41215948857732,64.60540224116546,4.2706079744288665,1.0148192853152949,B,832.0765999997093,Correct
15,115,230,B,84.18346766307951,55.807903644734424,4.209173383153976,0.8766285005127235,B,1674.8412000006283,Correct
15,115,231,B,82.14495129668346,63.61472553799734,4.107247564834173,0.9992577720515173,B,1307.7067000003808,Correct
15,115,232,A,61.521650903197354,85.70901522551675,3.076082545159868,1.3463140628944958,A,1314.8848000000726,Correct
15,115,233,A,27.297696695261155,39.120210915158026,1.3648848347630578,0.6144988360897184,A,974.5086999992054,Correct
15,115,234,A,56.818289053375054,65.88149087687799,2.840914452668753,1.0348640387317143,A,1283.1886999993003,Correct
15,115,235,A,55.53279706075894,74.07893409216798,2.776639853037947,1.163629175648587,A,886.4875999997821,Correct
15,115,236,A,13.579577663271014,31.146539152048536,0.6789788831635506,0.4892486929241127,A,946.150800000396,Correct
15,115,237,A,38.83550218661001,65.19189983339083,1.9417751093305002,1.0240319679507115,A,624.2239999992307,Correct
15,115,238,A,42.04550183658626,60.84230541114545,2.102275091829313,0.9557086985356052,A,643.8339999995151,Correct
15,115,239,B,62.81203537504184,48.50613352082665,3.140601768752092,0.7619325636153731,A,2455.4239999997662,Incorrect
15,115,240,B,53.08107202025102,26.566044241322068,2.654053601012551,0.41729844711739417,A,1195.0415999999677,Incorrect
15,115,241,A,42.341275127947775,72.34640337208936,2.1170637563973886,1.1364146467369989,A,847.1729000002597,Correct
15,115,242,B,79.42443887308619,53.71048893386911,3.9712219436543092,0.8436823872767953,B,810.7877999991615,Correct
15,115,243,B,62.902805350669084,47.7568682255237,3.1451402675334545,0.7501631318788052,B,3316.4967000002434,Correct
15,115,244,A,24.44158286550659,53.011254638993336,1.2220791432753295,0.8326988406571965,A,781.0546000000613,Correct
15,115,245,B,78.63473375167752,48.08625243360002,3.931736687583876,0.7553370869203107,B,1148.2519000001048,Correct
15,115,246,A,42.29191002698895,71.15953122548912,2.1145955013494473,1.1177713026544507,A,1069.9396999998498,Correct
15,115,247,B,45.41729533716093,20.42617956404808,2.2708647668580464,0.3208536782965971,B,1482.8893000003518,Correct
15,115,248,B,75.02474073061902,47.540271510076586,3.7512370365309504,0.7467608386286038,B,916.0462999998344,Correct
15,115,249,B,66.39037243940082,50.74393388621624,3.319518621970041,0.7970838495559155,B,1255.641700000524,Correct
15,115,250,B,83.83657257310524,59.70309520044226,4.191828628655262,0.9378140263914073,B,1062.8618000000642,Correct
15,115,251,B,74.36461515632213,49.226978331247885,3.718230757816107,0.7732555674193615,B,726.3082999998005,Correct
15,115,252,B,61.369559595320325,32.76795100309923,3.068477979766016,0.5147177707226341,B,2164.117199999964,Correct
15,115,253,A,31.79294641843571,40.18842416231425,1.5896473209217856,0.6312782905383848,A,786.4896999999473,Correct
15,115,254,B,57.78182521239424,37.125618359408165,2.8890912606197117,0.5831678494894751,B,1341.5348000007725,Correct
15,115,255,A,15.016813650859419,42.998392065571046,0.750840682542971,0.6754171631468583,A,807.2273000007044,Correct
15,115,256,B,86.36383487433419,57.638191771545664,4.318191743716709,0.9053785991784375,B,1084.4693999997617,Correct
15,115,257,A,25.738953796435176,39.8262910669432,1.2869476898217587,0.6255899171781878,A,645.8553000002212,Correct
15,115,258,B,37.4776798005855,14.259222703887673,1.8738839900292747,0.22398334646217147,B,1072.391400000015,Correct
15,115,259,B,36.0032445415598,25.912184219479556,1.8001622270779902,0.4070276379119117,B,1454.7099000001253,Correct
15,115,260,B,43.95134955470883,14.64637870360784,2.1975674777354413,0.23006477868474196,B,2318.2262000000264,Correct
15,115,261,B,78.48399566603625,66.05617253676135,3.9241997833018125,1.0376079318287466,B,938.9553999999407,Correct
15,115,262,A,33.742486985495816,41.77803650366724,1.6871243492747907,0.6562478628066359,A,1023.9195999993171,Correct
15,115,263,B,65.7909767539392,39.458262054554666,3.2895488376969606,0.6198089309700493,B,2513.562699999966,Correct
15,115,264,A,43.57788916923607,73.36942108753155,2.1788944584618037,1.1524841714336256,A,726.272599999902,Correct
15,115,265,B,48.90208433696152,25.972390295683184,2.445104216848076,0.4079733527454257,B,676.3702999996895,Correct
15,115,266,B,37.78836812513785,21.03464483357359,1.8894184062568926,0.33041142840012644,B,2795.02759999923,Correct
15,115,267,A,65.12789204529705,83.38554719817334,3.256394602264852,1.3098171124667315,A,796.4081000000078,Correct
15,115,268,B,63.83983171188434,41.97923579260844,3.191991585594217,0.6594082938468618,B,812.1573999997054,Correct
15,115,269,A,52.40190821158146,68.45923330201036,2.620095410579073,1.0753551220599273,A,626.2681999996857,Correct
15,115,270,A,44.85152468801462,68.52513507787843,2.242576234400731,1.0763903047345555,A,720.0628999999026,Correct
15,115,271,B,49.31150209319897,32.07593568316406,2.465575104659948,0.5038476194962347,B,459.14579999953276,Correct
15,115,272,A,54.93034867974079,71.18763145107876,2.7465174339870395,1.1182126999658337,A,691.6716000005181,Correct
15,115,273,B,62.70423275420674,36.94115936473895,3.135211637710337,0.5802703743767684,B,622.9983000002903,Correct
15,115,274,B,89.15048202442703,67.39696637436742,4.457524101221352,1.0586690721797551,B,1573.3691999994335,Correct
15,115,275,A,40.10017317724172,49.08827619941782,2.005008658862086,0.7710768394273886,A,889.5191000001432,Correct
15,115,276,B,79.94867537215728,67.27321450832824,3.997433768607864,1.0567251824136714,B,1233.5661999995864,Correct
15,115,277,B,61.04882839045276,28.420086057493045,3.0524414195226384,0.44642166786304927,B,853.7089000001288,Correct
15,115,278,A,19.660560201387593,36.95643973108935,0.9830280100693797,0.5805103978101211,A,730.1419999994323,Correct
15,115,279,A,49.979865110172994,72.2509638392691,2.49899325550865,1.1349154860611481,A,2364.08130000018,Correct
15,115,280,B,67.64491427645666,54.50492197635927,3.3822457138228335,0.8561613123270758,B,1040.2714000001652,Correct
15,115,281,B,59.55098777845973,30.05443078419381,2.9775493889229865,0.472093894797231,B,1045.529699999861,Correct
15,115,282,B,47.69345387517042,24.530089581554446,2.384672693758521,0.3853177461065549,B,888.8530000003811,Correct
15,115,283,B,82.66489658120227,67.44288856899959,4.133244829060113,1.0593904163262207,B,690.7562999995207,Correct
15,115,284,A,38.64981481384895,54.840853656964356,1.9324907406924472,0.8614381148265607,A,733.2886000003782,Correct
15,115,285,A,35.04973173618487,48.705516052679464,1.7524865868092434,0.7650644571019879,A,735.230500000398,Correct
15,115,286,A,45.35597327740309,57.738923233114114,2.2677986638701544,0.9069608852766816,A,1787.3976000000766,Correct
15,115,287,A,53.08397490181777,62.56012490997892,2.6541987450908886,0.9826921441242479,A,819.4402000008267,Correct
15,115,288,B,51.52014815803948,39.18052349099586,2.576007407901974,0.6154462238155746,A,3782.720899999731,Incorrect
15,115,289,A,45.43582997249034,71.62809761604215,2.271791498624517,1.125131526305853,A,856.4214000007269,Correct
15,115,290,B,59.983264226831196,28.64420832494227,2.9991632113415596,0.44994217220767113,B,757.1547000006831,Correct
15,115,291,B,82.09832048117775,68.30234496949541,4.104916024058888,1.0728907258956126,B,884.0581999993447,Correct
15,115,292,A,41.598468383620265,73.26047298703013,2.079923419181013,1.1507728186728365,A,1446.5542999996615,Correct
15,115,293,B,75.75838706623105,50.06792250800697,3.787919353311553,0.7864650876582888,B,686.0231999999087,Correct
15,115,294,B,34.72711861965359,21.018133547418238,1.7363559309826795,0.3301520697236916,A,1338.4746000001542,Incorrect
15,115,295,B,68.08957246198317,45.36503941058804,3.404478623099158,0.7125923727105742,A,880.5386999993061,Incorrect
15,115,296,A,53.7242539632291,68.53927115208144,2.686212698161455,1.0766123536688894,A,1527.7286999998978,Correct
15,115,297,A,32.435241140097496,61.123139762634615,1.621762057004875,0.9601200342131754,A,661.8306000000302,Correct
15,115,298,B,64.65510866805576,45.55283847188588,3.232755433402788,0.7155423134671959,B,1239.5181000001685,Correct
15,115,299,A,47.59400966803371,58.29464319763261,2.379700483401686,0.9156901140666042,A,800.0584000001254,Correct
15,115,300,B,80.81700845271266,56.73725253250002,4.040850422635633,0.8912266787048547,B,755.366000000322,Correct
15,115,301,A,25.461238657157338,37.059795012576906,1.273061932857867,0.5821338987752763,A,642.0576999998957,Correct
15,115,302,B,73.7479021152867,48.33692100619746,3.6873951057643355,0.7592745796511002,B,582.2058000003381,Correct
15,115,303,B,78.81835481917274,64.54719120450564,3.940917740958637,1.013904908489653,B,883.702600000106,Correct
15,115,304,A,53.09286600877912,74.51067640494495,2.654643300438956,1.1704109680389068,A,992.4541000000318,Correct
15,115,305,B,55.68056396815089,44.14592279582132,2.7840281984075443,0.6934425337064721,B,963.7695000001258,Correct
15,115,306,A,13.854420850461068,33.85796332023163,0.6927210425230534,0.5318396441617619,A,731.2173999998777,Correct
15,115,307,B,78.57605390363224,66.07060642270733,3.928802695181612,1.0378346587789997,B,815.1128999998036,Correct
15,115,308,B,72.32975733755,51.92368850014469,3.6164878668775002,0.815615391696697,B,1242.1850000000632,Correct
15,115,309,A,25.084010707952032,48.439505788465716,1.2542005353976016,0.7608859776428207,A,855.718099999649,Correct
15,115,310,A,30.37092439344678,51.14088233140832,1.518546219672339,0.8033191011522622,A,1000.5547000000661,Correct
15,115,311,B,47.488547164867526,39.20371784631863,2.374427358243376,0.6158105598970085,B,655.7441000004474,Correct
15,115,312,B,40.893933744919195,16.836385295071402,2.0446966872459598,0.2644653217800177,B,1635.343300000386,Correct
15,115,313,A,48.31905375944457,69.35891302992611,2.4159526879722284,1.0894872581789463,A,8248.079800000596,Correct
15,115,314,B,84.01944318155728,66.7209843957763,4.200972159077864,1.0480507720902503,B,549.3646000004446,Correct
15,115,315,B,80.66638923260787,66.92252450069694,4.033319461630393,1.0512165566553622,B,671.5961999998399,Correct
15,115,316,A,44.51916052017338,64.53315126080037,2.225958026008669,1.0136843695696465,A,1206.2090999997963,Correct
15,115,317,B,75.81729343736893,65.08009970059436,3.7908646718684462,1.0222758155713927,B,528.2134999997652,Correct
15,115,318,A,19.133781453570187,32.744613917951995,0.9566890726785092,0.5143511926463604,A,614.2371000005369,Correct
15,115,319,B,62.03744109164249,35.69655066652179,3.101872054582125,0.5607201066622034,B,472.7731999992102,Correct
15,115,320,B,53.98699803487378,41.46705599923234,2.699349901743689,0.6513629924659244,A,719.6838999998363,Incorrect
15,115,321,A,65.8256994726683,82.29746372057834,3.2912849736334153,1.2927255371682072,A,2852.6420999996844,Correct
15,115,322,B,80.38082836026882,55.694441876606135,4.019041418013441,0.8748462472266477,B,623.7256000003981,Correct
15,115,323,A,39.61159813745482,64.08881748139524,1.980579906872741,1.006704790884042,A,932.9834999998639,Correct
15,115,324,B,56.70040819378639,26.812146047878105,2.8350204096893195,0.4211642052549523,B,1200.0831999994261,Correct
15,115,325,B,80.91177777866226,55.1966867980441,4.045588888933113,0.8670275287361603,B,2648.6126999998305,Correct
15,115,326,B,86.42907795759781,67.44442418664815,4.32145389787989,1.059414537751838,B,1772.252299999309,Correct
15,115,327,A,65.73756318780097,78.60635053125213,3.2868781593900485,1.2347456667724293,A,927.5448999997025,Correct
15,115,328,B,40.37864620770129,12.939627813049249,2.0189323103850643,0.2032551983883084,B,2888.659700000062,Correct
15,115,329,B,57.386137275113946,29.29767322448459,2.8693068637556975,0.46020677484657585,B,1266.0560000003898,Correct
15,115,330,A,29.2791649956251,57.124990891802454,1.4639582497812549,0.897317258610352,A,723.7325999994937,Correct
15,115,331,B,54.720111250469074,24.563803972851268,2.7360055625234536,0.3858473305266466,B,820.5895999999484,Correct
15,115,332,A,62.65644179486782,77.82939692488054,3.132822089743391,1.2225413080626437,A,2178.1246000000465,Correct
15,115,333,B,47.72342516047306,26.26558890977507,2.386171258023653,0.41257890580579454,A,1236.607699999695,Incorrect
15,115,334,B,67.65724567743902,53.71744303257206,3.3828622838719515,0.843791622003783,A,1956.3975999999457,Incorrect
15,115,335,B,59.5088472638919,29.329547653277295,2.975442363194595,0.46070745720323847,B,820.1434000002337,Correct
15,115,336,B,83.22391338877352,54.50515983708811,4.161195669438676,0.8561650486346672,B,620.1398000002882,Correct
15,115,337,A,30.37134220419629,53.6358989504059,1.5185671102098144,0.8425107305563984,A,683.3442000006471,Correct
15,115,338,A,27.06092430753157,41.67934642826179,1.3530462153765785,0.6546976427272561,A,843.0699999998978,Correct
15,115,339,A,52.484954839045706,70.28067676636721,2.624247741952285,1.1039662890926905,A,2263.807799999995,Correct
15,115,340,B,59.01219691315817,26.98646770092342,2.9506098456579086,0.4239024433777962,B,2334.43299999999,Correct
15,115,341,A,56.14708713331359,75.47226012878681,2.8073543566656793,1.1855154898520726,A,823.8234999998895,Correct
15,115,342,B,73.74609714455634,48.064910757037666,3.6873048572278173,0.7550018526487927,B,731.1720000006972,Correct
15,115,343,B,33.05138146646945,10.237719222711586,1.6525690733234726,0.1608137174979286,B,1063.5910999999396,Correct
15,115,344,A,24.94238181482301,43.5965690829396,1.2471190907411505,0.6848133057634147,A,998.2262000003175,Correct
15,115,345,B,84.51871851445328,60.26543233037704,4.225935925722664,0.9466471973726265,B,1852.0290000005843,Correct
15,115,346,A,36.16347380957424,50.93805091948933,1.808173690478712,0.8001330327842524,A,1085.7451000001674,Correct
15,115,347,B,31.665679977589207,16.23187039725154,1.5832839988794603,0.2549696239701354,B,961.0418000002028,Correct
15,115,348,A,64.56901845173051,82.87832762072374,3.228450922586526,1.3018497259753687,A,881.6539999997985,Correct
15,115,349,A,56.98417755814653,69.9298632702576,2.8492088779073264,1.0984557235819,A,2207.1673999998893,Correct
15,115,350,A,36.82840996650161,52.690060160465215,1.8414204983250806,0.8276535295866089,A,970.228500000303,Correct
15,115,351,A,26.368675190281593,54.00337101244956,1.3184337595140796,0.8482829682089776,A,769.1568000000188,Correct
15,115,352,A,37.11463434516441,63.830991274879494,1.8557317172582204,1.002654866302578,A,1909.3012000003,Correct
15,115,353,A,33.2624003379903,53.90660496263922,1.663120016899515,0.8467629706529722,A,1670.7219999998415,Correct
15,115,354,A,45.842115758868744,55.80190786357026,2.292105787943437,0.8765343190024342,A,713.1955000004382,Correct
15,115,355,A,50.9561620390487,67.8894845191741,2.5478081019524352,1.0664055291071768,A,632.1240999996007,Correct
15,115,356,A,65.78234095267463,80.9063740249599,3.2891170476337317,1.2708743513270107,A,842.0439999999871,Correct
15,115,357,B,41.346867428212406,17.233817543446243,2.0673433714106206,0.2707081729389881,B,1712.429900000643,Correct
15,115,358,B,67.69921392620674,52.13214231214606,3.3849606963103374,0.8188897765186783,B,3682.9305999999633,Correct
15,115,359,B,76.06131374215565,55.46490585520723,3.803065687107783,0.8712407038338427,B,2052.079400000366,Correct
15,115,360,B,76.72747089191009,61.590963296109436,3.8363735445955047,0.9674685890928799,B,856.7661999995835,Correct
15,115,361,A,58.84644168218622,77.93153381211525,2.942322084109311,1.224145670535629,A,1533.4549999997762,Correct
15,115,362,A,41.721694859225295,73.88806471503511,2.0860847429612646,1.1606310064836076,A,774.0817000003517,Correct
15,115,363,A,62.71042961129899,79.18967686744644,3.1355214805649494,1.2439085354345967,A,733.2969999997658,Correct
15,115,364,A,41.71572421443948,74.58545465165923,2.0857862107219742,1.1715855819915364,A,685.8541000001424,Correct
15,115,365,B,79.13216265385778,51.89322898382363,3.956608132692889,0.8151369347331662,B,1240.0496000000203,Correct
15,115,366,B,47.02775643512694,29.93771539614133,2.351387821756347,0.47026053376889815,A,733.0191000000923,Incorrect
15,115,367,A,45.721432087060265,77.00098405455134,2.286071604353013,1.2095286291248164,A,970.5506999998761,Correct
15,115,368,B,84.58576530035128,67.41841278469727,4.229288265017564,1.0590059516054455,B,931.6985999994358,Correct
15,115,369,A,65.00251027115742,81.14715553655654,3.2501255135578706,1.2746565384667716,A,1647.8715999992346,Correct
15,115,370,A,33.81415487323925,63.82232526904638,1.6907077436619624,1.0025187410012717,A,1002.6330999999118,Correct
15,115,371,B,36.83070842515869,11.664530265828677,1.8415354212579345,0.18322601295351587,B,1170.1128000004246,Correct
15,115,372,A,29.167766449899702,39.39172517754494,1.4583883224949852,0.6187637721500164,A,1916.8770999995104,Correct
15,115,373,B,55.61579079933385,27.19885728239086,2.7807895399666926,0.4272386511219819,B,2068.06349999988,Correct
15,115,374,A,21.678214168458272,41.686629421195505,1.0839107084229136,0.6548120437127396,A,863.4269999993194,Correct
15,115,375,A,64.68814681893504,86.15675521864998,3.2344073409467518,1.353347146260224,B,1719.9725999998918,Incorrect
15,115,376,A,65.2941844484115,77.03849248646625,3.264709222420575,1.2101178101955743,B,1210.480199999438,Incorrect
15,115,377,A,46.47229230448494,74.0107171928765,2.3236146152242467,1.1625576271002631,A,696.8372000001182,Correct
15,115,378,A,34.442135249877715,56.22169666911579,1.7221067624938857,0.8831283461402394,A,671.4719999999943,Correct
15,115,379,B,65.44807607100284,47.53287595536068,3.272403803550142,0.7466446695267801,A,1636.7076999995334,Incorrect
15,115,380,A,40.91960453610329,69.56339338081212,2.0459802268051646,1.092699228019681,A,810.2915000008579,Correct
15,115,381,A,66.80626680587034,78.3950158883196,3.340313340293517,1.2314260299639999,A,1271.5386999998373,Correct
15,115,382,B,84.24127246824895,55.785071542368186,4.2120636234124476,0.8762698546874245,B,581.6298999998253,Correct
15,115,383,B,68.94331182952045,44.71240288215717,3.4471655914760224,0.7023407820946603,B,942.485200000192,Correct
15,115,384,B,56.457780126533265,31.63068811975506,2.8228890063266636,0.49685368712506217,B,1554.0974000005008,Correct
15,115,385,B,54.953175866146516,25.9268084171009,2.7476587933073255,0.40725735427097104,B,784.992400000192,Correct
15,115,386,B,87.43655326879937,69.1512649389725,4.371827663439968,1.0862255295935872,B,997.158600000148,Correct
15,115,387,A,62.02606771633474,84.77298260111111,3.101303385816737,1.33161089681273,A,1026.647800000319,Correct
15,115,388,A,35.27531533928882,61.40984094030514,1.7637657669644409,0.9646235257809017,A,743.407599999955,Correct
15,115,389,B,59.558994713371035,42.95820641317495,2.9779497356685516,0.6747859283951217,A,2059.5391000006202,Incorrect
15,115,390,B,75.59616695656678,49.82014462171368,3.7798083478283386,0.7825730017217838,B,678.6000000001877,Correct
15,115,391,B,43.49011072981274,27.880975871900638,2.1745055364906367,0.43795334487038656,A,1112.3141999996733,Incorrect
15,115,392,B,77.10496995934642,49.16748333920217,3.855248497967321,0.7723210222696805,B,1049.693699999807,Correct
15,115,393,A,58.53891588924931,72.72614984660599,2.9269457944624655,1.142379690409839,A,965.0356000001921,Correct
15,115,394,A,26.24404902451124,48.285405101309365,1.3122024512255621,0.7584653697094031,A,607.7734000000419,Correct
15,115,395,B,69.63275095838746,49.20559725270063,3.481637547919373,0.7729197142229121,A,1914.3106000001353,Incorrect
15,115,396,A,27.207263976123876,36.89898282395097,1.3603631988061937,0.5796078668233017,A,751.2643000000025,Correct
15,115,397,A,51.246708471293935,73.99564005080505,2.5623354235646967,1.162320795906419,A,818.3340999994471,Correct
15,115,398,B,77.36444743022244,57.81415845184601,3.8682223715111217,0.9081426773289786,B,1095.021799999813,Correct
15,115,399,B,66.44246121184865,42.706263876023144,3.3221230605924323,0.6708284242759074,B,1385.5409999996482,Correct
15,115,400,A,59.60628691295018,76.17782197367316,2.9803143456475087,1.1965984293948135,A,762.0924999991985,Correct
15,115,401,B,67.07112230752766,52.25889884155413,3.3535561153763833,0.8208808634265929,B,1060.3603999998086,Correct
15,115,402,B,31.473364143333445,15.235182915610846,1.5736682071666723,0.2393136936188988,A,657.8960000006191,Incorrect
15,115,403,A,42.34798934261043,74.10485698599362,2.1173994671305216,1.1640363715125992,A,827.7910999995584,Correct
15,115,404,B,50.03595644203476,21.584756882831545,2.501797822101738,0.3390525682631265,B,795.3013999995164,Correct
15,115,405,B,74.2922870827565,51.638167650952624,3.714614354137825,0.8111304406853544,B,1835.322900000392,Correct
15,115,406,B,82.14537880726878,56.68797440017408,4.107268940363439,0.8904526196123657,B,1359.1970999996192,Correct
15,115,407,A,42.15373121366941,58.89203404987155,2.1076865606834705,0.925073907630182,A,950.1202999999805,Correct
15,115,408,B,70.9887464260809,42.04469742716872,3.5494373213040444,0.6604365627979946,B,851.3784000006126,Correct
15,115,409,A,31.13278472022432,63.37551141908486,1.5566392360112158,0.9955002054584652,A,919.2542999999205,Correct
15,115,410,A,27.792827426161466,49.46130280091913,1.3896413713080733,0.7769363275817391,A,770.5611999999746,Correct
15,115,411,A,15.717825227195082,45.263569979957566,0.7858912613597541,0.710998494621411,A,878.228699999454,Correct
15,115,412,B,38.53205044007612,25.606036854295084,1.9266025220038059,0.4022186863450146,B,1386.0947000002852,Correct
15,115,413,A,49.3438068910005,74.43115306397678,2.467190344550025,1.1691618183200345,A,911.35309999936,Correct
15,115,414,B,75.91025640088156,46.62764990487535,3.7955128200440784,0.732425411976566,B,1833.2694999999148,Correct
15,115,415,B,45.66243163621732,34.30235475352586,2.283121581810866,0.5388201284725388,B,840.7515999997486,Correct
15,115,416,A,63.74150957985898,82.58399889305394,3.1870754789929485,1.2972264211324294,A,1045.1671999999235,Correct
15,115,417,B,48.89087133001654,31.37567458488929,2.4445435665008266,0.49284794388656084,B,1111.134900000252,Correct
15,115,418,A,31.06555539794001,44.22274444865567,1.5532777698970006,0.6946492454073773,B,1311.168700000053,Incorrect
15,115,419,B,47.93732886774632,29.40523296762629,2.396866443387316,0.46189631934095576,B,628.7025999999969,Correct
15,115,420,B,50.59903404220015,32.97173067429374,2.5299517021100075,0.5179187343125122,B,1241.4366000002701,Correct
15,115,421,B,35.425680609107026,13.65866039194011,1.7712840304553512,0.21454973572598465,B,800.6248000001506,Correct
15,115,422,B,70.95975977770075,40.867018355815766,3.547987988885038,0.6419376232037503,B,1015.486499999497,Correct
15,115,423,B,50.40600271812689,26.985786616132565,2.5203001359063446,0.42389174492291914,B,1241.2028999997347,Correct
15,115,424,B,40.891269709301504,25.201527682945652,2.044563485465075,0.3958646711399093,B,1133.8827999998102,Correct
15,115,425,B,79.40171998109828,65.65079499588505,3.970085999054914,1.03124027630701,B,1056.3754000004337,Correct
15,115,426,A,25.219941902358237,57.77091930133287,1.260997095117912,0.9074634783409806,A,1115.7365999997637,Correct
15,115,427,A,10.706553574230114,34.821470967192305,0.5353276787115057,0.546974386888608,A,819.769499999893,Correct
15,115,428,A,12.00740570562279,37.81596990983,0.6003702852811394,0.5940118662854731,A,577.542099999846,Correct
15,115,429,A,54.63093501368548,70.92097446489784,2.731546750684274,1.1140240618217618,A,1098.6715999997614,Correct
15,115,430,B,38.683540034677065,28.886740163852767,1.9341770017338533,0.45375185342458535,B,2963.2316999995965,Correct
15,115,431,B,32.64469155490649,12.543371622272236,1.6322345777453244,0.19703082069888572,B,1177.3408999997628,Correct
15,115,432,A,50.243380277010566,70.39106011067136,2.5121690138505284,1.1057001866104135,A,1530.1816000001054,Correct
15,115,433,A,41.01494589421702,57.35790282048034,2.050747294710851,0.9009758306306914,A,809.7111000006407,Correct
15,115,434,A,39.29069577762516,69.51192221908656,1.964534788881258,1.0918907209019373,A,1075.859099999434,Correct
15,115,435,A,36.12747105820211,61.22813548352384,1.8063735529101055,0.9617693031401953,A,855.2075999996305,Correct
15,115,436,A,30.64316736576999,46.81319356406342,1.5321583682884994,0.7353399249596931,A,1113.177799999903,Correct
15,115,437,B,76.0243922039429,52.321413238658955,3.801219610197145,0.8218628372800336,B,876.2385999998514,Correct
15,115,438,B,65.53599082403571,55.67224386021765,3.276799541201785,0.8744975616005962,B,600.9839999996984,Correct
15,115,439,A,59.88818283106886,70.72973884004686,2.9944091415534433,1.1110201396510795,A,951.0662000002412,Correct
15,115,440,A,12.003151731567762,37.34036594695438,0.6001575865783881,0.5865410967065318,A,679.3148999995537,Correct
15,115,441,A,26.81831475799935,46.908209965093846,1.3409157378999674,0.7368324390969319,A,1302.2595999991609,Correct
15,115,442,B,88.74105942224136,66.8040991117642,4.4370529711120685,1.049356334996014,B,1029.172400000789,Correct
15,115,443,B,45.293370921205465,20.74854600707124,2.264668546060273,0.32591739854242424,B,1181.9918000001053,Correct
15,115,444,A,39.212460688155154,69.86968665023333,1.9606230344077575,1.0975104714449695,A,2660.3682000004483,Correct
15,115,445,A,45.181751122479156,76.11611774652886,2.259087556123958,1.1956291816613538,A,687.6818999999159,Correct
15,115,446,B,70.5969763351652,48.771928804011026,3.52984881675826,0.7661076661604272,B,1134.8985000004177,Correct
15,115,447,A,24.468295795536314,53.04556729203625,1.2234147897768155,0.8332378225508205,A,976.027000000613,Correct
15,115,448,A,42.01204624163199,54.69811450810537,2.1006023120815995,0.8591959735193855,A,1839.7499000002426,Correct
15,115,449,A,41.2445902960531,58.95748395701198,2.062229514802655,0.9261019923674344,A,914.8269999996046,Correct
15,115,450,B,45.356319347680895,38.09746860609021,2.2678159673840446,0.598433637466304,A,2308.5080000000744,Incorrect
15,115,451,A,39.10092332182397,51.64155453084393,1.9550461660911986,0.8111836416702799,A,2799.54859999998,Correct
15,115,452,A,51.378238561009795,74.6012482414205,2.5689119280504893,1.1718336671193759,A,912.6980000000913,Correct
15,115,453,B,70.2776722928942,56.25599119683625,3.5138836146447097,0.8836670433219642,A,993.575299999975,Incorrect
15,115,454,B,35.06493204099026,23.536515042191898,1.7532466020495128,0.36971071373827863,B,1539.7634000000835,Correct
15,115,455,A,34.46309351803802,56.07914157477727,1.7231546759019012,0.8808890959547111,A,888.9966000006098,Correct
15,115,456,B,70.56789506897871,42.83794593377948,3.5283947534489357,0.6728968812021918,B,911.0817999999199,Correct
15,115,457,A,26.78255565585616,50.17846471101424,1.339127782792808,0.7882014805226851,A,871.6575999997076,Correct
15,115,458,A,49.70212456731432,73.5149418961467,2.485106228365716,1.1547700069500748,A,1099.834099999498,Correct
15,115,459,A,25.3339615572208,41.977899514049255,1.26669807786104,0.6593873036323384,A,1139.821299999312,Correct
15,115,460,B,34.81509828828777,18.287947498359,1.7407549144143886,0.28726640755040234,B,1239.7510000000693,Correct
15,115,461,A,46.88435144176039,69.28668263064617,2.344217572088019,1.0883526657202276,A,682.2371999996903,Correct
15,115,462,B,38.780892969156945,14.640130579311368,1.9390446484578474,0.22996663337779938,B,699.9178000005486,Correct
15,115,463,B,78.88491651243893,47.571155850333696,3.944245825621947,0.7472459687109173,B,729.1620000005423,Correct
15,115,464,B,34.13295609903743,20.43541273248146,1.7066478049518714,0.32099871256719537,B,657.7186000004076,Correct
15,115,465,B,62.14760808772681,46.98047326135541,3.10738040438634,0.7379675483002293,B,725.8707999999388,Correct
15,115,466,A,13.70232222931654,39.29706861055395,0.685116111465827,0.6172769102726517,A,595.132299999932,Correct
15,115,467,B,50.15128588672959,31.067160583881662,2.5075642943364795,0.488001817291085,B,565.0963999996748,Correct
15,115,468,B,57.259982968006135,38.71469590774725,2.862999148400307,0.6081290212487079,B,607.8981999999087,Correct
15,115,469,B,63.59730987177817,52.340392359951736,3.1798654935889084,0.8221609606201585,B,986.0853999998653,Correct
15,115,470,A,44.01881075783279,65.04522004107955,2.2009405378916393,1.0217279271609354,A,1794.9631000001318,Correct
15,115,471,A,32.03745408128899,57.844151699639184,1.6018727040644496,0.9086138101636,A,1090.4019999998127,Correct
15,115,472,B,42.9172466165237,20.48988870493598,2.145862330826185,0.32185441914149676,B,1089.0402000004542,Correct
15,115,473,B,30.15991720299187,13.945814209265826,1.5079958601495935,0.21906033734078834,B,1272.7826000000277,Correct
15,115,474,B,86.96721739583722,65.39358627612933,4.348360869791861,1.027200051184891,B,815.9833999998227,Correct
15,115,475,B,58.89646110823591,41.4945111423674,2.944823055411796,0.6517942568458063,A,1935.1954000003389,Incorrect
15,115,476,B,64.8156140157394,55.743944366725025,3.2407807007869702,0.8756238305231074,B,856.2727000007726,Correct
15,115,477,A,22.96804208751391,48.666881113561296,1.1484021043756956,0.7644575808974602,A,832.0206000007602,Correct
15,115,478,A,34.71726533229473,57.09215129166251,1.7358632666147367,0.8968014153776198,A,728.0700000001161,Correct
15,115,479,B,87.95760916214857,67.08888270170016,4.397880458107428,1.0538297051660428,B,1030.977200000052,Correct
15,115,480,A,54.98099093880022,76.22496270657254,2.749049546940011,1.1973389142956212,A,3397.0298000003822,Correct
15,115,481,A,51.876193260835215,64.02321406382487,2.593809663041761,1.0056742948105946,A,773.9246000001003,Correct
15,115,482,A,56.85359861512907,85.48575652256291,2.842679930756453,1.342807123389247,A,1087.5874999992448,Correct
15,115,483,A,50.19346430853622,63.20998214987112,2.509673215426811,0.9929000777778854,A,1149.6988999997484,Correct
15,115,484,A,35.6248960072524,53.01717212214673,1.7812448003626202,0.8327917922652088,A,818.4054000003016,Correct
15,115,485,A,17.88240006218345,48.829816554134375,0.8941200031091725,0.7670169648130292,A,704.4923999992534,Correct
15,115,486,A,47.183516441960094,66.33217979855043,2.3591758220980044,1.0419434437586166,A,709.1958000000886,Correct
15,115,487,B,46.26254505103939,22.393872907653478,2.3131272525519693,0.3517621330605384,B,745.3570999996373,Correct
15,115,488,B,35.64576040432754,14.683705511156731,1.7822880202163771,0.2306511068066297,B,766.8721999998525,Correct
15,115,489,B,76.60991146118894,44.367668472423986,3.8304955730594474,0.6969257066493733,B,606.637399999272,Correct
15,115,490,A,25.26706205230189,54.08975877441627,1.2633531026150946,0.8496399440007509,A,1472.3285000000033,Correct
15,115,491,A,30.450015181776337,50.71976715927739,1.5225007590888169,0.7967042394968534,A,798.1063999995968,Correct
15,115,492,A,66.73408080630165,80.09988913008205,3.3367040403150825,1.2582061162221136,B,567.7980000000389,Incorrect
15,115,493,B,70.01586314905961,47.82753969794735,3.5007931574529807,0.751273236771728,B,867.4026000007871,Correct
15,115,494,B,60.77508437326407,39.587687492514085,3.038754218663204,0.6218419409954539,B,599.2822999996861,Correct
15,115,495,A,42.34919437663749,71.45010410972898,2.1174597188318747,1.1223356108467522,A,795.7095000001573,Correct
15,115,496,A,60.6802812693115,80.630760282774,3.034014063465575,1.2665450207886126,A,1646.7553000002226,Correct
15,115,497,B,59.489980995770125,43.43086711918981,2.974499049788506,0.682210465403406,B,699.2060000002311,Correct
15,115,498,B,74.89842529790306,44.49356671572595,3.7449212648951526,0.6989033116306599,B,604.0419999999358,Correct
15,115,499,A,62.81822314973422,73.15423565073111,3.140911157486711,1.149104046496567,B,314.3911000006483,Incorrect
15,115,500,A,47.91141398897138,71.57778018755887,2.395570699448569,1.1243411419875,A,753.032799999346,Correct
15,115,501,B,71.48251048706523,42.57352662194378,3.5741255243532613,0.6687433923645402,B,762.4699999996665,Correct
15,115,502,B,51.882770477009515,22.003989971962902,2.5941385238504755,0.34563786622791065,A,1751.140200000009,Incorrect
15,115,503,B,53.63032786414173,31.40864951258027,2.6815163932070862,0.493365912839494,B,552.262599999267,Correct
15,115,504,B,78.40180515564118,50.95088284058097,3.920090257782059,0.8003345961294169,B,755.0561999996717,Correct
15,115,505,A,30.580448710406603,55.49430288387813,1.5290224355203301,0.8717024712803921,A,782.6425000002928,Correct
15,115,506,B,54.06370965513834,34.312477179266615,2.7031854827569166,0.5389791311642571,B,3645.5415999998877,Correct
15,115,507,B,59.638166206855175,33.79934332107062,2.981908310342759,0.5309188433681735,B,525.305400000434,Correct
15,115,508,B,71.55840129523662,55.83548072817618,3.577920064761831,0.8770616803264637,B,1156.4839000002394,Correct
15,115,509,A,51.89652073443631,71.11232160478852,2.594826036721815,1.1170297356665917,A,2291.696199999933,Correct
15,115,510,B,73.73274247687621,63.627750351332644,3.6866371238438105,0.9994623653409601,A,878.4863999999288,Incorrect
15,115,511,A,61.09768534408265,86.79679803447135,3.0548842672041325,1.3634009153010611,A,909.133600000132,Correct
15,115,512,A,44.32452459457507,51.2135236288088,2.216226229728753,0.804460147983565,A,1251.2244999998074,Correct
15,115,513,B,64.44454010075589,36.87088520085175,3.2222270050377944,0.5791665103917424,B,1173.4300999996776,Correct
15,115,514,B,37.50024487666748,17.341952730631412,1.8750122438333738,0.2724067564872655,B,896.7422000005172,Correct
15,115,515,A,25.318308888896958,45.65296549935539,1.2659154444448477,0.7171151051368159,A,996.9117000000551,Correct
15,115,516,A,37.87141884668006,49.00438439363564,1.8935709423340028,0.7697590700236802,A,894.4556999995257,Correct
15,115,517,B,68.78499865573227,58.75680079296461,3.439249932786613,0.9229496685980828,B,957.2528999997303,Correct
15,115,518,B,44.839844657134975,24.30327048591026,2.2419922328567488,0.3817548800837066,B,835.3358000003936,Correct
15,115,519,A,25.665973955856796,42.32383310024568,1.2832986977928398,0.6648212156974617,A,584.5754000001762,Correct
15,115,520,A,62.69055322048119,80.93825153661446,3.1345276610240598,1.2713750821091538,A,806.1298000002353,Correct
15,115,521,A,58.58901830317116,70.46031342740548,2.929450915158558,1.1067880151658567,A,1041.4472000002206,Correct
15,115,522,B,30.875447405093617,16.721806539689034,1.5437723702546808,0.26266552289918416,B,829.0647000003446,Correct
15,115,523,B,77.22637971508581,47.06775753096942,3.861318985754291,0.739338606401196,B,1246.9779000002745,Correct
15,115,524,B,37.110356438651266,25.565930856312036,1.8555178219325632,0.4015887028018724,A,1193.2224000001952,Incorrect
15,115,525,B,38.896954642008104,12.10152086955133,1.9448477321004052,0.19009024530523008,B,788.2902000001195,Correct
15,115,526,A,13.218579995260868,40.91185582368622,0.6609289997630434,0.642641928502087,A,646.4982999996209,Correct
15,115,527,B,71.891906200042,59.920638963907145,3.5945953100021,0.941231195837085,B,770.6676999996489,Correct
15,115,528,A,56.825191181637855,80.15414277365896,2.8412595590818928,1.2590583304625718,A,1124.6023000003333,Correct
15,115,529,A,53.964004818561904,73.88335536748279,2.6982002409280947,1.1605570322252396,A,588.9114999999947,Correct
15,115,530,B,41.04822631668982,29.466378282228007,2.0524113158344908,0.4628567876967266,A,672.2466000001077,Incorrect
15,115,531,A,48.589593787965136,73.7887058661518,2.429479689398257,1.159070281335003,A,768.0108000004111,Correct
15,115,532,A,66.39555541445185,86.09140112625605,3.3197777707225926,1.35232056657749,A,651.3087000002997,Correct
15,115,533,B,68.59460630377886,57.80432058539746,3.4297303151889427,0.9079881444841695,A,592.844600000717,Incorrect
15,115,534,B,54.30809670911679,26.248078445279027,2.715404835455839,0.412303852072686,B,792.8604999997333,Correct
15,115,535,B,50.1375641894274,24.921858638776087,2.50687820947137,0.3914716400669113,B,634.5099999998638,Correct
15,115,536,B,45.27597845598624,29.96497831678122,2.263798922799312,0.4706887787248867,B,540.5151999993905,Correct
15,115,537,A,44.333463958508936,68.61081965688453,2.216673197925447,1.077736234954213,A,799.5386999991752,Correct
15,115,538,B,84.88601986224887,69.57002537095158,4.244300993112444,1.092803403077185,B,1237.6083999997718,Correct
15,115,539,A,49.86787505967273,61.5614325428011,2.493393752983636,0.9670047211046378,A,1062.2112999999445,Correct
15,115,540,B,41.73323857661893,25.62370510462803,2.0866619288309467,0.4024962185722535,B,749.3863999998212,Correct
15,115,541,B,33.38504116681001,17.406772096621925,1.6692520583405008,0.2734249367072962,B,685.7383000005939,Correct
15,115,542,A,40.956136920757906,73.3518472577297,2.0478068460378953,1.1522081223606213,A,836.3134000001082,Correct
15,115,543,B,38.38681028869058,20.820406027271467,1.9193405144345292,0.32704617310016343,B,525.4500999999436,Correct
15,115,544,A,44.70918077039401,62.59591286478205,2.235459038519701,0.9832543000037305,A,1132.6310999993439,Correct
15,115,545,A,27.690037754463752,43.89878176847239,1.3845018877231876,0.689560451526872,A,1275.8144999997967,Correct
15,115,546,B,60.90553044192814,34.111283692012584,3.0452765220964073,0.5358187912567203,B,1224.0117999999711,Correct
15,115,547,B,31.575274776231694,15.033119827346013,1.578763738811585,0.2361396940506265,B,509.51919999988604,Correct
15,115,548,A,18.961285122258598,37.44402156981256,0.94806425611293,0.5881693154229046,A,609.6864000001005,Correct
15,115,549,A,16.35244702394115,41.75752214363929,0.8176223511970575,0.6559256239928517,A,774.6487000003981,Correct
