subject,day,trial,cat,x,y,xt,yt,resp,rt,fb
18,218,0,B,64.46412955192349,44.41198297783632,3.223206477596175,0.6976217972726275,B,1139.535799999976,Correct
18,218,1,A,13.770393966285596,37.23926358737293,0.6885196983142798,0.5849529845559235,A,490.7283000000007,Correct
18,218,2,A,39.65949318997415,59.503664617793184,1.9829746594987074,0.9346813781246498,B,279.9845000001824,Incorrect
18,218,3,B,86.43823005725696,61.15616991152215,4.321911502862848,0.9606388705786358,A,267.5885000001017,Incorrect
18,218,4,B,87.43975190857229,61.51332785637189,4.371987595428615,0.9662490944571915,B,675.0460000000658,Correct
18,218,5,A,44.060132281187755,58.389732079123526,2.2030066140593876,0.9171837667242537,A,394.2232000001695,Correct
18,218,6,B,45.15557257476564,29.026387035609865,2.257778628738282,0.45594542135662974,A,445.5815999999686,Incorrect
18,218,7,A,54.634065581631845,73.65647602436206,2.731703279081592,1.156993219837243,B,317.84829999992326,Incorrect
18,218,8,A,25.91127697905613,36.57384733563478,1.2955638489528065,0.5745006505157242,A,196.7478999999912,Correct
18,218,9,A,43.81406300959726,54.80293388560314,2.190703150479863,0.8608424724508896,A,316.25020000001314,Correct
18,218,10,A,33.68671096959727,62.23264010063449,1.6843355484798637,0.9775480247682544,A,291.13379999989775,Correct
18,218,11,B,55.327397625178925,40.71488085247795,2.7663698812589463,0.6395478528896423,B,415.5766000001222,Correct
18,218,12,A,29.159763344151315,38.136820635589125,1.4579881672075659,0.5990517777001921,A,151.61799999987124,Correct
18,218,13,B,45.47553182634728,35.545129634100675,2.2737765913173638,0.5583415906469377,A,256.9544999998925,Incorrect
18,218,14,B,76.55069600143639,58.069042800755284,3.8275348000718195,0.9121463913192203,B,252.31639999992694,Correct
18,218,15,B,54.281650724056746,34.46476251970705,2.7140825362028376,0.5413712236981426,A,203.51819999996223,Incorrect
18,218,16,B,68.41733895103155,49.474172508252344,3.4208669475515774,0.7771384844717985,B,233.55609999998705,Correct
18,218,17,B,68.15623737163634,59.815378834683116,3.407811868581817,0.9395777735936544,B,276.3441999998122,Correct
18,218,18,B,48.99572449944858,36.980371178823056,2.449786224972429,0.5808863121120713,B,584.7764000000097,Correct
18,218,19,A,19.62254091414119,40.07019850096289,0.9811270457070594,0.6294212061925487,A,286.04330000007394,Correct
18,218,20,A,46.00732425238859,73.84576064749763,2.3003662126194295,1.1599664957446438,A,267.00819999996384,Correct
18,218,21,A,51.162143512069285,64.56072702953405,2.5581071756034643,1.0141175287320008,A,3203.0094000001554,Correct
18,218,22,A,63.96784987683509,79.96185429780581,3.1983924938417543,1.256037870147021,A,209.70119999992676,Correct
18,218,23,B,50.90911753161639,28.442481265142803,2.5454558765808195,0.4467734509621897,A,218.5268000000633,Incorrect
18,218,24,A,31.859903497699094,59.69796835341588,1.5929951748849547,0.9377334940666364,B,506.2393999999131,Incorrect
18,218,25,A,20.572617143635814,50.087846527731344,1.0286308571817906,0.786778053428269,A,217.4308999999539,Correct
18,218,26,A,57.89422108967454,70.94863317508772,2.894711054483727,1.1144585238254634,A,228.4764000000905,Correct
18,218,27,A,26.384101772125277,52.68491748827767,1.319205088606264,0.8275727486807878,A,238.69810000019243,Correct
18,218,28,B,77.11475153006906,59.065326703553964,3.8557375765034525,0.9277959822688309,A,198.445399999855,Incorrect
18,218,29,B,37.888009845462186,26.900173691063202,1.8944004922731095,0.4225469402406679,A,229.37660000002325,Incorrect
18,218,30,A,44.50099944977467,74.94136377667321,2.2250499724887334,1.177176189453984,B,150.52280000008977,Incorrect
18,218,31,B,58.234892446308464,29.767622663674842,2.911744622315423,0.46758872337516955,A,258.6173999998209,Incorrect
18,218,32,B,55.453464762443375,43.1031123169139,2.772673238122169,0.6770621050083622,B,190.2493999998569,Correct
18,218,33,B,72.21632205611436,61.21235334895504,3.610816102805718,0.9615213979500987,B,314.9391000001742,Correct
18,218,34,A,63.503225749700064,84.131957848541,3.175161287485003,1.321541703545513,B,298.1497999999192,Incorrect
18,218,35,B,42.54143813010092,14.886107332472314,2.127071906505046,0.23383042718122088,A,220.9364000000278,Incorrect
18,218,36,A,64.25476179671143,76.58774627748095,3.2127380898355717,1.2030375053016658,B,358.290899999929,Incorrect
18,218,37,B,53.624426693568054,32.06990693567954,2.681221334678403,0.5037529201521961,A,255.13180000007196,Incorrect
18,218,38,B,48.86208780138212,21.996506086996437,2.443104390069106,0.3455203096377559,B,375.4447999999684,Correct
18,218,39,B,47.62485272489983,34.02806827804602,2.3812426362449917,0.5345116465908062,B,134.05280000006314,Correct
18,218,40,A,30.29911988002784,51.59488511107826,1.514955994001392,0.8104505601388644,B,110.64149999992878,Incorrect
18,218,41,A,23.243445161283166,36.08009205579701,1.1621722580641582,0.5667447607166767,A,248.3252999998058,Correct
18,218,42,A,37.05404963337268,56.39986701972316,1.8527024816686337,0.8859270394630178,A,236.44140000033076,Correct
18,218,43,A,51.599503387026424,79.44091750408657,2.579975169351321,1.2478550141263558,B,340.5046999996557,Incorrect
18,218,44,B,56.64389257968573,25.081807856365693,2.8321946289842868,0.393984116501546,A,113.7178999997559,Incorrect
18,218,45,B,54.75196863166735,47.50212877148923,2.7375984315833675,0.7461616938919345,B,239.8244999999406,Correct
18,218,46,B,44.52098774859063,19.833275671912386,2.2260493874295317,0.3115403657375056,B,195.9854000001542,Correct
18,218,47,A,35.038879287961514,63.96733819786127,1.7519439643980759,1.0047965987604737,A,185.74620000026698,Correct
18,218,48,B,50.726440940991075,43.81843548756122,2.5363220470495538,0.688298375097603,A,195.9948999997323,Incorrect
18,218,49,A,43.6744640635408,68.72078734730086,2.18372320317704,1.079463603395934,B,249.516500000027,Incorrect
18,218,50,B,57.86068261212756,35.58247219001867,2.8930341306063783,0.5589281661436287,A,168.70569999991858,Incorrect
18,218,51,B,49.91769369882483,23.943248021029866,2.4958846849412413,0.3760996604297289,B,309.12979999993695,Correct
18,218,52,A,28.726340627184378,55.35227526715471,1.436317031359219,0.8694715066938661,B,341.99850000004517,Incorrect
18,218,53,B,64.67078483961163,45.504252569898526,3.2335392419805817,0.7147791279034384,A,379.24429999975473,Incorrect
18,218,54,B,59.77340391828634,26.74026106906878,2.988670195914317,0.42003503864829816,B,331.52830000017275,Correct
18,218,55,B,72.70299955291881,49.973767192131305,3.6351499776459404,0.7849860994150317,B,299.2812000002232,Correct
18,218,56,A,27.552742351940424,56.61055238675783,1.3776371175970212,0.8892364774694925,B,230.04009999976915,Incorrect
18,218,57,B,54.34532748055344,37.661018568005936,2.717266374027672,0.5915778962997812,B,236.9539999999688,Correct
18,218,58,B,62.87916977320376,40.58822933930609,3.143958488660188,0.6375584155729086,B,222.36739999971178,Correct
18,218,59,B,75.19547903844983,46.82905045361644,3.7597739519224915,0.7355890043983359,B,349.00740000011865,Correct
18,218,60,B,56.69213977116877,30.34267098851662,2.834606988558438,0.47662156133907985,B,466.8311000000358,Correct
18,218,61,A,63.91327689115689,77.75052721909462,3.1956638445578442,1.2213024256212046,B,512.3392999998941,Incorrect
18,218,62,A,36.35474901657583,57.93080141932809,1.8177374508287913,0.9099749007776515,A,533.0551000001833,Correct
18,218,63,A,67.639513318231,83.51145233819236,3.38197566591155,1.3117948257813963,B,544.6428999998716,Incorrect
18,218,64,A,26.681445928219425,49.68326267269402,1.3340722964109712,0.7804228650945376,A,3592.63349999992,Correct
18,218,65,B,81.88415223623635,61.97957880119641,4.094207611811817,0.9735729471721416,B,121.75520000027973,Correct
18,218,66,B,45.27866363828054,19.907010064602083,2.263933181914027,0.3126985828694599,B,321.2524000000485,Correct
18,218,67,A,18.46287030050627,47.38191979507256,0.9231435150253136,0.7442734557059038,B,279.3449000000692,Incorrect
18,218,68,B,53.2203549090279,34.910389913622986,2.661017745451395,0.5483711224329659,A,330.96340000020064,Incorrect
18,218,69,B,68.30334670997718,36.42784538882132,3.4151673354988588,0.5722072572981294,B,359.9189999999908,Correct
18,218,70,A,21.42272485536899,48.90521877251916,1.0711362427684494,0.7682013800897391,A,781.1604999997144,Correct
18,218,71,B,57.36216140059932,46.48656584415913,2.868108070029966,0.7302092687331427,B,462.0428000002903,Correct
18,218,72,A,18.9218791480193,47.139948710172035,0.946093957400965,0.7404725827923806,A,340.628999999808,Correct
18,218,73,B,66.07990798364038,34.603110846749516,3.3039953991820195,0.5435443941375079,B,469.2579999996269,Correct
18,218,74,A,43.549759681091025,55.62893725224186,2.1774879840545514,0.873817302993253,A,228.99230000030002,Correct
18,218,75,A,30.2032234699748,39.19289944187743,1.5101611734987401,0.6156406247974282,B,119.21060000031503,Incorrect
18,218,76,A,48.11897948506522,59.54822211012669,2.4059489742532607,0.9353812855775364,A,239.20589999988806,Correct
18,218,77,B,68.59941456928344,58.376707226473,3.429970728464172,0.9169791728172487,B,291.0807999996905,Correct
18,218,78,B,77.30024641054258,50.56872420966985,3.865012320527129,0.7943316623925357,B,316.20010000006005,Correct
18,218,79,A,54.22437479922783,69.11077114565096,2.7112187399613914,1.0855894545755125,B,335.8165999998164,Incorrect
18,218,80,A,54.4110240709518,74.15140792602192,2.72055120354759,1.1647675919686522,A,310.43289999979606,Correct
18,218,81,A,28.577039001866403,39.1731164506098,1.4288519500933203,0.6153298742972662,B,457.2017999998934,Incorrect
18,218,82,A,48.73789645904536,75.96075340019206,2.4368948229522682,1.1931887242159465,A,327.28980000001684,Correct
18,218,83,A,58.90430795948876,68.27434421637759,2.945215397974438,1.0724508910941628,A,295.04039999983434,Correct
18,218,84,A,42.100655893479754,71.06336863705297,2.105032794673988,1.1162607842475447,B,583.6183000001256,Incorrect
18,218,85,A,26.67711133693504,43.495219641120784,1.333855566846752,0.6832213124540977,A,510.53749999982756,Correct
18,218,86,B,52.99032597454402,38.88657200351396,2.649516298727201,0.61082884464765,B,484.61240000006,Correct
18,218,87,B,76.74427928561744,51.43800822317795,3.837213964280872,0.8079863437461362,A,260.34059999983583,Incorrect
18,218,88,B,82.71773801431647,66.96366893527664,4.135886900715823,1.051862851922421,B,246.02420000019265,Correct
18,218,89,B,34.98054527759862,12.0472605803042,1.7490272638799311,0.18923792667482794,A,437.5113000000965,Incorrect
18,218,90,A,45.07565157792174,58.0876400488064,2.2537825788960872,0.9124385162084921,B,268.08580000033544,Incorrect
18,218,91,B,74.18028169318454,53.207359442440506,3.709014084659227,0.8357792477064131,B,463.1678999999167,Correct
18,218,92,A,28.546059903759236,46.2026412616766,1.4273029951879619,0.7257493918206392,B,404.41629999986617,Incorrect
18,218,93,A,42.11436552878934,72.85017103646315,2.105718276439467,1.144327810704563,A,321.7326000003595,Correct
18,218,94,A,61.39372952235961,73.41494991833223,3.06968647611798,1.1531993366354756,B,278.10479999970994,Incorrect
18,218,95,A,52.68204287881264,75.79169357119439,2.634102143940632,1.190533138631965,A,85.04110000012588,Correct
18,218,96,B,86.05373136981159,57.05559501510135,4.3026865684905795,0.8962271907281842,B,245.58550000028845,Correct
18,218,97,B,61.480540177181716,33.07623074817672,3.074027008859086,0.5195602176345641,B,426.3000999999349,Correct
18,218,98,B,82.57006154320527,60.32000063450062,4.128503077160263,0.9475043542893941,B,339.39749999990454,Correct
18,218,99,A,53.25330126909845,66.12031617213799,2.6626650634549223,1.0386154976971156,B,377.49140000005355,Incorrect
18,218,100,B,37.79901832481304,15.89936749254921,1.889950916240652,0.24974668055658486,A,606.2294999996993,Incorrect
18,218,101,A,49.236636312360666,79.7120182499155,2.461831815618033,1.2521134546837502,B,227.4798000003102,Incorrect
18,218,102,A,38.62010478774826,71.7223439890535,1.931005239387413,1.1266119448712526,B,300.33529999991515,Incorrect
18,218,103,A,24.436315502838895,36.54617507939669,1.2218157751419447,0.5740659757311951,A,218.40059999976802,Correct
18,218,104,A,43.37622616088072,55.64278051289295,2.168811308044036,0.874034752423069,A,300.9044000000358,Correct
18,218,105,A,18.774660352093875,41.86728118487101,0.9387330176046937,0.6576497149808447,A,236.39060000004974,Correct
18,218,106,B,67.08796908565624,55.961729242055185,3.354398454282812,0.8790447873451083,A,200.50240000000485,Incorrect
18,218,107,B,47.09076817083549,16.944723922087828,2.3545384085417744,0.2661671009536917,B,289.6090999997796,Correct
18,218,108,B,44.30053829790157,35.67221311013775,2.2150269148950783,0.5603378132204913,B,362.46989999972357,Correct
18,218,109,A,45.91864347587348,55.434556316366404,2.2959321737936738,0.8707639743925317,B,462.57459999969797,Incorrect
18,218,110,A,24.98122032647899,37.73663513190111,1.2490610163239495,0.5927656785078952,A,290.78279999976075,Correct
18,218,111,A,55.396965611556176,76.34940926152515,2.7698482805778086,1.1992937162096398,B,449.7090000004391,Incorrect
18,218,112,A,44.003476135186176,52.56899697946127,2.200173806759309,0.8257518735862978,A,309.58259999988513,Correct
18,218,113,A,43.226074641164765,55.61883671279722,2.1613037320582382,0.8736586440906703,B,487.51420000007784,Incorrect
18,218,114,B,51.34100809019498,44.34066766015618,2.5670504045097493,0.6965015788820659,A,180.2213999999367,Incorrect
18,218,115,B,65.93181872614242,56.01971115307866,3.296590936307121,0.8799555650736706,B,301.61199999974997,Correct
18,218,116,A,44.44429255869619,51.533994926337684,2.2222146279348096,0.8094940993535805,B,680.9705999999096,Incorrect
18,218,117,A,11.988805842252553,35.35695236632664,0.5994402921126276,0.55538570903688,A,413.10340000018186,Correct
18,218,118,A,55.746126565302184,80.03277959957312,2.7873063282651094,1.25715196218195,B,537.5073999998676,Incorrect
18,218,119,A,44.322467953290655,62.36037589170495,2.2161233976645325,0.9795544938823915,A,316.8418999998721,Correct
18,218,120,A,56.95605510648139,80.56172540545748,2.8478027553240692,1.265460623471517,A,348.0365999998867,Correct
18,218,121,B,41.55686844686396,16.686808347031388,2.0778434223431983,0.2621157725744732,B,490.4044999998405,Correct
18,218,122,B,62.972737394954244,46.18267627701981,3.1486368697477123,0.7254357825750052,A,76.347899999746,Incorrect
18,218,123,A,35.891050041543565,57.9178483657203,1.7945525020771782,0.9097714346873725,B,146.18930000006003,Incorrect
18,218,124,A,34.99342081562789,53.26714852948202,1.7496710407813947,0.8367184124894854,A,221.21859999970184,Correct
18,218,125,A,50.97156494471385,60.926815777615666,2.5485782472356924,0.9570361842678804,B,342.08540000008725,Incorrect
18,218,126,A,13.599533022161257,39.02442575312578,0.6799766511080628,0.6129942462829014,A,156.10670000023674,Correct
18,218,127,B,47.77453588012356,21.206363064118822,2.388726794006178,0.3331087720579681,A,337.9133000003094,Incorrect
18,218,128,A,57.66480875218468,80.15087400050878,2.883240437609234,1.2590069846939977,B,279.71190000016577,Incorrect
18,218,129,A,30.11396044634066,44.297561409899636,1.505698022317033,0.6958244674864171,A,248.89690000009068,Correct
18,218,130,B,75.35426634967988,50.3999982512576,3.7677133174839934,0.7916813212354467,A,276.4532999999574,Incorrect
18,218,131,A,50.242725107844734,58.93172511477054,2.5121362553922366,0.9256973734196813,B,498.01590000015494,Incorrect
18,218,132,B,59.280045746194475,48.049365468445394,2.9640022873097234,0.7547576678265958,A,166.48029999987557,Incorrect
18,218,133,B,45.00679881252261,16.788029405464044,2.2503399406261306,0.26370574924227635,B,162.03159999986383,Correct
18,218,134,B,65.74257484757995,48.884862752130104,3.287128742378997,0.7678816284691863,B,254.7485999998571,Correct
18,218,135,A,24.496248620532036,55.180525488312,1.224812431026602,0.8667736674765267,B,308.2948999999644,Incorrect
18,218,136,A,63.04219631867494,86.45050215569889,3.152109815933747,1.3579613123574608,B,627.1897999999965,Incorrect
18,218,137,B,67.41788578082195,52.02693721165564,3.3708942890410976,0.8172372186645741,A,284.3388999999661,Incorrect
18,218,138,A,26.96262869363493,53.77273123485584,1.3481314346817463,0.8446600870544074,A,484.3177999996442,Correct
18,218,139,A,63.93851535108384,75.72246286859954,3.1969257675541924,1.189445665298591,B,218.13599999995859,Incorrect
18,218,140,B,55.79269449079052,44.018720751556494,2.789634724539526,0.6914444486675524,B,857.5928000000204,Correct
18,218,141,B,55.31982990552647,35.599489501702124,2.765991495276323,0.5591954734504717,A,289.6028000000115,Incorrect
18,218,142,A,39.61210698638214,71.34590246124515,1.980605349319107,1.1206988151799084,B,228.66979999980686,Incorrect
18,218,143,B,85.62770141770065,66.31380646362265,4.281385070885033,1.0416548360884614,A,189.52459999991333,Incorrect
18,218,144,B,49.10280690540759,35.914890354775075,2.4551403452703795,0.5641497784652215,B,214.61020000015196,Correct
18,218,145,B,63.863116771916495,45.58521556048301,3.1931558385958247,0.7160508915856026,B,193.1534999998803,Correct
18,218,146,A,30.370685405339103,57.033912791566756,1.518534270266955,0.8958866071573353,B,333.2757000002857,Incorrect
18,218,147,B,64.68271634688668,32.330283267499304,3.2341358173443338,0.5078429020082641,B,594.8679000002812,Correct
18,218,148,A,60.69921089585965,75.19783843295023,3.0349605447929826,1.1812048839339435,A,460.7897000000776,Correct
18,218,149,B,79.064982375015,56.7877930333902,3.95324911875075,0.8920205670363816,B,328.3902999996826,Correct
18,218,150,B,56.18544962037048,49.10762424305418,2.809272481018524,0.7713807577861351,B,349.09120000020266,Correct
18,218,151,A,46.82254386045325,74.67235821484672,2.341127193022663,1.1729506599699395,A,333.9427999999316,Correct
18,218,152,A,37.63395477745105,53.95585776461161,1.8816977388725524,0.8475366318571981,B,291.70669999984966,Incorrect
18,218,153,B,51.31429845078751,28.17821187117366,2.5657149225393754,0.44262231702887933,A,291.7201999998724,Incorrect
18,218,154,A,45.587567497072,75.34160267709096,2.2793783748536,1.1834631274001504,B,575.8915999999772,Incorrect
18,218,155,B,44.4793471443394,29.746857575376858,2.22396735721697,0.4672625461309291,B,249.56939999992755,Correct
18,218,156,B,78.73001817609017,64.8739584873635,3.9365009088045086,1.019037756965952,B,428.0616999999438,Correct
18,218,157,B,79.34626438337746,60.14164091444529,3.9673132191688727,0.9447026863582834,B,439.9456999999529,Correct
18,218,158,A,22.10019874847244,41.194849510962925,1.105009937423622,0.647087182946891,A,445.47300000022005,Correct
18,218,159,B,42.80736890058522,20.82441412728283,2.140368445029261,0.32710913218791615,A,522.451700000147,Incorrect
18,218,160,A,19.160888740650066,34.76410665703262,0.9580444370325033,0.5460733104117286,B,266.20290000028035,Incorrect
18,218,161,A,41.12294742045394,49.338211348713884,2.056147371022697,0.7750028115719004,B,446.63260000015725,Incorrect
18,218,162,B,83.47153105449343,62.412583629822684,4.173576552724671,0.9803745711150476,A,212.4764000000141,Incorrect
18,218,163,A,36.44292833968794,66.62030826631336,1.8221464169843968,1.046469355146687,A,524.7153999998773,Correct
18,218,164,B,50.94870778206197,34.03760599157112,2.5474353891030987,0.5346614646445188,B,502.7095999998892,Correct
18,218,165,A,67.09409752801206,83.18323043014436,3.354704876400603,1.306639128106042,A,365.3300000000854,Correct
18,218,166,B,72.99092087486565,53.29567018984323,3.6495460437432827,0.8371664296827801,B,490.6002000002445,Correct
18,218,167,A,44.907568050749475,66.11564483478912,2.245378402537474,1.0385421205016274,A,475.9229999999661,Correct
18,218,168,B,67.82694915011335,39.13635621548258,3.3913474575056677,0.6147524458741664,B,341.64520000013,Correct
18,218,169,B,65.06047358716806,39.03047232797357,3.253023679358403,0.6130892256585074,B,387.4381999999059,Correct
18,218,170,B,63.96669932928914,44.4658807607759,3.1983349664644574,0.6984684216672665,B,359.2922000002545,Correct
18,218,171,B,50.927800918905334,43.329154410111016,2.546390045945267,0.6806127659053127,B,323.19649999999456,Correct
18,218,172,B,74.21686502087468,50.05019289546054,3.7108432510437344,0.7861865915556545,B,346.6588999999658,Correct
18,218,173,B,83.59661731160298,67.52201006923113,4.179830865580149,1.0606332539455627,B,302.82579999993686,Correct
18,218,174,B,60.27345477353752,50.86513937228461,3.0136727386768762,0.7989877408789514,B,505.3115999999136,Correct
18,218,175,A,46.95807733214329,61.57552208342683,2.3479038666071643,0.967226039091249,B,404.0896999999859,Incorrect
18,218,176,A,27.467596915909326,38.765334854613876,1.3733798457954662,0.6089244559660165,A,199.41340000013952,Correct
18,218,177,B,63.90326690319084,31.53874372586843,3.1951633451595423,0.49540942796319715,A,302.8809000002184,Incorrect
18,218,178,B,63.38468517986218,38.74076781277962,3.169234258993109,0.6085385577752819,B,265.66779999984647,Correct
18,218,179,A,30.26417224727165,61.24368288255284,1.5132086123635824,0.9620135211130548,B,396.42179999964355,Incorrect
18,218,180,A,15.8135831903198,36.63767148849102,0.7906791595159901,0.5755031979643981,A,191.79310000026817,Correct
18,218,181,A,40.18852254771047,59.715263669983834,2.0094261273855234,0.9380051682639934,A,681.9835000001149,Correct
18,218,182,B,57.01809721479709,35.58488905014863,2.8509048607398544,0.558966130093774,A,351.4961000000767,Incorrect
18,218,183,B,52.53746196635649,29.018655245679472,2.6268730983178243,0.4558239706844078,B,418.25650000009773,Correct
18,218,184,A,57.72521321447577,78.81875464395549,2.8862606607237886,1.2380821027727347,A,229.07359999999244,Correct
18,218,185,A,66.97969686647417,89.25945781050385,3.3489848433237084,1.4020842846044348,B,290.3345999998237,Incorrect
18,218,186,B,72.9532298957626,45.19538294687262,3.6476614947881303,0.7099274152103621,A,213.96219999996902,Incorrect
18,218,187,A,18.827623813273544,45.84953828182858,0.9413811906636772,0.7202028631833831,A,471.8711999998959,Correct
18,218,188,A,44.56982473468715,64.40937757985408,2.228491236734358,1.0117401371358037,B,578.0819999999949,Incorrect
18,218,189,B,76.66608699986415,46.197294320026046,3.8333043499932073,0.7256654022575966,B,495.61369999992166,Correct
18,218,190,A,22.516409004548354,54.488757685315214,1.1258204502274176,0.8559074042371031,A,457.5516999998399,Correct
18,218,191,B,63.78404347662702,31.338545719677665,3.189202173831351,0.4922647250356361,B,625.8944999999585,Correct
18,218,192,A,25.77933141438121,48.913626925150965,1.2889665707190605,0.7683334550424309,A,684.3714000001455,Correct
18,218,193,A,59.81649452963404,83.73816964249907,2.9908247264817023,1.3153560928696548,B,557.4961000002077,Incorrect
18,218,194,B,71.35647959147478,57.52232482359887,3.567823979573739,0.90355856541612,B,837.2417000000496,Correct
18,218,195,B,60.26736450054581,32.54136184746752,3.0133682250272904,0.5111585165890556,B,453.7694000000556,Correct
18,218,196,B,56.36321021230686,45.495481477399196,2.818160510615343,0.7146413519046391,B,673.9784999999756,Correct
18,218,197,B,80.20759301548097,62.00128422153619,4.010379650774048,0.9739138951175543,B,585.7130999997935,Correct
18,218,198,A,46.13616217161885,59.75284565499435,2.3068081085809427,0.9385955047040754,B,461.04139999988547,Incorrect
18,218,199,A,18.6932851527398,41.98797222990591,0.9346642576369901,0.6595455254830233,A,408.5950000003322,Correct
18,218,200,B,72.08940011496861,43.85488080438857,3.6044700057484307,0.6888708567956158,B,646.9531999996434,Correct
18,218,201,B,82.26173446948168,55.204349302697636,4.113086723474084,0.8671478910777985,B,631.0249000002841,Correct
18,218,202,B,53.57356383216148,22.131788468329024,2.678678191608074,0.34764532031452877,A,574.7502000003806,Incorrect
18,218,203,B,65.71650577752787,48.379034553069175,3.2858252888763935,0.7599360976984443,B,378.34520000023986,Correct
18,218,204,A,46.36952075441773,70.89157953999248,2.3184760377208864,1.1135623274210844,B,311.585500000092,Incorrect
18,218,205,A,61.45649053919375,78.94912574221958,3.072824526959687,1.2401299671954693,A,224.16889999976775,Correct
18,218,206,B,45.16344120637189,30.995166012985674,2.2581720603185946,0.4868709292159591,B,472.1738000002915,Correct
18,218,207,B,80.894077396704,53.60955114631497,4.0447038698352005,0.8420968602175469,A,273.5763999999108,Incorrect
18,218,208,B,60.11956272100677,53.01692604791897,3.005978136050339,0.8327879269402778,B,609.8653999997623,Correct
18,218,209,A,25.210853595355502,44.94103602330016,1.260542679767775,0.7059321430775701,A,478.86160000007294,Correct
18,218,210,A,39.43986177988933,49.86530360740179,1.9719930889944663,0.7832823574101904,A,596.3623000002372,Correct
18,218,211,A,37.281959585897965,70.40553724963205,1.8640979792948982,1.1059275929774328,B,225.94579999986308,Incorrect
18,218,212,A,34.1041434714416,67.23946088611623,1.7052071735720802,1.056194981755805,B,399.1735999998127,Incorrect
18,218,213,A,36.47756632309209,59.29083574969914,1.8238783161546046,0.9313382700822694,B,384.00880000017423,Incorrect
18,218,214,A,16.89812963805065,36.17483822558194,0.8449064819025325,0.5682330300714372,A,513.1793000000471,Correct
18,218,215,B,79.84706002857324,55.263487753834355,3.992353001428662,0.8680768356959776,B,519.5118000001457,Correct
18,218,216,B,62.49797151506072,36.36485377900894,3.124898575753036,0.5712177874050075,B,349.62180000002263,Correct
18,218,217,B,67.34325747297572,44.937003808024045,3.367162873648786,0.7058688051881246,B,458.0402999999933,Correct
18,218,218,B,74.3038957211161,63.67678779412673,3.715194786055805,1.0002326436911237,B,633.4796000001006,Correct
18,218,219,B,56.29172724467087,43.11909745176235,2.8145863622335434,0.6773131989193948,A,1007.8896999998506,Incorrect
18,218,220,A,59.69392411364683,71.32236871902516,2.984696205682342,1.1203291480215596,B,680.4068999999799,Incorrect
18,218,221,B,34.207052605017,21.870912392887355,1.7103526302508498,0.34354748850400435,A,541.9640000000072,Incorrect
18,218,222,B,69.06050948607678,44.95741408555669,3.453025474303839,0.7061894090778961,A,581.4022999998087,Incorrect
18,218,223,B,56.247401327458086,33.5715019399947,2.8123700663729045,0.5273399193233141,B,437.9949999997734,Correct
18,218,224,A,50.51593616667042,57.59629823121949,2.525796808333521,0.9047205369858295,B,300.0563999999031,Incorrect
18,218,225,A,38.13797639186228,58.23197398601514,1.906898819593114,0.9147057083924858,A,211.25070000016422,Correct
18,218,226,A,57.519258428075744,83.57368481020667,2.8759629214037874,1.3127723711658708,A,210.17759999995178,Correct
18,218,227,B,54.857171956176956,31.876233919921894,2.7428585978088478,0.5007107115346819,A,286.8274000002202,Incorrect
18,218,228,B,42.893604740262376,27.92002233578355,2.144680237013119,0.43856668529080267,B,182.3260000001028,Correct
18,218,229,A,48.1192292329507,56.52128045541256,2.4059614616475353,0.8878341972510623,B,346.7913000004046,Incorrect
18,218,230,A,56.64449671759611,80.08750501096866,2.8322248358798054,1.2580115869339743,A,198.65150000032372,Correct
18,218,231,A,54.203982283189966,80.68510191835207,2.710199114159498,1.2673986172041931,A,209.9537999997665,Correct
18,218,232,B,58.05126542305838,45.40591684026348,2.9025632711529195,0.7132344738744041,A,285.02220000018497,Incorrect
18,218,233,B,51.96443899725675,37.096216156463434,2.598221949862838,0.5827060007656226,B,7.247000000006665,Correct
18,218,234,A,66.71123358622654,81.73910981132566,3.335561679311327,1.2839549344711505,B,439.257600000019,Incorrect
18,218,235,A,31.899100610340774,52.55709067036596,1.5949550305170388,0.8255648497203718,A,3495.242899999994,Correct
18,218,236,A,67.2882952924122,82.68658543375308,3.3644147646206104,1.2988378467455173,A,479.00280000021667,Correct
18,218,237,A,55.62556342566708,80.44349806023901,2.7812781712833545,1.2636035126755583,A,507.1950999999899,Correct
18,218,238,A,30.340031211459742,51.15109424974774,1.517001560572987,0.803479509590433,A,218.927899999926,Correct
18,218,239,A,23.874857713655864,46.07815973087395,1.1937428856827932,0.7237940405072533,A,277.4560000002566,Correct
18,218,240,A,56.27174212035695,71.2897482603296,2.8135871060178475,1.1198167470545861,A,312.1705000003203,Correct
18,218,241,A,40.155264441862684,51.149387045455306,2.0077632220931343,0.8034526928881167,A,297.2916999997324,Correct
18,218,242,A,28.888471580373725,58.72507957832046,1.4444235790186863,0.9224513929236379,A,291.2656999997125,Correct
18,218,243,A,38.10331858281162,62.610923587522294,1.905165929140581,0.9834900878851597,A,240.498000000116,Correct
18,218,244,B,45.417230483623534,21.32945785793047,2.2708615241811767,0.33504234055763726,A,270.3316999995877,Incorrect
18,218,245,A,63.99220965476486,86.30360584845312,3.199610482738243,1.3556538705590473,B,411.8449000002329,Incorrect
18,218,246,B,37.081763516802425,18.28539780159195,1.8540881758401213,0.2872263570072411,A,496.55110000003333,Incorrect
18,218,247,A,56.93285653812533,85.7872251729948,2.8466428269062662,1.3475425818766693,A,356.1306000001423,Correct
18,218,248,A,20.91505041930763,34.872749795863456,1.0457525209653815,0.547779872845798,A,194.8048999997809,Correct
18,218,249,A,31.856578091710396,45.33131078771997,1.5928289045855197,0.7120625647414839,A,362.50539999991815,Correct
18,218,250,B,52.202740265024495,30.03399727156581,2.610137013251225,0.47177292593143516,A,289.7080000002461,Incorrect
18,218,251,B,47.3461961399384,28.44948465066618,2.36730980699692,0.44688345988474226,B,354.7972999999729,Correct
18,218,252,B,67.33676635531957,43.12794141975112,3.3668383177659784,0.6774521196437053,B,247.27179999990767,Correct
18,218,253,A,33.4978860819108,41.458022816581085,1.67489430409554,0.6512210995646459,A,339.39660000032745,Correct
18,218,254,B,37.055428243658234,13.191262978148416,1.8527714121829117,0.20720787431861037,A,229.91500000034648,Incorrect
18,218,255,A,63.84270378835309,88.45045523120025,3.192135189417655,1.3893765018050581,B,337.2431999996479,Incorrect
18,218,256,A,31.418999233894382,41.92803303193925,1.5709499616947193,0.6586040027630526,A,10.37220000034722,Correct
18,218,257,B,52.13298534836146,36.114493139616066,2.6066492674180726,0.567285131677684,A,162.64559999990524,Incorrect
18,218,258,A,31.98207959401185,40.68119678049316,1.5991039797005926,0.6390187447241903,B,223.9184000000023,Incorrect
18,218,259,B,75.84017401125273,49.28919240959034,3.7920087005626364,0.774232823876714,A,82.13479999994888,Incorrect
18,218,260,B,55.36159913349237,34.62136529915532,2.7680799566746184,0.5438311344053748,A,88.47390000028099,Incorrect
18,218,261,B,45.95366839033859,37.038871064313156,2.2976834195169293,0.5818052261645289,B,45.21840000006705,Correct
18,218,262,A,45.03262525426978,70.80634828137156,2.2516312627134893,1.1122235179413857,B,226.16819999984727,Incorrect
18,218,263,B,64.57618460324976,36.020795436431555,3.228809230162488,0.5658133315977706,A,311.7371000003004,Incorrect
18,218,264,A,37.11967658844854,58.67480915389396,1.8559838294224271,0.921661746943282,A,556.9831999996495,Correct
18,218,265,A,39.1260431045241,47.90591345790107,1.9563021552262052,0.7525043289142519,A,469.55979999984265,Correct
18,218,266,B,52.0954193866513,25.35888674924455,2.604770969332565,0.3983364615732111,A,370.2604000000065,Incorrect
18,218,267,A,26.203755280046952,58.1182669418082,1.3101877640023476,0.9129196023187758,A,206.08709999987695,Correct
18,218,268,A,23.188858728453035,43.16334016837626,1.1594429364226517,0.6780081618868403,A,237.02120000007199,Correct
18,218,269,B,63.389539460943105,33.735308585727424,3.1694769730471553,0.5299129880975297,A,171.08289999987392,Incorrect
18,218,270,B,51.01821601667042,40.13480294521928,2.550910800833521,0.6304360104298744,B,195.68029999982173,Correct
18,218,271,A,55.637707265164266,63.48789520574668,2.7818853632582137,0.9972655258512622,A,161.19380000009187,Correct
18,218,272,B,50.16373603892423,28.773330722115794,2.5081868019462115,0.4519704220795424,A,283.180099999754,Incorrect
18,218,273,A,23.484736083135175,48.55253054347278,1.1742368041567588,0.7626613663428405,A,453.10669999980746,Correct
18,218,274,A,42.986285778016736,73.6202061662467,2.149314288900837,1.156423494238233,A,369.28169999964666,Correct
18,218,275,A,28.621622914437737,55.50587292493188,1.431081145721887,0.8718842130602729,A,298.6439999999675,Correct
18,218,276,A,34.84503979500876,44.73057186693003,1.7422519897504378,0.7026261798400882,A,220.32749999971202,Correct
18,218,277,A,52.205292509714255,74.7422353547578,2.6102646254857125,1.174048287516932,A,420.6153000000086,Correct
18,218,278,A,37.64864278771758,56.57176139032501,1.8824321393858787,0.8886271499223988,A,212.34400000003006,Correct
18,218,279,B,63.83330831031613,52.11022420167545,3.191665415515806,0.8185454876445033,A,3252.3340000002463,Incorrect
18,218,280,B,81.51449686276932,51.96157344104833,4.075724843138466,0.8162104869568196,A,260.6503000001794,Incorrect
18,218,281,B,37.70863843185427,26.46422747625503,1.8854319215927133,0.41569911311165975,B,434.20689999993556,Correct
18,218,282,B,60.59307302960767,49.54555987062205,3.0296536514803836,0.7782598345376974,A,416.2685999999667,Incorrect
18,218,283,A,60.11690417981579,71.86334020835886,3.0058452089907894,1.128826708305021,A,373.52720000035333,Correct
18,218,284,A,20.542879136349807,40.9585354021162,1.0271439568174905,0.6433751696054285,A,286.70370000008916,Correct
18,218,285,B,69.91174459676554,45.43833257697393,3.495587229838277,0.7137436590759554,A,218.8442000001487,Incorrect
18,218,286,B,68.31725012843451,49.596722560304215,3.4158625064217256,0.7790634961879145,A,234.83540000006542,Incorrect
18,218,287,A,30.443741273257505,54.740341966017304,1.5221870636628754,0.859859280877165,B,302.6866999998674,Incorrect
18,218,288,A,21.43032179609071,41.795114068996696,1.0715160898045355,0.6565161165755371,A,334.22180000025037,Correct
18,218,289,B,83.35040857594022,64.36746643681153,4.167520428797011,1.0110817984403733,A,297.50470000044515,Incorrect
18,218,290,A,10.828823763685069,36.639427583732015,0.5414411881842534,0.5755307826439386,A,462.7600999997412,Correct
18,218,291,A,27.120678958322163,53.32322957282782,1.356033947916108,0.8375993314583894,B,419.71779999994396,Incorrect
18,218,292,B,64.81255596659,47.64151080863829,3.2406277983295,0.7483511018116837,A,168.69699999961085,Incorrect
18,218,293,A,60.63718630712306,76.17613931087065,3.0318593153561526,1.1965719981893195,B,332.0420000000013,Incorrect
18,218,294,A,12.327363918122938,34.17048226847061,0.6163681959061469,0.5367486803212377,A,107.21190000003844,Correct
18,218,295,B,76.56394444112325,61.525639087389344,3.8281972220561626,0.9664424788217968,A,199.0939000002072,Incorrect
18,218,296,A,55.16110455668685,66.95878394555307,2.758055227834342,1.0517861186832784,B,395.8167000000685,Incorrect
18,218,297,A,32.21495980273483,47.32687834495333,1.6107479901367414,0.7434088666292161,A,209.90329999995083,Correct
18,218,298,A,66.65286968152336,79.5710896932589,3.332643484076168,1.2498997540923833,A,268.11379999981,Correct
18,218,299,B,50.82013678055662,30.17299461433636,2.541006839027831,0.47395629108601756,A,332.16900000024907,Incorrect
18,218,300,A,25.64094593926131,42.521413586735676,1.2820472969630654,0.6679248027217101,A,369.3576000000576,Correct
18,218,301,B,68.34200968572351,54.23587861377949,3.417100484286175,0.851935189070187,A,301.5563999997539,Incorrect
18,218,302,A,19.34459313215454,47.951827777573314,0.967229656607727,0.7532255493611365,B,629.8610000003464,Incorrect
18,218,303,B,40.065573639897806,30.260653699406138,2.0032786819948907,0.4753332367743956,A,344.61629999987053,Incorrect
18,218,304,B,47.99977730632153,33.862396480713244,2.3999888653160766,0.5319092800837679,A,214.691799999855,Incorrect
18,218,305,B,60.02156911443194,37.224586915004856,3.001078455721597,0.58472244392547,B,275.3963999998632,Correct
18,218,306,A,27.82649422657989,49.13376478530999,1.3913247113289944,0.7717913724636938,A,585.183700000016,Correct
18,218,307,B,70.61542557750825,47.612594603823986,3.530771278875412,0.7478968871286121,B,473.4976999998253,Correct
18,218,308,B,72.35574558735858,52.824730945298604,3.617787279367929,0.8297689333280376,B,517.0953000001646,Correct
18,218,309,B,47.48545955568575,31.398077564102536,2.3742729777842873,0.49319984906113523,A,582.5238000002173,Incorrect
18,218,310,B,72.2709472009462,44.74557051730464,3.61354736004731,0.7028617780892414,B,358.7975999998889,Correct
18,218,311,A,31.571465431163894,41.85205170585242,1.5785732715581946,0.6574104908838306,A,240.71839999987787,Correct
18,218,312,B,60.89246120253346,33.6825039114603,3.044623060126673,0.5290835342137659,A,284.3290999999226,Incorrect
18,218,313,B,83.20974353339712,69.06706371409987,4.1604871766698555,1.0849028998461716,A,516.897500000141,Incorrect
18,218,314,A,34.065174044767865,51.832416382104654,1.7032587022383934,0.8141816926191361,B,612.1112000000721,Incorrect
18,218,315,A,36.90419679219459,68.31951965103555,1.8452098396097296,1.0731605051623838,A,235.2803999997377,Correct
18,218,316,A,51.88799178010601,64.76915536302786,2.5943995890053007,1.0173915133385214,A,253.8085000001047,Correct
18,218,317,B,69.99356175398168,37.509986270717,3.499678087699084,0.5892054865216926,A,208.823499999653,Incorrect
18,218,318,A,41.39934822891945,69.21307086800766,2.0699674114459725,1.0871963748566131,B,3008.8158999997177,Incorrect
18,218,319,A,65.3981716585921,82.47559968380989,3.269908582929605,1.295523690335349,A,259.3517999998767,Correct
18,218,320,A,11.267736888002826,33.02509243553446,0.5633868444001413,0.5187569388979946,A,228.1874999998763,Correct
18,218,321,B,66.09692855553514,33.44663495747583,3.3048464277767575,0.5253785133485281,A,245.02170000005208,Incorrect
18,218,322,B,50.41991901232549,43.44517072425012,2.5209959506162742,0.6824351459062926,B,202.8466000001572,Correct
18,218,323,A,26.042398589512892,55.44487980938341,1.3021199294756445,0.87092613544164,A,233.44129999986762,Correct
18,218,324,B,74.94469459244924,44.753161832357726,3.747234729622462,0.7029810221872508,A,349.59340000023076,Incorrect
18,218,325,A,37.34009280911543,65.29021139671582,1.8670046404557719,1.0255762423762351,A,213.62630000021454,Correct
18,218,326,A,34.14727562276403,66.4223212472643,1.7073637811382014,1.0433593823239338,A,268.02520000001095,Correct
18,218,327,A,18.844130589874677,41.67683056282107,0.9422065294937338,0.6546581236053262,A,253.1500000000051,Correct
18,218,328,B,41.72191300130459,20.973304284004833,2.0860956500652295,0.3294478933006646,A,3381.1117000000195,Incorrect
18,218,329,A,47.37593636683213,64.44928662036197,2.368796818341606,1.0123670268781604,A,286.5092000001823,Correct
18,218,330,B,77.16386071197986,59.70509648910347,3.858193035598993,0.9378454625601862,A,147.48539999982313,Incorrect
18,218,331,B,39.8350529373375,12.713713911420797,1.9917526468668751,0.19970655111980962,A,182.848500000091,Incorrect
18,218,332,B,47.974242264504134,24.329916651510388,2.3987121132252067,0.38217343707418505,A,218.98139999984778,Incorrect
18,218,333,B,83.14937367630209,59.88387994990346,4.157468683815105,0.9406537865953492,A,198.60979999975825,Incorrect
18,218,334,B,43.42818959622535,15.643643559812258,2.1714094798112678,0.24572977841441734,A,261.7602000000261,Incorrect
18,218,335,B,43.544913870478005,16.855391814655498,2.1772456935239,0.26476387549149627,B,217.94890000001033,Correct
18,218,336,A,48.4573204472289,78.17685601041539,2.422866022361445,1.2279991826153405,A,275.88339999965683,Correct
18,218,337,B,79.58385069227036,58.344985970542,3.9791925346135177,0.9164808964942712,A,191.4560000000165,Incorrect
18,218,338,A,40.532038280881096,68.79435326357292,2.026601914044055,1.0806191741065083,B,442.532200000187,Incorrect
18,218,339,A,42.342575914173814,54.87863285666316,2.1171287957086906,0.8620315491077222,A,190.9747999998217,Correct
18,218,340,A,28.42871860408869,50.41440132132813,1.4214359302044346,0.7919075641310599,A,290.581100000054,Correct
18,218,341,B,82.92588400026663,59.70980447656484,4.146294200013332,0.9379194154542951,A,352.12200000023586,Incorrect
18,218,342,A,31.360814517007526,55.813016378599364,1.5680407258503763,0.8767088111484728,A,631.0074999996687,Correct
18,218,343,A,36.59431360535122,69.32957053214932,1.8297156802675607,1.0890263473016784,A,608.6795999999595,Correct
18,218,344,B,58.684448526055874,38.324600905722114,2.9342224263027936,0.6020014232858867,B,479.32270000001154,Correct
18,218,345,B,71.6426176130949,55.36125636748967,3.582130880654745,0.8696125814880336,A,222.0089999996162,Incorrect
18,218,346,B,44.69704257260017,31.3260307813133,2.2348521286300085,0.49206814084350786,A,306.1422999999195,Incorrect
18,218,347,B,66.85944974000472,43.7479067011328,3.342972487000236,0.6871905115110525,A,326.520999999957,Incorrect
18,218,348,B,57.48096929965475,41.354254561929075,2.8740484649827374,0.649591111632193,B,3158.52249999989,Correct
18,218,349,B,86.17032788699117,67.27269954586751,4.308516394349558,1.056717093402254,A,192.77379999994082,Incorrect
18,218,350,A,27.33599925094456,55.37199353960927,1.366799962547228,0.8697812405932898,B,198.84419999971215,Incorrect
18,218,351,B,78.70197953547235,67.03776636510618,3.935098976773617,1.0530267716284325,A,214.8852000000261,Incorrect
18,218,352,A,13.39440088595428,41.19038194567794,0.669720044297714,0.6470170065954973,B,188.69820000008986,Incorrect
18,218,353,B,55.66119878979249,45.136131453415494,2.7830599394896245,0.7089966949275666,A,667.3190999999861,Incorrect
18,218,354,A,10.382804848957917,34.336676793329254,0.5191402424478959,0.5393592578130516,A,513.6892999998963,Correct
18,218,355,B,84.12172220644278,58.632243023159745,4.206086110322139,0.9209931197252503,B,476.20280000001003,Correct
18,218,356,B,47.31199305818565,23.23297017197815,2.365599652909282,0.3649426420667867,A,582.9608999997618,Incorrect
18,218,357,B,59.16809518906769,39.07840133412523,2.958404759453385,0.6138420927266071,B,268.22039999979097,Correct
18,218,358,A,61.68862570824251,85.3184373532263,3.0844312854121254,1.340178880023284,A,256.36979999990217,Correct
18,218,359,B,62.122315625182374,43.24970532716648,3.1061157812591187,0.6793647826287478,B,436.2446000000091,Correct
18,218,360,A,20.13405837991089,43.052556597733556,1.0067029189955445,0.6762679776284926,A,398.1711000001269,Correct
18,218,361,A,69.2160696824602,87.66165007076536,3.4608034841230104,1.376985979319378,B,882.8770000000077,Incorrect
18,218,362,A,44.03396679090649,61.35249965569083,2.2016983395453247,0.9637228109884431,A,490.0806000000557,Correct
18,218,363,A,31.985355821473952,60.38803792605902,1.5992677910736974,0.9485730815660441,B,315.7920999997259,Incorrect
18,218,364,A,32.48029259421898,59.78493398007706,1.624014629710949,0.9390995469358044,A,332.60929999960354,Correct
18,218,365,B,66.65977811272651,56.889724304345364,3.3329889056363253,0.8936216996964006,B,586.7127000001346,Correct
18,218,366,A,65.68178305398648,82.11774883634214,3.2840891526993237,1.289902582367921,A,316.35789999972985,Correct
18,218,367,A,22.934315418781214,41.36971300440166,1.1467157709390607,0.6498339322787319,B,319.1600999998627,Incorrect
18,218,368,A,66.17234020051849,88.16252834085233,3.3086170100259245,1.3848537567876182,A,523.2750999998643,Correct
18,218,369,B,81.73973353947991,58.12925563161535,4.0869866769739955,0.9130922122546294,A,301.53229999996256,Incorrect
18,218,370,A,52.357756686111884,79.29345703242535,2.617887834305594,1.245538710454027,A,286.0906000000796,Correct
18,218,371,B,60.395473018421335,30.625665847659675,3.0197736509210666,0.48106683419151725,B,366.13360000001194,Correct
18,218,372,A,28.84770730394243,40.695822288295666,1.4423853651971215,0.6392484816635271,A,387.362899999971,Correct
18,218,373,B,32.242778825697705,18.35377137205971,1.6121389412848854,0.2883003665406472,B,528.8737999999285,Correct
18,218,374,A,59.23517279397866,70.1683628783904,2.9617586396989335,1.10220206666587,A,388.81820000005973,Correct
18,218,375,B,75.91698902841583,46.98198960090414,3.7958494514207914,0.7379913669061627,A,270.4233999997996,Incorrect
18,218,376,A,39.339088211284,67.34712993631773,1.9669544105642,1.057886243241465,A,231.02389999985462,Correct
18,218,377,B,51.36325723720579,24.66049781346805,2.5681628618602894,0.38736619382329185,B,408.70300000005955,Correct
18,218,378,B,74.69001937333898,48.75783565401865,3.7345009686669495,0.7658862914780172,B,575.3068999997595,Correct
18,218,379,B,82.51149912521602,61.8559356741458,4.125574956260801,0.9716307654740962,B,723.173300000326,Correct
18,218,380,A,35.501577526675916,62.57278564488592,1.775078876333796,0.9828910184831124,A,452.060099999926,Correct
18,218,381,A,28.94428285287081,46.226936885816386,1.4472141426435405,0.7261310265921989,A,474.66639999993276,Correct
18,218,382,B,56.9841569338184,40.06464305594163,2.84920784669092,0.6293339414662177,A,759.6709999997984,Incorrect
18,218,383,A,25.797554498302176,43.16520599772384,1.289877724915109,0.6780374702656965,A,503.6987999997109,Correct
18,218,384,A,24.102454832196514,43.01435729929548,1.2051227416098258,0.6756679444517658,A,575.3967000000557,Correct
18,218,385,A,16.37087882300418,31.10375651886839,0.8185439411502089,0.4885766648936129,A,535.4484999998022,Correct
18,218,386,A,64.72803284251573,82.84411652135168,3.2364016421257866,1.3013123392830763,B,470.8842000000004,Incorrect
18,218,387,A,23.43938495893642,51.824887719372626,1.171969247946821,0.8140634326614847,A,459.85970000037923,Correct
18,218,388,A,15.866839422245903,38.756302977134446,0.7933419711122951,0.608782583566329,A,300.9791999998015,Correct
18,218,389,A,30.749873256404385,49.59244592983122,1.5374936628202192,0.778996319033534,A,307.3293000002195,Correct
18,218,390,B,59.35274322789976,45.09093341111932,2.967637161394988,0.7082867257393951,A,743.2495999996718,Incorrect
18,218,391,A,61.24831602489073,78.51359059969299,3.0624158012445366,1.2332885971747607,A,331.6570000001775,Correct
18,218,392,A,56.27769050589329,80.52548820642981,2.8138845252946645,1.2648914108802571,A,621.5875000002598,Correct
18,218,393,B,48.328034489600036,18.071553959956752,2.416401724480002,0.2838673057977583,A,468.80259999988994,Incorrect
18,218,394,A,44.26893383367805,59.42331921213468,2.2134466916839024,0.9334193154438176,B,550.5100999998831,Incorrect
18,218,395,B,86.10280329304355,63.26146333167513,4.305140164652178,0.9937087422906532,A,742.5122999998166,Incorrect
18,218,396,B,53.400543541969434,37.24961672420083,2.6700271770984716,0.5851156112489242,A,531.733499999973,Incorrect
18,218,397,A,28.694859330573806,54.502809552399334,1.4347429665286904,0.8561281304491067,A,483.7330000000293,Correct
18,218,398,B,71.37179417789818,40.616861784278285,3.5685897088949092,0.6380081729668032,B,536.4690000001247,Correct
18,218,399,B,79.56543957040091,50.23304589344405,3.9782719785200458,0.7890588397314138,B,610.1318999999421,Correct
18,218,400,B,56.796879504962874,25.39742221974698,2.8398439752481437,0.39894177532837644,A,544.2282000003615,Incorrect
18,218,401,A,31.93046108683977,64.4324674736097,1.5965230543419886,1.0121028323387777,A,402.9917999996542,Correct
18,218,402,B,34.9330354587586,21.033788036235073,1.7466517729379303,0.33039796985900494,A,403.56359999987035,Incorrect
18,218,403,B,54.56297638496966,36.215247901549525,2.728148819248483,0.5688677837772057,B,577.083500000299,Correct
18,218,404,B,52.24384929064702,37.74725596494183,2.6121924645323507,0.5929325101631738,A,430.3507999998146,Incorrect
18,218,405,B,58.88883543166812,43.41424001465997,2.944441771583406,0.6819492874561989,A,408.5703000000649,Incorrect
18,218,406,A,11.316322416713884,32.11376660974534,0.5658161208356942,0.5044418663013658,A,501.30680000029315,Correct
18,218,407,A,20.57236940332181,44.879637942495606,1.0286184701660905,0.7049677042795697,A,528.1027999999424,Correct
18,218,408,A,63.12352933311592,78.70068312674985,3.1561764666557957,1.2362274397174775,B,492.76000000008935,Incorrect
18,218,409,B,64.93162972377856,46.124874506483835,3.2465814861889277,0.7245278344866039,A,273.48890000030224,Incorrect
18,218,410,B,80.2880456209364,54.1369560787506,4.01440228104682,0.8503813175235808,B,512.9496999998082,Correct
18,218,411,A,46.47991083816939,74.03635860917032,2.3239955419084692,1.1629604015255444,B,643.1760999998914,Incorrect
18,218,412,A,16.079887120223518,46.10864667107948,0.8039943560111759,0.724272928244154,A,375.3350000001774,Correct
18,218,413,B,74.08683446253103,49.57505364928971,3.704341723126552,0.778723121729642,A,386.3805000000866,Incorrect
18,218,414,B,85.98951058818129,57.31946221025114,4.299475529409064,0.9003720069372136,B,550.5637999999635,Correct
18,218,415,A,61.13018163082694,70.44350278618973,3.056509081541347,1.1065239542311287,B,436.60110000018904,Incorrect
18,218,416,B,53.239817600061635,35.11034708697012,2.661990880003082,0.5515120423670656,A,545.8756000002722,Incorrect
18,218,417,A,65.77619664702347,80.45170017078722,3.2888098323511734,1.2637323511267693,B,600.8394000000408,Incorrect
18,218,418,B,57.95395271726506,50.20682919264893,2.897697635863253,0.7886470287583174,A,173.50830000032147,Incorrect
18,218,419,B,51.37542917607469,43.51039894326813,2.5687714588037345,0.6834597483746612,B,398.03699999993114,Correct
18,218,420,A,32.924176051225395,57.40076493001559,1.6462088025612698,0.9016491070728581,A,607.1851000001516,Correct
18,218,421,B,57.76394451829817,38.52134451210376,2.8881972259149085,0.6050918646281334,B,430.9263000000101,Correct
18,218,422,B,50.74630423563001,37.0500046788589,2.5373152117815003,0.5819801125728529,B,430.9518999998545,Correct
18,218,423,B,86.86694668491766,60.09797804469872,4.343347334245883,0.944016831604131,A,356.997599999886,Incorrect
18,218,424,A,60.4369017210712,80.74147328272653,3.02184508605356,1.2682840965251514,B,319.2647999999281,Incorrect
18,218,425,B,59.92552792384238,41.05729553668576,2.996276396192119,0.6449264901715849,A,298.55529999986175,Incorrect
18,218,426,B,53.16916813402352,24.58103595856118,2.658458406701176,0.3861180099252118,B,257.48609999982364,Correct
18,218,427,B,44.272999017141274,15.030449194806845,2.2136499508570635,0.236097743852799,B,366.1813000003349,Correct
18,218,428,A,49.84666122078329,79.72253868004783,2.4923330610391643,1.2522787092138319,A,380.8259000002181,Correct
18,218,429,A,21.44403820613947,40.546457374612245,1.0722019103069735,0.6369022630858676,B,439.0680000001339,Incorrect
18,218,430,B,41.57338694407783,29.088902779902092,2.0786693472038915,0.4569274163716406,A,192.72799999998824,Incorrect
18,218,431,B,64.66394339659618,38.32800093987424,3.2331971698298094,0.6020548308974579,B,15.081800000189105,Correct
18,218,432,B,35.411107185235494,20.760315010053834,1.7705553592617747,0.3261022656089752,A,250.1593000001776,Incorrect
18,218,433,B,52.44846160648857,24.22480543326833,2.6224230803244284,0.3805223539189895,B,155.81310000015947,Correct
18,218,434,A,47.466246880889415,63.960914676384306,2.3733123440444706,1.0046956983210626,B,81.61810000001424,Incorrect
18,218,435,A,59.845583392036474,71.90889272010999,2.9922791696018236,1.1295422454863704,A,150.30960000012783,Correct
18,218,436,A,57.62541170732208,85.90767028307121,2.881270585366104,1.3494345292415537,B,201.9154000004164,Incorrect
18,218,437,B,65.43183642724341,35.269310440132706,3.2715918213621706,0.5540090328794935,A,28.973999999834632,Incorrect
18,218,438,A,52.26335688971879,68.01525852560401,2.6131678444859396,1.0683811825802407,B,213.81929999961358,Incorrect
18,218,439,A,20.377544731817352,39.76153079505393,1.0188772365908676,0.6245726652061288,A,191.750200000115,Correct
18,218,440,A,44.453687782526465,60.60350170114732,2.2226843891263233,0.9519575786307048,A,353.99550000011004,Correct
18,218,441,A,29.934341133848765,53.40608973170757,1.4967170566924384,0.8389008957904489,B,303.7968000003275,Incorrect
18,218,442,A,23.067356601268614,41.625234525652125,1.1533678300634307,0.6538476549487047,A,272.91299999978946,Correct
18,218,443,B,79.92108238072872,66.52639465331654,3.996054119036436,1.0449941635633726,A,107.10990000006859,Incorrect
18,218,444,A,45.705862471587956,72.95379648576736,2.2852931235793976,1.1459555554558578,B,-0.9930999999596679,Incorrect
18,218,445,B,66.31477486816084,35.656629200066455,3.315738743408042,0.5600930217335204,A,177.20220000001063,Incorrect
18,218,446,A,60.682081043553325,80.46007187948065,3.0341040521776663,1.2638638536194156,B,306.607399999848,Incorrect
18,218,447,B,71.24304345306928,41.18721746110572,3.5621521726534637,0.6469672989880748,B,226.93540000000212,Correct
18,218,448,A,58.8620070771561,70.4621027081868,2.943100353857805,1.1068161211226457,B,311.86939999997776,Incorrect
18,218,449,B,79.0725086509493,63.16853997342082,3.953625432547465,0.99224910559246,A,169.8433000001387,Incorrect
18,218,450,A,51.724343873078006,70.63047710436155,2.5862171936539005,1.1094609399530218,A,550.2709999996114,Correct
18,218,451,B,70.61043736852335,44.634321655371046,3.530521868426167,0.7011142850523874,B,392.471900000146,Correct
18,218,452,B,67.46512463484778,47.62615346790174,3.373256231742389,0.7481098692675007,B,302.8342999996312,Correct
18,218,453,B,53.61080081166319,30.68789278406159,2.6805400405831596,0.4820442926227955,B,327.99089999980424,Correct
18,218,454,B,33.02076369272343,10.297173866059403,1.6510381846361712,0.16174762885174515,B,587.5607000002674,Correct
18,218,455,B,61.74775131701429,53.515757129364324,3.0873875658507144,0.8406235472445328,B,796.9763000000967,Correct
18,218,456,B,74.80158974086345,63.79280187304698,3.7400794870431726,1.002054988581368,B,722.5089000003209,Correct
18,218,457,A,17.3047380905291,41.207469422135006,0.865236904526455,0.6472854160480269,A,477.2723999999471,Correct
18,218,458,B,43.12568234380193,14.12178001939893,2.1562841171900966,0.22182440182277405,B,484.4909000003099,Correct
18,218,459,A,57.01438017419062,64.9378917456186,2.8507190087095307,1.0200420182382233,A,712.0445000000473,Correct
18,218,460,B,48.16136163911567,24.40164806816791,2.4080680819557836,0.38330019153219935,B,414.1586999999163,Correct
18,218,461,A,44.984105502611044,57.94476166876903,2.249205275130552,0.910194187863081,A,531.938899999659,Correct
18,218,462,B,35.87048744390144,15.596753436610467,1.7935243721950718,0.24499323008153404,A,596.7666000001373,Incorrect
18,218,463,A,20.06763159651686,43.28735703950247,1.003381579825843,0.6799562143430969,A,467.4807999999757,Correct
18,218,464,B,81.4185003393016,55.45362228177615,4.07092501696508,0.871063461876856,B,566.7454999997972,Correct
18,218,465,B,41.85582231295558,25.28279485732627,2.092791115647779,0.39714121292997007,A,327.57889999993495,Incorrect
18,218,466,A,15.185506430021416,30.56922611838098,0.7592753215010708,0.48018028099715454,B,234.1097000003174,Incorrect
18,218,467,B,40.56656217565137,18.32186759539041,2.0283281087825684,0.287799223188617,A,397.73749999994834,Incorrect
18,218,468,A,46.114685476246834,64.21919980420665,2.305734273812342,1.0087528316215535,A,401.0543000003963,Correct
18,218,469,A,50.07366784352276,65.31090476904252,2.5036833921761383,1.0259012931086329,B,529.8514999999497,Incorrect
18,218,470,B,57.61047374097771,31.27069230771052,2.880523687048885,0.49119888613285106,A,318.85390000024927,Incorrect
18,218,471,A,49.27806248492254,75.4579687308738,2.4639031242461273,1.1852910010986073,B,495.1756000000387,Incorrect
18,218,472,B,85.06945628905285,64.99982260042307,4.253472814452643,1.0210148258306446,A,386.2260000000788,Incorrect
18,218,473,B,51.778203618075345,32.33361855601219,2.5889101809037673,0.5078952925977126,A,683.591499999693,Incorrect
18,218,474,A,37.08880042556469,70.32650493868225,1.8544400212782346,1.1046861563400523,A,406.63739999990867,Correct
18,218,475,B,82.28960945007914,64.12571559847628,4.114480472503957,1.0072843851518074,B,544.6058000002267,Correct
18,218,476,A,37.952862730864545,62.579985894947505,1.8976431365432274,0.9830041197466,A,505.4330999996637,Correct
18,218,477,B,70.09145617240837,44.89555081325543,3.504572808620418,0.7052176630689527,B,516.7999999998756,Correct
18,218,478,A,19.61146159569514,48.251847831608345,0.980573079784757,0.7579382533495669,A,528.1230999999025,Correct
18,218,479,B,57.37249688122121,42.55146462244366,2.86862484406106,0.6683968432867748,B,816.6673999999148,Correct
18,218,480,B,62.353959491711365,44.35621693368917,3.117697974585568,0.6967458262995654,B,482.88140000022395,Correct
18,218,481,B,48.171324803774056,26.24988535112832,2.4085662401887027,0.4123322348833953,A,749.3687000001046,Incorrect
18,218,482,A,35.13652587272835,44.8446639142819,1.7568262936364176,0.7044183335290567,A,594.928500000151,Correct
18,218,483,B,59.210703770458224,47.70681491477066,2.960535188522911,0.7493768963120574,B,446.24320000002626,Correct
18,218,484,B,80.81409256478379,65.32973242511373,4.040704628239189,1.026197037238621,B,578.699300000153,Correct
18,218,485,B,76.64962551683388,64.58873617728418,3.8324812758416944,1.0145574953960264,B,470.85100000003877,Correct
18,218,486,B,44.75407011527293,29.041283619466235,2.2377035057636463,0.4561794163486636,A,521.8726999996761,Incorrect
18,218,487,B,50.708811251904095,33.50184156717903,2.5354405625952046,0.5262456967458939,B,352.7766999995947,Correct
18,218,488,B,68.2846426729165,48.94771345170862,3.4142321336458252,0.7688688849495304,B,430.0316000003477,Correct
18,218,489,B,40.966192516449354,30.400495014895725,2.048309625822468,0.4775298590214477,A,554.4973000000937,Incorrect
18,218,490,A,27.059929092356185,57.4057133046803,1.3529964546178093,0.9017268359603273,A,471.750400000019,Correct
18,218,491,A,47.9300519010812,78.00438092161156,2.3965025950540597,1.2252899502557735,B,442.2084000002542,Incorrect
18,218,492,B,40.0504591586522,29.872309870457197,2.00252295793261,0.4692331461739311,A,494.67230000027484,Incorrect
18,218,493,A,62.900321788920344,85.80280614362701,3.1450160894460173,1.347787327191039,A,427.109499999915,Correct
18,218,494,A,64.9700476923548,78.65014548908101,3.2485023846177397,1.2354335963613265,A,400.36430000009204,Correct
18,218,495,B,65.28814439429466,47.308770596697855,3.264407219714733,0.743124430784754,B,502.41860000005545,Correct
18,218,496,B,70.84902522117159,60.76613401277507,3.5424512610585794,0.954512201007935,B,819.9777999998332,Correct
18,218,497,A,15.265535140642825,45.12444755041976,0.7632767570321413,0.7088131646084832,A,503.5976999997729,Correct
18,218,498,A,50.870427059549854,81.89590941101835,2.5435213529774927,1.286417936823552,B,439.5746999998664,Incorrect
18,218,499,A,32.20450760265509,56.92536677736051,1.6102253801327546,0.8941815703533015,A,381.12450000016906,Correct
18,218,500,A,32.16189224665531,53.27689765242831,1.6080946123327657,0.8368715513546203,A,521.2717999997949,Correct
18,218,501,A,38.42340480152807,66.58798369358456,1.9211702400764037,1.045961601945611,B,303.91180000015083,Incorrect
18,218,502,A,58.965402538362724,79.20855145785816,2.948270126918136,1.2442050168074814,A,322.70770000013727,Correct
18,218,503,A,30.047056840735358,54.39370072031166,1.502352842036768,0.8544142529224646,B,292.93490000009115,Incorrect
18,218,504,B,79.421148931454,54.07403508167722,3.9710574465727,0.8493929568127696,A,295.1327000000674,Incorrect
18,218,505,A,30.764682648808954,55.97008658464551,1.5382341324404476,0.8791760641755348,B,346.7596999998932,Incorrect
18,218,506,B,57.04954540385898,33.47161159519423,2.852477270192949,0.5257708454563657,A,269.8041999997258,Incorrect
18,218,507,B,66.75131933422176,58.677224132850874,3.337565966711088,0.9216996813440302,B,1224.2631999997684,Correct
18,218,508,A,50.57275188893275,72.73583422613439,2.5286375944466375,1.1425318122877441,A,595.8906999999272,Correct
18,218,509,B,46.32436620768611,18.1147416679852,2.316218310384306,0.28454569672909613,A,711.2204999998539,Incorrect
18,218,510,B,52.70000351122976,21.0353265996281,2.6350001755614882,0.33042213755626804,B,382.1680999999444,Correct
18,218,511,B,38.32834595740003,12.25119417495609,1.9164172978700014,0.19244130808872062,A,346.5602000001127,Incorrect
18,218,512,B,46.27417388044383,25.408474385653257,2.313708694022192,0.39911538234446353,B,342.7114999999503,Correct
18,218,513,B,83.17552199651804,62.46478528609228,4.158776099825903,0.9811945528142565,B,560.9564000001228,Correct
18,218,514,B,65.18344489809688,42.495358662535146,3.259172244904844,0.6675155329294189,B,570.626700000048,Correct
18,218,515,B,45.26788458074874,15.598713576817548,2.263394229037437,0.24502401989190686,A,483.19549999996525,Incorrect
18,218,516,A,15.526846672374276,33.42674353826688,0.7763423336187139,0.5250660596662465,A,610.9587000000829,Correct
18,218,517,B,55.80239734653515,25.015055123546432,2.7901198673267578,0.3929355670263859,B,399.8897000001307,Correct
18,218,518,A,38.12974120511127,67.01984876100778,1.9064870602555635,1.0527453225614052,B,523.7766000000192,Incorrect
18,218,519,B,61.479440426304734,45.82030430365151,3.0739720213152366,0.7197436569280018,A,572.3653000000013,Incorrect
18,218,520,A,46.70472323832955,61.74853257126189,2.3352361619164776,0.969943681479132,B,490.4415999999401,Incorrect
18,218,521,A,44.66779421690597,52.06155975714572,2.2333897108452985,0.8177810683373751,A,231.45009999961985,Correct
18,218,522,A,59.17805005967356,83.81747522927509,2.958902502983678,1.3166018221136755,B,399.1353000001254,Incorrect
18,218,523,B,45.50701460940264,26.38483855808498,2.275350730470132,0.41445207490116237,A,397.2443000002386,Incorrect
18,218,524,B,38.44905232040583,25.623835116121036,1.9224526160202915,0.4024982607880101,B,268.9602999998897,Correct
18,218,525,B,31.835407882969587,15.510157314357475,1.5917703941484793,0.24363298137403722,B,502.38549999994575,Correct
18,218,526,B,49.21754451438646,18.27902120843588,2.460877225719323,0.2871261937161709,B,361.4239999997153,Correct
18,218,527,B,58.42734051937543,34.60352628865406,2.921367025968771,0.5435509198836844,B,474.01289999970686,Correct
18,218,528,B,59.60398245509257,27.707603268686483,2.9801991227546285,0.43523001438743,A,405.90800000018135,Incorrect
18,218,529,B,53.13289992487487,38.093150229983856,2.6566449962437435,0.598365804573048,B,548.2064000002538,Correct
18,218,530,B,52.52520138698195,37.80071782362813,2.6262600693490974,0.5937722870756544,A,431.3096000000769,Incorrect
18,218,531,A,19.304705622370243,37.877266863788044,0.9652352811185122,0.5949747165866831,A,542.4867000001541,Correct
18,218,532,A,65.96003578701539,88.4768710064711,3.2980017893507694,1.389791439832707,B,443.2139999998981,Incorrect
18,218,533,B,33.66501151684513,14.447220940738493,1.6832505758422565,0.22693641586106333,A,436.3275999999132,Incorrect
18,218,534,A,62.411928071208024,85.56193646379916,3.120596403560401,1.3440037551079405,B,452.85510000030627,Incorrect
18,218,535,B,56.25077203540089,36.68087604111485,2.812538601770045,0.5761818534900213,A,238.53980000012598,Incorrect
18,218,536,A,53.78582548554964,75.64059628749796,2.689291274277482,1.188159708049775,B,478.5498999999618,Incorrect
18,218,537,A,16.564816220981438,35.96276102603635,0.828240811049072,0.5649017292110057,A,481.0993999999482,Correct
18,218,538,A,49.645147125379026,79.86447919045133,2.4822573562689514,1.2545083055374842,A,470.86570000010397,Correct
18,218,539,B,79.25074301810488,61.79467225513829,3.9625371509052445,0.9706684419386573,A,514.4657000000734,Incorrect
18,218,540,A,56.70306745939949,68.67880793230196,2.835153372969975,1.0788041922871212,A,636.6832999997314,Correct
18,218,541,A,12.132883051509392,37.97173878824405,0.6066441525754697,0.5964586781058905,A,486.3516000000345,Correct
18,218,542,B,50.92559846035403,36.14862181326768,2.5462799230177016,0.5678212236297874,A,589.273200000207,Incorrect
18,218,543,A,62.48665865259467,88.596440599023,3.1243329326297333,1.3916696346004755,B,628.7400000001071,Incorrect
18,218,544,A,63.34535283280771,83.6698038965502,3.1672676416403855,1.3142822062435038,A,529.1790999999648,Correct
18,218,545,A,25.952451733378183,36.74538369230338,1.297622586668909,0.5771951373053923,A,477.6070000002619,Correct
18,218,546,B,73.8283280730035,62.62433016916795,3.691416403650175,0.9837006779771983,B,409.4933999999739,Correct
18,218,547,A,53.16022702080929,81.90280617550404,2.658011351040465,1.286526270946761,A,527.5738000000274,Correct
18,218,548,B,48.406889396516966,38.72162957368625,2.420344469825848,0.60823793501859,A,557.944800000314,Incorrect
18,218,549,A,50.717790167624486,64.28150006532151,2.5358895083812243,1.0097314418347292,B,651.4545999998518,Incorrect
