subject,day,trial,cat,x,y,xt,yt,resp,rt,fb
18,118,0,A,45.764987521462054,65.57010049136825,2.2882493760731024,1.029972729994135,A,6006.840199999715,Correct
18,118,1,A,38.45266167440995,50.34689335314701,1.9226330837204977,0.7908471514465772,B,1133.8175000000774,Incorrect
18,118,2,A,68.53166669635529,82.31067727945208,3.426583334817764,1.2929330952656348,A,1888.0146999999852,Correct
18,118,3,A,19.537632766500185,36.2044120148273,0.9768816383250092,0.5686975740665973,B,814.1240000004473,Incorrect
18,118,4,B,77.20847000453314,57.26606967625981,3.860423500226657,0.8995333189744952,A,743.5343999995894,Incorrect
18,118,5,A,14.779006080614167,43.69490967002506,0.7389503040307084,0.6863580360931018,A,1210.0202999999965,Correct
18,118,6,A,47.50555759192578,57.41044786362176,2.3752778795962888,0.9018012062382699,A,1100.2723999999944,Correct
18,118,7,B,86.48588258866026,58.86803558168193,4.324294129433013,0.9246969405733725,B,1354.8902000002272,Correct
18,118,8,A,32.278146377076396,42.187437025339435,1.6139073188538198,0.6626787111629421,A,350.50589999991644,Correct
18,118,9,B,76.66985882660471,45.417676782502085,3.833492941330235,0.7134191986151213,A,623.0623000001287,Incorrect
18,118,10,B,88.47900911687483,66.64571875995573,4.423950455843742,1.046868502247442,A,822.0007999998415,Incorrect
18,118,11,B,58.68422508873401,42.511661548950336,2.9342112544367005,0.6677716180703903,A,517.4628000004304,Incorrect
18,118,12,A,64.15118285237529,85.83107233130075,3.2075591426187646,1.3482313314287429,B,515.2636000002531,Incorrect
18,118,13,B,56.72030367691609,38.57986198631351,2.8360151838458045,0.6060110549635532,B,712.8221000002668,Correct
18,118,14,B,75.90785499463001,46.074565853149835,3.795392749731501,0.7237375880079733,A,858.73569999967,Incorrect
18,118,15,B,42.101904426950746,21.686790743964757,2.105095221347537,0.34065531240589403,B,563.8372999992498,Correct
18,118,16,B,54.94351734547843,29.56766016138321,2.747175867273922,0.4644477197342054,A,1263.4585000005245,Incorrect
18,118,17,A,51.140133228962846,81.67051633965764,2.5570066614481424,1.2828774707377681,B,530.2627000000939,Incorrect
18,118,18,A,31.56508017661251,64.28903829527962,1.5782540088306256,1.009849852074017,A,361.72960000021703,Correct
18,118,19,B,72.17698404898636,49.531324440315096,3.608849202449318,0.7780362249213324,A,793.4691000000385,Incorrect
18,118,20,A,56.62991749280323,78.3572666838285,2.831495874640161,1.2308330668464593,B,336.94650000052206,Incorrect
18,118,21,A,57.65489675020863,69.24343825915984,2.8827448375104314,1.0876733847213749,A,546.6138000001592,Correct
18,118,22,B,50.81589812975324,26.431740543392493,2.5407949064876623,0.41518880956356674,A,1174.4637000001603,Incorrect
18,118,23,B,49.331988255577,24.38833354434852,2.46659941277885,0.3830910474811142,B,732.2986999997738,Correct
18,118,24,A,65.14376423036825,76.83585135857159,3.2571882115184123,1.206934730802029,A,611.1969000003228,Correct
18,118,25,B,59.719100252423736,42.75851124479056,2.9859550126211865,0.6716491240253529,A,725.4146999994191,Incorrect
18,118,26,B,85.20494740204344,62.84797151062021,4.260247370102173,0.9872136279539253,A,545.5911999997625,Incorrect
18,118,27,B,52.84850636486084,21.53622762808558,2.642425318243042,0.33829027251215593,B,518.8367999999173,Correct
18,118,28,A,46.01334048965876,59.35588197174789,2.300667024482938,0.9323600137489302,B,655.4091999996672,Incorrect
18,118,29,A,33.90955797378631,48.584673615569336,1.6954778986893158,0.7631662685386524,A,395.81749999979365,Correct
18,118,30,B,39.197269193299064,12.40032298055094,1.9598634596649531,0.19478381788919757,A,429.78909999965254,Incorrect
18,118,31,A,43.502785587423716,53.45837644758443,2.175139279371186,0.8397222136028442,B,320.84169999961887,Incorrect
18,118,32,A,50.109890516976854,58.35255635925661,2.505494525848843,0.9165998118821247,A,433.3960999992996,Correct
18,118,33,A,16.57361028702043,41.366760825782464,0.8286805143510214,0.6497875595654211,A,549.2807000000539,Correct
18,118,34,A,30.71797137830678,48.83786964670934,1.5358985689153388,0.76714346249539,A,599.221999999827,Correct
18,118,35,A,40.39722540959719,73.20347579378516,2.0198612704798595,1.1498775088549684,A,880.9000999999625,Correct
18,118,36,A,34.32634539226713,48.79662050100127,1.7163172696133564,0.7664955224297734,B,325.6158999993204,Incorrect
18,118,37,B,67.71347791965668,39.115800946070614,3.385673895982834,0.6144295644572806,A,573.3418999998321,Incorrect
18,118,38,B,80.11239623632925,50.716486343399694,4.005619811816462,0.7966527045615577,B,903.5905000000639,Correct
18,118,39,B,46.70148228263697,34.700575365944765,2.335074114131848,0.5450753632249551,B,723.7414000001081,Correct
18,118,40,B,56.68591615592149,28.764218676841523,2.834295807796075,0.45182729040707825,A,930.3720999996585,Incorrect
18,118,41,B,63.44845665708541,50.12834163067454,3.1724228328542705,0.7874141490178327,A,827.4885999999242,Incorrect
18,118,42,A,50.585904795482435,79.76672846524433,2.5292952397741217,1.2529728407365173,B,1391.646199999741,Incorrect
18,118,43,A,23.683670588776675,49.87874561628525,1.1841835294388339,0.7834935039919793,A,440.7768999999462,Correct
18,118,44,B,80.74690537169693,65.72842344579192,4.037345268584846,1.032459661146695,A,722.7233000003253,Incorrect
18,118,45,B,53.14896940530246,36.03417508800139,2.657448470265123,0.5660234986731675,A,905.6400999998004,Incorrect
18,118,46,B,54.744318706023876,38.91954448108895,2.737215935301194,0.6113467751142511,B,736.291500000334,Correct
18,118,47,A,45.98019168131475,55.872988150013015,2.2990095840657374,0.8776508455309522,B,752.0093000002817,Incorrect
18,118,48,B,80.13560664423724,62.64631328535229,4.006780332211862,0.9840459879587371,B,620.1700999999957,Correct
18,118,49,A,37.77920756104376,49.956146931339916,1.8889603780521882,0.7847093210057488,B,950.670700000046,Incorrect
18,118,50,A,46.13174585470399,72.11382330357789,2.3065872927351996,1.1327612875639634,A,808.0912999994325,Correct
18,118,51,A,24.444244729880616,56.99201728889395,1.2222122364940307,0.8952285141402585,A,683.6886999999479,Correct
18,118,52,A,57.00110905440208,76.42523432103056,2.8500554527201043,1.2004847734591408,A,494.71019999964483,Correct
18,118,53,A,32.80051723406647,45.5005021358477,1.6400258617033234,0.7147202162231291,A,639.8233999998411,Correct
18,118,54,A,25.506460661266466,45.708267568546916,1.2753230330633232,0.717983788008318,A,496.39099999967584,Correct
18,118,55,B,58.6690110959321,35.57766126081654,2.933450554796605,0.5588525962444371,A,659.1451000003872,Incorrect
18,118,56,A,20.08349037627621,36.17523937386035,1.0041745188138105,0.5682393312938594,B,498.0931000000055,Incorrect
18,118,57,A,53.16078986776803,76.721883566479,2.6580394933884013,1.2051445289101095,A,382.579899999655,Correct
18,118,58,B,62.21480024588105,37.940074097084924,3.1107400122940527,0.595961290300272,A,577.044499999829,Incorrect
18,118,59,B,77.14957928719863,65.10134153426964,3.857478964359932,1.0226094815145077,B,295.9214999991673,Correct
18,118,60,B,47.60863763862339,32.58921503738052,2.3804318819311696,0.5119101927384632,B,408.5189999996146,Correct
18,118,61,A,64.34379261766075,86.76695419665505,3.2171896308830377,1.3629321293928678,B,414.8420999999871,Incorrect
18,118,62,B,78.66430376516104,61.86910727676988,3.933215188258052,0.9718376645242953,A,276.1044999997466,Incorrect
18,118,63,A,44.28199964926646,55.71880365383922,2.2140999824633227,0.875228921128567,A,298.19729999962874,Correct
18,118,64,A,49.90445520210279,61.34092646650965,2.4952227601051393,0.9635410197578922,A,437.0089000003645,Correct
18,118,65,B,53.1487316078552,40.96234610535417,2.65743658039276,0.6434350279919157,A,494.3893999998181,Incorrect
18,118,66,B,56.994278023424066,25.42189064705544,2.8497139011712034,0.3993261244857622,B,349.01910000007774,Correct
18,118,67,A,20.631943700345293,46.21574904289721,1.0315971850172645,0.7259552883665769,A,850.2610000005006,Correct
18,118,68,A,47.438805744666,69.48928920170643,2.3719402872333,1.0915352022962872,B,795.4426999995121,Incorrect
18,118,69,A,29.131003283114126,53.29561617449897,1.4565501641557064,0.8371655812117366,A,311.5759000002072,Correct
18,118,70,A,47.48474259079312,74.04058576579779,2.3742371295396563,1.1630268015465766,B,716.8338999999833,Incorrect
18,118,71,A,31.357255877815547,62.89690854796414,1.5678627938907772,0.9879823291389659,B,302.45170000034705,Incorrect
18,118,72,B,64.19598664445087,40.114337305517985,3.209799332222543,0.6301145369131914,A,239.30699999982608,Incorrect
18,118,73,A,37.53071827716781,48.6255474977576,1.8765359138583904,0.7638083139786842,B,468.0205000004207,Incorrect
18,118,74,A,62.68985602062778,86.73288143529649,3.134492801031389,1.3623969157090101,A,474.63429999970685,Correct
18,118,75,B,59.66280092781739,36.32587131237155,2.98314004639087,0.5706054522509733,A,254.25999999970372,Incorrect
18,118,76,A,34.672715790286574,49.438597171097584,1.7336357895143288,0.7765796683825263,B,295.40650000035384,Incorrect
18,118,77,A,50.00627765185973,76.09458052313529,2.5003138825929865,1.195290875747394,A,261.2213000002157,Correct
18,118,78,B,43.86735350403616,15.433519745324535,2.1933676752018076,0.24242916125472289,A,270.60030000029656,Incorrect
18,118,79,B,59.27040161997046,44.704648860060075,2.963520080998523,0.7022189822003803,B,223.71769999972457,Correct
18,118,80,B,75.60111398519001,58.815428251498616,3.7800556992595005,0.9238705865632281,B,284.6853999999439,Correct
18,118,81,B,60.582903213148654,46.3759780630253,3.029145160657433,0.7284721599292083,B,451.32809999995516,Correct
18,118,82,B,45.79186059553519,19.09550184278732,2.2895930297767593,0.29995144152955505,B,498.54810000033467,Correct
18,118,83,A,37.19568761512169,65.41727865413758,1.8597843807560848,1.027572210188375,B,664.6158000003197,Incorrect
18,118,84,B,77.89469941954735,45.8974681557169,3.8947349709773675,0.7209557438818585,A,279.53340000021853,Incorrect
18,118,85,A,56.96491477114644,78.37497609915111,2.848245738557322,1.2311112456918436,B,795.951199999763,Incorrect
18,118,86,B,55.97041945672384,28.48039821071658,2.798520972836192,0.4473690489504955,A,288.11580000001413,Incorrect
18,118,87,A,38.836447610133604,59.43509939260276,1.94182238050668,0.9336043580859,A,280.41290000055596,Correct
18,118,88,A,23.727617424412866,49.47499148086361,1.1863808712206434,0.7771513488634936,A,336.40439999999217,Correct
18,118,89,A,39.373514483617264,72.19714620965124,1.9686757241808632,1.1340701207119426,A,556.8382999999812,Correct
18,118,90,B,60.285351090899674,47.46274487456047,3.014267554544984,0.7455430530856291,B,492.8294999999707,Correct
18,118,91,B,48.858121258131725,22.410590532498833,2.442906062906586,0.35202473289753655,B,444.04500000018743,Correct
18,118,92,A,35.20502262384474,51.27640682213822,1.760251131192237,0.8054479148745549,B,451.796800000011,Incorrect
18,118,93,B,48.83257893463671,33.6204175470034,2.4416289467318353,0.5281082838814363,B,590.5751999998756,Correct
18,118,94,A,43.167906313798895,74.26206396736451,2.1583953156899445,1.1665057730014383,B,850.9821999996348,Incorrect
18,118,95,B,60.021573561971024,41.508608281762726,3.0010786780985512,0.6520156941936112,A,251.02759999936097,Incorrect
18,118,96,A,54.63578553310726,62.37835318914003,2.731789276655363,0.9798368806101586,B,523.5483999995267,Incorrect
18,118,97,A,14.20598516572715,42.76463550214227,0.7102992582863575,0.6717453236348772,A,415.7500000001164,Correct
18,118,98,B,52.9188682083565,27.45597514563214,2.645943410417825,0.4312774490733094,A,626.5091000004759,Incorrect
18,118,99,B,67.44220279708598,52.56903349280571,3.3721101398542994,0.8257524471365709,B,332.16619999984687,Correct
18,118,100,B,61.61123717135246,32.73662300957645,3.0805618585676227,0.5142256717511198,B,421.57660000066244,Correct
18,118,101,B,62.69233540692024,48.53204241165997,3.134616770346012,0.7623395395208963,B,455.5322000005617,Correct
18,118,102,A,63.754459338804864,80.97170220840168,3.187722966940243,1.2719005240328758,A,596.5120000000752,Correct
18,118,103,B,32.18920860317241,16.781507574374878,1.6094604301586204,0.26360330455908787,B,632.9236000001401,Correct
18,118,104,A,15.194859668767087,42.657379409125475,0.7597429834383544,0.6700605488655056,A,638.9914999999746,Correct
18,118,105,A,41.695350591844665,53.98981682312946,2.084767529592233,0.8480700595010108,A,800.6897000004756,Correct
18,118,106,A,45.369650507891,72.2750040073472,2.26848252539455,1.1352931081382742,A,531.2064000008831,Correct
18,118,107,B,31.710528648720224,14.182600754932214,1.5855264324360112,0.22277977170246047,A,564.3106999996235,Incorrect
18,118,108,B,43.80713854918646,22.111269269015157,2.190356927459323,0.34732300548541883,B,368.49139999958425,Correct
18,118,109,A,25.268560416896207,55.353365632102566,1.2634280208448103,0.8694886341064157,B,573.4615999999733,Incorrect
18,118,110,B,81.04271261590816,66.37095754499907,4.052135630795408,1.0425525631754458,A,354.7055000008186,Incorrect
18,118,111,B,68.68867102458746,36.29416430910787,3.434433551229373,0.5701073998083708,B,346.71719999914785,Correct
18,118,112,B,60.11450369551098,46.04794937975602,3.005725184775549,0.7233194974215809,B,261.4911000000575,Correct
18,118,113,A,47.51680930319753,55.100030110291044,2.3758404651598766,0.8655092490353339,B,197.237800000039,Incorrect
18,118,114,B,74.65577598117025,54.992634359058535,3.7327887990585125,0.8638222805198398,A,273.12800000072457,Incorrect
18,118,115,B,75.49206938420215,43.99087430814838,3.774603469210108,0.6910070377573546,B,262.92319999993197,Correct
18,118,116,B,42.87815777256615,24.56080396663188,2.1439078886283074,0.38580020653914876,B,338.795100000425,Correct
18,118,117,A,51.27691320935636,66.77671371967129,2.563845660467818,1.0489261662629406,B,278.1232999996064,Incorrect
18,118,118,A,34.474529235648326,51.68081868883541,1.7237264617824164,0.811800401621757,A,241.43529999946622,Correct
18,118,119,B,81.34620964482848,66.39950712809201,4.067310482241424,1.043001018977985,A,541.0769000000073,Incorrect
18,118,120,B,79.73985386518848,62.04524646663191,3.986992693259424,0.9746044524486944,B,225.4800000000614,Correct
18,118,121,B,43.103214186091066,24.047897481203865,2.1551607093045533,0.3777434903061528,B,339.15890000025684,Correct
18,118,122,B,71.6304597927858,53.8513601698807,3.58152298963929,0.8458951874775761,B,748.8093000001754,Correct
18,118,123,B,73.73163134030544,61.02214277467802,3.6865815670152724,0.9585335772361797,B,356.3267999998061,Correct
18,118,124,B,63.62933504461769,52.47638293660972,3.181466752230884,0.8242970956030893,B,245.36469999929977,Correct
18,118,125,B,49.820448717203114,22.567562399440583,2.4910224358601556,0.35449044121755885,A,862.8130000006422,Incorrect
18,118,126,A,21.08134181164378,52.09650371151879,1.0540670905821892,0.8183299666891041,B,171.77999999967142,Incorrect
18,118,127,B,49.988043621931624,23.96592646677366,2.499402181096581,0.37645589262244655,A,298.42270000062854,Incorrect
18,118,128,B,63.07541229253592,34.27842466264536,3.153770614626796,0.5384442354839891,B,320.78010000077484,Correct
18,118,129,B,52.470283598896565,25.889524245435382,2.623514179944828,0.4066716958719732,B,412.09560000061174,Correct
18,118,130,A,41.076254764251296,57.83554587189762,2.053812738212565,0.9084786301375452,B,257.37609999941924,Incorrect
18,118,131,A,28.694835309779577,54.47361091612604,1.434741765488979,0.8556694793430517,A,3049.383699999453,Correct
18,118,132,B,51.230161679801974,25.187413807936075,2.5615080839900988,0.3956429709096904,A,356.6885000000184,Incorrect
18,118,133,A,25.639883258562676,54.960294711740055,1.281994162928134,0.8633142905276625,B,89.38380000017787,Incorrect
18,118,134,A,36.33206108780444,54.69189991637515,1.816603054390222,0.859098354940762,A,213.8175999998566,Correct
18,118,135,A,31.650774772583155,56.99447789513204,1.5825387386291578,0.8952671652526634,A,426.78650000016205,Correct
18,118,136,A,50.667460300622885,72.83133154218463,2.533373015031144,1.144031880620449,A,347.6504999998724,Correct
18,118,137,B,65.53452212871991,34.41805372947462,3.2767261064359956,0.5406375237368812,A,305.4536999998163,Incorrect
18,118,138,A,65.62652325846182,85.36302320160003,3.281326162923091,1.3408792328918084,B,262.1592999994391,Incorrect
18,118,139,A,48.61348332845333,78.72257805323909,2.4306741664226665,1.236571364418525,A,458.31579999958194,Correct
18,118,140,A,13.925990329531682,36.28804472919877,0.6962995164765842,0.5700112736719434,A,730.0553999994008,Correct
18,118,141,B,63.861220991866645,55.50598112765435,3.193061049593332,0.8718859127046629,A,449.51359999959095,Incorrect
18,118,142,B,45.97422491776013,26.589605600412348,2.2987112458880063,0.41766854808052734,B,447.90259999990667,Correct
18,118,143,B,63.25421694837647,43.47400226462647,3.1627108474188232,0.6828880306834827,A,403.2033000003139,Incorrect
18,118,144,A,24.46190966377886,39.064769431325374,1.2230954831889431,0.6136279632981546,A,214.54680000078952,Correct
18,118,145,A,29.746076141406856,41.8616751907183,1.4873038070703428,0.6575616562306136,B,298.13449999983277,Incorrect
18,118,146,B,31.668709092104827,17.303150994070073,1.5834354546052412,0.2717972602346273,A,266.1714000005304,Incorrect
18,118,147,B,65.68953227270372,52.14739020575069,3.284476613635186,0.8191292898713333,B,284.11340000002383,Correct
18,118,148,A,27.72006269356889,51.36754006877764,1.3860031346784445,0.8068794325652558,A,603.5713999999643,Correct
18,118,149,B,66.36275639628228,47.32445593704641,3.318137819814114,0.7433708155347943,B,416.24680000040826,Correct
18,118,150,A,41.0795293498423,73.78012093452496,2.053976467492115,1.1589354295443506,B,636.9999999997162,Incorrect
18,118,151,A,29.081496190611325,47.41083597172375,1.4540748095305662,0.7447276699465901,A,343.75550000004296,Correct
18,118,152,B,54.67891119620611,27.151084786422906,2.733945559810305,0.42648824251009904,B,817.9614000000583,Correct
18,118,153,B,87.3919582223202,65.26203203609467,4.36959791111601,1.0251336020146837,B,395.09520000046905,Correct
18,118,154,B,67.73808539091945,44.36983683920244,3.386904269545972,0.6969597672750807,A,1022.4221999997098,Incorrect
18,118,155,A,57.909436371937716,72.48657614238277,2.895471818596886,1.1386164754639343,B,351.5633999995771,Incorrect
18,118,156,A,16.530250247013257,32.973257148590406,0.8265125123506628,0.5179427121146938,A,411.70169999986683,Correct
18,118,157,A,24.715498209701025,44.182949632487876,1.2357749104850513,0.6940241498967589,A,341.10969999983354,Correct
18,118,158,A,50.50160919509592,68.55286517048303,2.5250804597547956,1.0768258880106056,B,797.3713000001226,Incorrect
18,118,159,B,60.259005538456854,49.25911169487008,3.012950276922843,0.7737603171148145,B,534.2594000003373,Correct
18,118,160,B,84.92695695270979,66.98165369239236,4.24634784763549,1.0521453558265772,A,370.12849999973696,Incorrect
18,118,161,B,81.83106226725153,58.99011676071921,4.091553113362576,0.9266145872493979,A,426.954200000182,Incorrect
18,118,162,B,34.45818056895237,18.018843967526887,1.7229090284476185,0.2830393391728162,B,472.4930000002132,Correct
18,118,163,B,87.91336759417528,66.78203111908762,4.395668379708764,1.049009691777653,B,763.2692999995925,Correct
18,118,164,A,50.95899820622499,70.26568794414156,2.5479499103112495,1.10373084522374,B,593.0335000002742,Incorrect
18,118,165,A,39.873755441294385,51.70052911084278,1.9936877720647193,0.8121100122066447,A,356.6534000001411,Correct
18,118,166,A,37.25474042386009,46.59084496792021,1.8627370211930045,0.7318472813787957,A,300.1416999995854,Correct
18,118,167,B,81.9614060234169,61.013158586621415,4.098070301170845,0.9583924539401942,A,500.7270000005519,Incorrect
18,118,168,A,29.51931564634305,56.36499262234663,1.4759657823171526,0.8853792337100352,A,346.0032000002684,Correct
18,118,169,A,19.297895656325522,32.01946779106112,0.9648947828162762,0.502960623921263,A,259.6140000005107,Correct
18,118,170,A,16.819721807636476,45.91599979112238,0.8409860903818239,0.7212468381301027,A,283.94070000013016,Correct
18,118,171,A,54.52424326301917,84.16755641690577,2.726212163150959,1.3221008845497781,A,766.6877999999997,Correct
18,118,172,A,47.40388987222796,78.83570432387896,2.3701944936113977,1.238348347722376,A,290.8354999999574,Correct
18,118,173,A,22.681924690017997,43.27413340157361,1.1340962345008998,0.6797484979242416,A,694.4610999998986,Correct
18,118,174,B,58.24130808287005,44.237187586774745,2.9120654041435023,0.6948761176904257,A,332.80290000038804,Incorrect
18,118,175,B,43.50891130803864,28.028500971011805,2.1754455654019322,0.4402706637083254,A,663.3185000000594,Incorrect
18,118,176,A,33.321992111284686,60.90520468343584,1.6660996055642343,0.9566967179943235,A,646.2116000002425,Correct
18,118,177,A,56.18882007836589,80.25445342407541,2.8094410039182947,1.2606340064746977,B,589.6714000000429,Incorrect
18,118,178,B,46.20478058936766,19.69095783929161,2.310239029468383,0.30930484245032436,A,250.9517999997115,Incorrect
18,118,179,A,26.997936354796764,42.0795571029758,1.3498968177398383,0.6609841373051049,B,246.00099999952363,Incorrect
18,118,180,B,51.12134244969662,25.696027924992777,2.556067122484831,0.4036322627779774,A,287.9381000002468,Incorrect
18,118,181,A,37.900344565822806,54.08045959954103,1.8950172282911404,0.8494938729033886,B,241.35820000083186,Incorrect
18,118,182,B,77.00501886577499,52.73883646581851,3.8502509432887497,0.8284197059994445,B,322.4831000006816,Correct
18,118,183,B,35.71151530751773,25.54124403172718,1.7855757653758866,0.4012009230680913,B,366.07270000058634,Correct
18,118,184,B,62.57075294552247,49.747045801313426,3.128537647276124,0.7814247681360061,B,478.6300999994637,Correct
18,118,185,A,55.37373583832346,64.83671765969018,2.7686867919161733,1.0184527794127916,B,412.9849999999351,Incorrect
18,118,186,B,75.84757549891532,53.21270327664207,3.792378774945766,0.8358631884577613,A,219.8911000004955,Incorrect
18,118,187,A,64.580034455578,85.9530445307222,3.2290017227789,1.350147266256966,B,221.3127999993958,Incorrect
18,118,188,A,65.49501779636246,83.53667396240876,3.274750889818123,1.3121910061281454,A,202.00389999990875,Correct
18,118,189,B,56.52287725744153,38.9196626017245,2.8261438628720765,0.6113486305488554,A,320.09350000043924,Incorrect
18,118,190,A,34.97596899016308,62.648885786518036,1.7487984495081543,0.9840863967125553,A,810.8477000005223,Correct
18,118,191,A,64.75197204498555,75.64139514381539,3.2375986022492778,1.1881722564554653,A,282.87839999939024,Correct
18,118,192,A,47.481109857738254,58.6058131534791,2.374055492886913,0.92057796030313,A,803.1584000000294,Correct
18,118,193,A,56.57273971633725,69.85548572760703,2.8286369858168627,1.0972874038739844,B,765.1265000004059,Incorrect
18,118,194,B,50.03982478863181,26.914635865642516,2.501991239431591,0.4227741115477345,A,565.1300999998057,Incorrect
18,118,195,A,36.63749286903221,60.85386106261687,1.8318746434516102,0.9558902142844556,B,395.48370000011346,Incorrect
18,118,196,B,58.23708668163205,32.98314895745548,2.9118543340816023,0.5180980922849999,A,539.2047999994247,Incorrect
18,118,197,A,28.448884596694285,54.20009833619468,1.4224442298347142,0.8513731537841679,A,378.3917000000656,Correct
18,118,198,A,19.421225450981503,34.36007544087462,0.971061272549075,0.5397268029092138,A,865.8903999994436,Correct
18,118,199,A,64.07102435985543,78.54263333699633,3.2035512179927714,1.2337447994255222,B,811.0023999997793,Incorrect
18,118,200,A,56.647837994015035,72.02511414509468,2.832391899700752,1.1313678473609785,B,217.66779999961727,Incorrect
18,118,201,A,37.135309404242015,61.91943044667199,1.8567654702121006,0.9726281390286443,A,231.99529999965307,Correct
18,118,202,B,65.81967955818399,33.3500676336233,3.2909839779092,0.5238616373725684,B,681.3892000000124,Correct
18,118,203,A,45.21896938640534,67.6173297384711,2.260948469320267,1.0621305318086973,A,747.3590999998123,Correct
18,118,204,B,42.27409947960095,20.75092710006477,2.1137049739800475,0.3259548006637042,B,447.7764000002935,Correct
18,118,205,B,35.86870904263499,16.72143788919749,1.7934354521317493,0.26265973215080424,A,1109.8822000003565,Incorrect
18,118,206,B,55.699975160784376,48.42963795130328,2.784998758039219,0.760730974019139,B,451.37660000000324,Correct
18,118,207,A,49.02570530490174,66.0715348064335,2.451285265245087,1.037849241796469,B,253.0876000000717,Incorrect
18,118,208,B,48.12394335737518,24.641771220592496,2.4061971678687595,0.38707203719026884,B,357.0960999995805,Correct
18,118,209,A,66.6858972721956,79.95561948056876,3.33429486360978,1.2559399338668789,B,273.5090999995009,Incorrect
18,118,210,B,49.361111909575946,33.52197350812078,2.4680555954787975,0.5265619285347195,A,312.9606000002241,Incorrect
18,118,211,A,33.973758346991815,50.40178580371608,1.6986879173495908,0.7917094000438039,A,253.14460000026884,Correct
18,118,212,B,36.865368224842,13.646896839864969,1.8432684112421,0.21436495428208777,A,386.91389999985404,Incorrect
18,118,213,A,68.69752033314082,86.63827683065034,3.4348760166570407,1.3609108700542494,B,288.75260000040726,Incorrect
18,118,214,B,69.59053948803479,49.48194995016232,3.4795269744017396,0.7772606522436389,A,412.9075999999259,Incorrect
18,118,215,B,39.29507917549856,17.902092385752038,1.9647539587749279,0.2812054096148219,B,368.26100000052975,Correct
18,118,216,A,45.95808094284765,74.32658712323033,2.297904047142383,1.1675193003637105,B,605.4858999996213,Incorrect
18,118,217,A,52.39527443742993,66.36964921100282,2.6197637218714966,1.0425320119130905,B,566.8875999999727,Incorrect
18,118,218,B,65.92230895044263,45.24602178634378,3.2961154475221317,0.7107228482407068,A,276.6849999998158,Incorrect
18,118,219,B,80.65768619751722,53.1808486810502,4.032884309875861,0.8353628176402886,B,250.7408999999825,Correct
18,118,220,B,61.064810068718494,38.110689438704576,3.0532405034359247,0.598641309819382,B,264.0040999995108,Correct
18,118,221,B,68.56103958363099,38.70772863722527,3.428051979181549,0.6080195796192709,B,330.21929999995336,Correct
18,118,222,A,51.579157894965874,64.10597262996099,2.5789578947482936,1.006974263327569,B,426.81960000027175,Incorrect
18,118,223,A,24.72494121968479,49.754843464449934,1.2362470609842395,0.7815472535421303,A,209.154999999555,Correct
18,118,224,A,36.25099713893296,44.00171303779408,1.812549856946648,0.6911772921245005,A,277.8953000006368,Correct
18,118,225,B,84.25617836823253,62.54637324439763,4.212808918411627,0.9824761334664239,A,309.05040000016015,Incorrect
18,118,226,B,54.18547128528608,43.24594230490545,2.7092735642643038,0.679305673213295,B,24.6766000000207,Correct
18,118,227,B,67.7379042884424,46.30608761096254,3.3868952144221196,0.7273743232754263,B,231.03849999915838,Correct
18,118,228,A,42.09363939860373,63.09847485511521,2.104681969930186,0.991148525287751,B,259.4554999996035,Incorrect
18,118,229,A,14.543114336431383,37.18308709734637,0.7271557168215692,0.584070566314064,A,187.19360000068264,Correct
18,118,230,B,51.68985785953418,37.943709438610156,2.5844928929767086,0.5960183941114168,A,356.325900000229,Incorrect
18,118,231,B,74.41748522662988,61.09813277957348,3.720874261331494,0.9597272254418089,B,249.05000000035216,Correct
18,118,232,B,64.257699492869,42.06105530129508,3.21288497464345,0.6606935116839132,B,281.8750000005821,Correct
18,118,233,B,57.1118323570644,37.75018632094663,2.8555916178532197,0.5929785400876592,B,284.07700000025216,Correct
18,118,234,A,20.355799119279443,34.30180269229946,1.017789955963972,0.5388114567150729,A,516.95429999927,Correct
18,118,235,B,50.15132559231667,21.56085029897518,2.5075662796158333,0.3386770445220486,A,430.06960000002437,Incorrect
18,118,236,B,65.02350912495179,54.81779650934904,3.251175456247589,0.8610759339987557,B,318.88340000023163,Correct
18,118,237,B,75.4297485221847,64.83186440227206,3.7714874261092346,1.0183765446235378,B,307.8857999998945,Correct
18,118,238,A,41.883063620020806,51.21197971675247,2.0941531810010403,0.8044358962696954,B,854.6470999999656,Incorrect
18,118,239,B,53.100474810077365,38.85564310051523,2.6550237405038684,0.610343014575428,A,691.6475999996692,Incorrect
18,118,240,A,15.955433294358041,35.454854013777236,0.7977716647179021,0.5569235445189057,B,424.3366999999125,Incorrect
18,118,241,A,21.76403542488661,48.511343423769155,1.0882017712443306,0.7620144005794235,A,341.5924000000814,Correct
18,118,242,A,58.71465496733849,73.49320468072825,2.9357327483669247,1.1544285595687345,A,666.5946000002805,Correct
18,118,243,A,33.10424251647132,46.03400281195549,1.655212125823566,0.7231004252468562,A,227.95850000056816,Correct
18,118,244,A,60.596998657173195,75.68439059686116,3.0298499328586597,1.1888476274525972,B,475.44899999957124,Incorrect
18,118,245,B,41.094315005265614,15.765081490571436,2.0547157502632807,0.24763732097011826,B,293.38449999977456,Correct
18,118,246,A,52.45898085526226,61.08746543512734,2.622949042763113,0.9595596631870822,B,700.5637000002025,Incorrect
18,118,247,A,62.173515149471484,77.18632928538145,3.1086757574735744,1.2124400252025853,A,906.6456000000471,Correct
18,118,248,B,31.267077808565734,13.60019433715831,1.5633538904282867,0.21363135308505027,A,354.93829999995796,Incorrect
18,118,249,A,18.1960131206713,43.91214005446486,0.909800656033565,0.6897702829925645,B,163.22430000036547,Incorrect
18,118,250,A,63.565837985169686,78.2588179751732,3.1782918992584843,1.229286638147125,A,274.9536999999691,Correct
18,118,251,A,27.141951147868333,50.41795573262819,1.3570975573934165,0.7919633966932006,A,247.65870000010182,Correct
18,118,252,A,39.69321645281757,68.7025488825505,1.9846608226408788,1.0791771142615714,A,428.11149999943154,Correct
18,118,253,B,71.17332761783703,56.50875634204448,3.5586663808918515,0.8876374689383129,A,304.80200000056357,Incorrect
18,118,254,B,81.60581631051652,50.62673401063502,4.080290815525825,0.7952428782152775,B,236.1194000004616,Correct
18,118,255,A,53.91926608856525,73.12104718487522,2.6959633044282625,1.148582723293983,B,330.5137999996077,Incorrect
18,118,256,A,36.289429874256825,47.41675744448542,1.8144714937128412,0.7448206842232228,A,253.26199999926757,Correct
18,118,257,B,70.1890594073055,55.17249245453111,3.5094529703652757,0.8666474848769662,A,246.4008000006288,Incorrect
18,118,258,A,21.03416286997686,40.82879734050362,1.051708143498843,0.6413372488991633,B,241.71889999979612,Incorrect
18,118,259,B,70.15487629903971,43.54542025505387,3.5077438149519855,0.684009861853787,A,250.53400000069814,Incorrect
18,118,260,A,66.29277383298815,86.7644351708353,3.314638691649407,1.3628925606278204,A,274.81150000039634,Correct
18,118,261,B,59.7267315999281,41.05593412552428,2.986336579996405,0.6449051051750678,B,290.6150999997408,Correct
18,118,262,B,80.89940436901512,61.520368560314374,4.044970218450755,0.9663596895761006,A,458.0315999992308,Incorrect
18,118,263,A,22.81543555880881,37.27503840132344,1.1407717779404407,0.5855149340193758,B,223.85579999991023,Incorrect
18,118,264,B,57.25835200761198,32.48100983420925,2.8629176003805994,0.510210509381648,A,369.54790000072535,Incorrect
18,118,265,B,58.36371182663815,50.50511249858114,2.9181855913319077,0.7933324519713428,B,562.920800000029,Correct
18,118,266,B,49.155883126360536,30.41528408720952,2.457794156318027,0.47776216522611986,B,364.6104999997988,Correct
18,118,267,A,22.342520279684134,49.785791457738874,1.1171260139842067,0.7820333834839297,A,1137.8577000004952,Correct
18,118,268,B,47.26876670011954,36.05538430906686,2.363438335005977,0.5663566523386058,B,452.0699999993667,Correct
18,118,269,A,18.18512903226091,34.85817461639245,0.9092564516130455,0.5475509264620436,A,422.86070000045584,Correct
18,118,270,B,74.99887692312134,61.22063695317709,3.749943846156067,0.9616515165009447,B,496.24600000061037,Correct
18,118,271,B,57.42798583639937,25.81114023958448,2.871399291819969,0.4054404427872724,B,600.543600000492,Correct
18,118,272,A,58.41696052096895,66.48799770567263,2.9208480260484477,1.0443910257201807,B,421.2527999998201,Incorrect
18,118,273,B,36.34923656785146,26.369971270047486,1.817461828392573,0.41421854008677544,A,545.9588999992775,Incorrect
18,118,274,A,27.290317759036874,55.95611519339777,1.3645158879518435,0.8789566020750131,A,785.1530999996612,Correct
18,118,275,B,88.26570463541518,63.5288797725117,4.413285231770759,0.9979093099205599,A,741.8649000001096,Incorrect
18,118,276,A,31.683152120902676,44.35961394290077,1.5841576060451337,0.6967991863954821,B,358.70320000049105,Incorrect
18,118,277,B,78.31594026709321,50.52595140230911,3.9157970133546605,0.793659788705646,B,787.1293999996851,Correct
18,118,278,A,35.65101392422585,55.323527359893376,1.7825506962112925,0.8690199356225747,A,559.030200000052,Correct
18,118,279,A,53.632973968147866,77.51204037436533,2.6816486984073937,1.2175562830243076,B,327.02620000054594,Incorrect
18,118,280,A,56.94149959910057,79.94496885724948,2.8470749799550283,1.255772634266999,A,438.22629999976925,Correct
18,118,281,B,59.43945308197006,47.106662893619486,2.9719726540985025,0.7399497304086293,A,242.0910000000731,Incorrect
18,118,282,A,45.196498090242216,65.82362635057063,2.2598249045121106,1.0339551048779612,A,301.38480000005075,Correct
18,118,283,B,66.98446960811893,50.82129331238495,3.349223480405947,0.7982990085806032,A,444.32640000013635,Incorrect
18,118,284,A,30.457660931286092,58.3706505234605,1.5228830465643046,0.9168840343488036,A,607.9300999999759,Correct
18,118,285,B,45.66947323654186,33.18506113733635,2.2834736618270934,0.5212697213899201,A,739.283400000204,Incorrect
18,118,286,B,51.89456523324998,44.95898113791583,2.5947282616624987,0.7062140242787922,B,272.80119999977614,Correct
18,118,287,B,74.43361347108522,56.02287382557456,3.721680673554261,0.8800052442170647,B,558.5952000001271,Correct
18,118,288,A,42.79380035426988,60.43095787599288,2.1396900177134937,0.9492472665630675,B,705.4030999997849,Incorrect
18,118,289,B,77.57522765256603,59.985169397799694,3.8787613826283014,0.942244837522334,B,513.101600000482,Correct
18,118,290,A,22.231509922322136,41.17317498669232,1.1115754961161068,0.6467467203157982,A,389.3011000000115,Correct
18,118,291,B,58.82093120541605,44.295302366459154,2.9410465602708022,0.6957889825150333,B,369.4397999997818,Correct
18,118,292,B,54.40706280693293,34.13875188818565,2.720353140346646,0.5362502606732437,B,568.0517999999211,Correct
18,118,293,B,66.13214785716363,45.91838139820092,3.3066073928581816,0.7212842483266111,A,311.52449999990495,Incorrect
18,118,294,A,45.74442221385607,71.45767893143449,2.2872211106928035,1.1224545958678638,A,439.0010999995866,Correct
18,118,295,A,35.0304309298702,47.95034343812017,1.7515215464935099,0.7532022334115295,A,747.9583999993338,Correct
18,118,296,B,57.52672118185415,35.412345687911866,2.8763360590927074,0.5562558252976305,B,435.71650000012596,Correct
18,118,297,A,30.698241867361297,45.63462822880773,1.534912093368065,0.7168270639646189,A,716.5254999999888,Correct
18,118,298,B,82.09630829706022,60.68623280786652,4.104815414853011,0.9532571158161667,A,529.0009000000282,Incorrect
18,118,299,B,45.39860356811792,21.03205562539232,2.269930178405896,0.33037075721312203,B,455.05920000050537,Correct
18,118,300,A,49.61807020870458,75.73976164453971,2.480903510435229,1.1897173938356398,B,385.2909000006548,Incorrect
18,118,301,B,43.348553520598955,23.624548786300313,2.1674276760299476,0.37109354455707366,A,262.8328999999212,Incorrect
18,118,302,A,18.569062053242575,44.6678703384593,0.9284531026621288,0.7016412665340258,B,215.11629999986326,Incorrect
18,118,303,B,49.49189177302007,27.676360372762737,2.4745945886510037,0.43473925212587544,A,210.70059999965451,Incorrect
18,118,304,A,42.14943133252075,68.12640240304187,2.1074715666260375,1.0701270265244918,B,41.08009999981732,Incorrect
18,118,305,B,43.79739178953495,24.826964616057168,2.1898695894767473,0.3899810482436947,A,252.3919000004753,Incorrect
18,118,306,B,61.86697596625217,45.722969725113764,3.0933487983126087,0.7182147289436297,B,341.53709999918647,Correct
18,118,307,A,43.68031467383154,59.135560604522645,2.184015733691577,0.9288992138054115,B,235.310600000048,Incorrect
18,118,308,B,61.84366114106902,44.938223705636275,3.0921830570534508,0.705887967295008,A,302.10060000081285,Incorrect
18,118,309,B,74.13947013268304,49.94833834135886,3.7069735066341525,0.7845866639611521,B,3214.101600000504,Correct
18,118,310,A,35.584841465945566,62.13101161024867,1.7792420732972785,0.9759516481742967,B,234.81269999956567,Incorrect
18,118,311,B,35.57066964167485,11.70216253320092,1.7785334820837422,0.18381713922708862,A,235.09529999955703,Incorrect
18,118,312,A,68.72286061158341,89.48593138567131,3.4361430305791707,1.4056417232043263,B,185.46950000018114,Incorrect
18,118,313,B,83.64643924481248,63.91015579289317,4.182321962240624,1.0038983796436616,A,291.95960000015475,Incorrect
18,118,314,A,48.40899114848958,65.2460757715616,2.4204495574244786,1.0248829615975046,A,218.60480000032112,Correct
18,118,315,A,20.41126880156827,52.00614751859749,1.0205634400784134,0.8169106549296646,A,919.0204000005906,Correct
18,118,316,B,57.6829180143112,28.76266950976914,2.88414590071556,0.4518029561476093,A,541.6815999997198,Incorrect
18,118,317,B,84.71752632703783,58.915740016167916,4.2358763163518915,0.9254462800779967,B,503.3688000003167,Correct
18,118,318,B,79.55144847286736,63.56816364356028,3.9775724236433683,0.9985263795240138,B,483.5047000005943,Correct
18,118,319,A,39.26323784529409,65.98311128531971,1.9631618922647047,1.0364602883747909,B,261.1700000006749,Incorrect
18,118,320,A,24.409003556937733,41.10365174524912,1.2204501778468866,0.6456546517929395,A,236.621500000183,Correct
18,118,321,A,45.53845358630453,70.91001583921026,2.276922679315226,1.113851924131994,A,692.3805000005814,Correct
18,118,322,B,67.43075546057887,38.375044603274844,3.3715377730289435,0.6027937910341443,A,273.06119999957446,Incorrect
18,118,323,B,57.85890229137088,41.1150615939049,2.892945114568544,0.6458338772765174,B,220.138799999404,Correct
18,118,324,A,34.98072999751198,44.59388570212404,1.749036499875599,0.7004791185840791,B,533.5345000003144,Incorrect
18,118,325,B,87.71115502094145,60.787149184883894,4.385557751047072,0.9548423065594902,B,505.40490000003047,Correct
18,118,326,A,66.22907636185586,78.73234080463382,3.311453818092793,1.2367247173588276,B,269.7932999999466,Incorrect
18,118,327,B,59.00673131995932,43.83127288334524,2.950336565997966,0.6885000244390347,A,251.09489999977086,Incorrect
18,118,328,A,66.99213370975411,88.88045877018376,3.349606685487706,1.3961309816004992,B,511.2626000000091,Incorrect
18,118,329,A,52.85918502114641,68.91788330336388,2.6429592510573205,1.0825595794340332,A,552.3905999998533,Correct
18,118,330,B,71.76283739059987,49.021594096167604,3.5881418695299936,0.7700293993989045,A,436.23329999991256,Incorrect
18,118,331,A,66.51167116731119,85.5685765335407,3.3255835583655595,1.3441080570795372,B,215.0086999999985,Incorrect
18,118,332,B,84.56417625442664,66.89382586762255,4.2282088127213315,1.0507657595811895,A,195.99409999955242,Incorrect
18,118,333,A,40.008711724606776,65.71719853024776,2.000435586230339,1.0322833405856415,B,199.8727999998664,Incorrect
18,118,334,B,54.63839235202416,44.31752152248473,2.7319196176012084,0.6961380002017279,B,784.7029000004113,Correct
18,118,335,B,43.03575173747826,28.17023767018557,2.1517875868739127,0.4424970585726672,B,652.8662000000622,Correct
18,118,336,A,40.919534494180226,61.30332148065015,2.0459767247090115,0.9629503220213194,B,692.3172999995586,Incorrect
18,118,337,B,67.03646475829498,57.6005546320161,3.3518232379147492,0.9047873963731965,B,334.81209999990824,Correct
18,118,338,B,33.2702281005878,12.469706830136264,1.6635114050293902,0.19587369684987274,A,701.1781999999585,Incorrect
18,118,339,B,46.544372579717205,33.99338639238755,2.3272186289858605,0.5339668648048198,B,214.8854000006395,Correct
18,118,340,B,67.58233814515795,59.458964842249294,3.3791169072578975,0.9339792356923209,A,667.31609999988,Incorrect
18,118,341,A,17.398007189928556,44.64630249272833,0.8699003594964279,0.7013024796055151,B,195.61030000022583,Incorrect
18,118,342,A,45.726983004277514,64.53787475417617,2.2863491502138755,1.01375856603009,A,399.458500000037,Correct
18,118,343,A,29.89126103937611,39.88251299992112,1.4945630519688056,0.6264730492362579,A,326.63290000073175,Correct
18,118,344,A,16.729108900814555,37.38882647731188,0.8364554450407278,0.5873023129373327,A,506.7920999999842,Correct
18,118,345,B,51.20252317607181,20.699270669329064,2.56012615880359,0.32514338334715437,B,718.9464999992197,Correct
18,118,346,A,43.53117496756809,74.04050898986077,2.1765587483784046,1.1630255955529782,A,565.8896000004461,Correct
18,118,347,B,58.209064075330396,43.15902431494273,2.91045320376652,0.6779403686196366,A,695.2770999996574,Incorrect
18,118,348,B,74.51466214967527,60.71663144456192,3.7257331074837636,0.9537346164847738,B,99.44009999981063,Correct
18,118,349,A,35.487105660475564,66.61522559432352,1.774355283023778,1.0463895167217676,B,207.31239999986428,Incorrect
18,118,350,B,36.729786102067706,22.892312684650815,1.8364893051033853,0.3595916067688971,A,281.78699999989476,Incorrect
18,118,351,B,58.90297286416462,50.42493576913154,2.945148643208231,0.7920730388502041,B,508.8482000001022,Correct
18,118,352,B,58.68202021444115,26.94991933227306,2.9341010107220575,0.4233283429455329,B,435.7626999999411,Correct
18,118,353,A,59.68062131087435,74.50640057838037,2.9840310655437174,1.1703438035122902,B,306.95490000016434,Incorrect
18,118,354,A,24.274524641305426,40.80997054792112,1.2137262320652713,0.641041518332824,B,615.6333999997514,Incorrect
18,118,355,B,70.05226959414773,47.40485671060145,3.5026134797073865,0.7446337479325116,A,644.0978999999061,Incorrect
18,118,356,B,58.01466463359622,37.358733429755404,2.9007332316798107,0.586829612451695,B,674.1635999997015,Correct
18,118,357,B,70.71154809629083,41.351302922841235,3.535577404814541,0.6495447473938208,B,250.1707000001261,Correct
18,118,358,B,86.8998870546475,58.99098517662023,4.344994352732375,0.9266282282944724,B,274.74419999998645,Correct
18,118,359,A,61.05330344959789,72.83917385927107,3.0526651724798946,1.1441550674491785,B,263.46210000065184,Incorrect
18,118,360,A,57.46523310176067,66.57794360401094,2.8732616550880334,1.0458038925873818,A,253.2677999997759,Correct
18,118,361,B,74.19240502497507,47.56961492495559,3.7096202512487535,0.7472217639116794,A,175.22259999987,Incorrect
18,118,362,B,51.649344254994915,43.895444477763405,2.5824672127497457,0.6895080294870009,B,447.7687999997215,Correct
18,118,363,B,66.84793054739308,55.15524176353624,3.3423965273696536,0.866376511656472,B,3335.769000000255,Correct
18,118,364,A,32.907831749587885,55.162512649642686,1.6453915874793943,0.8664907224683575,B,387.6709000005576,Incorrect
18,118,365,B,41.55719981490231,18.854341816264657,2.0778599907451154,0.2961633086912394,A,192.08479999997508,Incorrect
18,118,366,A,15.368651991670827,42.324161006652105,0.7684325995835414,0.6648263664392492,A,333.0862000002526,Correct
18,118,367,A,26.055258169081952,43.241386683923096,1.3027629084540977,0.6792341136862415,A,279.3023999993238,Correct
18,118,368,A,60.219086664003555,72.34998209329089,3.0109543332001776,1.1364708611581786,B,577.7926999999181,Incorrect
18,118,369,A,34.70061200704154,64.73120575329771,1.735030600352077,1.0167954022628471,A,187.47679999978573,Correct
18,118,370,B,70.3528856990409,37.5701639073089,3.517644284952045,0.5901507546268303,A,249.01050000062241,Incorrect
18,118,371,B,84.44527391542402,67.84576248002571,4.222263695771201,1.0657187449222338,B,264.4571000000724,Correct
18,118,372,A,39.69212627002775,50.78757515812084,1.9846063135013876,0.7977693650519595,A,878.552099999979,Correct
18,118,373,A,38.71410057756189,54.64910338708731,1.9357050288780941,0.8584261086307128,B,878.2749000001786,Incorrect
18,118,374,B,72.28304324433746,41.240412674393454,3.6141521622168735,0.6478028874444294,B,511.6856000004191,Correct
18,118,375,A,19.56814430592207,46.55942953130669,0.9784072152961033,0.7313538088544239,B,335.98669999992126,Incorrect
18,118,376,B,54.55564498229949,38.03374800384746,2.7277822491149744,0.5974327165868631,B,492.6822000006723,Correct
18,118,377,A,40.314479506457836,61.00241847043972,2.0157239753228917,0.9582237485897187,B,649.9554000001808,Incorrect
18,118,378,B,46.11626769288378,19.69162389512395,2.305813384644189,0.30931530483087316,B,393.42450000003737,Correct
18,118,379,A,15.393154503006627,43.67737398289912,0.7696577251503314,0.6860825861638492,A,558.0798000000868,Correct
18,118,380,A,27.396666696877972,55.486554775222345,1.3698333348438985,0.8715807642742308,A,604.4693000003463,Correct
18,118,381,B,73.76340303626624,54.20261217980379,3.688170151813312,0.8514126411472411,B,513.4455999996135,Correct
18,118,382,B,67.85622687393989,51.90150543048357,3.3928113436969944,0.8152669408532895,B,660.7622999999876,Correct
18,118,383,B,71.40451257683759,42.21264927811395,3.5702256288418797,0.6630747443034264,B,581.0522000001583,Correct
18,118,384,A,31.385860758300623,49.26818809908507,1.5692930379150312,0.7739028889388286,A,219.96490000037738,Correct
18,118,385,B,43.41052772040208,29.598578553919722,2.170526386020104,0.46493338470847295,A,567.8594000000885,Incorrect
18,118,386,B,38.715230782633384,21.092956090967814,1.9357615391316694,0.3313273794893828,B,476.0067999995954,Correct
18,118,387,B,62.33648300300797,30.614568025925305,3.1168241501503986,0.48089251001535965,A,385.2814000001672,Incorrect
18,118,388,A,59.444718711286825,78.83720916220399,2.9722359355643415,1.23837198566751,B,515.2709000003597,Incorrect
18,118,389,B,71.37767789169155,39.71536486122141,3.568883894584577,0.623847492413257,B,239.10259999956907,Correct
18,118,390,B,43.75629782209879,22.276040636574276,2.1878148911049395,0.3499112280746472,B,334.53370000006544,Correct
18,118,391,A,27.602278071520125,48.37006084003429,1.3801139035760062,0.7597951389437153,B,588.6406999998144,Incorrect
18,118,392,B,60.37328297995947,29.164975123766162,3.0186641489979733,0.45812235795476414,A,493.23180000010325,Incorrect
18,118,393,A,21.160815968137083,36.286048837364234,1.0580407984068543,0.5699799222763197,B,509.77810000040336,Incorrect
18,118,394,B,60.373728927341254,30.046125661698692,3.0186864463670626,0.47196343823814185,A,326.3608999995995,Incorrect
18,118,395,A,11.762401376346919,34.28540085146352,0.5881200688173459,0.5385538172016952,A,357.5321999996959,Correct
18,118,396,A,60.186807669571664,79.13880893301281,3.009340383478583,1.2431095037889968,A,457.1316999999908,Correct
18,118,397,A,34.64522935988905,58.91193770037702,1.7322614679944524,0.9253865534412201,A,474.528000000646,Correct
18,118,398,B,47.807574504336074,22.155662270859427,2.3903787252168036,0.3480203291277427,A,253.3114999996542,Incorrect
18,118,399,A,50.18251730486109,75.67108997691572,2.509125865243055,1.1886387018030533,A,239.23740000009275,Correct
18,118,400,A,63.03309756712362,75.47361273213271,3.151654878356181,1.1855367364957459,A,287.00239999943733,Correct
18,118,401,A,34.06981935093631,60.74907226231887,1.7034909675468155,0.9542441956584821,A,463.56619999914983,Correct
18,118,402,B,44.844809655262786,22.45607381157487,2.2422404827631395,0.3527391825745688,A,490.33909999980096,Incorrect
18,118,403,A,41.20442003688597,56.7503730221279,2.060221001844299,0.891432774873987,A,392.98409999992145,Correct
18,118,404,B,69.25977458490333,42.820350649358204,3.462988729245166,0.6726204951208133,A,448.96909999988566,Incorrect
18,118,405,A,51.453913591861415,75.88296158762269,2.572695679593071,1.1919667732815593,B,422.2504999997909,Incorrect
18,118,406,A,61.387087905571086,77.40467839522196,3.069354395278554,1.2158698449995495,A,363.7650999999096,Correct
18,118,407,B,52.121418109184724,25.519842612170926,2.606070905459236,0.40086475035581964,A,437.4121999999261,Incorrect
18,118,408,B,80.9021737469808,61.17245778251006,4.04510868734904,0.9608947198578268,A,1492.358299999978,Incorrect
18,118,409,B,37.02304897096993,25.221354816049832,1.8511524485484967,0.3961761150184185,A,652.6561000000584,Incorrect
18,118,410,B,42.86715314628944,27.215988710070015,2.143357657314472,0.4275077509586936,B,259.58929999978864,Correct
18,118,411,A,32.59255857973282,43.77659910247358,1.6296279289866407,0.6876412106973827,A,643.3353999991596,Correct
18,118,412,B,44.12062822807604,18.02915051108629,2.206031411403802,0.2832012339804668,A,835.0307999999131,Incorrect
18,118,413,B,53.224959463290936,27.550404014922428,2.661247973164547,0.4327607342835552,B,342.3760999994556,Correct
18,118,414,A,48.33604676452626,75.02156414678163,2.416802338226313,1.1784359739217227,B,451.92080000015267,Incorrect
18,118,415,A,53.35863085871802,66.82003612659673,2.6679315429359014,1.0496066730396043,A,235.64559999977064,Correct
18,118,416,B,47.95620023215448,18.80772678718376,2.397810011607724,0.29543108152670233,A,575.2455000001646,Incorrect
18,118,417,A,12.318505904912346,35.998767671969475,0.6159252952456172,0.5654673202827252,A,536.0886999997092,Correct
18,118,418,A,54.75904948569765,69.40640065749241,2.737952474284883,1.0902331920884398,A,314.32720000066183,Correct
18,118,419,A,26.49716499191356,44.22695409750773,1.324858249595678,0.6947153704169164,A,3098.3280000000377,Correct
18,118,420,A,37.30303204767391,68.29482097839845,1.8651516023836956,1.0727725393198333,A,414.4634000003862,Correct
18,118,421,A,46.01972730558356,61.457047633805985,2.300986365279178,0.9653650467884144,A,464.96269999988726,Correct
18,118,422,A,21.575650681727,48.28072899878209,1.07878253408635,0.7583919176626674,B,238.2285999992746,Incorrect
18,118,423,B,44.47708857060164,36.63650569845703,2.223854428530082,0.575484885777366,A,241.85380000017176,Incorrect
18,118,424,A,34.27043740722269,62.99505413411369,1.7135218703611343,0.9895239964011144,B,850.6630999991103,Incorrect
18,118,425,B,52.86152696400397,39.88182396740136,2.6430763482001987,0.6264622259387472,B,262.5562000002901,Correct
18,118,426,B,83.54756894658262,55.41279479986361,4.17737844732913,0.8704221452906511,B,500.08359999992535,Correct
18,118,427,B,34.57872096344252,20.343199791080227,1.728936048172126,0.3195502350708353,B,667.0127999996112,Correct
18,118,428,A,49.37093093454556,74.87208458997091,2.468546546727278,1.1760879545340308,A,730.7546999991246,Correct
18,118,429,B,47.3051796433458,31.343412230620523,2.36525898216729,0.4923411680107695,B,1185.3749000001699,Correct
18,118,430,A,43.57849787198118,68.0388406071475,2.1789248935990586,1.0687516090509075,A,1308.9844999994966,Correct
18,118,431,B,82.31413029309618,58.73116599422573,4.115706514654809,0.9225469981211111,B,603.6027999998623,Correct
18,118,432,B,66.25843698785002,43.98599051848512,3.312921849392501,0.6909303233687157,B,967.2398000002431,Correct
18,118,433,B,64.70053913107672,48.015710966724676,3.235026956553836,0.7542290241497654,A,835.6814999997368,Incorrect
18,118,434,B,77.3915552213659,47.7937602599367,3.8695777610682955,0.7507426306002447,B,547.1415000001798,Correct
18,118,435,B,62.58342998904142,39.97666007188061,3.1291714994520707,0.6279519079843827,B,724.5048999993742,Correct
18,118,436,B,56.360847482112995,39.52047704236106,2.8180423741056497,0.6207862017132278,B,528.1581999997798,Correct
18,118,437,A,57.2506712439938,74.03961208149711,2.8625335621996904,1.163011506949347,B,441.7563999995764,Incorrect
18,118,438,B,72.87122893875835,57.49040411127449,3.6435614469379174,0.9030571560394419,A,348.841199999697,Incorrect
18,118,439,A,46.94326880996882,62.11304543763737,2.347163440498441,0.9756694361948528,A,721.2742000001526,Correct
18,118,440,A,51.71500295882828,66.51949455591044,2.585750147941414,1.0448857770867725,A,273.3024999997724,Correct
18,118,441,A,34.455426188829804,61.24379150366361,1.72277130944149,0.9620152273294729,A,658.693299999868,Correct
18,118,442,A,49.79340884386256,81.08718791029459,2.4896704421931277,1.2737145691961829,B,447.3841999997603,Incorrect
18,118,443,B,63.137178911891496,40.94016678396131,3.156858945594575,0.6430866360261686,A,3327.388699999574,Incorrect
18,118,444,A,33.02661427479258,51.85174942376235,1.6513307137396287,0.8144853753273529,A,210.19339999929798,Correct
18,118,445,B,44.576546475930925,28.037390238797066,2.228827323796546,0.44041029600017517,A,236.68300000008458,Incorrect
18,118,446,A,23.857358696495336,44.69214578693134,1.1928679348247668,0.7020225843869377,B,254.63200000012876,Incorrect
18,118,447,A,52.08741776475814,65.66795503108266,2.604370888237907,1.031509825509571,A,295.21629999999277,Correct
18,118,448,A,19.701541908264943,42.93784183436987,0.9850770954132472,0.6744660423392843,A,268.9903000000413,Correct
18,118,449,A,24.582872261928042,44.54399434025428,1.2291436130964022,0.6996954269044409,A,256.88759999957256,Correct
18,118,450,A,55.220958541861776,67.05108292548402,2.7610479270930885,1.053235947669703,A,358.1187999998292,Correct
18,118,451,B,46.89369327961188,37.96031929639699,2.344684663980594,0.5962793011474183,A,471.77239999928133,Incorrect
18,118,452,A,50.45925539331581,67.44656844476745,2.5229627696657904,1.059448219679613,A,290.30800000055024,Correct
18,118,453,A,22.952287802075183,34.48803263404103,1.147614390103759,0.5417367497993417,A,593.5033000005205,Correct
18,118,454,A,19.282933472084476,34.41373771350338,0.9641466736042239,0.5405697279165411,A,416.68339999978343,Correct
18,118,455,B,48.13068194551364,40.609214848748046,2.406534097275682,0.637888055184382,A,345.53779999987455,Incorrect
18,118,456,A,13.389844689985328,30.293506264580483,0.6694922344992663,0.475849283661412,A,556.307800000468,Correct
18,118,457,A,36.8924602547851,53.9467088989785,1.844623012739255,0.8473929218118899,B,836.5999999996347,Incorrect
18,118,458,A,15.919025837679271,41.62610020632024,0.7959512918839635,0.6538612530288412,A,576.4728999993167,Correct
18,118,459,A,50.9005134256969,81.87370140952605,2.545025671284845,1.2860690943518567,B,710.0144999994882,Incorrect
18,118,460,B,80.03602986921129,51.84163530707485,4.001801493460564,0.814326503153938,A,187.5435000001744,Incorrect
18,118,461,B,33.32245229581233,18.140285512271703,1.6661226147906165,0.2849469384968707,B,226.47059999962948,Correct
18,118,462,A,67.45139340861198,83.6722565622721,3.372569670430599,1.314320732626572,B,644.9646000000939,Incorrect
18,118,463,B,51.24606374601506,28.634758158521166,2.5623031873007527,0.4497937293406524,A,91.05169999929785,Incorrect
18,118,464,A,61.657040058746,75.37180688742316,3.0828520029372997,1.1839375740265856,B,257.126800000151,Incorrect
18,118,465,B,65.04699337095849,53.7645772952099,3.2523496685479243,0.84453200526996,A,830.3664000004574,Incorrect
18,118,466,A,28.62195669775868,59.96071961437885,1.431097834887934,0.9418607812224502,A,532.7229000004081,Correct
18,118,467,A,34.468487978158805,50.51355979699996,1.7234243989079403,0.7934651418246189,A,337.7209000000221,Correct
18,118,468,A,64.28956122062954,83.67329725213617,3.214478061031477,1.3143370797447298,A,357.0514999992156,Correct
18,118,469,A,50.92226581574943,73.14242373524192,2.5461132907874715,1.1489185053619386,A,259.1089000006832,Correct
18,118,470,A,37.73064867311474,45.35280265280916,1.886532433655737,0.7124001581688647,A,433.76850000004197,Correct
18,118,471,B,77.53607718380458,55.95060474237548,3.876803859190229,0.8788700441127655,B,384.9534000000858,Correct
18,118,472,A,50.099594546753394,73.45030635634637,2.5049797273376697,1.1537547142650872,B,264.96549999956187,Incorrect
18,118,473,B,78.24040055676468,56.086671753536756,3.9120200278382344,0.8810073797260661,A,3184.960599999613,Incorrect
18,118,474,B,48.435371382044856,33.85132340418187,2.421768569102243,0.5317353446043499,B,34.65520000008837,Correct
18,118,475,B,44.073712626429085,25.638351651090737,2.2036856313214543,0.40272628598609195,B,327.9325000003155,Correct
18,118,476,A,22.341633365726675,38.74675243688111,1.1170816682863338,0.6086325640308405,B,370.685500000036,Incorrect
18,118,477,A,47.3385617043792,75.13731530049087,2.36692808521896,1.1802541887924105,A,628.0707999994775,Correct
18,118,478,B,42.35613021093636,26.037948244317906,2.117806510546818,0.40900313459450194,B,335.94110000012734,Correct
18,118,479,A,37.13275483527673,59.37487916170938,1.8566377417638364,0.9326584209110393,A,3255.9344000001147,Correct
18,118,480,A,17.64043353542603,31.812551210108584,0.8820216767713015,0.49971038586813105,B,252.13170000006357,Incorrect
18,118,481,B,48.519780885037015,22.26587575095082,2.425989044251851,0.34975155842465105,A,247.45859999984532,Incorrect
18,118,482,A,48.62423562989569,74.3154305567843,2.4312117814947847,1.16734405342778,A,239.20109999926353,Correct
18,118,483,B,85.64492829105677,68.38470383783063,4.282246414552839,1.0741844159742122,A,274.77859999999055,Incorrect
18,118,484,B,39.08116627904311,22.376733870073252,1.9540583139521557,0.3514929136877802,A,293.0083999999624,Incorrect
18,118,485,B,74.56187123532527,61.876229204552146,3.7280935617662636,0.9719495355042963,A,210.80940000047121,Incorrect
18,118,486,A,33.59114831556036,63.40303716888351,1.679557415778018,0.995932578925225,B,345.7441000000472,Incorrect
18,118,487,B,69.39331463956577,47.73393805701818,3.469665731978289,0.7498029456341927,A,253.61470000007102,Incorrect
18,118,488,B,46.79418599463227,23.8141243096821,2.339709299731614,0.3740713899148569,A,419.98160000002827,Incorrect
18,118,489,B,33.37559499466796,12.776590940064711,1.668779749733398,0.20069422117614602,A,453.92850000007456,Incorrect
18,118,490,A,44.44397249473179,69.38929996515581,2.2221986247365892,1.08996457504136,B,215.27809999952296,Incorrect
18,118,491,A,60.60438966420011,76.05854903210198,3.0302194832100056,1.1947248944097533,B,3031.2753999996858,Incorrect
18,118,492,B,72.53182987156767,54.21820461046463,3.626591493578383,0.8516575664753196,B,267.4797999998191,Correct
18,118,493,B,63.47243582948269,47.31197623986809,3.173621791474135,0.7431747849099222,B,322.1146999994744,Correct
18,118,494,A,33.374595728025895,62.152165322463205,1.6687297864012947,0.9762839299087435,B,303.671800000302,Incorrect
18,118,495,A,52.79703392214316,61.15196397446971,2.639851696107158,0.9605728038739086,B,409.8682000003464,Incorrect
18,118,496,A,65.39409006623285,79.53546818138801,3.269704503311642,1.2493402126923667,A,293.7336000004507,Correct
18,118,497,B,64.45411639877162,40.62676369187794,3.2227058199385805,0.6381637117676614,A,4311.67749999986,Incorrect
18,118,498,B,59.390065111117046,52.06624258134316,2.969503255555852,0.8178546259678586,B,311.7496000004394,Correct
18,118,499,B,66.8557655080456,45.51789054015527,3.3427882754022793,0.7149933526392807,A,211.86570000008942,Incorrect
18,118,500,B,74.10177079648251,45.87080304377382,3.705088539824126,0.7205368892829208,B,3011.858200000461,Correct
18,118,501,A,63.047048403748036,80.02787443924315,3.152352420187402,1.2570749121036633,B,389.0033999996376,Incorrect
18,118,502,A,49.028448895723656,71.33332253042694,2.451422444786183,1.1205012100887026,A,215.2194000000236,Correct
18,118,503,B,34.13744711095286,11.856147439786074,1.706872355547643,0.1862359284835468,A,58.557500000461005,Incorrect
18,118,504,B,71.54310825972173,54.329542294145575,3.577155412986087,0.8534064547209185,B,308.77570000029664,Correct
18,118,505,B,66.4948893559705,34.40837535078094,3.3247444677985247,0.5404854961198676,B,285.37950000009005,Correct
18,118,506,A,39.00686082164544,58.658520456288635,1.950343041082272,0.9214058846796149,A,531.1375000001135,Correct
18,118,507,A,38.09203397936993,69.88278756932705,1.9046016989684966,1.0977162602008699,A,419.98419999981706,Correct
18,118,508,A,54.381371947549056,79.57301225518421,2.7190685973774524,1.2499299536244863,B,481.8177999995896,Incorrect
18,118,509,B,69.71569120835252,42.64121297989304,3.485784560417626,0.6698066071889486,A,388.5590999998385,Incorrect
18,118,510,A,42.48865068998964,52.5870421962994,2.124432534499482,0.8260353271895534,A,642.1116000001348,Correct
18,118,511,A,51.595575693627154,68.387453916611,2.579778784681358,1.0742276141106781,A,308.32509999981994,Correct
18,118,512,B,36.84494307626228,18.10338003202747,1.842247153813114,0.28436722856880825,A,506.96789999983594,Incorrect
18,118,513,B,38.40668358479867,15.646029357407894,1.9203341792399333,0.24576725443541436,B,686.3307999992685,Correct
18,118,514,B,74.40795175313713,52.72352833248313,3.7203975876568562,0.8281792464033115,A,225.87659999953758,Incorrect
18,118,515,B,42.52332736138666,22.265370854884143,2.1261663680693332,0.3497436275357816,B,232.84000000057858,Correct
18,118,516,B,42.102569074679806,17.519795712765042,2.1051284537339905,0.27520030751808305,B,224.76220000044123,Correct
18,118,517,A,55.96914297325789,83.46788350899857,2.7984571486628944,1.3111104482127929,B,85.23210000021209,Incorrect
18,118,518,A,20.61147637690782,47.8895401647306,1.030573818845391,0.7522471378265548,A,460.4120000003604,Correct
18,118,519,B,68.0960519623919,46.88906135037744,3.4048025981195953,0.7365316533603343,A,347.364799999923,Incorrect
18,118,520,B,86.86435805759658,64.25760452478627,4.343217902879829,1.0093560915617341,B,172.1943000002284,Correct
18,118,521,A,37.582056060206924,60.41637457996327,1.8791028030103463,0.9490181926847086,A,264.3406999995932,Correct
18,118,522,A,16.75382251312676,31.67924055177456,0.8376911256563381,0.49761634694379403,A,234.8533000003954,Correct
18,118,523,B,57.66869067619232,44.09684294832079,2.883434533809616,0.6926715892647374,A,209.20579999983602,Incorrect
18,118,524,A,25.059716171720666,47.15500880090816,1.2529858085860333,0.7407091461444757,B,203.41689999986556,Incorrect
18,118,525,B,38.51396065606651,28.099092507129058,1.9256980328033253,0.44137951296468325,A,3179.403099999945,Incorrect
18,118,526,B,69.68568234308539,49.44460002736108,3.484284117154269,0.7766739610282165,B,291.7454999997062,Correct
18,118,527,B,82.19814879356969,61.179171602300514,4.109907439678484,0.9610001802924828,B,372.83709999974235,Correct
18,118,528,B,65.36389103804943,55.256364012004326,3.2681945519024715,0.867964936220981,B,408.4308000001329,Correct
18,118,529,B,54.16019799722606,23.164406162081857,2.708009899861303,0.36386564111783243,A,222.82209999957558,Incorrect
18,118,530,A,33.22251506831235,47.926839874894675,1.6611257534156174,0.7528330403037173,B,36.865799999759474,Incorrect
18,118,531,A,41.50177502314063,68.75649467754886,2.0750887511570313,1.080024492827866,A,229.18970000046102,Correct
18,118,532,B,74.93017516199549,57.11599052048843,3.746508758099775,0.8971758811083537,B,242.9984999998851,Correct
18,118,533,B,35.42702329024047,12.383846368074014,1.7713511645120235,0.19452500386562982,A,232.23929999949178,Incorrect
18,118,534,B,63.8235160282252,33.21733984980669,3.19117580141126,0.5217767542197409,B,214.05379999941943,Correct
18,118,535,A,33.978241205312194,51.36855389180743,1.6989120602656098,0.806895357660168,A,237.5147000002471,Correct
18,118,536,A,31.700581328959792,50.164648430182055,1.5850290664479898,0.7879844548908734,B,2909.516900000199,Incorrect
18,118,537,B,43.10391085969749,23.650978934520527,2.155195542984875,0.3715087083544832,A,2568.84380000065,Incorrect
18,118,538,A,22.53003921942304,52.56641281154229,1.1265019609711517,0.8257112815715483,B,261.0218999998324,Incorrect
18,118,539,A,36.43502120201916,69.02462200850782,1.8217510601009579,1.0842362270937025,A,246.66100000013103,Correct
18,118,540,A,29.758964109655096,46.91503344561425,1.4879482054827549,0.7369396220783058,A,248.601499999495,Correct
18,118,541,B,54.90013733966744,40.40204166094282,2.745006866983372,0.6346337863602336,A,212.4945999994452,Incorrect
18,118,542,A,24.09347649524498,36.551965971090844,1.2046738247622488,0.5741569388452156,A,241.7479000005187,Correct
18,118,543,B,39.46475603202278,26.8244292261195,1.9732378016011387,0.42135714896758175,B,446.73190000048635,Correct
18,118,544,B,48.120311213455004,41.20029706090707,2.4060155606727505,0.6471727528613138,B,312.37139999939245,Correct
18,118,545,A,44.74488804568925,63.466239976750856,2.2372444022844626,0.9969253663096366,A,358.23309999977937,Correct
18,118,546,B,78.86251663823981,52.263482213318184,3.9431258319119906,0.8209528588619062,B,625.8167000005415,Correct
18,118,547,A,32.65667801284849,60.76382999923045,1.6328339006424244,0.9544760096478073,B,861.7010999996637,Incorrect
18,118,548,A,20.75996372064876,47.226566780666616,1.0379981860324379,0.7418331762620501,A,752.7460999999676,Correct
18,118,549,B,41.22203913018259,26.96869360832043,2.0611019565091295,0.42362324858406736,A,324.0531000001283,Incorrect
