subject,day,trial,cat,x,y,xt,yt,resp,rt,fb
10,210,0,B,49.22534860137087,21.26273951590425,2.4612674300685433,0.33399433129179096,B,586.5570000005391,Correct
10,210,1,B,50.589392356639834,30.90374390372228,2.529469617831992,0.4854348740817714,B,629.3901999997615,Correct
10,210,2,B,65.37922512718512,54.694440172312696,3.268961256359256,0.8591382571877202,A,8129.31320000007,Incorrect
10,210,3,B,58.96964833904767,36.86922534203947,2.9484824169523836,0.579140437390489,B,517.9826000003231,Correct
10,210,4,A,31.359384848180028,43.821255244834504,1.5679692424090013,0.6883426677412763,A,718.5598999994909,Correct
10,210,5,B,86.48444125736098,63.62766360109404,4.324222062868049,0.9994610026713986,B,713.880600000266,Correct
10,210,6,B,59.72688375230438,41.60867528751586,2.986344187615219,0.653587543044315,B,634.760500000084,Correct
10,210,7,B,51.04128836300545,28.99659088425254,2.5520644181502723,0.4554773845055827,B,577.9162999997425,Correct
10,210,8,B,89.5236151718815,67.18828253654958,4.476180758594075,1.0553910741206978,A,680.5629999998928,Incorrect
10,210,9,A,47.352944388267,79.16718581218281,2.36764721941335,1.2435552467646578,A,543.5292000001937,Correct
10,210,10,B,50.65156636418206,41.62158052282645,2.532578318209103,0.653790258006538,B,712.9058000000441,Correct
10,210,11,B,69.85861399715654,57.850909884231925,3.492930699857827,0.9087199674789408,B,769.470199999887,Correct
10,210,12,A,32.76150002783907,58.27196494095347,1.6380750013919536,0.9153338848437071,A,652.7804000006654,Correct
10,210,13,B,59.99405248928288,50.242669482909946,2.9997026244641436,0.78921000672125,B,539.9704000001293,Correct
10,210,14,A,34.180514189026624,46.193830011710105,1.709025709451331,0.7256109850298208,B,499.45819999993546,Incorrect
10,210,15,B,41.30518889023712,20.76463113784087,2.065259444511856,0.32617006318571373,B,490.6152000003203,Correct
10,210,16,B,43.80471521872978,22.64421104911039,2.190235760936489,0.35569443539111006,B,467.76709999994637,Correct
10,210,17,A,63.29952582580722,88.81756572868568,3.164976291290361,1.3951430600148376,A,588.3176000006642,Correct
10,210,18,A,43.10122113164439,57.36571844788719,2.1550610565822192,0.9010985982189144,A,509.9947000007887,Correct
10,210,19,A,14.625004410688234,33.06819437577938,0.7312502205344117,0.519433982592139,A,598.5759000004691,Correct
10,210,20,B,53.41447961245801,44.589485768688064,2.670723980622901,0.7004100045912853,B,598.0172999998103,Correct
10,210,21,A,34.660456127856136,67.90186395059577,1.733022806392807,1.0665999847612264,A,745.6357999999454,Correct
10,210,22,A,12.374498272316803,39.35168918250268,0.6187249136158401,0.6181348882104968,A,511.7409000004045,Correct
10,210,23,A,14.819645039085415,40.75731799255631,0.7409822519542708,0.6402144539271899,A,474.235900000167,Correct
10,210,24,B,53.52266297709733,40.48878980767959,2.6761331488548668,0.6359964230627374,B,476.75989999970625,Correct
10,210,25,B,61.02508643769878,40.81570157917682,3.051254321884939,0.641131541161276,B,553.7076000000525,Correct
10,210,26,B,66.76326935403165,40.0028955649119,3.3381634677015826,0.6283640141452348,B,442.82050000038,Correct
10,210,27,B,82.66772634411157,54.277554243947534,4.133386317205578,0.8525898283380354,A,745.4803999999058,Incorrect
10,210,28,A,36.18436733619685,51.893974211769645,1.8092183668098425,0.8151486407463685,A,516.5029999998296,Correct
10,210,29,A,29.40928969241545,49.345761876633496,1.4704644846207726,0.7751214149871154,A,589.8627000005945,Correct
10,210,30,A,20.210789527595345,47.93210371969914,1.0105394763797673,0.752915724584554,A,495.29830000028596,Correct
10,210,31,B,80.56724276476034,67.46005007618928,4.028362138238017,1.059659988650779,A,532.8472999999576,Incorrect
10,210,32,B,56.20521950585749,24.127741880709046,2.810260975292875,0.3789976832007316,B,400.1515999998446,Correct
10,210,33,A,62.00615431635583,83.62171113645562,3.1003077158177916,1.313526766934484,A,532.038499999544,Correct
10,210,34,B,41.48128469067075,31.747136699940235,2.0740642345335374,0.49868285714521576,B,583.9317999998457,Correct
10,210,35,B,71.27738929078038,59.2552217628008,3.5638694645390188,0.9307788468842451,B,564.3751999996311,Correct
10,210,36,A,42.104752589034085,57.79849376280552,2.1052376294517043,0.9078966169689265,A,1330.1609999998618,Correct
10,210,37,A,22.199635209596458,47.37418396175242,1.109981760479823,0.7441519415202641,A,525.4675999995015,Correct
10,210,38,A,54.55972426300905,68.94252652809779,2.7279862131504524,1.082946674302957,B,1059.6093000003748,Incorrect
10,210,39,A,58.40177866247602,67.43052678598549,2.920088933123801,1.059196237892709,A,769.3877000001521,Correct
10,210,40,B,84.70885796095021,62.539496103723884,4.235442898047511,0.9823681075933323,B,557.5825999994777,Correct
10,210,41,B,39.319733493954864,17.37717723847465,1.965986674697743,0.2729600617625986,B,448.6106000003929,Correct
10,210,42,A,24.00590204706645,38.92577004698551,1.2002951023533226,0.6114445660746765,A,626.5767000004416,Correct
10,210,43,B,56.71710247824923,27.274990540056503,2.835855123912461,0.4284345495368631,B,495.5536999996184,Correct
10,210,44,B,80.53307835828511,64.56763948345048,4.026653917914256,1.0142261093042115,B,588.5303000004569,Correct
10,210,45,A,26.437489469310904,40.306327362714605,1.321874473465545,0.6331303096794474,A,558.7593000000197,Correct
10,210,46,B,55.399185916213995,31.150797072544442,2.7699592958106996,0.4893155761828603,B,497.80680000003485,Correct
10,210,47,A,13.705059575658264,38.97441150031992,0.6852529787829132,0.612208624236953,A,637.1600000002218,Correct
10,210,48,B,33.55910034039893,20.595065254632903,1.6779550170199462,0.32350652852078565,B,425.83770000055665,Correct
10,210,49,A,40.00379537600218,55.326056806256865,2.000189768800109,0.8690596680731407,A,452.342999999928,Correct
10,210,50,B,34.567547327856644,13.58896166630987,1.7283773663928321,0.21345491070396203,B,396.6259999997419,Correct
10,210,51,B,84.26735528337069,69.41200766817374,4.2133677641685345,1.0903212668062652,B,952.4655000004714,Correct
10,210,52,B,84.76678658032186,58.40587537223675,4.238339329016093,0.9174373449795,B,1521.3497999993706,Correct
10,210,53,A,49.20386036431092,66.42290993826272,2.460193018215546,1.0433686294605131,B,678.9112000005844,Incorrect
10,210,54,A,34.48251682658658,48.914604634210384,1.7241258413293292,0.7683488128604229,B,347.05980000035197,Incorrect
10,210,55,B,73.87693693573172,55.00218811604038,3.693846846786586,0.8639723505835815,B,595.3423999999359,Correct
10,210,56,A,52.40902762793595,80.68820327568511,2.6204513813967973,1.267447333211261,A,974.6543999999631,Correct
10,210,57,A,44.3626619270181,66.3953065386757,2.2181330963509054,1.0429350362737295,A,891.9171999996252,Correct
10,210,58,A,22.719045823004553,34.838220194127146,1.1359522911502276,0.5472374831300671,A,621.3296999994782,Correct
10,210,59,A,34.877150636259515,51.28039534198828,1.7438575318129756,0.8055105663978532,A,550.9801999996853,Correct
10,210,60,A,19.99512992934082,41.86627948221155,0.999756496467041,0.6576339802722646,A,531.7201999996541,Correct
10,210,61,B,51.72340890901695,20.755344454741685,2.5861704454508474,0.32602418830871066,B,576.4226000001145,Correct
10,210,62,A,64.81851038754185,80.68218126498496,3.2409255193770923,1.267352739688384,A,523.1814000007944,Correct
10,210,63,A,48.19022470440763,78.10793910815946,2.4095112352203816,1.2269166384461632,A,504.1872000001604,Correct
10,210,64,A,43.55430144656983,64.54099572247638,2.1777150723284917,1.0138075900855104,A,1069.7368000001006,Correct
10,210,65,A,49.64707183149332,74.5688955678425,2.482353591574666,1.1713254725111926,A,493.1885999994847,Correct
10,210,66,B,55.46407163210279,32.25722215647963,2.7732035816051392,0.5066952607600516,B,617.3418999997011,Correct
10,210,67,B,57.9119673786158,36.21228719692375,2.89559836893079,0.5688212771376968,B,428.95429999953194,Correct
10,210,68,A,15.340297631150921,33.250470349850445,0.767014881557546,0.5222971668974771,A,531.0283000007985,Correct
10,210,69,B,47.54000116205637,19.87327388268776,2.3770000581028183,0.31216865616314887,B,635.8903999998802,Correct
10,210,70,B,43.423841817347075,18.300264222874347,2.1711920908673537,0.28745987820667085,B,571.8784000000596,Correct
10,210,71,B,44.86310723798416,33.03891055682779,2.243155361899208,0.5189739934397022,B,686.1341000003449,Correct
10,210,72,B,84.196592722845,63.348502034841665,4.20982963614225,0.9950759430428832,A,525.5870000000868,Incorrect
10,210,73,A,30.47432497295037,53.92097657499339,1.5237162486475184,0.8469887194119328,A,600.3749999999854,Correct
10,210,74,B,43.155830729859446,18.82821401632742,2.1577915364929723,0.2957528941695529,B,491.1243000005925,Correct
10,210,75,A,26.07702836929146,41.88378999886849,1.303851418464573,0.6579090348247144,A,562.3281999996834,Correct
10,210,76,B,45.80963969090796,18.963061325823144,2.290481984545398,0.2978710707538936,B,392.4301999995805,Correct
10,210,77,A,28.914688787184616,48.65668491860458,1.4457344393592308,0.7642974194416072,A,576.9743999999264,Correct
10,210,78,A,65.06994156634799,75.46987969258379,3.2534970783174,1.1854780980476336,A,769.5509000004677,Correct
10,210,79,B,50.62010250232214,26.590753016965056,2.531005125116107,0.4176865716575903,B,480.1780999996481,Correct
10,210,80,B,82.98459478734188,66.31924200952376,4.149229739367094,1.0417402174438173,B,1232.7759999998307,Correct
10,210,81,B,46.64551316733087,18.54680912456186,2.3322756583665436,0.29133259646627846,B,455.6585999998788,Correct
10,210,82,B,85.3622826823125,56.05801920785875,4.268114134115625,0.8805573065910227,B,651.827400000002,Correct
10,210,83,A,26.510836711120476,46.09113569644664,1.3255418355560238,0.7239978664978353,A,602.4550000001909,Correct
10,210,84,A,23.856730665857025,47.48627917820551,1.1928365332928512,0.7459127290628219,A,447.7186000003712,Correct
10,210,85,A,56.998402651930604,74.42162035391925,2.8499201325965307,1.1690120788606067,A,731.8799999993644,Correct
10,210,86,A,46.84174841621234,78.6642573275479,2.342087420810617,1.2356552646016077,A,562.2463999998217,Correct
10,210,87,B,83.99102811776149,64.17677734550371,4.199551405888075,1.0080864611985116,A,465.4232000002594,Incorrect
10,210,88,A,63.77742681914787,82.25738432581721,3.188871340957393,1.2920959715074978,A,517.8906000001007,Correct
10,210,89,B,80.90874198702315,49.56126686985071,4.045437099351158,0.7785065595046311,B,524.5058999998946,Correct
10,210,90,A,31.575292367602742,41.52464981362255,1.5787646183801372,0.652267673986827,A,636.4898000001631,Correct
10,210,91,B,87.69409296999103,64.1312926034544,4.384704648499552,1.0073719885411487,B,1330.5999999993219,Correct
10,210,92,B,75.99027312036475,60.871400677863086,3.799513656018237,0.9561657259164772,B,575.8703999999852,Correct
10,210,93,B,47.24391421779339,17.984700701095786,2.3621957108896696,0.28250301799786864,B,540.3026000003592,Correct
10,210,94,A,17.797482313650974,47.70427658072623,0.8898741156825487,0.7493370242541256,A,620.2978999999686,Correct
10,210,95,A,34.58536626340406,48.7817895838665,1.7292683131702031,0.7662625589281905,B,641.3041000005251,Incorrect
10,210,96,A,41.79777853548344,68.19616397259685,2.089888926774172,1.0712228386965759,A,568.1941000002553,Correct
10,210,97,B,83.5048441190892,56.61781721563525,4.17524220595446,0.8893505931346469,B,582.8466000002663,Correct
10,210,98,A,31.01096290127117,56.62204430230875,1.5505481450635585,0.8894169920568448,A,506.1869999999544,Correct
10,210,99,B,35.71467081712466,11.822509551729162,1.7857335408562331,0.18570754577353749,B,817.9043000000092,Correct
10,210,100,A,20.26252296990957,46.329442999160925,1.0131261484954783,0.7277411888553551,A,544.843600000604,Correct
10,210,101,B,58.04587258969686,33.23635264233056,2.902293629484843,0.522075406466327,B,480.8198999999149,Correct
10,210,102,B,60.75871252183381,51.41725443800995,3.0379356260916905,0.8076603440510463,B,594.2317000008188,Correct
10,210,103,A,19.707476706988814,33.58243557721002,0.9853738353494407,0.5275116644950776,A,574.9448999995366,Correct
10,210,104,A,46.42090495251306,55.006610856008564,2.321045247625653,0.8640418228205452,B,455.2786999993259,Incorrect
10,210,105,A,47.63850969140199,75.22431929699836,2.3819254845700994,1.1816208443737148,A,575.8341000000655,Correct
10,210,106,B,39.268007717784656,19.37649514128761,1.9634003858892328,0.3043652739409374,B,443.1445000000167,Correct
10,210,107,A,43.09948597499674,70.22676851839863,2.154974298749837,1.1031195003137606,A,497.79690000013943,Correct
10,210,108,B,66.03696843121438,33.87593742401108,3.301848421560719,0.5321219807237038,B,479.6027000002141,Correct
10,210,109,A,59.08296179803864,79.66655050976023,2.954148089901932,1.2513992490915145,A,622.2533999998632,Correct
10,210,110,B,68.89896122796239,56.08733450285866,3.4449480613981196,0.8810177901680705,B,663.0269999996017,Correct
10,210,111,A,27.314703575796443,46.71411579097161,1.3657351787898222,0.7337836149392969,A,555.2237000001696,Correct
10,210,112,A,41.496833488855934,48.78997120331559,2.074841674442797,0.7663910755059691,B,647.3898999993253,Incorrect
10,210,113,A,19.5282308337756,44.14534337479485,0.9764115416887799,0.6934334321822717,A,462.8501999995933,Correct
10,210,114,B,57.310330965289346,28.45709703884001,2.8655165482644676,0.4470030349985582,B,462.86110000073677,Correct
10,210,115,B,50.68080866582986,28.529134427979706,2.534040433291493,0.4481345956610835,B,489.3835000002582,Correct
10,210,116,B,76.02994717463484,48.69323175295824,3.8014973587317424,0.7648714957731944,B,482.7501999998276,Correct
10,210,117,B,69.82431930461557,60.59225230722845,3.491215965230779,0.9517808735642405,B,545.956599999954,Correct
10,210,118,B,51.376616554157536,38.338762055948095,2.5688308277078766,0.6022238661134681,B,501.55269999959273,Correct
10,210,119,B,67.70828673261171,41.4717577907214,3.3854143366305856,0.651436848033928,B,555.0874999998996,Correct
10,210,120,A,48.38083001151079,59.5550944265416,2.4190415005755397,0.9354892356713478,A,627.1061999996164,Correct
10,210,121,A,40.34572104658098,63.627635268321406,2.017286052329049,0.9994605576212467,A,531.9385000002512,Correct
10,210,122,A,48.76390480984557,66.54471331620547,2.4381952404922784,1.04528191244715,A,513.7562999998408,Correct
10,210,123,A,40.721977811894234,70.05566490318392,2.0360988905947117,1.1004318110109546,A,528.9481999998316,Correct
10,210,124,A,14.656979583239167,39.05562348407396,0.7328489791619583,0.6134842990946787,A,596.2782999995397,Correct
10,210,125,A,56.29447100726114,81.9442421150036,2.8147235503630568,1.2871771451623932,A,762.6282999999603,Correct
10,210,126,A,57.36890075419518,70.51114716484383,2.8684450377097592,1.1075865096463107,B,768.4723000002123,Incorrect
10,210,127,A,21.12867887901439,51.590569341647345,1.0564339439507195,0.8103827681911705,A,628.89929999983,Correct
10,210,128,A,43.24580469111041,51.05848680153522,2.1622902345555204,0.8020248351955723,A,1285.1864000003843,Correct
10,210,129,B,47.47209671063136,37.49348726132561,2.373604835531568,0.5889463206882152,B,548.9242000003287,Correct
10,210,130,A,25.28905567416672,40.391223369195494,1.264452783708336,0.6344638530308447,A,561.0816999997041,Correct
10,210,131,B,62.33266665385312,43.01112994205254,3.116633332692656,0.6756172492427412,B,435.32820000018546,Correct
10,210,132,A,27.009429068195836,59.325726419956275,1.3504714534097917,0.9318863314490626,A,457.6704000000973,Correct
10,210,133,B,43.6288631376506,35.71692500945303,2.18144315688253,0.5610401460925759,B,446.63869999931194,Correct
10,210,134,B,68.06133084859727,35.27735344668304,3.403066542429863,0.55413537213095,B,520.8588000004966,Correct
10,210,135,A,53.60858297596493,71.50019157610436,2.6804291487982463,1.1231223829287615,A,582.9568999997718,Correct
10,210,136,A,28.08987422698301,40.48480620339129,1.4044937113491505,0.6359338487529027,A,641.752099999394,Correct
10,210,137,B,61.002733031793966,53.82841698386352,3.0501366515896984,0.8455347967543685,B,547.9261000000406,Correct
10,210,138,A,58.10763903650806,78.31708862196263,2.905381951825403,1.2302019513264926,A,504.35730000026524,Correct
10,210,139,A,47.51542831563001,77.14183660100927,2.3757714157815006,1.2117411357507746,A,498.89749999965716,Correct
10,210,140,A,52.951584271215985,76.89465066908596,2.647579213560799,1.2078583482117697,A,449.7676999999385,Correct
10,210,141,B,69.34136715826725,36.04212308171983,3.4670683579133623,0.5661483454665507,B,512.1748999999909,Correct
10,210,142,B,45.62168529036671,22.54070935294037,2.2810842645183356,0.35406863454950105,B,509.4220999999379,Correct
10,210,143,A,11.288303802893829,33.886690837747906,0.5644151901446914,0.5322908949516869,A,737.023799999406,Correct
10,210,144,B,55.47785646728569,35.57181517330422,2.7738928233642843,0.5587607661165325,B,586.6991000002599,Correct
10,210,145,B,54.31649882422539,36.75925565699348,2.7158249412112694,0.5774130376171988,B,1744.7752999996737,Correct
10,210,146,A,35.84151582697753,45.603089722652186,1.7920757913488763,0.7163316582684015,A,553.9388999995936,Correct
10,210,147,B,83.7569876192135,66.37257985261706,4.187849380960675,1.0425780463239185,A,608.563700000559,Incorrect
10,210,148,A,44.317303231656865,53.36065731181106,2.215865161582843,0.8381872450075406,B,411.0179999997854,Incorrect
10,210,149,B,65.75057223997851,38.48891633297093,3.2875286119989253,0.6045824839814683,B,501.53150000005553,Correct
10,210,150,B,35.29721347988455,11.802263581706686,1.7648606739942272,0.1853895228201004,B,526.9674000001032,Correct
10,210,151,A,35.33142613221218,50.199087742162554,1.766571306610609,0.7885254263384365,A,556.7614000001413,Correct
10,210,152,A,39.929519894387376,66.64049113325719,1.9964759947193687,1.0467863868792824,A,551.51079999996,Correct
10,210,153,A,43.59866759614477,54.94410827241248,2.1799333798072387,0.8630600345332662,A,586.0486999999921,Correct
10,210,154,B,40.2907164884877,26.551172919467138,2.014535824424385,0.41706484893995105,B,703.2657999998264,Correct
10,210,155,A,28.772211058972474,53.70829681511593,1.4386105529486235,0.8436479535559414,A,498.87029999990773,Correct
10,210,156,A,59.78158663106959,75.13237205697753,2.989079331553479,1.1801765405048783,A,565.1325999997425,Correct
10,210,157,A,19.40276825916011,41.50807577163444,0.9701384129580055,0.6520073295440763,A,561.262700000043,Correct
10,210,158,B,75.83726963386086,54.229588968780654,3.7918634816930425,0.851836391557577,B,983.9071000005788,Correct
10,210,159,A,35.682758806530266,60.68019923572797,1.7841379403265134,0.9531623406866399,A,475.782600000457,Correct
10,210,160,B,72.82183799640742,57.07819880361877,3.6410918998203714,0.8965822502079323,B,547.7864000004047,Correct
10,210,161,B,44.05245834626861,30.50836441924098,2.2026229173134304,0.47922426766263854,B,549.4494999993549,Correct
10,210,162,A,26.29934311164088,39.448952805506174,1.3149671555820441,0.6196627016279432,A,577.0732999999382,Correct
10,210,163,A,34.254477579608476,55.88561215509657,1.7127238789804238,0.8778491429390992,A,719.4321000006312,Correct
10,210,164,B,77.74722910370232,53.2033767300795,3.8873614551851166,0.8357166874069395,B,720.8428999992975,Correct
10,210,165,B,43.52566141553231,24.892999106242144,2.1762830707766154,0.391018315589938,B,403.6120999999184,Correct
10,210,166,B,78.33697775748605,63.124589954610656,3.916848887874303,0.9915587403113645,A,1188.737399999809,Incorrect
10,210,167,A,25.194377111093424,55.60665539548357,1.259718855554671,0.873467300405752,A,747.1106999992116,Correct
10,210,168,B,89.561474302578,66.69420606526849,4.4780737151289,1.0476301390582565,B,506.27870000062103,Correct
10,210,169,A,56.051135857267425,69.59256109740264,2.802556792863371,1.0931573934404948,B,719.5535999999265,Incorrect
10,210,170,B,63.74803758243186,48.94401253642741,3.187401879121593,0.7688107511082354,B,409.4887999999628,Correct
10,210,171,A,55.849860657167255,81.40316967838778,2.7924930328583626,1.2786779992027322,A,642.6249000005555,Correct
10,210,172,B,62.48258174384371,40.373213130556,3.1241290871921854,0.6341809488638486,B,501.9787000001088,Correct
10,210,173,B,68.4150580480958,46.030351787866756,3.4207529024047902,0.72304307509458,B,479.91669999919395,Correct
10,210,174,B,72.66143796393327,54.21420665836569,3.6330718981966634,0.8515947667906025,B,534.5383000003494,Correct
10,210,175,A,28.201560317763278,58.43871592426597,1.4100780158881638,0.9179532031644742,A,523.4972999996899,Correct
10,210,176,B,66.29938288170207,35.87342776936689,3.3149691440851035,0.5634984856966356,B,721.3144999996075,Correct
10,210,177,B,57.6853707095457,29.639395121016925,2.8842685354772852,0.4655745298451597,B,459.54819999951724,Correct
10,210,178,B,83.25549740702462,56.25727420184988,4.162774870351231,0.883687196717591,B,730.7259999997768,Correct
10,210,179,A,31.712994398152656,42.046194700260514,1.5856497199076327,0.6604600819087226,A,641.6264000008596,Correct
10,210,180,A,57.646100375741014,74.27813064836837,2.8823050187870507,1.1667581478364848,A,579.2960999997376,Correct
10,210,181,A,34.01228386263403,42.419989935935305,1.7006141931317016,0.6663316437404366,A,851.0648000001311,Correct
10,210,182,B,55.731519655076006,45.6503535893254,2.7865759827538006,0.7170740773500056,B,595.100900000034,Correct
10,210,183,A,33.433631749079275,52.921226471845635,1.6716815874539637,0.8312846815145597,A,589.8785999997926,Correct
10,210,184,A,23.055324705061985,35.967648486188054,1.1527662352530994,0.5649785012555422,A,717.3273999997036,Correct
10,210,185,A,32.53454069604816,64.74825313503379,1.626727034802408,1.0170631819089722,A,560.3918999995585,Correct
10,210,186,B,66.54661524908704,49.34580309758383,3.327330762454352,0.7751220624842889,B,571.9894999992903,Correct
10,210,187,A,39.78367444097269,71.0348605441225,1.9891837220486344,1.1158129801709533,A,513.8052000002062,Correct
10,210,188,B,61.00387705438644,52.140202302985756,3.050193852719322,0.8190163825587283,A,667.4456000000646,Incorrect
10,210,189,B,55.46208571122341,46.11994794306783,2.7731042855611703,0.7244504482094279,B,360.7059999994817,Correct
10,210,190,A,47.05508248478754,75.38448486588439,2.352754124239377,1.1841367192465666,A,468.0378999992172,Correct
10,210,191,A,37.59828688149131,50.4129761826812,1.8799143440745656,0.7918851781055423,B,538.6830000006739,Incorrect
10,210,192,B,82.61863979640741,52.307827428829185,4.130931989820371,0.8216494318782622,B,376.7982999997912,Correct
10,210,193,B,49.01863966174302,42.04924961174838,2.450931983087151,0.6605080683461608,A,651.003099999798,Incorrect
10,210,194,A,36.85872726579208,56.073632525216304,1.842936363289604,0.8808025600065662,A,590.8612000002904,Correct
10,210,195,A,43.005876949853494,53.082635926716,2.1502938474926747,0.833820095302763,B,628.6543999995047,Incorrect
10,210,196,A,10.422775249029655,35.29611489380621,0.5211387624514827,0.5544300762532143,A,627.3112999997466,Correct
10,210,197,B,34.87740031341415,23.21032685537005,1.7438700156707074,0.36458696168124216,B,550.9124000000156,Correct
10,210,198,B,66.3742902493225,36.47235882675349,3.3187145124661246,0.5729064727460981,B,525.8564000005208,Correct
10,210,199,A,25.483812789784466,49.83154125594591,1.2741906394892233,0.7827520196336819,A,528.3485999998447,Correct
10,210,200,A,39.52605748018139,53.565839017684986,1.9763028740090698,0.8414102317066633,A,560.0628000001961,Correct
10,210,201,A,18.395328041600536,41.61076510660965,0.9197664020800268,0.6536203698458769,A,485.90280000007624,Correct
10,210,202,A,63.021898460929705,83.46954136132663,3.1510949230464855,1.3111364896962656,A,778.5960999999588,Correct
10,210,203,B,70.20996121987521,57.38895058447443,3.5104980609937604,0.9014635277670627,A,512.4134999996386,Incorrect
10,210,204,A,21.836699935191387,46.07776712239348,1.0918349967595693,0.7237878734276633,A,600.408299999799,Correct
10,210,205,B,34.477058417815186,12.762419606521028,1.7238529208907594,0.200471618389384,B,751.6292000000249,Correct
10,210,206,A,64.27181133128599,86.01045742263045,3.2135905665643,1.3510491058541676,A,543.3615000001737,Correct
10,210,207,B,42.94362359929154,26.558057183439146,2.147181179964577,0.4171729867055503,B,462.80360000037035,Correct
10,210,208,B,39.59046199934012,19.002499759328767,1.979523099967006,0.29849056821874537,B,578.42890000029,Correct
10,210,209,B,81.7395396849661,53.389304423681494,4.086976984248305,0.8386372327885342,A,594.449799999893,Incorrect
10,210,210,A,52.97725837652952,82.70816745826986,2.6488629188264756,1.2991768563938746,A,456.7999000000782,Correct
10,210,211,B,59.079257638108345,30.855792002192267,2.9539628819054173,0.48468164737390956,B,513.9140000001134,Correct
10,210,212,A,10.751792911653148,36.364692930636004,0.5375896455826574,0.5712152608046738,A,509.55100000010134,Correct
10,210,213,A,37.57831036094939,50.37345514497234,1.8789155180474695,0.7912643830969003,B,745.1553000000786,Incorrect
10,210,214,A,53.209676143128526,68.43742763547426,2.6604838071564263,1.0750125994509452,B,652.7217000002565,Incorrect
10,210,215,B,44.69110412543565,32.73104240057793,2.2345552062717826,0.5141380117499582,B,491.95610000060697,Correct
10,210,216,A,57.33077460697076,69.30415903805238,2.866538730348538,1.0886271844858202,A,755.095500000607,Correct
10,210,217,A,45.91134165809218,53.97836302583154,2.2955670829046086,0.8478901436737764,A,576.1101999996754,Correct
10,210,218,A,38.86808401413492,59.70153134238317,1.943404200706746,0.9377894613664588,A,691.4234999994733,Correct
10,210,219,B,46.048574887938,17.15742711566866,2.3024287443969,0.2695082349054349,B,491.71260000002803,Correct
10,210,220,A,40.22176764932585,72.76554742600278,2.0110883824662924,1.14299854613985,A,507.7382999998008,Correct
10,210,221,A,64.18039168843129,78.9809927889877,3.2090195844215645,1.2406305335955612,A,593.8144000001557,Correct
10,210,222,A,33.12085747923596,52.17453966550914,1.6560428739617978,0.8195557525879639,A,615.3618999996979,Correct
10,210,223,A,43.63845456774366,54.63207306144988,2.1819227283871827,0.8581585969011589,A,578.6836999996012,Correct
10,210,224,B,65.59669113378267,34.86597541584098,3.279834556689133,0.5476734611332417,B,542.833999999857,Correct
10,210,225,A,24.554060312710078,42.608890894233085,1.227703015635504,0.6692988930546584,A,499.54499999967084,Correct
10,210,226,B,49.82081845938072,40.468749208749074,2.491040922969036,0.6356816260708693,A,779.0286999997988,Incorrect
10,210,227,B,41.00070384905396,31.870255158390925,2.050035192452698,0.5006167973681658,A,617.6353000000745,Incorrect
10,210,228,A,21.99110574446373,39.729618397688874,1.0995552872231866,0.6240713864405263,A,529.9391000007745,Correct
10,210,229,A,32.21779173004657,42.48532534542855,1.6108895865023285,0.6673579299528529,A,456.0049000001527,Correct
10,210,230,A,37.76206074869521,49.67486677299276,1.8881030374347605,0.7802909826104288,A,657.4284999996962,Correct
10,210,231,A,16.515443479424313,46.104754632020814,0.8257721739712156,0.7242117922375827,A,502.40630000007513,Correct
10,210,232,A,18.894667308766245,42.84078921904008,0.9447333654383122,0.6729415434226256,A,458.5592000003089,Correct
10,210,233,B,48.766559604994754,33.849745480410846,2.438327980249738,0.531710558635715,B,645.3215999999884,Correct
10,210,234,B,50.87751352316553,29.894488678145528,2.543875676158277,0.4695815300704262,B,823.8401999997222,Correct
10,210,235,B,40.81198643226404,26.943746794247524,2.040599321613202,0.4232313849449578,B,528.9788999998564,Correct
10,210,236,A,51.344299285271276,68.38972543657297,2.567214964263564,1.0742632950628033,A,601.539899999807,Correct
10,210,237,A,39.99313858395188,64.65416144688209,1.9996569291975943,1.015585193127666,A,877.1495999999388,Correct
10,210,238,A,53.04911084998871,69.22304414662753,2.6524555424994354,1.087353034750835,A,1084.6109000003707,Correct
10,210,239,B,69.41454920186283,42.454138341766715,3.4707274600931415,0.6668680456448954,B,458.1362999997509,Correct
10,210,240,B,54.3385391641442,38.808410854280744,2.71692695820721,0.6096010921865138,B,824.5139999999083,Correct
10,210,241,A,32.43012411759913,52.53019912847642,1.6215062058799563,0.8251424383681524,A,520.539799999824,Correct
10,210,242,B,44.84173068562546,31.567866226229675,2.242086534281273,0.49586688312914246,B,737.9304999994929,Correct
10,210,243,B,61.884527580825,39.13983054341634,3.09422637904125,0.6148070204897308,B,819.3102000004728,Correct
10,210,244,A,16.36401729054791,46.15838580641951,0.8182008645273955,0.7250542287550547,A,586.2182999999277,Correct
10,210,245,B,37.55410337103736,17.24460513097948,1.8777051685518678,0.2708776239677099,B,603.0821000003925,Correct
10,210,246,B,57.61495429791988,31.984101481094584,2.8807477148959943,0.5024050912233857,B,566.6897999999492,Correct
10,210,247,B,39.324779803182594,28.612211579220276,1.9662389901591297,0.44943956850117617,B,674.8434999999517,Correct
10,210,248,B,70.67437969874608,57.496654053105914,3.5337189849373036,0.9031553298961568,B,687.5374000001102,Correct
10,210,249,B,81.65797406595006,56.268410328738,4.082898703297503,0.8838621225896968,B,632.9473000005237,Correct
10,210,250,A,35.26274220866718,61.59171186883113,1.763137110433359,0.9674803476456958,A,587.6971999996385,Correct
10,210,251,B,71.54965351351562,41.50107378402537,3.5774826756757814,0.6518973425799104,B,591.5909000004831,Correct
10,210,252,A,65.4867245894286,82.20667204994439,3.27433622947143,1.2912993849408534,A,655.3463999998712,Correct
10,210,253,A,66.7985543787477,85.97503202530635,3.3399277189373846,1.350492645014248,A,1066.6479999999865,Correct
10,210,254,B,54.6089285223561,29.51220923613695,2.7304464261178047,0.4635766986372634,B,618.9461000003575,Correct
10,210,255,A,19.880219260820812,44.52277376264692,0.9940109630410405,0.6993620948508598,A,658.1428999998025,Correct
10,210,256,B,72.78390955719308,42.232310262815446,3.639195477859654,0.6633835783289291,B,725.9866000003967,Correct
10,210,257,A,57.572884230425416,81.37850610775334,2.8786442115212707,1.27829058474115,A,559.6802999998545,Correct
10,210,258,B,50.040488810375656,29.95981690378374,2.502024440518783,0.47060770343911146,B,691.5854000008039,Correct
10,210,259,B,73.62703039088163,50.851005220939214,3.6813515195440814,0.7987657221487944,A,1248.8212999996904,Incorrect
10,210,260,A,53.11042051139913,75.20162061271174,2.655521025569956,1.1812642942747098,A,524.4388999999501,Correct
10,210,261,A,24.052151057656644,39.926199729087244,1.2026075528828322,0.6271592787732964,A,705.4108000002088,Correct
10,210,262,A,60.149529808460215,76.53205007187276,3.0074764904230107,1.2021626313498082,B,799.8057000004337,Incorrect
10,210,263,B,48.0991853018136,20.125833932258086,2.40495926509068,0.31613586014475087,B,557.6068000000305,Correct
10,210,264,A,37.576227851187625,69.32099858617786,1.8788113925593815,1.0888916994892242,A,541.0741000005146,Correct
10,210,265,A,47.46851836913741,65.57202556236868,2.3734259184568707,1.030002968938698,A,565.0768999994398,Correct
10,210,266,B,81.01945985769575,53.66047975354672,4.0509729928847875,0.8428968449092311,B,864.4052999998166,Correct
10,210,267,A,59.88527450239509,68.15878235493014,2.9942637251197546,1.0706356496193705,A,764.2742999996699,Correct
10,210,268,A,57.964382962521896,85.02880402784787,2.8982191481260946,1.3356293303870652,A,500.2767000005406,Correct
10,210,269,A,40.96697738614324,57.791283944523535,2.048348869307162,0.9077833654081846,A,491.77359999976034,Correct
10,210,270,A,36.331421623173924,47.85725125642869,1.8165710811586961,0.7517399448409865,A,919.6498000001156,Correct
10,210,271,A,58.10697298824262,68.03215719529038,2.905348649412131,1.0686466262629513,B,1374.8413000002984,Incorrect
10,210,272,B,54.37888009575578,36.82663876996147,2.718944004787789,0.5784714890805799,B,683.2527999995364,Correct
10,210,273,B,55.279543469821505,37.63459144396972,2.7639771734910754,0.5911627800061426,B,634.1806000000361,Correct
10,210,274,B,39.99834738001847,22.39748761095763,1.9999173690009235,0.3518189126872645,B,817.354300000261,Correct
10,210,275,A,20.71295344486325,46.650814703657545,1.0356476722431625,0.7327892837849462,A,531.6171000004033,Correct
10,210,276,A,39.4477923177913,54.675430186985714,1.972389615889565,0.8588396490364796,A,520.5807000002096,Correct
10,210,277,A,13.105171146666777,34.28771398076612,0.6552585573333388,0.5385901517518145,A,621.0234000000128,Correct
10,210,278,B,48.21032571503385,24.923562920231642,2.410516285751692,0.39149841085741344,B,503.49869999990915,Correct
10,210,279,A,27.84854780542789,41.384700841243216,1.3924273902713946,0.6500693606693051,A,510.16729999992094,Correct
10,210,280,B,48.35484053009003,29.87616621777174,2.4177420265045013,0.46929372153589627,B,469.3280000001323,Correct
10,210,281,B,60.6782744700475,50.35279437485363,3.0339137235023745,0.7909398444787881,B,819.7020999996312,Correct
10,210,282,B,74.01502483238725,61.67978792826163,3.700751241619363,0.9688638431520158,B,681.4966000001732,Correct
10,210,283,B,48.32446147815617,23.472888887449013,2.4162230739078083,0.36871127643669654,B,735.6128999999783,Correct
10,210,284,A,33.97262575820261,56.782433549995524,1.6986312879101306,0.8919363804680828,A,585.2768000004289,Correct
10,210,285,A,47.28955573352636,70.39868357320125,2.3644777866763182,1.1058199356798075,A,1022.2490000005564,Correct
10,210,286,A,64.47131604941617,77.76515079139865,3.2235658024708083,1.2215321321578025,A,670.0035000003481,Correct
10,210,287,B,66.2214074344173,48.931136708561866,3.311070371720865,0.768608498077079,B,720.2102000001105,Correct
10,210,288,B,73.18911917660763,58.93078922475372,3.6594559588303817,0.9256826724936742,B,484.927699999389,Correct
10,210,289,A,51.34468912077375,65.36414971171878,2.5672344560386877,1.0267376627123956,A,896.5336999999636,Correct
10,210,290,B,73.02174548512869,55.129228318431174,3.6510872742564344,0.8659678934162888,B,768.0076999995435,Correct
10,210,291,B,56.32912368219001,33.643763807635146,2.8164561841095,0.5284750060858836,B,690.1988999998139,Correct
10,210,292,A,52.50511780976425,63.696121071863566,2.6252558904882126,1.0005363301076629,B,627.6230000003125,Incorrect
10,210,293,A,41.52823191659224,59.515182913505505,2.076411595829612,0.9348623070906085,B,811.3473000003069,Incorrect
10,210,294,A,39.364477116294246,48.40832871168151,1.9682238558147123,0.7603962492658926,B,833.1613999998808,Incorrect
10,210,295,A,38.68758550823664,56.294991487486676,1.9343792754118316,0.8842796584549404,A,1256.9080000002941,Correct
10,210,296,A,37.67257597659532,52.24529800321428,1.8836287988297657,0.8206672219575373,B,679.8748999999589,Incorrect
10,210,297,A,38.185882949742066,54.74281382458139,1.9092941474871032,0.8598981087406933,A,553.7772999996378,Correct
10,210,298,B,52.999873324470855,41.59665833809112,2.649993666223543,0.6533987812441584,B,686.1930999994001,Correct
10,210,299,B,50.311344483700616,30.547212526589107,2.515567224185031,0.47983449230589215,B,417.5021999999444,Correct
10,210,300,A,48.84344032834493,61.4123227869453,2.442172016417247,0.964662510536762,A,875.2220999995188,Correct
10,210,301,B,44.09899363381054,34.72377167654582,2.204949681690527,0.5454397300198284,B,537.8553000000466,Correct
10,210,302,A,31.442944027084344,42.706781527450346,1.572147201354217,0.6708365555255115,A,670.0161999997363,Correct
10,210,303,B,70.5589614562238,52.98372511242327,3.5279480728111903,0.83226640786505,B,717.7480999998807,Correct
10,210,304,B,56.05492828159802,40.86094189646089,2.802746414079901,0.6418421744034046,B,510.3423999998995,Correct
10,210,305,B,54.73298588232046,44.732634950391386,2.736649294116023,0.7026585866793179,B,624.5208000000275,Correct
10,210,306,B,56.54386237566039,38.791246922555636,2.8271931187830193,0.6093314817774422,B,803.6169999995764,Correct
10,210,307,A,53.188126135871194,75.20846117022396,2.65940630679356,1.1813717455008441,A,866.501700000299,Correct
10,210,308,A,46.47764682361883,68.13064776483971,2.3238823411809415,1.0701937125116712,A,515.6299999998737,Correct
10,210,309,A,46.74086592565772,59.36297947534638,2.337043296282886,0.9324715010747493,A,604.1949999998906,Correct
10,210,310,A,42.162256064134446,74.88980277913987,2.1081128032067222,1.1763662711986715,A,1047.7634999997463,Correct
10,210,311,B,70.07416522771966,54.60856025359253,3.503708261385983,0.8577892585790095,B,875.972300000285,Correct
10,210,312,B,82.3695222339658,65.65716829251087,4.118476111698289,1.0313403878163043,B,704.4028999998773,Correct
10,210,313,B,70.09036514498266,37.399121325728714,3.504518257249133,0.5874640240381136,B,886.2170000002152,Correct
10,210,314,A,35.86338524191714,48.70210451842631,1.7931692620958573,0.7650108688472519,A,554.9087000008512,Correct
10,210,315,A,34.8301651953634,55.42376672567622,1.7415082597681701,0.8705944918982941,A,549.721800000043,Correct
10,210,316,A,65.69956279669408,89.37269543666953,3.284978139834704,1.403863017076795,A,753.5386999998082,Correct
10,210,317,B,38.727018336957656,13.284025876107048,1.9363509168478827,0.20866499051237308,B,584.469700000227,Correct
10,210,318,A,36.19873815670995,51.9814783727504,1.8099369078354977,0.8165231528928468,A,705.3153999995629,Correct
10,210,319,B,40.774892591678224,23.82329790012366,2.038744629583911,0.3742154883365481,B,497.34859999989567,Correct
10,210,320,B,79.10299526444318,58.93163686581545,3.955149763222159,0.9256959872083361,B,660.6777999995757,Correct
10,210,321,A,13.890602876908435,38.27757474179133,0.6945301438454217,0.6012627380302292,A,588.9474000005066,Correct
10,210,322,A,32.11871640493276,45.087770627046524,1.6059358202466383,0.708237044843355,A,884.6940000003087,Correct
10,210,323,A,55.459501741558,83.426700467588,2.7729750870779,1.3104635465110532,A,628.4408999999869,Correct
10,210,324,B,60.42131715394768,42.39468772199078,3.0210658576973843,0.6659341974931982,B,1165.3079000006983,Correct
10,210,325,A,33.78064053551721,44.32727196182494,1.6890320267758603,0.6962911597447301,A,620.1919000004636,Correct
10,210,326,B,64.40120844997803,42.12611321995985,3.2200604224989013,0.6617154390805886,B,932.5295999997252,Correct
10,210,327,B,82.48033511930072,52.42393937934277,4.124016755965036,0.8234733141318995,B,788.8068000002022,Correct
10,210,328,B,53.76943370775625,39.73131499781764,2.6884716853878126,0.6240980365730293,B,681.521800000155,Correct
10,210,329,B,51.12886269227008,38.27506710345265,2.556443134613504,0.6012233481393159,B,539.7196000003532,Correct
10,210,330,B,63.38130123688904,47.49367749625213,3.1690650618444516,0.746028941570943,B,675.151299999925,Correct
10,210,331,A,30.83131067313448,41.18455342259666,1.541565533656724,0.6469254523690301,A,683.5090000004129,Correct
10,210,332,B,46.90997533068886,28.876789536709246,2.345498766534443,0.4535955493389219,B,642.6740999995673,Correct
10,210,333,A,53.11289205678302,82.18744048876705,2.6556446028391507,1.2909972962842944,A,486.2579000000551,Correct
10,210,334,A,38.88132614684087,68.09008436621659,1.9440663073420437,1.0695565441360761,A,614.811199999167,Correct
10,210,335,B,51.146302756747716,27.004961626363915,2.557315137837386,0.4241929452792958,B,503.955500000302,Correct
10,210,336,A,12.954804232907883,38.32868095334231,0.6477402116453942,0.602065512524036,A,807.7235999999175,Correct
10,210,337,B,65.17886311272385,52.39678727300133,3.2589431556361923,0.8230468098428406,B,885.8080999998492,Correct
10,210,338,B,43.235808235672486,32.785506839485464,2.1617904117836244,0.5149935371557273,B,520.5684000002293,Correct
10,210,339,A,45.093154148947,52.29463161462592,2.25465770744735,0.8214421525134666,A,697.9902000002767,Correct
10,210,340,B,37.282705115504065,19.056570644698027,1.8641352557752031,0.29933991169999113,B,512.8701000003275,Correct
10,210,341,A,55.45510248245081,68.04716648670971,2.7727551241225403,1.068882391661244,A,625.4703000004156,Correct
10,210,342,A,38.1183302097524,70.59979974442366,1.9059165104876201,1.1089790611099595,A,453.0780000004597,Correct
10,210,343,A,63.77523601899985,83.26727656530495,3.1887618009499925,1.3079593217099579,A,509.33339999937743,Correct
10,210,344,A,50.51681864302589,71.84200702703245,2.5258409321512945,1.1284916074763571,A,484.51979999936157,Correct
10,210,345,B,33.60816191009472,12.043133916354176,1.6804080955047362,0.18917310518908176,B,424.955399999817,Correct
10,210,346,A,39.19527301619482,54.36757985601457,1.959763650809741,0.854003947345559,A,525.1431999995475,Correct
10,210,347,A,30.891267246708992,50.06858059554158,1.5445633623354496,0.7864754248731096,A,1606.774700000642,Correct
10,210,348,B,73.00910418922759,50.94382627460257,3.650455209461379,0.8002237518502306,B,854.8337000001993,Correct
10,210,349,A,28.38286001532085,40.019633150633936,1.4191430007660426,0.6286269275269506,A,850.6984999994529,Correct
10,210,350,B,34.37727425010311,17.028027653150147,1.7188637125051556,0.2674756329013017,B,643.2766999996602,Correct
10,210,351,A,43.43481052671312,60.28641559456724,2.171740526335656,0.9469768017157679,A,571.8645999995715,Correct
10,210,352,A,44.6836316830278,75.28400295871086,2.23418158415139,1.1825583531395916,A,529.8969000004945,Correct
10,210,353,B,67.81104810255454,36.07126046561591,3.390552405127727,0.5666060344225144,B,574.3456999998671,Correct
10,210,354,A,46.500153284145696,57.52002744252601,2.325007664207285,0.9035224782386149,B,724.181900000076,Incorrect
10,210,355,B,51.6163811219473,31.33360766456691,2.580819056097365,0.49218715824734116,B,1245.5761000001075,Correct
10,210,356,A,45.54688255146,52.96203873508717,2.277344127573,0.8319257590464395,A,981.8605000000389,Correct
10,210,357,B,62.16185299588796,54.153872609254485,3.1080926497943984,0.8506470417633571,B,554.0172000000894,Correct
10,210,358,B,81.00309004622508,61.843811042534256,4.050154502311255,0.9714403122061047,B,578.026499999396,Correct
10,210,359,B,77.65589295122962,66.1312621955885,3.8827946475614805,1.0387874374314063,A,702.726000000439,Incorrect
10,210,360,B,32.99594417254215,19.007343970258166,1.6497972086271075,0.29856666090608647,B,449.8039999998582,Correct
10,210,361,A,47.39588741898305,77.40863837893411,2.3697943709491525,1.2159320482782416,A,435.2017999999589,Correct
10,210,362,A,31.650084279337513,64.21302212392006,1.5825042139668755,1.0086557928465305,A,430.4856999997355,Correct
10,210,363,A,26.100761984129242,39.314433927515545,1.305038099206462,0.6175496840336208,A,692.3168000002988,Correct
10,210,364,B,33.87072375448095,17.90347021470696,1.6935361877240473,0.2812270525014353,B,493.7004999992496,Correct
10,210,365,A,20.21254835359023,45.09661118765212,1.0106274176795114,0.7083759120446159,A,662.8067999999985,Correct
10,210,366,A,54.49521564712652,73.05610345285942,2.724760782356326,1.1475625895369954,A,461.2004999999044,Correct
10,210,367,A,30.790367664846936,43.17467816998121,1.5395183832423467,0.678186258799583,A,898.9799999999377,Correct
10,210,368,B,80.333642847394,66.3999828319563,4.0166821423697,1.0430084913168114,A,489.10869999963325,Incorrect
10,210,369,A,38.66281928853348,52.65139533055277,1.933140964426674,0.8270461838585826,A,531.5884000001461,Correct
10,210,370,B,51.04492881842727,38.00874710288546,2.5522464409213637,0.5970400033528864,A,604.7189000000799,Incorrect
10,210,371,A,22.624307498925464,49.97416907707562,1.1312153749462732,0.7849924122089749,A,500.4627000007531,Correct
10,210,372,B,37.33298770193785,25.948415656929477,1.8666493850968926,0.40759676000052003,B,415.48080000029586,Correct
10,210,373,B,57.04245534623596,46.04685540278746,2.852122767311798,0.7233023132715426,B,467.4101000000519,Correct
10,210,374,B,38.16352495633237,16.483106469220427,1.9081762478166184,0.25891603096020643,B,536.3509999997405,Correct
10,210,375,A,18.96473600848678,49.607429365489224,0.9482368004243391,0.7792316782904776,A,484.2597000006208,Correct
10,210,376,A,61.96994953453184,71.05149118468745,3.098497476726592,1.1160742136620703,A,621.6359999998531,Correct
10,210,377,B,53.875196810848806,29.76677684157832,2.6937598405424406,0.46757543723274614,B,424.6535000002041,Correct
10,210,378,A,33.04184219229825,52.15706452403988,1.6520921096149124,0.8192812537076626,A,518.5080000001108,Correct
10,210,379,A,21.642349910074824,42.737238270872325,1.0821174955037411,0.6713149689324454,A,596.8442000003051,Correct
10,210,380,A,38.804184252684536,53.25324434472596,1.9402092126342267,0.8365000060660662,A,916.3435000000391,Correct
10,210,381,B,83.21358163295145,64.02334000610293,4.160679081647572,1.0056762731072724,A,879.943099999764,Incorrect
10,210,382,B,49.377879719525836,28.95986504459938,2.4688939859762917,0.45490049636532626,B,615.9560999994937,Correct
10,210,383,A,26.83730354507755,36.96820082534471,1.3418651772538774,0.5806951406466753,A,655.968899999607,Correct
10,210,384,B,60.39167764520369,40.374256237598104,3.019583882260185,0.6341973339509505,A,641.9212000000698,Incorrect
10,210,385,B,69.41574086730887,37.876980627178725,3.4707870433654433,0.594970220392538,B,551.1557999998331,Correct
10,210,386,B,58.747498972892316,26.34179830455962,2.937374948644616,0.4137760001797429,B,642.7799000002778,Correct
10,210,387,B,76.9098505186004,58.94935225615614,3.8454925259300192,0.9259742599090851,A,837.8414000007979,Incorrect
10,210,388,B,45.88100339996568,36.003146729545264,2.294050169998284,0.565536106358274,B,783.4940999991886,Correct
10,210,389,A,66.13498026540282,86.32654361726657,3.306749013270141,1.3560141761890172,A,523.6416999996436,Correct
10,210,390,B,49.550737842715236,37.430204210260634,2.477536892135762,0.5879522728466027,B,858.0269000003682,Correct
10,210,391,A,33.46316904475157,57.07814042124995,1.6731584522375784,0.8965813331398272,A,535.2744000001621,Correct
10,210,392,B,55.57265067425969,40.96662460035447,2.778632533712985,0.6435022344342225,B,556.7780000001221,Correct
10,210,393,B,62.069441764999766,41.49644868574518,3.103472088249988,0.6518246917060144,B,736.4139999999679,Correct
10,210,394,B,75.71664070471536,44.591693679441946,3.785832035235768,0.7004446863723061,B,578.3526999994137,Correct
10,210,395,B,64.23253856468877,53.84575107371646,3.211626928234438,0.8458070800010618,B,626.3836999996784,Correct
10,210,396,A,56.25392002892545,74.7154044978921,2.8126960014462723,1.173626829402838,A,618.6819000004107,Correct
10,210,397,B,60.43114197707103,36.07847101007472,3.021557098853551,0.5667192973900154,B,849.5614000003116,Correct
10,210,398,B,33.952706974347066,19.65637078951804,1.6976353487173532,0.30876155034293434,A,641.5804000007483,Incorrect
10,210,399,A,52.99027529641571,78.59751310498163,2.6495137648207856,1.2346068488051887,A,1195.8262999996805,Correct
10,210,400,B,66.3319612957973,34.55784725830574,3.3165980647898654,0.5428333953528575,B,559.413000000859,Correct
10,210,401,B,50.80072251969176,24.982926408379548,2.540036125984588,0.3924308903486982,B,492.1552999994674,Correct
10,210,402,B,31.420729826389113,17.676686170898556,1.5710364913194557,0.277664737071536,A,723.8848999995753,Incorrect
10,210,403,A,54.84646707980529,69.61737463430644,2.7423233539902645,1.0935471635667275,A,688.618299999689,Correct
10,210,404,B,56.08148968164632,36.57225735805798,2.8040744840823155,0.574475675206351,B,631.2936999993326,Correct
10,210,405,A,18.691161403068893,43.50087602676456,0.9345580701534446,0.6833101627520195,A,626.5245000004143,Correct
10,210,406,B,55.16133463880567,30.422084326859967,2.7580667319402834,0.4778689831407623,B,374.6811999999409,Correct
10,210,407,B,65.48248960829565,32.82006034264329,3.274124480414782,0.5155363023141094,B,388.8028999999733,Correct
10,210,408,A,51.371779286272314,72.46702612339583,2.5685889643136157,1.1383093844837997,A,927.0298999999795,Correct
10,210,409,A,24.885276567860625,46.84866287275161,1.2442638283930314,0.7358970755577068,A,494.2022999994151,Correct
10,210,410,A,60.98498906437061,78.2912534040824,3.0492494532185304,1.2297961326730107,B,832.131400000435,Incorrect
10,210,411,B,45.08537970683263,28.263935248498477,2.2542689853416316,0.4439688566911021,B,511.3253999998051,Correct
10,210,412,A,27.261744793518957,51.587463061393734,1.363087239675948,0.810333974855047,A,586.3957000001392,Correct
10,210,413,A,15.246430688941253,40.38396518069871,0.7623215344470625,0.6343498416725453,A,629.696299999523,Correct
10,210,414,B,47.502062860872314,33.95821154298035,2.375103143043616,0.5334143395623759,B,792.2107000003962,Correct
10,210,415,A,38.745126314441016,54.37085419867894,1.9372563157220508,0.8540553805998575,A,548.9295999996102,Correct
10,210,416,B,67.9689883454033,59.625320577500055,3.3984494172701654,0.9365923454710524,A,813.7593999999808,Incorrect
10,210,417,B,48.396070131400975,41.55423153608248,2.4198035065700485,0.6527323425966303,B,524.9579999999696,Correct
10,210,418,B,67.13167623821397,56.49874404640924,3.3565838119106983,0.8874801961662467,B,527.4423999999271,Correct
10,210,419,B,68.18492103690475,45.272579782183826,3.409246051845238,0.7111400202638325,B,710.1162999997541,Correct
10,210,420,B,70.24906263437865,56.2432837441758,3.5124531317189325,0.8834674351223444,B,639.2073000006349,Correct
10,210,421,B,50.627913617475755,32.44548724870738,2.531395680873788,0.5096525219134022,B,499.905900000158,Correct
10,210,422,A,17.672119087970337,42.724182190431065,0.883605954398517,0.6711098845004506,A,576.6686000006302,Correct
10,210,423,A,48.333884654970156,78.49077011589686,2.4166942327485077,1.2329301338535343,A,986.3097999996171,Correct
10,210,424,B,62.88537064071251,38.72181527713901,3.144268532035625,0.6082408520416047,B,643.9767000001666,Correct
10,210,425,B,46.18536594855258,16.56923902055586,2.309268297427629,0.26026899791275815,B,652.5712000002386,Correct
10,210,426,A,26.331441905378835,38.83805263517347,1.3165720952689417,0.6100667041919734,B,1082.6507000001584,Incorrect
10,210,427,B,36.940755123050835,15.300600788294084,1.847037756152542,0.24034127516007445,B,430.51370000011957,Correct
10,210,428,A,16.28172817598407,41.04299025725858,0.8140864087992036,0.644701783367805,A,726.5713999995569,Correct
10,210,429,A,34.96133324414965,49.753491133065,1.7480666622074823,0.7815260111704094,A,593.3230000000549,Correct
10,210,430,B,41.00006935008702,17.062239211044407,2.050003467504351,0.2680130267960441,B,569.3351999998413,Correct
10,210,431,A,21.562367564184722,45.64662862435493,1.078118378209236,0.717015565737075,A,538.4824000002482,Correct
10,210,432,A,36.913439025934125,68.79824860088168,1.8456719512967061,1.0806803619218708,A,687.4072999999044,Correct
10,210,433,A,48.43830432500155,65.6237614455357,2.4219152162500777,1.0308156342911203,A,1238.641099999768,Correct
10,210,434,B,57.29025319393443,27.790863431776764,2.864512659696721,0.4365378619709355,B,592.5701999994999,Correct
10,210,435,A,14.952566083366793,40.202656241497834,0.7476283041683396,0.6315018475154272,A,520.2947999996468,Correct
10,210,436,A,27.848438498398927,49.33664913896881,1.3924219249199465,0.7749782724386082,A,502.96310000067024,Correct
10,210,437,A,25.768336669669253,40.16550800419835,1.2884168334834627,0.6309183243684579,A,649.4611999996778,Correct
10,210,438,B,62.3774521509148,40.409491538933096,3.11887260754574,0.6347508087700556,B,588.796099999854,Correct
10,210,439,A,35.40113825443454,45.531914425837165,1.7700569127217272,0.7152136393204458,A,737.4542999996265,Correct
10,210,440,A,35.79431891961922,63.0122621108573,1.7897159459809613,0.9897942986677187,A,551.2628999995286,Correct
10,210,441,A,50.27675990195981,70.70372755552992,2.5138379950979903,1.1106115553493352,A,536.7128999996567,Correct
10,210,442,B,71.21326925810197,54.01890423096128,3.5606634629050986,0.8485269634347926,B,1145.325899999989,Correct
10,210,443,A,62.43483251787596,86.08911427479096,3.1217416258937982,1.3522846447986774,A,519.0609999999651,Correct
10,210,444,B,43.889849914055134,34.223003282210314,2.1944924957027565,0.5375736784758565,B,496.76369999997405,Correct
10,210,445,B,70.53805355858438,44.1580975050125,3.5269026779292187,0.6936337735912451,B,727.9436999997415,Correct
10,210,446,B,60.526103327839934,36.03023214607985,3.0263051663919964,0.5659615630862963,B,567.9724000001443,Correct
10,210,447,A,24.244446814651106,39.0152827467209,1.2122223407325552,0.612850628274135,A,657.6340000001437,Correct
10,210,448,B,64.2022450146606,36.0343927329678,3.2101122507330304,0.5660269174323054,B,662.0265999999901,Correct
10,210,449,B,46.450588524118636,19.293313960313746,2.3225294262059317,0.3030586670056153,B,671.9892000000982,Correct
10,210,450,B,51.81754081701017,35.322920888195306,2.5908770408505086,0.5548511438284391,B,620.6990999999107,Correct
10,210,451,B,79.0608526650538,52.57219632979681,3.9530426332526902,0.8258021288638496,A,798.9532000001418,Incorrect
10,210,452,B,38.06026941133447,12.585279824764783,1.9030134705667234,0.19768911320426438,B,612.1945000004416,Correct
10,210,453,B,71.15095231089995,55.21673997400191,3.557547615544997,0.8673425232875114,B,567.240700000184,Correct
10,210,454,A,39.93583950080666,63.22051642260219,1.996791975040333,0.9930655497469995,A,843.1179999997767,Correct
10,210,455,B,63.77185723003086,35.59161462803367,3.188592861501543,0.559071775224148,B,717.0753000000332,Correct
10,210,456,B,72.18411840424757,57.09538055655426,3.6092059202123785,0.8968521405519219,B,716.2495000002309,Correct
10,210,457,B,49.269071754731044,22.062617086692317,2.463453587736552,0.3465587787925861,B,586.0768000002281,Correct
10,210,458,A,57.39847215832943,78.52926709873421,2.869923607916472,1.2335348430458701,A,523.7261000002036,Correct
10,210,459,A,56.45149345973417,76.90011520765331,2.8225746729867085,1.207944184982862,A,607.8815000000759,Correct
10,210,460,A,65.27465866955878,76.96406373317878,3.263732933477939,1.2089486860728553,A,462.8328999997393,Correct
10,210,461,A,25.3560582451415,52.30523412301722,1.267802912257075,0.8216086963258253,A,706.3855000005788,Correct
10,210,462,A,55.34450333155637,62.960142622849474,2.7672251665778185,0.9889756076645475,A,542.3188000004302,Correct
10,210,463,B,65.94330843341722,46.49589787474029,3.2971654216708606,0.7303558559267268,B,412.6622999992833,Correct
10,210,464,B,63.627707626283,53.26917988775182,3.1813853813141497,0.8367503209905715,B,1534.062400000039,Correct
10,210,465,B,74.51805035369959,46.80931696145166,3.72590251768498,0.735279031428263,B,411.29929999988235,Correct
10,210,466,B,77.94636917539846,61.87759704247026,3.8973184587699228,0.9719710214520704,B,493.80740000015066,Correct
10,210,467,B,51.58849185903445,35.4904637159627,2.5794245929517223,0.5574829004128177,B,401.40190000056464,Correct
10,210,468,A,41.96066766178612,69.45462046728176,2.098033383089306,1.090990627089398,A,588.7859000004028,Correct
10,210,469,B,67.4505502188481,34.470842419409756,3.3725275109424047,0.5414667265393456,B,643.0835999999545,Correct
10,210,470,B,61.56286190052864,49.74642653734364,3.078143095026432,0.7814150407603155,B,587.4061000004076,Correct
10,210,471,B,50.0535520709388,26.333345377385815,2.50267760354694,0.4136432219101901,B,768.3915000006891,Correct
10,210,472,A,43.76608679337227,65.46313030095901,2.1883043396686133,1.0282924461724212,A,703.8507000006575,Correct
10,210,473,A,24.30205424560009,37.55764806241799,1.2151027122800044,0.5899541561950165,A,701.6733000000386,Correct
10,210,474,B,77.10081985167638,51.87637960439887,3.8550409925838185,0.8148722653000743,B,562.6632000003156,Correct
10,210,475,A,14.844339301217058,40.36588120533118,0.742216965060853,0.6340657792517337,A,951.6023999995014,Correct
10,210,476,A,61.258313369747405,80.78255405314343,3.06291566848737,1.2689293917578786,A,676.0646000002453,Correct
10,210,477,B,40.46128205901174,19.68177028086087,2.023064102950587,0.3091605246199721,B,645.749700000124,Correct
10,210,478,B,45.651008796789995,20.2435277576506,2.2825504398394996,0.31798459043088095,B,796.0471000005782,Correct
10,210,479,A,51.18429697997164,66.66952381323404,2.559214848998582,1.0472424311499293,A,572.0807999996396,Correct
10,210,480,B,86.37805571570807,69.94609700592979,4.318902785785403,1.0987107225055401,B,1012.6897999998619,Correct
10,210,481,A,59.77394035470648,86.46196526674252,2.9886970177353245,1.3581413744846706,A,566.3322999998854,Correct
10,210,482,B,43.66584395435237,30.107536276437955,2.1832921977176185,0.4729280739187284,B,636.7070999995121,Correct
10,210,483,A,42.13684013548994,62.294973223331596,2.106842006774497,0.978527151169957,B,940.2006999998775,Incorrect
10,210,484,B,51.25836883381773,20.718997699271597,2.5629184416908863,0.3254532548088773,B,367.75330000000395,Correct
10,210,485,A,39.284148591489,66.89262497178396,1.9642074295744498,1.0507468959534683,B,391.5201999998317,Incorrect
10,210,486,B,45.009611231002886,27.24744695750808,2.250480561550144,0.42800189595392474,B,690.5633999995189,Correct
10,210,487,B,37.33924803752514,20.395323674490033,1.8669624018762567,0.3203689951168194,B,626.0185999999521,Correct
10,210,488,A,40.11179761179158,56.70804072181947,2.005589880589579,0.8907678206556944,A,730.8687000004284,Correct
10,210,489,B,73.48956912619721,42.11845161560285,3.6744784563098607,0.6615950908807753,B,756.3187999994625,Correct
10,210,490,A,35.464658796619844,45.74478393805509,1.7732329398309923,0.7185573857992313,B,592.7139999994324,Incorrect
10,210,491,B,61.654909185710714,47.89767325366793,3.0827454592855354,0.7523748920888376,B,1106.648099999802,Correct
10,210,492,A,55.13487262113628,80.29501932112666,2.7567436310568145,1.26127121409551,A,734.2853000000105,Correct
10,210,493,A,45.51593503128372,72.34620118589586,2.275796751564186,1.136411470803698,A,727.1461999998792,Correct
10,210,494,B,47.34177007249678,23.283434874778454,2.367088503624839,0.36573533976470185,B,538.7364000007437,Correct
10,210,495,A,44.338072162279744,59.126534783675126,2.216903608113987,0.9287574365430757,A,569.6272000004683,Correct
10,210,496,B,65.65260368915716,39.32502906576927,3.282630184457858,0.6177161120761292,B,560.2509999998802,Correct
10,210,497,A,24.30182137443707,52.19705698152149,1.2150910687218535,0.8199094537607787,A,603.8860999997269,Correct
10,210,498,A,55.50040417816294,80.61160849057595,2.7750202089081473,1.26624418514025,A,681.0997999991741,Correct
10,210,499,A,27.855702408279427,49.364168369601984,1.3927851204139714,0.7754105435025562,A,784.3259999999646,Correct
10,210,500,A,30.84923961560454,48.58548187340873,1.5424619807802271,0.7631789646231046,A,720.3484000001481,Correct
10,210,501,B,48.60163860597888,19.712694142480444,2.430081930298944,0.30964627550239554,B,511.79099999990285,Correct
10,210,502,A,63.78371590917792,83.72922391915972,3.189185795458896,1.3152155737760347,A,604.8205999995844,Correct
10,210,503,A,64.30107799692138,75.65793558540396,3.215053899846069,1.1884320731043743,A,879.0146000001187,Correct
10,210,504,A,23.298087815171876,46.33972290777101,1.1649043907585936,0.7279026652822002,A,828.3051999997042,Correct
10,210,505,B,38.02141945202862,11.916133822575503,1.901070972601431,0.18717819238098032,B,626.6071000000011,Correct
10,210,506,B,43.30481166856916,34.129631677460104,2.165240583428458,0.5361070007381709,B,824.4292999997924,Correct
10,210,507,A,14.23606790688083,37.00857033110272,0.7118033953440416,0.5813292633602672,B,394.3898999996236,Incorrect
10,210,508,B,69.39563532555844,37.25108615380245,3.4697817662779222,0.5851386929951312,B,479.95240000000194,Correct
10,210,509,A,22.358095121981894,44.182704131700504,1.1179047560990947,0.6940202935794085,A,598.8681999997425,Correct
10,210,510,A,40.4694266635365,73.17886971635349,2.023471333176825,1.1494909974945036,A,499.5300999999017,Correct
10,210,511,A,61.16983462129875,72.06725929747701,3.058491731064937,1.1320298618665223,A,633.9219999999841,Correct
10,210,512,B,68.39737394058353,58.621526294196855,3.4198686970291767,0.9208247817403485,B,845.2494000002844,Correct
10,210,513,A,18.223957230392628,43.39915899369959,0.9111978615196314,0.68171239533291,A,658.4821000005832,Correct
10,210,514,B,31.970122325341435,12.390600808923203,1.5985061162670717,0.1946311023743844,B,672.5815999998304,Correct
10,210,515,B,61.169733388356384,29.51220617527205,3.058486669417819,0.46357665055730995,B,406.9613000001482,Correct
10,210,516,B,60.41642012148694,39.42790814301032,3.0208210060743466,0.619332132842472,B,519.4761000002472,Correct
10,210,517,A,43.334656393239186,66.07868732139855,2.1667328196619593,1.0379615932388133,A,522.8091000008135,Correct
10,210,518,A,28.509464714203133,61.51767529488234,1.4254732357101567,0.9663173838616232,A,569.4956999996066,Correct
10,210,519,B,54.09220986849315,24.65939567849945,2.7046104934246573,0.38734888152768876,B,465.22300000015093,Correct
10,210,520,A,57.24857317734564,75.6006516334028,2.862428658867282,1.1875322588904973,A,671.8949999994948,Correct
10,210,521,B,61.35001403082535,41.97212807395471,3.0675007015412676,0.6592966460633302,B,499.4643999998516,Correct
10,210,522,B,81.92505144923601,56.82359962474422,4.0962525724618,0.8925830156581208,B,517.6572000000306,Correct
10,210,523,B,55.49226970404307,46.46606987695071,2.774613485202153,0.7298873188330918,B,476.8764000000374,Correct
10,210,524,B,68.27032241656012,37.33992967417704,3.4135161208280063,0.5865342437497705,B,990.0128999997833,Correct
10,210,525,B,87.75866926900844,61.590898429865916,4.387933463450422,0.9674675701763095,B,601.0687999996662,Correct
10,210,526,A,54.120265474791594,69.92419406039313,2.70601327373958,1.0983666718415905,B,718.2989000002635,Incorrect
10,210,527,A,32.33092943943406,49.27046858210522,1.6165464719717029,0.7739387106823424,A,541.7731999996249,Correct
10,210,528,A,59.76159619608943,72.7260375003026,2.9880798098044714,1.1423779256782323,A,692.4194000002899,Correct
10,210,529,B,56.251970435564694,33.60921272588268,2.8125985217782348,0.527932278962848,B,427.61890000019775,Correct
10,210,530,A,20.25703108566337,45.675882919696136,1.0128515542831686,0.7174750911337243,A,673.707299999478,Correct
10,210,531,B,64.3775476003962,48.27305334076102,3.2188773800198103,0.7582713487084152,B,474.55400000035297,Correct
10,210,532,B,45.168632710705495,34.096084608503986,2.2584316355352745,0.5355800446112607,B,407.788000000437,Correct
10,210,533,B,66.7820304484294,47.70166145449109,3.33910152242147,0.749295945947283,B,416.62600000017846,Correct
10,210,534,A,39.17562726138098,58.975206482311556,1.9587813630690492,0.9263803771438557,A,577.1937999998045,Correct
10,210,535,B,77.66153047352435,61.60881109609531,3.8830765236762175,0.9677489416794717,B,712.1450000004188,Correct
10,210,536,B,59.761294824225814,47.61210187738519,2.988064741211291,0.7478891473998107,B,1487.8786999997828,Correct
10,210,537,B,70.71347987724904,61.526755180863006,3.535673993862452,0.9664600103770847,B,494.51159999989613,Correct
10,210,538,B,67.43388914621542,39.35391440352748,3.3716944573107708,0.6181698419006174,B,461.1534000005122,Correct
10,210,539,B,30.731069660365137,12.551014888625275,1.5365534830182568,0.1971508808460064,B,483.81830000016635,Correct
10,210,540,A,28.048359017819667,60.72770919796929,1.4024179508909833,0.9539086254283882,A,855.3944999994201,Correct
10,210,541,B,86.87380077709386,59.5782058890193,4.343690038854692,0.9358522696750159,B,697.3329000002195,Correct
10,210,542,A,40.68568042694423,71.70904008009086,2.0342840213472115,1.1264029675579472,A,764.6537999999055,Correct
10,210,543,A,56.52568381076062,80.79439326897761,2.826284190538031,1.2691153617253237,A,553.0632999998488,Correct
10,210,544,B,77.70231059700504,47.936688505113345,3.885115529850252,0.7529877422254319,A,394.757799999752,Incorrect
10,210,545,B,53.351069773601516,43.8559887692684,2.667553488680076,0.6888882606672504,B,503.7317999995139,Correct
10,210,546,B,47.73230514971014,37.33087463604398,2.3866152574855075,0.5863920075433865,B,989.2868999995699,Correct
10,210,547,A,40.85439258192575,70.93644628719984,2.042719629096288,1.11426709263817,A,587.8935000000638,Correct
10,210,548,A,48.166460373009166,78.30788741748727,2.4083230186504583,1.2300574191445728,A,815.2660999994623,Correct
10,210,549,B,69.8176869190886,59.38995207287667,3.49088434595443,0.9328951856459962,B,477.861500000472,Correct
