subject,day,trial,cat,x,y,xt,yt,resp,rt,fb
13,513,0,B,73.56776385050146,60.72250529246168,3.678388192525073,0.9538268826718248,B,462.4672999998438,Correct
13,513,1,A,37.51477953275824,63.212336460369585,1.875738976637912,0.9929370592007165,A,407.0787000000564,Correct
13,513,2,B,52.68858659028472,25.95280098724897,2.634429329514236,0.40766564460809646,B,383.60499999998865,Correct
13,513,3,A,57.690492119737364,70.54636623565159,2.884524605986868,1.1081397295168902,A,480.7269000002634,Correct
13,513,4,B,70.09074618162282,41.805937969429316,3.504537309081141,0.6566861380059487,B,412.06439999950817,Correct
13,513,5,A,46.82030599160599,59.45002229886344,2.3410152995802997,0.9338387665492938,A,417.87049999948067,Correct
13,513,6,B,79.28686492347003,56.03664219629282,3.9643432461735015,0.8802215172785666,B,318.8622999996369,Correct
13,513,7,B,82.3435584654172,64.78420206113918,4.1171779232708605,1.0176278663197578,A,388.3630999998786,Incorrect
13,513,8,A,43.55203145420006,74.86025002576551,2.177601572710003,1.1759020576342003,A,654.0512999999919,Correct
13,513,9,A,51.56800739338627,59.20151989998095,2.578400369669313,0.9299352999956505,B,404.15109999958077,Incorrect
13,513,10,A,46.573480667286276,71.7278965154517,2.328674033364314,1.1266991637519599,A,425.6852999997136,Correct
13,513,11,B,73.94550122249727,44.97571178181123,3.6972750611248637,0.7064768286185502,B,349.00739999920916,Correct
13,513,12,B,59.059895121655245,51.25526728030677,2.952994756082762,0.8051158557279652,A,470.6867000004422,Incorrect
13,513,13,B,48.07341535781442,24.97065377980698,2.4036707678907208,0.3922381123498791,B,458.0046000000948,Correct
13,513,14,B,48.44566961326042,37.429221758571146,2.4222834806630207,0.5879368405315518,A,685.3277999998681,Incorrect
13,513,15,A,27.495546262993628,49.59869025555399,1.3747773131496814,0.7790944046726204,A,454.1812999996182,Correct
13,513,16,B,55.379874849458844,47.612755169447034,2.768993742472942,0.7478994092875212,B,779.6945000000051,Correct
13,513,17,A,34.59346656683468,58.500452865245066,1.7296733283417338,0.9189229647656494,A,427.17390000052546,Correct
13,513,18,A,43.51499519817363,70.54312555822285,2.1757497599086815,1.1080888250748764,A,481.28859999997076,Correct
13,513,19,A,27.510394843250054,46.76503729703566,1.3755197421625027,0.7345834880860996,B,397.69129999967845,Incorrect
13,513,20,B,67.01314131218703,34.65843870597966,3.3506570656093517,0.5444134821179892,B,1389.4398000002184,Correct
13,513,21,A,63.20676896402469,88.07710556202687,3.1603384482012347,1.3835119389155819,A,380.89990000025864,Correct
13,513,22,B,79.13139187056593,51.71407303709553,3.9565695935282967,0.8123227597027265,B,335.6891999992513,Correct
13,513,23,B,58.59266614791093,42.59347731493414,2.9296333073955463,0.669056777117203,A,436.67959999947925,Incorrect
13,513,24,B,32.90808547059221,14.10417561672854,1.6454042735296104,0.22154787251227337,A,425.8966999996119,Incorrect
13,513,25,B,69.06428531193579,54.97534876179851,3.45321426559679,0.8635507589930146,B,919.1825999996581,Correct
13,513,26,A,65.8565365560483,85.93553152569649,3.292826827802415,1.3498721726173106,A,374.1224000004877,Correct
13,513,27,B,62.56649717453311,45.75418535112396,3.1283248587266552,0.7187050628503838,B,381.01319999987027,Correct
13,513,28,B,86.76999718380475,69.21815296090996,4.338499859190238,1.0872762041852466,B,354.5443000002706,Correct
13,513,29,B,55.81757780346516,33.70716090225004,2.7908788901732584,0.529470845319389,B,255.27930000043852,Correct
13,513,30,A,60.8346999949912,72.09485758515727,3.0417349997495595,1.1324633747556623,A,420.260199999575,Correct
13,513,31,A,23.08779458857424,50.78501924458324,1.154389729428712,0.7977292168559947,B,223.02809999928286,Incorrect
13,513,32,B,54.6169385293434,45.91490850433697,2.73084692646717,0.7212296962373627,A,412.8258000000642,Incorrect
13,513,33,A,24.983902691489348,44.43391050939615,1.2491951345744674,0.6979662341329261,A,489.55210000076477,Correct
13,513,34,B,58.02448071761005,29.497978068712598,2.9012240358805026,0.46335315598210164,B,321.01479999982985,Correct
13,513,35,B,71.37004395311855,61.81392286995097,3.5685021976559277,0.9709708298890204,B,493.95649999951274,Correct
13,513,36,B,45.18904443698587,31.181601734075528,2.259452221849293,0.4897994546746722,B,396.3231999996424,Correct
13,513,37,A,60.43029192998021,81.13449538983483,3.0215145964990104,1.2744576733471,A,353.8682999997036,Correct
13,513,38,B,73.37047681019155,59.24208694436345,3.6685238405095775,0.9305725256387001,B,414.02540000035515,Correct
13,513,39,B,39.07725538235613,29.561344491121115,1.9538627691178063,0.46434851341771594,B,463.4155000003375,Correct
13,513,40,B,77.42731645075632,48.783628319359096,3.8713658225378165,0.7662914417177676,B,370.2140999994299,Correct
13,513,41,B,76.00235794878229,62.534023985778184,3.8001178974391143,0.9822821517656433,B,477.53970000030677,Correct
13,513,42,B,47.2737120243621,30.61912389359607,2.363685601218105,0.48096407341738556,B,387.34110000041255,Correct
13,513,43,A,21.28317384657156,35.5619759414127,1.064158692328578,0.5586062118233954,A,435.08770000062214,Correct
13,513,44,A,50.68006339698356,57.552658042541715,2.534003169849178,0.9040350385050729,A,544.8635000002469,Correct
13,513,45,B,36.16602465012599,25.901527882702155,1.8083012325062995,0.40686024856524133,B,335.5266999997184,Correct
13,513,46,A,52.51239319192175,74.81412457507464,2.6256196595960875,1.1751775207490305,A,526.4594000000216,Correct
13,513,47,B,43.2861023845326,27.462891722017616,2.16430511922663,0.43138609440111236,A,440.12990000010177,Incorrect
13,513,48,B,48.5155821137153,41.64174913303142,2.425779105685765,0.6541070657948032,B,588.8337000005777,Correct
13,513,49,B,60.66688674276713,43.97753419340552,3.033344337138357,0.6907974917249835,B,373.95049999940966,Correct
13,513,50,B,65.72560869840547,57.515165988574026,3.2862804349202737,0.9034461146985083,B,427.7537999996639,Correct
13,513,51,A,55.019520622730774,65.26658609101885,2.7509760311365388,1.0252051369421529,B,615.6280999994124,Incorrect
13,513,52,A,53.797953501213435,83.53763588273311,2.6898976750606716,1.3122061159372673,A,449.311200000011,Correct
13,513,53,B,58.7759895554631,47.04384464864255,2.9387994777731548,0.7389629837239746,A,474.9752999996417,Incorrect
13,513,54,A,19.741665048484762,45.60207513206605,0.9870832524242381,0.7163157211167424,B,393.90280000043276,Incorrect
13,513,55,A,39.48174501504665,58.84081629780881,1.9740872507523324,0.9242693810621135,A,515.8281000003626,Correct
13,513,56,A,61.18312581303806,71.6544906117065,3.0591562906519028,1.1255461065122798,A,402.7677999993102,Correct
13,513,57,B,74.39754846291072,45.76885538968556,3.719877423145536,0.7189354992772489,B,440.3063999998267,Correct
13,513,58,A,63.417935098209185,85.87388468242406,3.170896754910459,1.3489038262676025,A,572.9759000005288,Correct
13,513,59,A,18.833447084301916,43.140997666529486,0.9416723542150959,0.6776572066885173,A,421.806800000013,Correct
13,513,60,B,54.7939757034315,31.961599274722364,2.739698785171575,0.5020516273922432,B,441.4566000004925,Correct
13,513,61,A,19.398681577759767,47.000914348901595,0.9699340788879883,0.7382886361525617,A,444.21609999972134,Correct
13,513,62,B,88.24405045907797,61.671205413464136,4.412202522953899,0.9687290293248298,B,411.42020000006596,Correct
13,513,63,B,58.58197530350507,45.7681533823831,2.929098765175253,0.7189244721723278,B,383.5589999998774,Correct
13,513,64,A,17.841538338236678,40.858695399620885,0.8920769169118339,0.6418068865135602,A,458.89179999994667,Correct
13,513,65,B,44.883379327518554,24.269678958978268,2.244168966375928,0.3812272256125446,B,458.34500000000844,Correct
13,513,66,B,38.8326910818321,12.77193755520107,1.9416345540916051,0.20062112597763637,B,356.32820000046195,Correct
13,513,67,A,64.44075714891042,74.79926460020336,3.2220378574455206,1.1749441008095898,A,384.7338999994463,Correct
13,513,68,A,57.11519747373271,72.91331988670083,2.855759873686635,1.1453197505245096,A,411.0103999992134,Correct
13,513,69,B,42.629516057280924,31.090278579275562,2.131475802864046,0.4883649539135611,B,394.6923000003153,Correct
13,513,70,A,49.45213192421893,68.16382880279777,2.4726065962109463,1.070714919037109,A,405.7682000002387,Correct
13,513,71,A,24.90495367589024,43.51657690317955,1.2452476837945121,0.6835567915420206,A,443.8418999998248,Correct
13,513,72,A,32.898023946735705,46.486579647280024,1.644901197336785,0.7302094855520586,A,380.68700000076205,Correct
13,513,73,A,38.80834969637752,56.36790064613816,1.940417484818876,0.885424912840935,A,374.92029999975784,Correct
13,513,74,A,27.492400333771055,44.68006097619222,1.3746200166885527,0.7018327566237474,A,401.96240000022954,Correct
13,513,75,B,58.59468950669039,48.00510396346712,2.9297344753345196,0.754062409732213,B,452.74369999970077,Correct
13,513,76,A,39.601873142169545,58.523102794699376,1.9800936571084773,0.9192787490255393,A,598.13800000029,Correct
13,513,77,B,34.932275393428256,14.139915064979075,1.7466137696714128,0.22210926645260953,B,396.2092000001576,Correct
13,513,78,A,61.72886612569795,87.04219521566598,3.0864433062848975,1.3672556052093245,A,470.7200000002558,Correct
13,513,79,A,24.641527543350108,35.9222783805578,1.2320763771675054,0.5642658293028391,B,403.1334000001152,Incorrect
13,513,80,A,16.88203139270786,41.68715123840896,0.844101569635393,0.6548202403983612,A,394.3591999995988,Correct
13,513,81,B,64.30910315249024,43.68872337084697,3.215455157624512,0.6862608619328477,B,428.55210000016086,Correct
13,513,82,B,43.33025155729764,24.72689251016024,2.166512577864882,0.3884091192801194,B,447.0368000002054,Correct
13,513,83,A,40.99066215686821,51.345105216720434,2.0495331078434105,0.8065270267332194,A,396.87730000059673,Correct
13,513,84,B,60.35755053326117,39.79319144626035,3.0178775266630584,0.6250699895523185,B,443.244400000367,Correct
13,513,85,A,21.818553476662427,42.03498259336938,1.0909276738331213,0.6602839625455202,A,358.573499999693,Correct
13,513,86,A,31.181014024965677,63.17833606935135,1.559050701248284,0.9924029823075062,A,345.59619999981805,Correct
13,513,87,A,20.631089462191778,35.67788348710991,1.031554473109589,0.5604268832936854,A,329.917299999579,Correct
13,513,88,B,80.09255538259579,50.58123854217571,4.004627769129789,0.7945282370678606,B,372.1157999998468,Correct
13,513,89,B,86.67402516533629,69.60091940847273,4.333701258266815,1.0932886854837658,B,391.7284999997719,Correct
13,513,90,B,36.8047323410857,25.467736390133922,1.840236617054285,0.4000462677340308,A,368.84230000032403,Incorrect
13,513,91,A,39.10058798443334,52.653577468513404,1.955029399221667,0.8270804608015138,A,581.8316000004415,Correct
13,513,92,B,68.75109563861349,51.15435045060718,3.4375547819306744,0.8035306578739263,B,523.0744000000414,Correct
13,513,93,B,66.37705368292782,38.500522623737155,3.318852684146391,0.6047647951705013,B,374.1460000001098,Correct
13,513,94,B,44.71127731298122,26.036718717426645,2.235563865649061,0.408983821231257,B,347.94609999971726,Correct
13,513,95,B,64.283005051778,38.17297474219377,3.2141502525889,0.5996196850787234,B,340.7995999996274,Correct
13,513,96,A,23.531253145261445,43.19419156313909,1.1765626572630723,0.67849277446254,A,401.7906999997649,Correct
13,513,97,B,52.623080370427175,24.467827196081657,2.6311540185213587,0.3843397308425734,B,358.22619999999006,Correct
13,513,98,B,39.77520705420602,19.43504187108394,1.988760352710301,0.3052849238220367,B,348.2925999996951,Correct
13,513,99,B,39.07278609054197,17.46446775825292,1.9536393045270983,0.27433121804091587,B,329.5582999999169,Correct
13,513,100,B,63.01860855347199,49.500849929801866,3.1509304276736,0.7775575324295818,A,389.9421000005532,Incorrect
13,513,101,B,85.017534963766,67.30998773423397,4.2508767481883005,1.0573028148954426,B,384.75279999966006,Correct
13,513,102,B,60.68416834859227,37.217929698168845,3.034208417429614,0.5846178726079432,B,415.1037000001452,Correct
13,513,103,B,44.53265901725169,22.329585116920075,2.2266329508625846,0.35075230280512043,B,346.4408999998341,Correct
13,513,104,B,80.74065575061643,55.232760319172584,4.037032787530822,0.8675941702809922,B,321.0809000001973,Correct
13,513,105,B,73.46194984080982,57.327591392957316,3.6730974920404913,0.9004996998405608,B,368.5600999997405,Correct
13,513,106,A,46.3171996579898,63.59963977494998,2.3158599828994904,0.9990208054397003,A,412.73180000007414,Correct
13,513,107,B,37.99894357701493,21.117224746074594,1.8999471788507463,0.3317085906323627,B,392.2928000001775,Correct
13,513,108,B,82.44878687301735,56.560847635650894,4.122439343650868,0.8884557170648623,B,337.4542999999903,Correct
13,513,109,B,80.51950126221678,59.85741812177049,4.025975063110838,0.9402381251710337,B,382.9353999999512,Correct
13,513,110,B,57.52182196408327,42.8243975716837,2.876091098204164,0.6726840640280504,B,435.1212999999916,Correct
13,513,111,A,17.843998776214697,45.70104366880353,0.8921999388107349,0.7178703152564974,A,482.83549999996467,Correct
13,513,112,B,51.691131056385856,20.22104661906356,2.584556552819293,0.31763145753173405,B,470.7404000000679,Correct
13,513,113,A,38.31762736784872,45.527579278687746,1.9158813683924363,0.7151455429882617,A,438.75019999995857,Correct
13,513,114,A,42.83666963800093,57.621019730503384,2.141833481900046,0.9051088613885098,A,587.1939000007842,Correct
13,513,115,A,69.01410048847717,83.09493662396267,3.4507050244238586,1.305252212241753,A,559.0459000004557,Correct
13,513,116,B,36.677301264580365,15.591940924312524,1.8338650632290183,0.2449176353151314,B,386.9422999996459,Correct
13,513,117,B,61.22977390603682,46.70773192741483,3.0614886953018408,0.7336833374450391,B,411.23160000006465,Correct
13,513,118,A,28.40561889793382,55.53930857670983,1.420280944896691,0.8724094190502409,A,467.25209999931394,Correct
13,513,119,A,33.381413016640245,42.49152749682279,1.6690706508320121,0.6674553531191358,B,474.18410000045697,Incorrect
13,513,120,A,45.41345383514719,63.20156508853417,2.270672691757359,0.9927678628875802,A,664.2351000000417,Correct
13,513,121,A,33.496700115077424,65.16692021733367,1.6748350057538712,1.0236395890592382,A,428.12119999962306,Correct
13,513,122,A,27.43402263065579,59.27507874234322,1.3717011315327894,0.9310907595895098,A,463.20600000035483,Correct
13,513,123,B,54.66226131530362,28.53246502468932,2.7331130657651808,0.4481869125518584,B,427.0723999998154,Correct
13,513,124,A,13.720703120140513,38.948899258135796,0.6860351560070257,0.6118078788738418,A,474.51579999960813,Correct
13,513,125,A,55.08561407983798,68.31438705288319,2.754280703991899,1.0730798824991377,A,577.7372000002288,Correct
13,513,126,B,55.54050239865767,35.35251227227529,2.7770251199328833,0.5553159642026153,B,329.7558999993271,Correct
13,513,127,A,60.02404059759937,80.42437012995701,3.0012020298799684,1.2633030518492967,A,357.6168999998117,Correct
13,513,128,A,23.67725886737551,45.77506430217696,1.1838629433687755,0.7190330286465976,B,367.525999999998,Incorrect
13,513,129,B,55.34558206619216,35.24593216864959,2.7672791033096082,0.5536418078497686,B,525.1227999997354,Correct
13,513,130,A,51.473734378531184,70.07398021727373,2.573686718926559,1.1007195072919183,A,402.88429999964137,Correct
13,513,131,A,64.9670588360346,81.10510847927252,3.2483529418017296,1.273996064835429,A,515.7587000003332,Correct
13,513,132,A,55.953358475910385,68.01257937693369,2.7976679237955193,1.0683390986113377,A,498.9120999998704,Correct
13,513,133,A,54.715058328643906,81.84085178060346,2.7357529164321956,1.285553093587375,A,408.1623000001855,Correct
13,513,134,A,33.02447429090854,58.05868412410906,1.651223714545427,0.9119836776069568,A,328.2280000003084,Correct
13,513,135,A,50.638616314606836,74.43783457213914,2.531930815730342,1.1692667712048233,A,425.2989000005982,Correct
13,513,136,A,27.347051113674183,56.24588920440288,1.3673525556837092,0.8835083615958876,A,392.24770000055287,Correct
13,513,137,B,39.36936418199267,15.481711323654395,1.9684682090996335,0.2431861527969528,B,396.9407000004139,Correct
13,513,138,A,67.19239611116103,88.00262528267058,3.3596198055580517,1.3823420054232665,A,403.0323999995744,Correct
13,513,139,B,48.57248152797989,20.07379447657823,2.428624076398995,0.3153184262864477,B,372.9972999999518,Correct
13,513,140,B,54.63482200055279,27.10890663184299,2.7317411000276395,0.4258257096072478,B,347.0764000003328,Correct
13,513,141,B,54.50886550887735,44.768079661006055,2.7254432754438676,0.7032153508916962,B,339.6457000008013,Correct
13,513,142,B,72.8436505778041,54.175013427220634,3.642182528890205,0.8509791209554237,B,701.0357999997723,Correct
13,513,143,B,51.09631128166936,30.951732893493514,2.554815564083468,0.48618868337036386,B,404.21169999990525,Correct
13,513,144,A,57.302280665668626,75.22172446019648,2.8651140332834313,1.1815800847725446,A,395.4125999998723,Correct
13,513,145,B,44.0046154442223,34.341092773997495,2.2002307722111154,0.5394286238751803,B,423.0256000000736,Correct
13,513,146,A,64.1230018332157,82.46269789056532,3.206150091660785,1.295321029440973,A,335.3063000004113,Correct
13,513,147,B,86.52450272776196,69.3538391426068,4.326225136388098,1.0894075577433089,A,399.32370000042283,Incorrect
13,513,148,A,41.79168330214365,52.64767637472076,2.089584165107183,0.8269877666369783,B,440.44510000003356,Incorrect
13,513,149,A,11.912390000828715,33.42167935446317,0.5956195000414357,0.5249865116530757,A,414.5431999995708,Correct
13,513,150,A,50.93685140707402,69.2204959788842,2.546842570353701,1.0873130082255222,A,436.3375000002634,Correct
13,513,151,B,59.49994211847015,33.01322490738836,2.974997105923508,0.5185705242017943,B,338.1687000000966,Correct
13,513,152,B,66.35154826963951,36.1318027324583,3.3175774134819758,0.5675570301262329,B,434.7365000003265,Correct
13,513,153,B,74.26645073918257,50.20624773260427,3.7133225369591285,0.7886378952052939,B,447.4009000005026,Correct
13,513,154,B,44.98686479348362,26.07348696791111,2.249343239674181,0.4095613755592937,B,449.37169999957405,Correct
13,513,155,A,26.009383831881692,53.45718074440528,1.3004691915940845,0.8397034315412268,A,363.8578000000052,Correct
13,513,156,B,36.76528530275664,20.883050871293605,1.8382642651378318,0.3280301960089896,B,348.1566999998904,Correct
13,513,157,A,46.23521760091458,53.043849726078506,2.311760880045729,0.833210843087846,A,410.5241000006572,Correct
13,513,158,B,63.035842673726165,31.307266190462514,3.151792133686308,0.4917733873396857,B,376.62790000013047,Correct
13,513,159,A,56.817651857012436,83.71505000290244,2.8408825928506216,1.3149929304201025,A,711.5241999999853,Correct
13,513,160,A,41.2798373307157,73.39927650892912,2.063991866535785,1.1529531392962882,A,343.5287000002063,Correct
13,513,161,B,54.53809127971224,35.082851618483076,2.7269045639856118,0.5510801445580361,B,384.66519999929005,Correct
13,513,162,A,34.58132911491045,50.55441441031718,1.7290664557455226,0.7941068845899321,A,372.5411000004897,Correct
13,513,163,B,52.836213468259686,21.391040693391172,2.6418106734129845,0.33600968147499005,B,392.4467000006189,Correct
13,513,164,B,48.72785450838793,24.099701073497563,2.4363927254193967,0.37855721923105007,B,433.25719999938883,Correct
13,513,165,B,88.1260756850808,60.91844586985407,4.406303784254041,0.9569047100642051,B,543.9217000002827,Correct
13,513,166,B,55.675029131823074,38.939965752116215,2.783751456591154,0.6116675516894323,B,372.5865000005797,Correct
13,513,167,A,40.80115568091458,62.12001612518234,2.0400577840457292,0.9757789314987616,A,355.2489000003334,Correct
13,513,168,B,43.42932362634863,33.14089398930135,2.171466181317432,0.5205759454509362,A,470.58730000026117,Incorrect
13,513,169,A,30.024229209923806,58.145513173574905,1.5012114604961904,0.9133475851265574,A,483.0101999996259,Correct
13,513,170,A,17.503463906428692,36.75498582217112,0.8751731953214346,0.5773459672086491,B,417.88309999992634,Incorrect
13,513,171,B,35.036065995279884,12.736343673494055,1.7518032997639943,0.2000620185912188,B,566.8964000005872,Correct
13,513,172,B,36.847863866409554,18.591825791463418,1.8423931933204778,0.2920397166164136,B,322.74859999961336,Correct
13,513,173,A,52.687385247687075,60.948795437387105,2.6343692623843538,0.9573814399562122,A,427.6338999998188,Correct
13,513,174,B,34.12585432030488,21.73731361488565,1.7062927160152441,0.34144892380651076,B,445.85080000069865,Correct
13,513,175,A,24.433809451941485,52.87377014058264,1.2216904725970743,0.830539239206249,A,370.55939999936527,Correct
13,513,176,A,35.252219753281175,60.633518597551806,1.7626109876640585,0.9524290829368443,A,351.81660000034753,Correct
13,513,177,B,43.663869061308745,33.41053822846919,2.183193453065437,0.5248115072551988,B,573.0585000001156,Correct
13,513,178,A,30.65961516622545,50.93498529429536,1.5329807583112725,0.8000848780563122,B,443.70550000076037,Incorrect
13,513,179,A,67.25829711787341,86.29294090673784,3.362914855893671,1.3554863460463287,A,494.76030000005267,Correct
13,513,180,A,32.74557905183131,48.32092512325157,1.6372789525915652,0.7590233169093479,B,497.2281999998813,Incorrect
13,513,181,A,49.82819058729986,69.98655689604689,2.4914095293649927,1.099346264973325,A,458.6148999997022,Correct
13,513,182,B,63.336631467620435,42.05775234273562,3.166831573381022,0.6606416289321857,B,450.65879999947356,Correct
13,513,183,A,34.97767350020253,57.1446482863283,1.7488836750101262,0.8976260362415076,A,515.2455999996164,Correct
13,513,184,A,38.56361844565899,68.86398324727149,1.9281809222829493,1.0817129193327935,A,587.5283000004856,Correct
13,513,185,B,77.13764679480941,53.7567946622458,3.856882339740471,0.8444097559572321,B,543.391100000008,Correct
13,513,186,A,30.82811530355621,43.876171533177605,1.5414057651778106,0.6892052907813818,A,410.1786999999604,Correct
13,513,187,B,66.46168157469795,43.810559591702805,3.3230840787348974,0.6881746608147569,B,396.6891999998552,Correct
13,513,188,B,67.14202632644547,49.11362872451073,3.357101316322274,0.7714750759602979,B,309.8288000001048,Correct
13,513,189,A,41.92859982482618,48.920019621211864,2.0964299912413087,0.7684338712773385,B,358.6494000001039,Incorrect
13,513,190,A,17.459048641426,35.575764106185055,0.8729524320713,0.558822795809172,A,336.01530000032653,Correct
13,513,191,A,39.981357379565175,58.13318759110106,1.9990678689782586,0.913153975329802,A,368.06759999944916,Correct
13,513,192,A,57.840627013229664,78.16261410338709,2.892031350661483,1.2277754712628741,A,480.02199999973527,Correct
13,513,193,A,52.840042654826604,63.619826308205376,2.6420021327413306,0.9993378947625832,A,344.3468999994366,Correct
13,513,194,A,27.10212377024601,38.50853066230835,1.3551061885123006,0.6048905851462261,B,490.3245000004972,Incorrect
13,513,195,A,17.532971338530402,45.63138791286579,0.87664856692652,0.7167761652008263,A,376.95480000002135,Correct
13,513,196,A,31.893514754282386,43.77474796724566,1.5946757377141194,0.6876121331332186,A,614.7675000001982,Correct
13,513,197,B,58.78774743061782,40.15158290382107,2.939387371530891,0.6306995894032291,B,406.2093000002278,Correct
13,513,198,B,39.921674578561934,29.381738457981683,1.9960837289280966,0.46152726844645975,B,379.20279999980266,Correct
13,513,199,B,84.34688095604068,68.39524493740825,4.217344047802033,1.0743499951791813,A,365.421200000128,Incorrect
13,513,200,B,31.890157959476287,18.049808000560294,1.5945078979738145,0.28352572106633245,A,612.0708999997078,Incorrect
13,513,201,A,34.11575496700981,47.61265108453836,1.7057877483504909,0.7478977743255991,A,654.8336999994717,Correct
13,513,202,A,38.27431582957381,58.636429904679694,1.9137157914786906,0.921058887106373,A,447.12799999979325,Correct
13,513,203,B,52.95652002967862,21.426238102724298,2.647826001483931,0.3365625610879218,B,396.9581000001199,Correct
13,513,204,B,75.37633034078479,45.56821129578982,3.768816517039239,0.7157837892204036,B,506.2004000001252,Correct
13,513,205,B,69.12641392615036,50.55610704497948,3.456320696307518,0.7941334724330337,B,442.5106999997297,Correct
13,513,206,A,33.5105755086355,53.34698004090755,1.675528775431775,0.8379724029385826,A,397.54569999968226,Correct
13,513,207,B,55.147084936264335,43.349471964234354,2.7573542468132164,0.6809319132991767,B,422.08360000040557,Correct
13,513,208,B,73.520290327548,46.66868504110053,3.6760145163773994,0.7330699903890866,B,351.51350000069215,Correct
13,513,209,A,27.52731936489363,54.040623581143045,1.3763659682446814,0.8488681301896516,A,343.79270000044926,Correct
13,513,210,B,53.594717780207795,32.17068871521238,2.6797358890103897,0.5053359966431763,B,510.725299999649,Correct
13,513,211,A,31.89964175762394,46.64020180400974,1.594982087881197,0.7326225767471122,B,307.99370000022464,Incorrect
13,513,212,A,66.10998694115513,80.1198061545555,3.305499347057756,1.2585189721109495,A,453.65360000050714,Correct
13,513,213,A,19.71346557517633,45.63351614648181,0.9856732787588165,0.7168095954162922,A,371.19239999992715,Correct
13,513,214,A,63.994838403754386,79.18737814209528,3.1997419201877193,1.2438724271412176,B,364.03559999962454,Incorrect
13,513,215,A,24.00399000464715,42.56820482809045,1.2001995002323576,0.6686597978221727,A,427.75710000023537,Correct
13,513,216,A,19.44838205781704,43.46871199860216,0.972419102890852,0.6828049313790951,A,357.4463000004471,Correct
13,513,217,B,44.16817950814908,26.758262537440054,2.208408975407454,0.42031780505224325,B,444.0899000001082,Correct
13,513,218,A,65.9840461152556,81.1361063652577,3.2992023057627797,1.2744829784898681,A,308.9200999993409,Correct
13,513,219,B,65.63061493319958,41.524083695208574,3.2815307466599792,0.6522587814195748,B,457.36200000010285,Correct
13,513,220,B,53.26877828847438,40.06800392331552,2.663438914423719,0.6293867338474753,B,306.7521000002671,Correct
13,513,221,B,60.82944477858891,52.294618343354664,3.0414722389294457,0.8214419440488252,B,571.8259000004764,Correct
13,513,222,A,49.5211378472037,67.68701281490887,2.476056892360185,1.0632251110137796,A,381.22649999968417,Correct
13,513,223,B,71.81780713652147,44.78571118714521,3.5908903568260735,0.703492306256648,B,379.06759999987116,Correct
13,513,224,B,43.46267278297545,21.0641317621154,2.1731336391487726,0.33087460799054585,B,350.6598000003578,Correct
13,513,225,B,42.51538468628378,14.750295028400139,2.125769234314189,0.23169709249751966,B,344.05710000010004,Correct
13,513,226,A,44.69981989555588,57.20280284066395,2.234990994777794,0.898539525844876,A,451.1208000003535,Correct
13,513,227,B,55.431482296786086,26.626939034550105,2.7715741148393045,0.41825498029262953,B,374.1986999993969,Correct
13,513,228,B,59.67100591857022,33.99864467405634,2.983550295928511,0.5340494617001258,B,392.40089999930206,Correct
13,513,229,B,79.24043278072796,60.943164482081386,3.9620216390363976,0.9572929891171064,A,341.64719999989757,Incorrect
13,513,230,B,67.12317474395878,39.39607777527581,3.356158737197939,0.6188321425952931,B,403.46540000064124,Correct
13,513,231,A,41.878938381732056,52.896229000736525,2.0939469190866027,0.8308920221565862,A,612.6007000002573,Correct
13,513,232,B,43.096488548753214,17.51931957307061,2.1548244274376605,0.2751928283332525,B,514.1371999998228,Correct
13,513,233,B,74.1523662356953,46.200098879055346,3.7076183117847648,0.7257094561678116,A,498.1318000000101,Incorrect
13,513,234,A,49.68810942485739,71.9379391321655,2.4844054712428694,1.129998505460004,A,455.64439999998285,Correct
13,513,235,A,32.632293723820396,45.403655876850166,1.63161468619102,0.7131989587441576,B,357.1834000003946,Incorrect
13,513,236,B,37.52189713335622,15.487520958632803,1.876094856667811,0.24327741032979383,B,393.3574000002409,Correct
13,513,237,A,47.126791375299305,57.496728477998104,2.3563395687649655,0.9031564989596294,A,554.1754000005312,Correct
13,513,238,B,51.890974134455206,20.80995994714505,2.59454870672276,0.3268820864572436,B,321.3864999997895,Correct
13,513,239,B,67.71028116001382,41.41392973356245,3.385514058000691,0.6505284870362184,B,385.4110000002038,Correct
13,513,240,A,21.671170761126415,42.212422713405175,1.0835585380563209,0.663071185433303,A,410.51249999964057,Correct
13,513,241,A,32.23295323327204,62.207946214545856,1.6116476616636022,0.9771601341126311,A,723.9243000003626,Correct
13,513,242,B,78.23420003443405,55.48399315424761,3.9117100017217026,0.8715405264260532,B,372.7487000005567,Correct
13,513,243,A,27.535344411978585,49.368313702936064,1.3767672205989294,0.7754756582463013,A,370.34159999984695,Correct
13,513,244,B,60.912960919168896,41.306030920080886,3.0456480459584445,0.6488336164373948,B,253.34019999991142,Correct
13,513,245,A,44.62174350804384,51.945919354502564,2.231087175402192,0.8159645931403655,B,329.7809000005145,Incorrect
13,513,246,A,41.423415390095656,52.05092371348801,2.071170769504783,0.8176139977542833,A,455.6106,Correct
13,513,247,A,58.514409382884324,66.99493477629316,2.925720469144216,1.0523539746046497,B,357.3974000000817,Incorrect
13,513,248,A,34.22404111867084,50.02123400184726,1.711202055933542,0.7857317063184966,A,457.81999999962864,Correct
13,513,249,B,43.835276319620206,16.115905989133122,2.1917638159810107,0.25314805930702183,B,418.13400000046386,Correct
13,513,250,B,51.99084291552808,25.71753787080042,2.5995421457764043,0.4039701402166195,B,318.84360000003653,Correct
13,513,251,A,23.280799986937932,38.53164338975209,1.1640399993468966,0.6052536390199343,A,534.000599999672,Correct
13,513,252,A,29.512760792694586,47.921296085812216,1.4756380396347293,0.7527459586684448,A,495.1343000002453,Correct
13,513,253,B,46.72385460264006,18.77448239995134,2.3361927301320033,0.2949088799131899,B,580.6622000000061,Correct
13,513,254,A,54.7710891739436,68.42865016471112,2.73855445869718,1.0748747232626121,A,332.40699999987555,Correct
13,513,255,B,74.88405338534844,43.380683679831264,3.744202669267422,0.6814221857813026,B,469.78260000014416,Correct
13,513,256,B,84.46752397388397,65.93557622656286,4.223376198694199,1.0357136094178985,A,468.16209999997227,Incorrect
13,513,257,A,47.37052249943971,70.84746465137047,2.3685261249719853,1.11286937237104,A,502.661800000169,Correct
13,513,258,A,36.948147867791874,53.79409451263382,1.8474073933895938,0.8449956606370269,A,416.8887999994695,Correct
13,513,259,A,49.62643112669762,68.45022862284938,2.4813215563348807,1.075213676890427,B,436.4992999999231,Incorrect
13,513,260,B,68.51455205724956,50.35084578846342,3.425727602862478,0.7909092361553464,B,442.2930999999153,Correct
13,513,261,A,22.554461128133855,39.832768265252085,1.1277230564066927,0.625691660771303,A,415.56760000003123,Correct
13,513,262,B,53.67075380457215,39.180324111503886,2.683537690228608,0.6154430919698383,B,396.53790000011213,Correct
13,513,263,A,39.97465233935807,71.75321806436747,1.9987326169679036,1.1270969137122164,A,410.3311999997459,Correct
13,513,264,B,81.69440532337073,64.13355620552151,4.084720266168537,1.0074075451192723,B,421.11560000012105,Correct
13,513,265,B,63.23567448569876,51.540476052912496,3.161783724284938,0.8095959046517527,B,361.8075000003955,Correct
13,513,266,A,62.66715980089788,83.45923176121906,3.133357990044894,1.3109745468764689,A,458.39580000028946,Correct
13,513,267,A,47.53720832531581,78.15418993215488,2.3768604162657905,1.2276431446905958,A,400.7414999996399,Correct
13,513,268,B,48.30707979505272,31.832583949792365,2.415353989752636,0.5000250594072403,B,436.92300000020623,Correct
13,513,269,B,55.56549978642412,41.71146152165464,2.778274989321206,0.6552021054346178,B,370.73640000016894,Correct
13,513,270,B,75.20927716751274,51.89698754443056,3.7604638583756365,0.8151959740651203,B,786.733799999638,Correct
13,513,271,B,83.40234853049623,53.46899868933105,4.170117426524811,0.8398890673860236,B,518.36159999948,Correct
13,513,272,A,63.144101200784405,80.19735930470732,3.15720506003922,1.2597371741448478,A,342.34400000059395,Correct
13,513,273,A,45.7947714163836,57.03066153311642,2.2897385708191798,0.8958355365090227,A,638.9455999997153,Correct
13,513,274,A,22.43953948538995,47.63703121416028,1.1219769742694976,0.7482807365061679,A,457.41610000004584,Correct
13,513,275,A,11.88533306338076,37.677309500733486,0.5942666531690379,0.5918337936726661,A,375.5219999993642,Correct
13,513,276,A,28.41969989436599,53.96463999671148,1.4209849947182993,0.8476745828364336,A,541.5947000001324,Correct
13,513,277,B,53.05298888368423,31.545276188068375,2.6526494441842114,0.49551203963948315,B,367.5535000002128,Correct
13,513,278,B,54.65229728485675,37.50085254218622,2.7326148642428376,0.5890620142494317,B,346.8383999997968,Correct
13,513,279,A,41.929371172074745,51.108590418329456,2.0964685586037373,0.8028118609677675,B,617.772600000535,Incorrect
13,513,280,B,40.733633165265374,15.286563366224879,2.0366816582632685,0.24012077584983468,B,371.4362999999139,Correct
13,513,281,A,68.04385316695027,89.12196797754345,3.4021926583475137,1.3999245993585765,A,458.6411999998745,Correct
13,513,282,A,39.24370124978773,60.12953461062299,1.9621850624893866,0.9445125209825319,A,414.4916999994166,Correct
13,513,283,A,66.34690378910956,82.88333899626375,3.317345189455478,1.3019284444782728,A,464.47209999951156,Correct
13,513,284,B,71.44167983361451,44.05822571947769,3.5720839916807257,0.6920649912525599,B,353.3285000003161,Correct
13,513,285,A,36.01890263277364,57.20971118953977,1.8009451316386818,0.8986480419352596,A,323.5694000004514,Correct
13,513,286,A,39.66668710732641,57.95944028329417,1.9833343553663207,0.9104247590008664,A,547.5472999996782,Correct
13,513,287,A,50.23156837648975,60.1260480770691,2.511578418824487,0.9444577546415349,A,632.5441999997565,Correct
13,513,288,A,37.642830400301165,60.94312388290661,1.8821415200150582,0.9572923513867603,A,435.3377999996155,Correct
13,513,289,B,58.136373233159524,36.756624267052274,2.906818661657976,0.5773717038406586,B,455.2355000005264,Correct
13,513,290,B,58.51387446683563,39.58904880341742,2.925693723341782,0.6218633244171198,B,358.9382000000114,Correct
13,513,291,B,33.76502461052976,15.258356843354527,1.6882512305264878,0.23967770882467068,A,392.3362999994424,Incorrect
13,513,292,A,41.262404494667294,65.39072026731591,2.063120224733365,1.0271550320237242,A,539.6719999998822,Correct
13,513,293,B,63.83555629659231,52.4483959306689,3.1917778148296154,0.8238574767417911,B,490.30650000077003,Correct
13,513,294,A,14.383965794169423,38.930525773621326,0.7191982897084712,0.6115192688539842,A,378.59839999964606,Correct
13,513,295,B,44.99661889367311,24.450151541242676,2.2498309446836555,0.3840620823056257,B,375.8358999994016,Correct
13,513,296,B,80.93708063841508,58.29682327036008,4.046854031920754,0.9157243585689286,B,567.0546000001195,Correct
13,513,297,A,33.96410777880343,66.30875926420131,1.6982053889401714,1.0415755548653451,A,429.688599999281,Correct
13,513,298,A,42.628016207999266,61.1239920378251,2.1314008103999633,0.9601334217205617,A,369.8095999998259,Correct
13,513,299,A,63.077840525716084,81.92263970894342,3.153892026285804,1.2868378153615005,A,492.29659999946307,Correct
13,513,300,B,66.68658332269568,48.0848998372447,3.3343291661347845,0.7553158403864448,B,413.70740000002115,Correct
13,513,301,B,84.31467342963327,65.05604821241278,4.215733671481663,1.0218980156784971,B,426.19550000017625,Correct
13,513,302,B,57.8196377380379,30.425709262373942,2.890981886901895,0.47792592349466456,B,357.44359999989683,Correct
13,513,303,A,47.58844567221017,64.92582940732024,2.379422283610509,1.019852543471307,B,432.8230999999505,Incorrect
13,513,304,A,63.518945131146936,88.19473861665045,3.1759472565573468,1.3853597146167056,A,424.843000000692,Correct
13,513,305,A,32.49612725434199,43.73769944399726,1.6248063627170994,0.6870301762909008,B,924.7130000003381,Incorrect
13,513,306,A,42.192042192527765,68.33111645900863,2.109602109626388,1.0733426673960504,A,388.9828999999736,Correct
13,513,307,A,67.89796057576635,85.40830369509361,3.394898028788317,1.3415904972203605,A,637.8451999999015,Correct
13,513,308,B,30.88733511884106,11.32282200364305,1.544366755942053,0.17785847212274936,B,551.2473999997383,Correct
13,513,309,A,41.688124278729205,71.57598838212778,2.0844062139364605,1.124312996373605,A,463.81469999960245,Correct
13,513,310,A,37.89686447106793,46.76169835394839,1.8948432235533965,0.7345310400907309,B,447.009600000456,Incorrect
13,513,311,A,40.87723990036573,72.7707367512266,2.0438619950182866,1.1430800598698512,B,385.5005000004894,Incorrect
13,513,312,B,76.24371192905735,62.28295562018771,3.8121855964528675,0.978338379101204,A,357.65989999981684,Incorrect
13,513,313,A,25.019631900779352,47.73480533533845,1.2509815950389678,0.7498165688101907,A,391.30970000042,Correct
13,513,314,B,62.817622264598384,51.41961484907378,3.1408811132299195,0.807697421301334,A,320.1681999998982,Incorrect
13,513,315,B,38.02675155613396,29.096409400971183,1.9013375778066979,0.45704533009966025,B,616.760300000351,Correct
13,513,316,B,69.08284677460077,42.17925108680998,3.4541423387300383,0.6625501267412076,B,423.6542999997255,Correct
13,513,317,A,46.40514014461963,60.94510917691132,2.3202570072309814,0.9573235363120622,A,465.88140000039857,Correct
13,513,318,A,38.67833611019643,64.14485987892498,1.9339168055098215,1.0075851028058869,A,419.28900000038993,Correct
13,513,319,A,46.5917304507049,54.742372021336884,2.3295865225352452,0.8598911689115569,A,402.4464000003718,Correct
13,513,320,A,67.65615004910289,82.7318789383501,3.3828075024551447,1.299549315452004,A,387.02720000037516,Correct
13,513,321,B,74.96254293961123,64.39854681350126,3.7481271469805613,1.0115700078557697,A,580.1385000004302,Incorrect
13,513,322,A,53.12621518363349,82.24226665934063,2.6563107591816744,1.2918585037577863,A,513.3778999997958,Correct
13,513,323,B,67.2930097008587,48.87206312745273,3.3646504850429353,0.7676805724349107,A,728.5986999995657,Incorrect
13,513,324,A,27.581923160647005,59.66968340545802,1.3790961580323502,0.9372891951430786,A,704.3658000002324,Correct
13,513,325,A,19.00006076602849,34.37362508089783,0.9500030383014245,0.5399396401569925,A,427.39630000050965,Correct
13,513,326,A,49.764233983437016,68.68760402216756,2.488211699171851,1.0789423609436317,B,512.6481999996031,Incorrect
13,513,327,A,19.268183070393242,44.94660257986763,0.963409153519662,0.7060195823436609,A,434.3214000000444,Correct
13,513,328,B,75.52557228656022,48.19234103981097,3.7762786143280107,0.7570035228498202,B,436.5306999998211,Correct
13,513,329,B,52.85319979355405,40.92326334974797,2.6426599896777025,0.6428211175024432,B,631.6047000000253,Correct
13,513,330,A,45.31088098537372,58.70162091022874,2.2655440492686862,0.9220829050269379,B,607.0300000001225,Incorrect
13,513,331,B,33.862993330073344,18.503243896476945,1.6931496665036674,0.2906482754637607,B,655.3586999998515,Correct
13,513,332,B,52.553418937904084,38.93347105467801,2.627670946895204,0.6115655332206364,B,542.265099999895,Correct
13,513,333,A,41.48660001602966,60.130922643368905,2.074330000801483,0.9445343241499194,A,414.5755999998073,Correct
13,513,334,B,80.18449569228923,52.83292755208903,4.009224784614462,0.8298976853264234,A,409.3001999999615,Incorrect
13,513,335,B,80.44122530272747,61.56697978191461,4.022061265136374,0.9670918569328711,B,420.6574999998338,Correct
13,513,336,B,64.92257280811849,52.386851118813574,3.2461286404059244,0.8228907330978348,B,405.51679999953194,Correct
13,513,337,A,15.80629211049025,36.63009000832251,0.7903146055245125,0.5753841083523944,A,447.7358000003733,Correct
13,513,338,A,52.99218607011876,74.5450072706464,2.649609303505938,1.170950236016302,B,1037.535100000241,Incorrect
13,513,339,A,47.218070939275194,64.37870046342907,2.36090354696376,1.0112582621178328,A,431.5177999997104,Correct
13,513,340,B,68.92764924728039,41.49406623574545,3.4463824623640194,0.6517872682689309,B,369.9841000006927,Correct
13,513,341,A,15.286044745166475,39.35442497654,0.7643022372583238,0.6181778619627437,A,416.0706000002392,Correct
13,513,342,B,66.70367806352802,58.05148876967456,3.3351839031764006,0.9118706532438,A,386.2418999997317,Incorrect
13,513,343,A,32.60350519440794,43.32064142936375,1.630175259720397,0.6804790443164339,A,1153.7551999999778,Correct
13,513,344,B,34.817620585576684,11.376472410175616,1.7408810292788344,0.17870121073787343,B,403.7215999996988,Correct
13,513,345,B,50.30975804697584,32.71130089531968,2.515487902348792,0.5138279129105077,B,386.0764000000927,Correct
13,513,346,A,45.066747015663594,76.43860626957223,2.2533373507831795,1.2006948195356542,A,344.4417999999132,Correct
13,513,347,B,61.024341082660904,28.482863479598986,3.0512170541330454,0.447407773303546,B,1037.6792999995814,Correct
13,513,348,A,17.955543602621905,39.37851638488446,0.8977771801310952,0.6185562889200916,A,393.02219999990484,Correct
13,513,349,A,39.278689077586534,57.74218320099429,1.9639344538793266,0.9070120927323981,A,450.4190000006929,Correct
13,513,350,A,40.94730178721163,49.162111320586064,2.0473650893605817,0.7722366387985838,A,412.10030000002007,Correct
13,513,351,B,58.95981786529375,31.583660599255168,2.9479908932646874,0.4961149805604672,B,420.3926999998657,Correct
13,513,352,A,48.092779791737584,77.46126718310988,2.4046389895868794,1.2167587396010706,A,372.3995999998806,Correct
13,513,353,A,23.568301894770602,36.84814894195608,1.1784150947385301,0.5788093700721587,A,414.8782000002029,Correct
13,513,354,A,21.52117724040037,50.401986046620365,1.0760588620200184,0.7917125454519891,A,385.1180999999997,Correct
13,513,355,B,57.78054111651555,40.523223100844405,2.889027055825778,0.6365372999669648,B,415.193900000304,Correct
13,513,356,A,39.816912470272655,61.319504850096294,1.9908456235136327,0.963204529794131,A,463.78160000040225,Correct
13,513,357,A,35.52753825150795,48.33399584792666,1.7763769125753976,0.7592286313724298,A,582.9937000007703,Correct
13,513,358,A,41.0241540523492,60.62593901441386,2.0512077026174604,0.952310023123327,A,362.82719999962865,Correct
13,513,359,B,70.33055459709067,46.08866730332752,3.516527729854533,0.723959093069389,B,393.4644999999364,Correct
13,513,360,B,40.67242054938042,25.078904095241455,2.033621027469021,0.39393850432846766,A,427.73490000035963,Incorrect
13,513,361,B,62.91091569250008,45.078510619127776,3.1455457846250043,0.7080915889791066,B,409.7778000004837,Correct
13,513,362,A,50.08071709597692,67.81666500883635,2.504035854798846,1.0652616829136012,A,358.4913000004235,Correct
13,513,363,A,48.2513294972296,62.8422121390826,2.41256647486148,0.987123159957366,A,470.46750000026805,Correct
13,513,364,B,75.1333644898268,53.354374083384805,3.7566682244913405,0.8380885482862167,B,396.8697999998767,Correct
13,513,365,A,52.54180382769208,83.05499281780727,2.627090191384604,1.304624776401882,A,411.1794000000373,Correct
13,513,366,A,25.235374100252177,57.95675021220128,1.2617687050126087,0.910382503462951,B,619.5359999992434,Incorrect
13,513,367,A,56.364576331092195,81.20826502059232,2.8182288165546097,1.275616443997329,A,537.5985999999102,Correct
13,513,368,A,48.394977239215365,55.33712519791921,2.4197488619607683,0.8692335299628081,A,549.7395000002143,Correct
13,513,369,B,80.79771090090264,63.6882820249709,4.0398855450451325,1.0004131946470174,A,365.2359999996406,Incorrect
13,513,370,B,51.473859376317556,22.798261258445798,2.573692968815878,0.3581142504207705,B,402.76950000043144,Correct
13,513,371,A,66.01711343034336,84.24842204078641,3.3008556715171675,1.323371118799335,A,670.6429999994725,Correct
13,513,372,A,35.27859386592658,64.68089411065148,1.763929693296329,1.01600510882821,A,343.4950000000754,Correct
13,513,373,B,83.31451026341784,62.74274346622387,4.165725513170893,0.9855607096977896,A,470.40870000000723,Incorrect
13,513,374,A,32.94516553447723,52.72576385260284,1.6472582767238617,0.8282143618712368,A,428.4832999992432,Correct
13,513,375,B,86.65709436892897,65.73921582857376,4.332854718446448,1.032629187499006,B,428.240299999743,Correct
13,513,376,B,57.901249185261705,30.672736439906636,2.895062459263085,0.4818062173255332,B,413.62019999996846,Correct
13,513,377,B,42.890959156656315,33.95071450558933,2.144547957832816,0.5332965763744194,A,427.97020000034536,Incorrect
13,513,378,A,15.270747787246389,37.751365783763276,0.7635373893623195,0.592997067046259,A,414.19219999988854,Correct
13,513,379,A,25.72893436597436,37.66178778256908,1.286446718298718,0.5915899790938842,A,459.98640000016167,Correct
13,513,380,B,78.92819418188468,50.13458403454554,3.946409709094234,0.7875122044685422,B,405.6711000002906,Correct
13,513,381,B,62.25045656176469,44.61334547694809,3.1125228280882347,0.7007847920122178,B,427.5170999999318,Correct
13,513,382,A,61.38341563768125,82.21390798059808,3.0691707818840626,1.2914130466737708,A,315.1853999997911,Correct
13,513,383,B,44.20053569465743,21.31670863738955,2.2100267847328716,0.3348420762696855,B,812.0754999999917,Correct
13,513,384,B,60.0252103394751,30.48483687106654,3.0012605169737547,0.4788546978001295,B,410.17660000034084,Correct
13,513,385,A,48.312386339136566,67.02019682548115,2.4156193169568283,1.0527507899453679,A,479.42170000078477,Correct
13,513,386,A,51.34981618293208,58.92261297707774,2.5674908091466038,0.9255542402955103,A,588.6930999995457,Correct
13,513,387,B,52.26508763492325,35.693820272283105,2.613254381746162,0.5606772177297951,B,378.2346999996662,Correct
13,513,388,B,53.16316426408944,36.86119427788469,2.6581582132044717,0.5790142857297433,B,461.5776000000551,Correct
13,513,389,B,57.96459783806397,33.762412739577016,2.8982298919031986,0.5303387391506079,B,395.35829999931593,Correct
13,513,390,B,59.01595155434616,30.749282743406233,2.950797577717308,0.48300860384920213,B,367.79269999988173,Correct
13,513,391,B,81.53525080366508,58.187732094029656,4.076762540183254,0.9140107583782731,B,348.46209999977873,Correct
13,513,392,B,56.45110583871335,27.27896734029713,2.8225552919356676,0.42849701696896675,B,356.52920000029553,Correct
13,513,393,A,47.14165743102925,75.64662422120165,2.3570828715514627,1.188254394610974,A,677.0823000006203,Correct
13,513,394,A,21.56343936760268,42.91903425720169,1.078171968380134,0.6741706136079674,A,543.5992000002443,Correct
13,513,395,A,34.89182161592902,43.36756560995015,1.7445910807964509,0.6812161276214638,A,358.79620000014256,Correct
13,513,396,A,25.679740232851028,39.04930353237306,1.2839870116425514,0.6133850255255058,A,339.4577000008212,Correct
13,513,397,A,20.324912423562562,37.10203741057224,1.0162456211781281,0.5827974408113371,A,341.9671000001472,Correct
13,513,398,A,49.42078485810916,59.71443809355177,2.4710392429054577,0.9379922001397236,A,345.8626000001459,Correct
13,513,399,B,87.97270789447244,62.90580235745824,4.398635394723621,0.9881220327718114,A,322.40660000024945,Incorrect
13,513,400,B,79.38550794408606,49.80590155889064,3.969275397204303,0.7823492722141364,B,412.9179000001386,Correct
13,513,401,B,76.50139687229668,52.91138114367972,3.8250698436148345,0.8311300314613685,B,302.3112000000765,Correct
13,513,402,A,49.8983874549358,73.63202992394109,2.49491937274679,1.1566092213897858,B,350.88619999987714,Incorrect
13,513,403,B,36.14079945786091,13.48465636478836,1.8070399728930453,0.2118164868590098,B,554.7314000004917,Correct
13,513,404,B,46.593536876575854,25.24180896582279,2.3296768438287927,0.39649740805172934,B,391.21109999996406,Correct
13,513,405,A,36.95438896086468,68.07535769060735,1.8477194480432337,1.0693252180565473,A,414.11759999937203,Correct
13,513,406,B,68.41921378156344,49.07097641309593,3.420960689078172,0.7708050950193007,B,484.7191000008024,Correct
13,513,407,B,49.47995947715786,23.585336746164664,2.473997973857893,0.37047760327096146,B,396.2125999996715,Correct
13,513,408,B,40.12825176454176,30.656402294709167,2.0064125882270876,0.48154964117275806,B,571.6695000000982,Correct
13,513,409,B,78.52193309625493,46.42729384982823,3.9260966548127465,0.7292782264233749,B,374.170399999457,Correct
13,513,410,B,78.90712053011251,66.04897478925548,3.945356026505625,1.0374948698753124,B,396.24219999950583,Correct
13,513,411,A,35.994114659895445,58.16103727791713,1.7997057329947723,0.9135914371873328,A,383.8647000002311,Correct
13,513,412,B,54.79330512406456,31.05204759804814,2.739665256203228,0.48776442306474316,B,346.62310000021535,Correct
13,513,413,A,32.04126104260278,60.70773904818693,1.6020630521301387,0.9535949350491515,A,476.29440000036993,Correct
13,513,414,B,62.379765082365054,51.97867221989986,3.1189882541182525,0.8164790739469464,B,402.64769999976124,Correct
13,513,415,B,45.88435674970415,25.843225090571522,2.2942178374852076,0.4059444304480346,B,378.65270000020246,Correct
13,513,416,A,10.927928677226749,32.683053104017446,0.5463964338613374,0.5133841976423315,A,527.661299999636,Correct
13,513,417,A,19.414247513375393,36.912481598108094,0.9707123756687696,0.579819905071924,A,396.628000000419,Correct
13,513,418,A,30.512002273600622,48.56637320219225,1.525600113680031,0.762878806317537,A,376.5078000005815,Correct
13,513,419,A,29.510807655197915,50.934699889598775,1.4755403827598956,0.8000803949298217,A,339.58629999960976,Correct
13,513,420,A,44.07265589397751,59.093237659317474,2.203632794698876,0.9282344065367373,A,375.173000000359,Correct
13,513,421,A,44.76597845011086,69.93377038304916,2.238298922505543,1.0985170963661137,A,406.91619999961404,Correct
13,513,422,B,71.36271578440201,41.5114716627089,3.5681357892201,0.6520606720763358,B,360.5901000000813,Correct
13,513,423,A,42.10860767239359,52.19588610031663,2.1054303836196793,0.8198910616018217,B,587.9214999995384,Incorrect
13,513,424,B,69.30075013379385,43.47140407517534,3.4650375066896926,0.6828472184190212,A,413.0730999995649,Incorrect
13,513,425,A,22.365983063324816,50.69011005340653,1.1182991531662407,0.7962383867672003,A,357.3163000000932,Correct
13,513,426,A,64.81092745860431,76.84103751969877,3.2405463729302153,1.2070161948305167,A,392.9294999998092,Correct
13,513,427,B,81.51473773183227,53.06587260531193,4.0757368865916135,0.8335567776658991,B,336.11199999995733,Correct
13,513,428,B,60.01886061869846,32.129693626032434,3.0009430309349234,0.5046920472881715,B,389.1153000004124,Correct
13,513,429,A,12.766011521985643,35.906239094008285,0.6383005760992821,0.5640138847788752,A,319.03629999942495,Correct
13,513,430,B,62.12443174664367,34.58617456040108,3.106221587332184,0.5432783595736512,B,385.5465999995431,Correct
13,513,431,B,68.24530754452827,35.97702744252882,3.4122653772264133,0.5651258255572347,B,586.9801999997435,Correct
13,513,432,B,73.52625730165398,50.174734577792165,3.676312865082699,0.7881428877270481,B,420.0512000006711,Correct
13,513,433,A,32.30268226321607,44.97527555092449,1.6151341131608035,0.706469976319805,A,354.4357000000673,Correct
13,513,434,B,79.61196279848376,67.05294185510199,3.9805981399241883,1.0532651476678598,B,555.2554999994754,Correct
13,513,435,A,15.41649721415401,45.1345339284382,0.7708248607077004,0.7089716010639036,A,294.30090000005293,Correct
13,513,436,B,85.13574060314406,55.590580889829575,4.256787030157203,0.8732148026613886,B,307.2989000002053,Correct
13,513,437,B,57.84477242869629,27.455718567498778,2.892238621434814,0.4312734187534152,B,461.5203000003021,Correct
13,513,438,B,80.0477442490299,60.46407375276419,4.002387212451495,0.9497674495389772,A,522.796200000812,Incorrect
13,513,439,B,71.40539152699762,45.80150283812657,3.570269576349881,0.7194483241981524,B,380.47349999942526,Correct
13,513,440,B,85.00451542563093,56.20120423786095,4.2502257712815465,0.8828064517828176,B,352.31820000080916,Correct
13,513,441,A,21.124423658186632,39.38110241204575,1.0562211829093315,0.618596910139751,A,282.55949999947916,Correct
13,513,442,B,61.828072227231196,48.782079118153575,3.09140361136156,0.7662671069221365,B,386.8320000001404,Correct
13,513,443,B,68.28739085051366,43.17242308993707,3.414369542525683,0.6781508360850833,B,320.3918999997768,Correct
13,513,444,B,60.577136399572446,40.62497766016649,3.028856819978622,0.6381356568471427,B,337.49770000031276,Correct
13,513,445,B,50.25210768762453,21.961986565478565,2.512605384381226,0.34497807826172594,B,377.51290000051085,Correct
13,513,446,B,33.00355178334466,18.002998182217073,1.6501775891672332,0.28279043415921784,B,356.32910000003903,Correct
13,513,447,B,33.02414752498042,14.685345253848705,1.6512073762490211,0.23067686382460417,B,394.36969999951543,Correct
13,513,448,A,38.55575338535767,58.51788647407722,1.9277876692678833,0.9191968112528125,A,446.2456999999631,Correct
13,513,449,A,14.0326125792507,38.184674166204545,0.7016306289625349,0.5998034592013407,B,357.1731000001819,Incorrect
13,513,450,B,30.121983883859833,13.213573313373374,1.5060991941929915,0.20755832424481965,A,409.59550000025047,Incorrect
13,513,451,B,66.35947203247487,43.04433823120474,3.317973601623743,0.6761388838289354,B,499.8470000000452,Correct
13,513,452,A,48.537479661238365,76.83460615387327,2.426873983061918,1.206915171172367,A,395.01319999999396,Correct
13,513,453,A,64.42916140747442,81.41028073854868,3.2214580703737217,1.2787896994745358,A,399.9437000002217,Correct
13,513,454,A,54.07393719785732,72.84788871442046,2.703696859892866,1.1442919600737507,A,467.5974000001588,Correct
13,513,455,B,58.10199046662418,49.6678611518356,2.905099523331209,0.7801809385706231,B,704.5600999999806,Correct
13,513,456,B,73.80527419597914,51.788569452666785,3.690263709798957,0.8134929466621139,A,467.35609999996086,Incorrect
13,513,457,A,15.435777550396573,34.214166346093904,0.7717888775198287,0.5374348682079387,A,441.146099999969,Correct
13,513,458,B,74.37039800312495,50.865804226581034,3.718519900156247,0.798998184385818,B,455.80360000076325,Correct
13,513,459,A,38.37467139392322,59.08119887726673,1.9187335696961612,0.9280453017904934,A,616.6409999996176,Correct
13,513,460,A,30.34388138524754,52.98624351563042,1.5171940692623769,0.8323059668501217,B,3400.6455999997343,Incorrect
13,513,461,B,32.82819426560246,18.946198324266835,1.641409713280123,0.29760618734485966,B,441.208899999765,Correct
13,513,462,A,27.481512379137143,56.94241252455146,1.3740756189568573,0.8944493243240516,A,441.5027999993981,Correct
13,513,463,A,39.00245544312709,66.78898845016278,1.9501227721563543,1.0491189772786245,A,578.5827999998219,Correct
13,513,464,A,53.34410645586959,69.99065912495388,2.6672053227934795,1.0994107026343125,A,530.633399999715,Correct
13,513,465,B,74.64779963714743,54.563508118204034,3.732389981857372,0.8570815812911843,B,412.8890000001775,Correct
13,513,466,A,19.700299250439773,45.593951194557576,0.9850149625219886,0.7161881106047683,A,339.24239999942074,Correct
13,513,467,B,40.768737980296635,31.60902403248102,2.038436899014832,0.49651338843792797,B,405.19790000053035,Correct
13,513,468,B,64.23948118116361,37.4588473062807,3.2119740590581807,0.5884021975467664,B,349.4731999999203,Correct
13,513,469,B,65.24886692327138,36.184737157451394,3.262443346163569,0.5683885221296345,B,409.625700000106,Correct
13,513,470,A,55.26927230525514,74.27128750927173,2.763463615262757,1.1666506560589174,B,309.23189999975875,Incorrect
13,513,471,A,20.076638961919418,33.54779571455617,1.0038319480959708,0.5269675428049041,A,497.37809999987803,Correct
13,513,472,B,68.4687591346129,45.3060426190276,3.423437956730645,0.711665653275816,B,374.08139999934065,Correct
13,513,473,B,41.99768045926298,17.795751083832823,2.099884022963149,0.27953500435040896,B,341.2796000002345,Correct
13,513,474,B,66.98632577391729,54.770165483173756,3.3493162886958645,0.8603277475891797,B,384.33160000022326,Correct
13,513,475,A,29.895247998509866,54.09483647215174,1.4947623999254933,0.8497197042902656,B,385.982700000568,Incorrect
13,513,476,B,88.78763075751209,66.38496922435098,4.4393815378756045,1.0427726581200276,B,549.8972999994294,Correct
13,513,477,A,44.09247166575535,64.66604383716025,2.204623583287767,1.0157718412776908,A,617.7412999995795,Correct
13,513,478,A,27.387471755923226,56.960125060525506,1.3693735877961613,0.8947275521885142,A,406.7177000006268,Correct
13,513,479,B,56.66972524639546,25.838371531475353,2.8334862623197727,0.4058681909200331,B,358.76159999952506,Correct
13,513,480,A,41.762281504060574,65.57006149535316,2.0881140752030287,1.0299721174461622,A,353.27070000039384,Correct
13,513,481,A,48.39276987886331,64.48651619777196,2.4196384939431654,1.012951827712598,B,523.7713999995322,Incorrect
13,513,482,A,39.82418324020622,52.54793650249148,1.991209162010311,0.825421056387651,B,345.0003999996625,Incorrect
13,513,483,B,57.88371884440896,36.66149596306981,2.894185942220448,0.5758774319359599,B,316.0622000004878,Correct
13,513,484,B,82.91690899861588,66.2564756117804,4.145845449930794,1.040754285173603,B,502.2921999998289,Correct
13,513,485,B,88.28313281982518,65.33675234757847,4.414156640991259,1.026307305922841,B,302.320900000268,Correct
13,513,486,A,49.9633957745654,67.85467965465263,2.49816978872827,1.0658588155737276,A,504.82190000002447,Correct
13,513,487,B,41.0482582457456,15.840122558972716,2.0524129122872803,0.24881606331615322,B,403.0304999996588,Correct
13,513,488,B,44.50729941592559,29.31717088147478,2.2253649707962793,0.46051304332638876,B,354.4899999997142,Correct
13,513,489,B,53.337226409501376,43.87744356819007,2.6668613204750686,0.6892252718606332,B,425.9593999995559,Correct
13,513,490,B,32.42925684124312,14.192026834705953,1.6214628420621557,0.2229278362173071,B,322.7934999995341,Correct
13,513,491,A,13.111501305394714,30.245572765860206,0.6555750652697356,0.47509634602420975,A,413.2646999996723,Correct
13,513,492,A,24.60318527058802,47.450815670422855,1.2301592635294012,0.7453556695852194,B,430.43109999962326,Incorrect
13,513,493,A,40.80908936346339,49.84675072045554,2.0404544681731696,0.7829909293435242,B,446.16210000003775,Incorrect
13,513,494,A,50.31271789485091,77.1695358535678,2.515635894742546,1.2121762345925138,A,426.87130000012985,Correct
13,513,495,A,10.144549010294412,32.47148527446219,0.5072274505147206,0.5100608979469978,A,416.3872999997693,Correct
13,513,496,A,17.00583213217105,43.16948193102236,0.8502916066085525,0.6781046364688859,A,336.12799999991694,Correct
13,513,497,B,32.619283540723856,20.688917061072754,1.630964177036193,0.32498074924897347,B,444.3029000003662,Correct
13,513,498,B,33.84722967954532,17.41940632945914,1.692361483977266,0.2736233947726219,B,313.8615999996546,Correct
13,513,499,B,49.90647023227811,42.767338887861705,2.4953235116139054,0.6717877883184571,B,356.6038999997545,Correct
13,513,500,B,63.09595231728816,40.165235344174995,3.154797615864408,0.6309140414348263,B,438.2781000003888,Correct
13,513,501,A,41.09453307842048,52.99715905537151,2.054726653921024,0.8324774277474246,B,407.9439999995884,Incorrect
13,513,502,B,67.95120593734947,47.75349229219155,3.3975602968674736,0.750110102842029,B,440.739399999984,Correct
13,513,503,A,30.04293331879827,57.99094677735954,1.5021466659399136,0.910919661852347,A,524.9721000000136,Correct
13,513,504,A,54.483981686498815,82.47606643741518,2.724199084324941,1.2955310220838363,B,598.6101999997118,Incorrect
13,513,505,B,75.73914292748388,55.2088728955724,3.7869571463741942,0.8672189475085145,B,534.0845000000627,Correct
13,513,506,B,65.89392419473424,37.890621750768084,3.294696209736712,0.5951844946608132,B,412.9958000003171,Correct
13,513,507,B,88.58419365293085,68.4685452540762,4.429209682646542,1.0755013938609304,B,368.86089999916294,Correct
13,513,508,A,34.585242411775695,47.869616538783845,1.7292621205887848,0.7519341782420189,A,382.4216000002707,Correct
13,513,509,B,34.6064117222317,19.99709564505879,1.7303205861115851,0.3141136438582457,B,416.6233000005377,Correct
13,513,510,A,29.601500996434137,49.64022725374386,1.4800750498217068,0.7797468663144478,A,418.0366000000504,Correct
13,513,511,A,31.636033050940974,54.4995958495372,1.5818016525470486,0.8560776497225941,B,1046.4406000000963,Incorrect
13,513,512,A,55.13631541447238,81.62245825607995,2.756815770723619,1.2821225761262016,A,457.5074999993376,Correct
13,513,513,A,48.25990224873918,72.25551368522376,2.4129951124369593,1.1349869548742786,A,525.1011999998809,Correct
13,513,514,B,80.55558429046339,53.34911130620748,4.02777921452317,0.838005880775628,A,428.287900000214,Incorrect
13,513,515,B,49.837288961241555,31.99825795752951,2.4918644480620777,0.5026274606352292,B,363.50149999998393,Correct
13,513,516,B,51.98214975296449,21.79328729143354,2.599107487648224,0.34232815626169705,B,319.3817000001218,Correct
13,513,517,A,43.926590933418474,69.29003226871009,2.1963295466709236,1.0884052817118965,A,435.5284000002939,Correct
13,513,518,A,52.550761788297756,80.64858854479792,2.627538089414888,1.2668250664736154,A,453.9657999994233,Correct
13,513,519,B,37.41154879969169,24.910580924720197,1.8705774399845843,0.39129449014877504,A,389.21399999981077,Incorrect
13,513,520,B,52.63270398202164,44.216062921845825,2.631635199101082,0.6945442922296745,B,611.3018999994893,Correct
13,513,521,B,78.83171449870815,53.57009937628179,3.9415857249354076,0.84147715326301,B,371.0184000001391,Correct
13,513,522,B,57.35939276260791,49.66609689991836,2.8679696381303956,0.7801532257663115,B,362.2075000002951,Correct
13,513,523,A,18.739547945891058,41.10836082960199,0.936977397294553,0.6457286219169802,A,430.6621999994604,Correct
13,513,524,A,47.25401651924516,55.921958047440924,2.3627008259622584,0.8784200628809852,B,259.08670000080747,Incorrect
13,513,525,B,38.22806270365619,23.245082444554225,1.9114031351828096,0.36513290119950315,B,350.6815999999162,Correct
13,513,526,A,63.76652609045105,86.76243763428866,3.188326304522553,1.3628611833971194,A,446.98430000062217,Correct
13,513,527,B,53.62480795545617,31.37893020181395,2.6812403977728088,0.4928990829976279,B,352.6468999998542,Correct
13,513,528,A,48.87028972650417,57.061931260017694,2.443514486325208,0.8963267202305869,B,1277.3772999998982,Incorrect
13,513,529,A,23.72997621253713,38.3607471281255,1.1864988106268566,0.6025692068196741,A,546.3747000003423,Correct
13,513,530,B,67.2094359283374,39.594023132455014,3.3604717964168698,0.621941460994925,B,393.0086999998821,Correct
13,513,531,B,49.30684596236405,26.89522921335439,2.4653422981182023,0.4224692725664388,B,337.8247000000556,Correct
13,513,532,B,44.923387207513294,36.09864846687329,2.2461693603756645,0.5670362441402479,B,369.8478999995132,Correct
13,513,533,A,40.474272656090484,55.25752101697676,2.023713632804524,0.8679831104125889,A,551.1034000001018,Correct
13,513,534,B,64.5320274688685,54.24396241392862,3.226601373443425,0.852062169105995,B,400.1994000000195,Correct
13,513,535,A,45.32200410591497,61.60637433483134,2.2661002052957486,0.9677106651230444,A,403.5327999999936,Correct
13,513,536,B,41.51052824718654,21.53394293375097,2.075526412359327,0.33825438461746943,B,427.54690000037954,Correct
13,513,537,B,51.16990949959627,35.41777702373746,2.5584954749798134,0.5563411405212748,B,309.2139000000316,Correct
13,513,538,A,28.42951831477776,54.62398270483573,1.421475915738888,0.8580315138766393,A,339.3108000000211,Correct
13,513,539,A,57.05560276416835,69.62465620814632,2.8527801382084177,1.0936615422611373,A,352.5680000002467,Correct
13,513,540,A,45.322841551166874,67.82914761801594,2.2661420775583436,1.0654577592800825,A,428.71289999948203,Correct
13,513,541,A,63.75729921945942,88.47311415690228,3.1878649609729712,1.3897324273776768,B,438.70500000048196,Incorrect
13,513,542,A,31.797988701360545,52.57041023275858,1.5898994350680271,0.8257740729171802,B,328.6199000003762,Incorrect
13,513,543,B,86.535268847232,62.012739145379136,4.3267634423616,0.9740938286405163,B,370.0200000002951,Correct
13,513,544,A,17.612742269770195,34.38614073015886,0.8806371134885097,0.5401362355158592,A,434.5902000004571,Correct
13,513,545,B,80.21826833678827,67.59499082468713,4.010913416839413,1.0617796329715328,B,433.2122999994681,Correct
13,513,546,A,39.757940178697986,68.16277835743044,1.9878970089348993,1.070698418679864,A,505.77869999960967,Correct
13,513,547,A,35.06631284370028,43.03567095198316,1.753315642185014,0.6760027385252898,A,389.68279999971855,Correct
13,513,548,A,22.646683238137864,48.55650693452073,1.1323341619068932,0.7627238273473609,A,402.91069999966567,Correct
13,513,549,B,73.16099836579941,51.848616577830526,3.6580499182899704,0.8144361646985316,B,381.9522000003417,Correct
