subject,day,trial,cat,x,y,xt,yt,resp,rt,fb
16,216,0,B,57.916907142612025,34.95265696907626,2.895845357130601,0.5490350517874704,A,3214.07279999994,Incorrect
16,216,1,A,38.71052360079542,66.97321415829839,1.935526180039771,1.0520127879350307,A,891.0495000000083,Correct
16,216,2,A,40.76631507036839,49.35699359857125,2.0383157535184195,0.7752978424627494,A,2048.8689000003433,Correct
16,216,3,B,58.07607764624493,45.3561834947005,2.9038038823122467,0.7124532643091086,A,4059.4090999998116,Incorrect
16,216,4,B,54.072822811046166,45.52799495611646,2.7036411405523086,0.7151520724340431,B,2205.3728999999294,Correct
16,216,5,A,47.47668268733156,66.02984620019355,2.373834134366578,1.0371943987009598,B,2022.7724999999737,Incorrect
16,216,6,B,86.08548020714653,68.29820062030353,4.304274010357327,1.0728256266107372,B,1306.9471999997404,Correct
16,216,7,B,72.93883391990742,49.09690284221552,3.6469416959953715,0.7712123464155806,B,880.194500000016,Correct
16,216,8,A,53.2423130686915,61.94513655510468,2.662115653434575,0.9730319296356672,B,1374.0093000001252,Incorrect
16,216,9,B,50.91151338770609,42.08512756885196,2.5455756693853044,0.661071637978473,A,1909.5048999997744,Incorrect
16,216,10,A,28.076654214087036,50.81629521404965,1.4038327107043518,0.7982204986355427,A,585.3833999999551,Correct
16,216,11,B,89.36896785033227,64.52263844228648,4.468448392516613,1.0135192346025879,B,595.4689999998664,Correct
16,216,12,B,51.97398557530447,21.353403054196786,2.5986992787652237,0.3354184708210324,B,2833.440899999914,Correct
16,216,13,B,44.935253426270904,25.458250919952093,2.246762671313545,0.3998972703168354,A,1866.562199999862,Incorrect
16,216,14,B,75.81843242567375,53.223580417253686,3.790921621283687,0.8360340461829486,B,804.2414999999892,Correct
16,216,15,B,56.51652216733211,29.469239543858116,2.825826108366606,0.4629017322893124,B,1101.0799999999108,Correct
16,216,16,A,32.5435077262274,46.32947211395134,1.6271753863113703,0.7277416461894136,A,2702.1982999999636,Correct
16,216,17,A,29.797803877248867,42.39175266303042,1.4898901938624434,0.6658880936948595,A,2351.624400000219,Correct
16,216,18,A,18.3001362659661,38.60086441303356,0.915006813298305,0.6063409603110097,A,691.7811999996957,Correct
16,216,19,A,44.070399763024355,66.31828422186597,2.2035199881512177,1.0417251725504701,A,3493.1870999998864,Correct
16,216,20,A,19.643818028520634,33.13188993617215,0.9821909014260316,0.5204345101151202,A,839.412099999663,Correct
16,216,21,B,67.14051455509897,41.32401520239666,3.357025727754949,0.6491161128834114,B,1513.0898000002162,Correct
16,216,22,A,40.68184779313557,62.21269274067163,2.0340923896567786,0.9772346923706653,A,664.831999999933,Correct
16,216,23,B,57.1857521808193,28.715281441493254,2.8592876090409654,0.4510585861117926,B,1506.2497999997504,Correct
16,216,24,B,77.17875353295156,65.38032841043497,3.8589376766475776,1.0269917971175528,B,917.3123000000487,Correct
16,216,25,A,37.08206152531133,68.231118251373,1.8541030762655666,1.0717718992236493,A,1397.3194000000149,Correct
16,216,26,A,21.56528905389564,48.73852439305119,1.078264452694782,0.7655829509000828,A,677.0603000004485,Correct
16,216,27,B,58.20859665999234,42.1068300847509,2.910429832999617,0.6614125403010356,B,783.0292999997255,Correct
16,216,28,B,76.73042777411067,59.714665642536445,3.8365213887055334,0.9379957744708167,B,894.7659000000385,Correct
16,216,29,B,71.02905603442026,53.225003655785194,3.551452801721013,0.8360564023615233,B,2489.813300000151,Correct
16,216,30,A,63.22126425643518,87.50153416373114,3.161063212821759,1.3744708845330702,A,2952.7532000001884,Correct
16,216,31,B,55.07129077762501,24.881987713742042,2.75356453888125,0.3908453490410174,B,876.0941999998977,Correct
16,216,32,A,49.202210129217924,63.55547981596068,2.460110506460896,0.9983271424259823,A,4021.1835000000065,Correct
16,216,33,A,20.138237234642773,49.26596098391276,1.0069118617321386,0.7738679054955087,A,2182.892399999673,Correct
16,216,34,B,64.9111352929781,45.37779701172289,3.2455567646489047,0.7127927686405875,B,1029.2583000000377,Correct
16,216,35,A,40.18117262641341,63.89740926377192,2.0090586313206704,1.0036981576324313,A,1314.812300000085,Correct
16,216,36,A,37.63518821581479,60.83763237315328,1.8817594107907396,0.9556352946264748,A,2768.3351000000584,Correct
16,216,37,A,15.727822963138223,44.011496038245205,0.7863911481569111,0.6913309631362371,A,806.4518999999564,Correct
16,216,38,A,61.25314469548218,77.94458810427481,3.0626572347741092,1.2243507268773606,A,1552.6578999997582,Correct
16,216,39,B,81.89251141475454,55.67735498154829,4.094625570737727,0.8745778469067158,B,562.3302999997577,Correct
16,216,40,A,40.169487341064624,71.92917186127069,2.008474367053231,1.1298607894908281,A,2184.9864000000707,Correct
16,216,41,B,68.22561883958507,50.71410364856722,3.4112809419792534,0.7966152772786503,B,791.0547000001316,Correct
16,216,42,A,55.63365079051208,79.92097557541592,2.781682539525604,1.2553957486772798,A,711.6364999997131,Correct
16,216,43,A,23.61254306597743,51.73269685647958,1.1806271532988715,0.8126153019735202,A,1290.9673999997722,Correct
16,216,44,B,88.5295530306309,64.82896121065521,4.4264776515315445,1.0183309413962602,B,694.8707000001377,Correct
16,216,45,B,72.33895422529258,41.17800254552658,3.616947711264629,0.6468225514326406,B,692.945900000268,Correct
16,216,46,A,54.81937468898636,63.81985895081915,2.7409687344493183,1.0024800001651513,B,2705.1126000001204,Incorrect
16,216,47,A,37.10112020243633,61.51547929117968,1.8550560101218165,0.9662828891161257,B,863.1995000000643,Incorrect
16,216,48,B,65.04795896240657,40.5819301354037,3.2523979481203287,0.6374594679093926,B,774.6723999998721,Correct
16,216,49,B,58.547045609402495,47.25832008876935,2.927352280470125,0.7423319560593638,B,4643.381599999884,Correct
16,216,50,B,66.71525388803998,52.405459330978545,3.335762694401999,0.8231830302110044,B,869.0302999998494,Correct
16,216,51,A,21.609218188286526,36.5949781890519,1.0804609094143263,0.5748325731850208,A,581.6412000003766,Correct
16,216,52,A,39.452854901553415,61.438797085154704,1.972642745077671,0.96507836784058,A,1383.2923999998457,Correct
16,216,53,B,31.139634827292728,14.640651412604083,1.5569817413646365,0.22997481460803004,B,724.3097000000489,Correct
16,216,54,A,27.310374105013985,36.81026540406231,1.3655187052506992,0.5782142968504632,A,875.7773000002089,Correct
16,216,55,B,64.65053611203463,33.33881397080622,3.232526805601731,0.5236848652504079,B,1768.2220000001507,Correct
16,216,56,B,64.1454674419486,39.24354736461718,3.20727337209743,0.6164362005074221,B,2782.3072999999567,Correct
16,216,57,A,23.575710615324404,36.0781895794412,1.17878553076622,0.5667148766879616,A,503.7091999997756,Correct
16,216,58,A,50.91423993657412,78.87454513647816,2.545711996828706,1.238958457779982,A,832.5579000002108,Correct
16,216,59,B,57.34806983964208,42.10505485466757,2.8674034919821043,0.6613846550520944,A,3547.8588000000855,Incorrect
16,216,60,B,71.61162975962253,49.163975509819856,3.5805814879811266,0.7722659214145928,B,842.5122999997257,Correct
16,216,61,B,55.49670564342486,32.261016435222096,2.774835282171243,0.5067548611511665,B,1029.334100000142,Correct
16,216,62,B,63.578519816287766,32.38523351567831,3.1789259908143883,0.5087060584882246,B,556.5237999999226,Correct
16,216,63,B,50.659612030892944,37.14762462055622,2.532980601544647,0.5835135230312537,B,3492.810499999905,Correct
16,216,64,A,33.34961988466855,50.16828122486181,1.6674809942334274,0.788041518696263,A,774.505500000032,Correct
16,216,65,A,24.76084770651677,55.319563137458616,1.2380423853258384,0.8689576657621836,A,2059.4412999998895,Correct
16,216,66,A,23.963065849670564,43.405559889646376,1.198153292483528,0.6818129403713242,A,645.4272999999375,Correct
16,216,67,B,63.51442994613654,37.62099991886513,3.1757214973068266,0.5909492848290445,B,784.1920000000755,Correct
16,216,68,A,37.94771106980397,59.16756897973307,1.8973855534901987,0.9294020001874836,A,2457.054199999675,Correct
16,216,69,B,53.14158343279256,33.12240762221887,2.6570791716396283,0.5202855622758469,B,662.0666000003439,Correct
16,216,70,A,11.587689192695429,35.97535107542071,0.5793844596347715,0.5650994932442769,A,2387.028499999815,Correct
16,216,71,B,54.221092844574784,34.57290845417678,2.7110546422287394,0.5430699760643711,B,1527.1878000003198,Correct
16,216,72,B,51.030885708631516,22.415595676163118,2.5515442854315755,0.352103353510366,B,1351.7820000001848,Correct
16,216,73,A,26.109235304692398,44.39398560625495,1.3054617652346199,0.6973390952209079,A,1631.8059000000176,Correct
16,216,74,A,18.72017079203022,42.36462324292198,0.936008539601511,0.6654619457603155,A,955.4124000001138,Correct
16,216,75,A,61.09903372557582,71.4416891100526,3.0549516862787915,1.1222034283409354,B,1755.6663999998818,Incorrect
16,216,76,A,43.17069755130037,71.55574393409533,2.158534877565019,1.1239949973275314,A,717.3863000002711,Correct
16,216,77,A,66.4241092497029,88.9553371676876,3.321205462485145,1.3973071687180523,A,575.0312000000122,Correct
16,216,78,A,66.49622753599763,78.6438714770917,3.3248113767998815,1.2353350444114557,A,592.4373999996533,Correct
16,216,79,A,35.41935633739674,68.34243841531806,1.7709678168698373,1.0735205122698803,A,479.3456999996124,Correct
16,216,80,A,49.71310865793866,79.77165407102903,2.4856554328969334,1.2530502119712557,A,567.6327000001038,Correct
16,216,81,B,65.20764003578012,53.55787893722827,3.2603820017890057,0.8412851950552392,B,701.4561000000867,Correct
16,216,82,A,61.52531242223326,76.11591429421733,3.0762656211116632,1.1956259858399174,A,655.937300000005,Correct
16,216,83,B,61.54989530082763,45.4850536902799,3.0774947650413815,0.7144775526076032,B,1161.9201000003159,Correct
16,216,84,B,86.3704209433896,62.83036372894788,4.31852104716948,0.9869370455661864,B,1087.4463000000105,Correct
16,216,85,B,70.41299270116873,52.4221965064263,3.5206496350584366,0.823445937148147,B,700.7125999998607,Correct
16,216,86,B,36.84149902828963,17.27411721131009,1.8420749514144816,0.27134119864150397,B,771.0719000001518,Correct
16,216,87,B,70.58690050922851,54.882661180403225,3.5293450254614256,0.8620948258690626,B,640.3215000000273,Correct
16,216,88,A,51.30683866664346,73.81547975815006,2.5653419333321725,1.1594908446470515,A,1456.6506000001027,Correct
16,216,89,B,53.53273064012082,30.16185785622521,2.676636532006041,0.47378135529868354,B,932.8136999997696,Correct
16,216,90,A,57.59430081503308,67.42986729709732,2.879715040751654,1.059185878665478,A,1253.0667999999423,Correct
16,216,91,A,54.65026580924817,62.88210013608268,2.7325132904624083,0.9877497191490755,A,582.4840999998742,Correct
16,216,92,B,35.297928353724984,23.7429564527109,1.7648964176862492,0.37295348783169463,B,948.2812000001104,Correct
16,216,93,B,36.62036489720853,12.322766461112234,1.8310182448604266,0.19356556293066443,B,634.9350000000413,Correct
16,216,94,B,31.937647558860792,16.620892139396414,1.5968823779430397,0.26108036320618055,B,2771.7750000001615,Correct
16,216,95,A,33.4990559315407,54.12551618042944,1.6749527965770352,0.850201620020963,A,572.9203999999299,Correct
16,216,96,B,34.72147645564851,16.509726684944084,1.7360738227824255,0.2593341803309785,B,979.2778000000908,Correct
16,216,97,A,40.85752658361326,61.342536667129664,2.042876329180663,0.9635663127300853,A,1405.7693999998264,Correct
16,216,98,A,58.28215250700076,81.73471293044425,2.914107625350038,1.2838858684277719,B,495.7150999998703,Incorrect
16,216,99,B,37.55610566347663,24.76001433099476,1.8778052831738312,0.3889293956251557,B,788.4057000001121,Correct
16,216,100,B,61.55628796306148,36.387115672549115,3.077814398153074,0.5715674764110117,B,1361.4222999999583,Correct
16,216,101,A,23.942673192723603,44.158161103972716,1.1971336596361801,0.6936347726013761,A,824.3128000003708,Correct
16,216,102,B,59.34208496625604,49.4828754611281,2.967104248312802,0.7772751901358935,B,2319.532000000436,Correct
16,216,103,A,47.633194998530946,75.49947049702902,2.381659749926547,1.1859429093169285,A,962.0107999999163,Correct
16,216,104,B,62.93895927798098,45.931764882998436,3.1469479638990485,0.7214944756142075,B,1116.8287999998938,Correct
16,216,105,B,43.037033420296375,32.52549823325546,2.151851671014819,0.5109093315197157,B,742.2135000001617,Correct
16,216,106,A,42.555001225906395,52.260850341228206,2.1277500612953197,0.8209115175117909,B,4020.2955000004295,Incorrect
16,216,107,B,39.629092141511045,18.87288730260611,1.9814546070755523,0.2964546205094772,B,625.5831000003127,Correct
16,216,108,B,66.65696797284068,34.83537058377423,3.332848398642034,0.5471927215553155,B,785.5998,Correct
16,216,109,B,85.86714756634031,58.87858366400879,4.293357378317015,0.9248626294631099,A,494.56659999987096,Incorrect
16,216,110,A,49.47620914867729,76.6823423761881,2.473810457433865,1.204523417345449,A,998.3289000001605,Correct
16,216,111,A,34.426063155552356,57.64491824387868,1.7213031577776179,0.9054842583587676,A,1157.7869000002465,Correct
16,216,112,B,53.482323707251936,44.56925783572409,2.6741161853625965,0.7000922649633006,A,2483.5674999999355,Incorrect
16,216,113,A,52.885939219359,60.58084327265328,2.64429696096795,0.951601660868211,A,641.9684000002235,Correct
16,216,114,A,14.336021768174362,42.7703825871404,0.7168010884087181,0.6718355986349256,B,446.68830000000526,Incorrect
16,216,115,A,24.479032020840794,53.39569077029012,1.2239516010420397,0.8387375492864788,A,631.5354999996998,Correct
16,216,116,A,28.033429545368485,45.01640926705082,1.4016714772684242,0.7071161032217917,A,693.8525999999001,Correct
16,216,117,B,60.159353148982966,52.81338612318915,3.0079676574491483,0.8295907292790609,B,1826.8559000002824,Correct
16,216,118,B,50.11817077241142,41.9073039220126,2.505908538620571,0.6582783906657476,B,1264.4131000001835,Correct
16,216,119,B,51.983647626669985,27.32402044686055,2.5991823813334993,0.4292047095119719,B,814.7772000002078,Correct
16,216,120,B,58.575656578254964,29.081113771110722,2.928782828912748,0.45680506690765205,B,1643.7592000002041,Correct
16,216,121,A,44.27284857706583,59.923347178479595,2.213642428853291,0.9412737363721108,A,1358.5596000002624,Correct
16,216,122,B,66.77968279927866,41.17538202702941,3.338984139963933,0.6467813884243439,B,3606.8476000000373,Correct
16,216,123,A,18.30704783670497,31.48658973111458,0.9153523918352485,0.49459019492932693,A,756.9356000003609,Correct
16,216,124,B,52.013257956550035,45.379182307065946,2.600662897827502,0.7128145288089515,A,1925.772600000073,Incorrect
16,216,125,A,50.14000309226628,60.884960011740034,2.507000154613314,0.9563787154349541,A,1493.0195000001731,Correct
16,216,126,A,19.271301867278005,38.45787171018595,0.9635650933639002,0.6040948361870946,A,525.2907000003688,Correct
16,216,127,B,88.4978248547539,61.713956657351574,4.424891242737695,0.9694005642934731,B,786.5390000001753,Correct
16,216,128,A,59.79897837844833,87.37176321758729,2.9899489189224164,1.3724324472777958,A,753.450900000189,Correct
16,216,129,B,37.30206330972696,12.986294109446074,1.8651031654863481,0.20398823085796094,B,863.2238000000143,Correct
16,216,130,A,32.91203821072489,49.32624645317662,1.6456019105362443,0.7748148674322964,A,1424.1385999998784,Correct
16,216,131,B,77.3018845744584,47.85504883739912,3.86509422872292,0.7517053493237692,B,764.29459999963,Correct
16,216,132,A,37.2318559739106,60.07301471499038,1.8615927986955298,0.9436247085380265,A,1700.3018000000338,Correct
16,216,133,B,67.5757345246518,51.5709896129497,3.3787867262325904,0.8100752105319914,B,3346.3856000003034,Correct
16,216,134,A,31.572939146872017,63.97043466794966,1.5786469573436008,1.0048452379988824,A,1349.1734999997789,Correct
16,216,135,B,57.78058484704342,50.234236667777594,2.889029242352171,0.7890775443709056,A,1985.3469999998197,Incorrect
16,216,136,A,49.31249550657262,71.93653943755737,2.4656247753286307,1.1299765191085134,A,654.3252999999822,Correct
16,216,137,A,47.30214513824412,72.70682718206686,2.3651072569122062,1.1420761707050195,A,543.4391999997388,Correct
16,216,138,B,74.57422035740059,59.23409100129863,3.7287110178700296,0.9304469256587451,B,1859.8724999997103,Correct
16,216,139,A,27.459477946648228,48.367230113630875,1.3729738973324115,0.7597506739973487,A,1347.628700000314,Correct
16,216,140,A,68.5615912350803,83.39419053849224,3.428079561754015,1.3099528817389732,A,1141.8429000000287,Correct
16,216,141,A,22.132009410559817,54.359616978692536,1.1066004705279908,0.8538788667610773,A,640.3361999996378,Correct
16,216,142,A,40.05375473298618,64.1329059389278,2.002687736649309,1.0073973307555042,A,1677.3542999999336,Correct
16,216,143,B,84.6937965611631,67.23959627660085,4.234689828058155,1.0561971084645643,B,565.9139999997933,Correct
16,216,144,B,57.07315053818332,43.672003307661484,2.853657526909166,0.6859982237944923,B,813.650399999915,Correct
16,216,145,A,56.35616464921439,68.92670511708684,2.81780823246072,1.0826981521599501,A,2997.965000000022,Correct
16,216,146,B,48.42723411318932,21.05650913605413,2.421361705659466,0.33075487206037013,B,522.6775999999518,Correct
16,216,147,B,68.58466198390295,42.325048983481274,3.429233099195147,0.6648403147466644,B,986.1399000001256,Correct
16,216,148,A,17.905450411876977,40.69075666849472,0.8952725205938489,0.6391689110937645,A,510.55970000015805,Correct
16,216,149,A,37.70733106531419,46.94197841851129,1.8853665532657096,0.7373628727228284,B,2556.1099000001377,Incorrect
16,216,150,B,49.52066036881278,27.920829369628834,2.476033018440639,0.4385793621488004,B,612.1352999998635,Correct
16,216,151,B,45.692635246976195,38.149360151050296,2.2846317623488095,0.599248747948454,B,1581.5448000003016,Correct
16,216,152,B,82.47406295441218,53.53777426345035,4.123703147720608,0.8409693915780214,B,2703.2209999997576,Correct
16,216,153,B,42.213034367913,21.451052516328794,2.11065171839565,0.33695234498533694,B,808.0758999999489,Correct
16,216,154,B,69.95852984356866,44.051767407529255,3.4979264921784328,0.691963544325701,B,1882.0083000000523,Correct
16,216,155,B,71.31935536182438,53.6311717922343,3.5659677680912187,0.8424364765294772,B,1492.5318000000516,Correct
16,216,156,A,30.419596360067516,58.147937390298075,1.5209798180033758,0.9133856646337984,A,1913.7943000000632,Correct
16,216,157,A,17.132357578894823,47.86861430143353,0.8566178789447412,0.7519184351345345,A,749.3954999999914,Correct
16,216,158,A,22.11639548496877,52.8096376333715,1.1058197742484384,0.8295318481386948,A,628.5883999998987,Correct
16,216,159,A,59.380348589126825,74.91599970845229,2.969017429456341,1.176777771602044,A,1006.5354999996998,Correct
16,216,160,A,65.06235648731104,82.97758287003711,3.253117824365552,1.3034088237857342,A,750.0092000000222,Correct
16,216,161,B,47.71216409442045,23.776731060514155,2.3856082047210223,0.3734840181304576,B,793.3386000004248,Correct
16,216,162,B,39.65689589482032,26.210811252462427,1.982844794741016,0.41171846037682325,A,566.3107000000309,Incorrect
16,216,163,B,87.92342830204143,61.94064443686508,4.396171415102072,0.9729613676073641,B,1361.6541999999754,Correct
16,216,164,A,19.246860794953623,36.47898551366944,0.9623430397476811,0.573010564500762,A,628.1375000003209,Correct
16,216,165,A,32.3350301456589,48.9617391338566,1.6167515072829448,0.7690891998495187,A,1376.035999999658,Correct
16,216,166,A,23.874991041370038,55.90866651466185,1.193749552068502,0.8782112799723167,A,1026.8141999999898,Correct
16,216,167,A,25.68718637515464,38.348079987265976,1.2843593187577318,0.6023702318363428,A,768.3640999998715,Correct
16,216,168,A,46.87206175679218,75.33766460681244,2.343603087839609,1.1834012683368687,A,870.9567000000789,Correct
16,216,169,A,48.89175372950392,76.84385866767393,2.444587686475196,1.2070605093192837,A,556.2530000001971,Correct
16,216,170,B,80.98032539322152,50.33081645659726,4.049016269661076,0.790594616146111,B,533.0874999999651,Correct
16,216,171,A,14.713172132050712,43.894171176725635,0.7356586066025357,0.6894880285210705,A,586.0870000001341,Correct
16,216,172,A,28.835509011588098,40.664899615670535,1.4417754505794047,0.6387627494577847,A,786.3717999998698,Correct
16,216,173,B,61.4429786576737,39.38443352807042,3.072148932883685,0.6186492351879078,B,1306.9455000004382,Correct
16,216,174,B,53.0804977886521,37.109948141701466,2.654024889432605,0.5829217022853376,B,980.3408000002491,Correct
16,216,175,A,34.2740872837866,63.43222814419532,1.71370436418933,0.9963911096931788,A,1135.6751000002987,Correct
16,216,176,A,56.331135830716704,73.13091039317635,2.816556791535835,1.1487376542076813,A,663.6702999999216,Correct
16,216,177,B,52.69330248505507,30.49206920377229,2.634665124252754,0.47896830301661303,B,1259.286499999689,Correct
16,216,178,A,64.50436649027704,85.63625014915455,3.225218324513852,1.345171071747809,A,782.3401999999078,Correct
16,216,179,B,61.07468950133233,45.28191868803269,3.0537344750666167,0.7112867154538692,B,2634.2383999999583,Correct
16,216,180,A,50.120418124403116,74.70697330850413,2.5060209062201557,1.1734943925896266,A,689.980099999957,Correct
16,216,181,A,26.203869857481983,39.10645991115124,1.310193492874099,0.6142828358238824,A,505.43840000000273,Correct
16,216,182,B,37.81583937923516,12.957666865780457,1.890791968961758,0.2035385551659988,B,639.5200999995723,Correct
16,216,183,B,82.86494533027192,55.086773862539516,4.143247266513596,0.8653010203825819,B,1921.2164000000485,Correct
16,216,184,A,61.42383579765813,71.21603193527994,3.0711917898829064,1.1186588137284577,A,3660.291099999995,Correct
16,216,185,A,67.06561672422833,84.63426347527498,3.353280836211417,1.329431901879534,A,1031.3372999999046,Correct
16,216,186,A,34.04521007656826,51.386473731351956,1.7022605038284129,0.807176841841501,A,1565.7126000000972,Correct
16,216,187,A,51.71713911138798,66.20994863169263,2.585856955569399,1.0400234410794156,A,591.3818999997602,Correct
16,216,188,A,20.221376358404218,51.48366073558937,1.0110688179202107,0.8087034517341842,A,1792.207999999846,Correct
16,216,189,A,38.694058264881086,70.74013612687982,1.9347029132440543,1.1111834598507377,A,464.7978000002695,Correct
16,216,190,B,38.212229571066246,17.912921674047265,1.9106114785533124,0.2813755156775813,B,655.9897000001911,Correct
16,216,191,A,53.45553511111271,82.8737799784815,2.672776755555635,1.3017782917780716,A,798.9102000001367,Correct
16,216,192,A,24.213250726728774,43.856257408365906,1.2106625363364387,0.6888924804403264,A,1184.8549000001185,Correct
16,216,193,A,28.116385456038437,44.06169941108164,1.4058192728019219,0.6921195558726789,A,653.030999999828,Correct
16,216,194,A,51.14645207645172,70.71292548038944,2.5573226038225862,1.11075603601517,A,589.313299999958,Correct
16,216,195,B,68.91659816580047,50.237004712181054,3.445829908290023,0.7891210247107191,B,762.0289999999841,Correct
16,216,196,B,83.69634747595565,56.07192332495339,4.184817373797782,0.8807757119516187,B,670.9911000002649,Correct
16,216,197,A,22.132760661335656,43.72732823438096,1.1066380330667827,0.6868672657112038,A,704.6661000003951,Correct
16,216,198,A,62.471774528902856,74.96516203270782,3.123588726445143,1.1775500115856168,A,1554.6266999999716,Correct
16,216,199,A,48.373915760766955,71.97493395563065,2.4186957880383475,1.1305796187880988,A,644.0019000001485,Correct
16,216,200,B,59.08182234366655,33.617009777681695,2.954091117183328,0.5280547547661052,B,653.965099999823,Correct
16,216,201,A,30.61473071482225,63.9339547925053,1.5307365357411127,1.004272213455383,A,765.9917999999379,Correct
16,216,202,A,40.60361530545119,54.188994970548826,2.0301807652725596,0.8511987425244523,A,927.9092000001583,Correct
16,216,203,A,61.28754942043592,74.03649253494333,3.064377471021796,1.1629625052266677,A,1332.9364999999598,Correct
16,216,204,B,65.77281729270085,52.148358262304995,3.2886408646350422,0.8191444960681298,A,1633.3623000000443,Incorrect
16,216,205,B,58.99725700575031,38.34242407895228,2.949862850287516,0.6022813890363043,A,622.6221000001715,Incorrect
16,216,206,B,58.848904111052526,36.61946069567841,2.9424452055526262,0.5752171434998172,B,726.6324000001987,Correct
16,216,207,A,34.52522474380746,62.50513152811354,1.7262612371903732,0.9818283101019262,A,601.4200000004166,Correct
16,216,208,A,58.69008642472963,86.06880000901768,2.934504321236482,1.3519655490580953,A,661.5764000002855,Correct
16,216,209,B,75.19182890652225,52.683750275784035,3.7595914453261123,0.8275544141498118,B,916.7966999998498,Correct
16,216,210,B,84.94869887120907,60.93140526244735,4.247434943560454,0.9571082757270353,A,728.0684999996083,Incorrect
16,216,211,A,18.205111373316853,40.123698681072234,0.9102555686658427,0.6302615850565351,A,656.3707999998769,Correct
16,216,212,B,57.634207916947695,42.47162508037771,2.8817103958473846,0.667142726692673,B,1083.7127999998302,Correct
16,216,213,B,80.42217074936237,67.50187366048337,4.021108537468118,1.0603169519766047,B,554.0705000003072,Correct
16,216,214,B,52.77822469478222,33.23448317648188,2.6389112347391106,0.5220460409654453,B,767.0711999999185,Correct
16,216,215,A,30.09708281223076,47.44480692558814,1.5048541406115379,0.7452612844420693,A,760.1992999998402,Correct
16,216,216,B,82.94212761854867,57.427890773302266,4.1471063809274336,0.9020751988228173,B,2112.732700000379,Correct
16,216,217,B,45.664852607074806,18.629141901708994,2.2832426303537403,0.2926258767054538,A,1128.7916999999652,Incorrect
16,216,218,B,60.4139648732837,45.794841183833114,3.020698243664185,0.7193436831772072,B,1335.1457000003393,Correct
16,216,219,B,35.620105190046765,15.336681772403097,1.7810052595023382,0.24090803393313032,B,534.9006000001282,Correct
16,216,220,B,76.20125203040857,64.85758838948043,3.8100626015204284,1.018780616069712,B,1104.0171999998165,Correct
16,216,221,B,72.44961373362612,47.88688931616703,3.622480686681306,0.7522054983946893,B,465.9511999998358,Correct
16,216,222,B,58.881326008931644,35.86419767408415,2.9440663004465826,0.5633534996989746,B,2246.929899999941,Correct
16,216,223,A,42.953961623168254,51.55907100248344,2.1476980811584125,0.8098879934365826,A,1134.6748999999363,Correct
16,216,224,B,83.63024184643307,62.34152861272784,4.181512092321653,0.9792584415165183,B,626.5610999998898,Correct
16,216,225,A,67.81234571468053,89.84471403764904,3.3906172857340264,1.41127746792277,A,718.1923000002826,Correct
16,216,226,A,28.360658130065197,44.91772759119651,1.4180329065032597,0.7055660150822526,A,636.5521999996417,Correct
16,216,227,B,56.0097413000004,34.614173577208,2.8004870650000204,0.5437181671011929,B,674.6294999998099,Correct
16,216,228,B,60.52326146023502,48.57495010862502,3.026163073011751,0.7630135320487353,B,718.5091999999713,Correct
16,216,229,A,26.430557418793466,40.69147086178175,1.3215278709396734,0.6391801296156834,A,941.4162999996734,Correct
16,216,230,B,40.781740263093184,30.997775985948447,2.039087013154659,0.4869119265753887,B,2680.764299999737,Correct
16,216,231,A,20.11759810507735,37.209673564305554,1.0058799052538674,0.5844881855604833,A,1994.144199999937,Correct
16,216,232,A,25.793144218044105,53.06741615438532,1.2896572109022053,0.8335810236780462,A,822.0550999999432,Correct
16,216,233,B,67.3796087384795,38.086461751818106,3.3689804369239753,0.598260742203702,B,1353.1177999998363,Correct
16,216,234,A,62.88547402259039,73.48417527908435,3.1442737011295194,1.1542867260593803,A,1225.6781000000956,Correct
16,216,235,A,36.42913108313243,67.33026337269328,1.8214565541566217,1.0576213038795959,A,2230.1093000000947,Correct
16,216,236,B,82.92381015970727,59.13299821232567,4.146190507985364,0.9288589638429033,B,611.0923999999613,Correct
16,216,237,B,37.76394944796671,11.881758453891852,1.8881974723983352,0.1866382253523753,A,676.2329000002865,Incorrect
16,216,238,B,61.82547465690044,50.43452114283758,3.091273732845022,0.7922236055482882,B,1535.8676000000742,Correct
16,216,239,B,63.28870896470341,47.81280386366839,3.164435448235171,0.7510417668281515,B,579.7161000000415,Correct
16,216,240,B,49.918788879856336,33.94569413375998,2.4959394439928166,0.5332177165581324,B,537.5309000000925,Correct
16,216,241,A,38.01846497165875,60.51236052273692,1.9009232485829375,0.9505259363480366,A,910.2408000003379,Correct
16,216,242,A,47.008115830022305,58.14822695993571,2.350405791501115,0.9133902131830298,A,1380.8436999997866,Correct
16,216,243,A,34.04521326517895,51.75346226025364,1.7022606632589474,0.8129414841732472,A,514.1664000002493,Correct
16,216,244,A,68.84527207521087,85.40973713691335,3.4422636037605434,1.3416130136718116,A,911.3917999998193,Correct
16,216,245,A,18.992872583202985,42.446058423433314,0.9496436291601492,0.6667411265845062,A,536.7581000000428,Correct
16,216,246,A,54.03500599283353,68.01625517382627,2.7017502996416765,1.0683968378939068,A,430.6018000002041,Correct
16,216,247,B,79.48418879334042,55.74220301453491,3.974209439667021,0.8755964774268686,B,700.6962999998905,Correct
16,216,248,B,40.21563674929709,27.711733174343294,2.0107818374648545,0.43529488679378725,B,1489.6527999999307,Correct
16,216,249,B,78.80688964485127,61.52106141509188,3.9403444822425633,0.9663705729134956,B,822.9254000002584,Correct
16,216,250,B,53.67352898552265,42.261204905890516,2.6836764492761325,0.6638374543209928,B,789.5684000000074,Correct
16,216,251,A,17.045153392040223,45.12468315548671,0.8522576696020111,0.7088168654842206,A,648.3441000000312,Correct
16,216,252,B,73.81187311260773,53.93317758322717,3.690593655630386,0.8471803724011009,B,1810.8625999998367,Correct
16,216,253,B,72.80439290818265,58.688678203761114,3.6402196454091325,0.9218796014691567,B,1146.6110999999728,Correct
16,216,254,B,51.39700744086307,42.27542209950286,2.5698503720431534,0.6640607774760289,B,915.1727999997092,Correct
16,216,255,B,49.82466105348543,29.773828752668727,2.4912330526742714,0.4676862083931232,B,1050.6319999999505,Correct
16,216,256,A,30.87959045593653,44.08345674488998,1.5439795227968265,0.6924613192729488,B,834.0876000002027,Incorrect
16,216,257,B,57.313790645579786,28.03001814542006,2.8656895322789895,0.44029449542820126,B,1010.1422000002458,Correct
16,216,258,A,42.739032053436105,73.07571492023868,2.1369516026718056,1.1478706457462193,A,686.2670999998954,Correct
16,216,259,A,63.04438013182761,86.21710280922733,3.1522190065913804,1.3542950839963221,A,677.7573999997912,Correct
16,216,260,B,64.63704648988933,39.42641171791411,3.2318523244944664,0.6193086270520275,B,696.5104999999312,Correct
16,216,261,A,52.152781726052794,80.30938861128904,2.60763908630264,1.2614969263775673,A,1094.6097000000918,Correct
16,216,262,B,76.46763317039517,49.063416809370125,3.8233816585197586,0.7706863490416558,B,681.0977000000094,Correct
16,216,263,B,58.441063886234694,28.765632884952634,2.9220531943117347,0.45184950473614083,A,913.6796999996477,Incorrect
16,216,264,A,44.25730940082923,74.38081804122925,2.2128654700414616,1.1683711576316247,A,1512.8684000001158,Correct
16,216,265,B,59.06780204100761,51.9398527839726,2.9533901020503803,0.8158692996733183,B,1873.1542000000445,Correct
16,216,266,B,57.588870770481606,26.238582889098215,2.87944353852408,0.41215469622498896,B,479.0027999997619,Correct
16,216,267,B,58.26613556081559,30.365732920672563,2.9133067780407793,0.4769838173222733,B,586.611400000038,Correct
16,216,268,A,22.631565295504288,47.829547683537655,1.1315782647752144,0.751304778135623,A,791.2987999998222,Correct
16,216,269,B,33.15946833264985,18.6437453944067,1.6579734166324926,0.2928552678323331,B,887.3289000002842,Correct
16,216,270,A,32.64124947944803,43.29895895594455,1.6320624739724012,0.6801384568204069,A,1332.8421999999591,Correct
16,216,271,A,24.84718739954593,52.21721197676665,1.2423593699772966,0.8202260476857552,A,710.5446000000484,Correct
16,216,272,B,37.94330452394279,25.27523946075018,1.8971652261971397,0.39702253303807805,B,786.685099999886,Correct
16,216,273,A,25.512633080971234,56.86835668262307,1.2756316540485617,0.8932860578792634,B,815.4167000002417,Incorrect
16,216,274,A,44.04556596931085,59.8067508733519,2.2022782984655422,0.9394422458939864,A,715.8141999998406,Correct
16,216,275,A,32.27560415888872,56.6803506241327,1.6137802079444359,0.8903328656183447,A,574.8837999999523,Correct
16,216,276,B,60.85624782931606,49.64560604142687,3.0428123914658034,0.7798313561137985,B,716.1455000000387,Correct
16,216,277,B,62.430170268993216,51.84587084367564,3.121508513449661,0.8143930348072832,B,1572.7133000000322,Correct
16,216,278,A,36.57796323182471,48.96389981332688,1.8288981615912354,0.7691231397232718,A,545.9628999997221,Correct
16,216,279,A,48.518557846703686,71.76348817202613,2.425927892335184,1.1272582361860763,A,1337.7030999999988,Correct
16,216,280,B,73.94048104190395,57.06609362628822,3.6970240520951974,0.896392102527072,B,824.634099999912,Correct
16,216,281,B,59.7842775495722,37.0905800152365,2.98921387747861,0.5826174684662568,B,1306.5879000000677,Correct
16,216,282,A,45.16258723131753,56.07981184044216,2.2581293615658766,0.8808996244631548,A,1448.1190999999853,Correct
16,216,283,B,54.46870467729602,43.248234025869614,2.723435233864801,0.6793416714820204,A,2384.4328000000132,Incorrect
16,216,284,A,28.46783675403625,40.16643648800676,1.4233918377018124,0.6309329089580153,A,614.2555999999786,Correct
16,216,285,A,56.116161280794955,69.24429309407552,2.8058080640397476,1.0876868124368306,A,1145.2915999998368,Correct
16,216,286,A,43.36542546622092,65.19997470730104,2.168271273311046,1.0241588077734862,A,687.1208000002298,Correct
16,216,287,B,65.49657151094881,49.66688982712328,3.2748285755474402,0.7801656810377205,B,1294.0216000001783,Correct
16,216,288,A,28.97486278588024,52.846076490324414,1.4487431392940122,0.8301042283652372,A,510.0475999997798,Correct
16,216,289,B,74.1671531274063,52.36773959243382,3.708357656370315,0.8225905299434672,B,959.9592999998094,Correct
16,216,290,B,63.30854346423935,34.55287730522561,3.165427173211967,0.5427553275124313,B,1251.8749000000753,Correct
16,216,291,B,68.3770753343054,47.6104594917162,3.4188537667152703,0.7478633488660503,B,972.9922000001352,Correct
16,216,292,B,70.26001116451364,38.582984719135425,3.513000558225682,0.6060601067360155,B,489.44040000014866,Correct
16,216,293,A,65.76450445880701,78.1824367992173,3.2882252229403504,1.2280868454408467,A,710.9597999997277,Correct
16,216,294,A,33.532900921331546,51.05796225984176,1.6766450460665772,0.8020165957139189,A,506.0108000002401,Correct
16,216,295,B,68.28669635237083,46.137388987275564,3.414334817618541,0.7247244114911977,B,1563.4116999999605,Correct
16,216,296,B,54.045214206909904,25.014458308512072,2.702260710345495,0.39292619227774844,B,1218.8709000001836,Correct
16,216,297,B,68.55982648823962,57.821748732998365,3.4279913244119813,0.908261905186513,B,888.689400000203,Correct
16,216,298,B,65.21318165241918,38.11860819509436,3.260659082620959,0.5987656973538807,B,637.6698999997643,Correct
16,216,299,A,17.127268495749913,46.66316161937682,0.8563634247874957,0.732983228683537,A,612.2995000000628,Correct
16,216,300,B,79.36851118787087,48.17645606972445,3.9684255593935434,0.7567540023231888,B,908.6475000003702,Correct
16,216,301,B,77.14134510545095,50.37589586057871,3.857067255272548,0.7913027217679927,B,585.3353000002244,Correct
16,216,302,A,41.93040909285541,71.13328398374931,2.096520454642771,1.1173590119453167,A,828.3578000000489,Correct
16,216,303,B,82.5932756292185,61.11376747407658,4.129663781460925,0.9599728146487692,B,612.9316000001381,Correct
16,216,304,A,53.36085825697607,79.87816211120152,2.668042912848804,1.2547232363540264,A,811.8393999998261,Correct
16,216,305,B,62.91261652472524,42.10299317478261,3.1456308262362622,0.6613522702601913,B,1037.535200000093,Correct
16,216,306,B,54.04271610856914,26.35319099938246,2.702135805428457,0.41395495621154293,B,790.120200000274,Correct
16,216,307,A,32.97644007240467,60.552715711795756,1.6488220036202335,0.9511598341754439,A,619.9024000002282,Correct
16,216,308,B,76.47323300863641,49.66271324469256,3.8236616504318204,0.7801000754343134,B,590.1369999996859,Correct
16,216,309,B,62.330137645350185,45.72052313647659,3.116506882267509,0.7181762980191851,B,904.6324999999342,Correct
16,216,310,A,62.2458458549049,73.12087605342188,3.1122922927452454,1.1485800351674,B,2125.6225000001905,Incorrect
16,216,311,B,70.9859033946921,54.296234699805225,3.5492951697346053,0.8528832602524766,B,706.6407000002073,Correct
16,216,312,B,55.5562711757843,36.90490059103922,2.7778135587892154,0.5797008228913522,B,1326.7765999999028,Correct
16,216,313,B,35.842916804186565,20.71929818883418,1.7921458402093282,0.32545797488788886,A,784.4490999996196,Incorrect
16,216,314,B,68.28838957808237,43.36416716749893,3.4144194789041187,0.6811627450122718,B,448.47630000003846,Correct
16,216,315,B,47.715911598677195,19.800592785475718,2.38579557993386,0.3110269841578679,B,678.0300000000352,Correct
16,216,316,A,41.004691850967916,59.94648796055642,2.050234592548396,0.9416372309269652,A,678.8268000000244,Correct
16,216,317,A,29.407037940498526,62.330080265786066,1.4703518970249263,0.9790786113032782,A,1229.0505999999368,Correct
16,216,318,B,32.80691586688813,16.220482849054715,1.6403457933444066,0.2547907487813476,B,510.06669999969745,Correct
16,216,319,A,31.456468311402865,50.99848589742331,1.5728234155701433,0.8010823431977385,A,1097.3432000000685,Correct
16,216,320,A,67.5639306243792,89.68604399927544,3.3781965312189595,1.4087850847882735,B,553.650700000162,Incorrect
16,216,321,B,84.82095899670647,67.18606026922834,4.241047949835323,1.055356166827244,B,948.4506999997393,Correct
16,216,322,B,58.37508718767254,34.71305966139094,2.918754359383627,0.5452714660792499,B,923.1136000003062,Correct
16,216,323,B,76.4007818197794,63.6193220259742,3.82003909098897,0.9993299735158192,B,563.3899999997993,Correct
16,216,324,B,62.01373873239708,33.53380913010747,3.1006869366198537,0.5267478420501398,B,1095.805499999642,Correct
16,216,325,B,32.50774432135814,10.142763356999929,1.6253872160679068,0.15932215424725363,A,748.2577999999194,Incorrect
16,216,326,A,39.84312581842845,59.63424203196292,1.9921562909214225,0.9367324833500519,A,918.7635999996928,Correct
16,216,327,A,46.653012959919174,73.26327756564505,2.332650647995959,1.150816872890702,A,658.9129999997567,Correct
16,216,328,A,41.9143576856516,69.99100346261436,2.09571788428258,1.099416111477635,A,522.9411000000255,Correct
16,216,329,B,63.274104109880234,48.97573947317605,3.163705205494012,0.7693091166652876,B,772.3108000000138,Correct
16,216,330,B,50.701535042374616,21.47943157751973,2.535076752118731,0.337398122236103,A,891.235599999618,Incorrect
16,216,331,A,66.77314727708897,84.61718441458581,3.3386573638544483,1.3291636246215777,A,643.5443999998824,Correct
16,216,332,B,62.672054793012876,41.41344078055598,3.1336027396506436,0.650520806580353,B,1250.7160000000113,Correct
16,216,333,B,82.01712339797301,51.72599759575097,4.100856169898651,0.8125100702320729,B,569.9299000002611,Correct
16,216,334,A,67.8549801079968,89.6226242642334,3.3927490053998395,1.40778888991977,A,579.6037000000069,Correct
16,216,335,B,42.14314240300391,16.73749850317429,2.1071571201501955,0.26291201168521255,B,1355.3274999999303,Correct
16,216,336,A,38.43714497840249,59.29026679224407,1.9218572489201247,0.9313293329194641,A,611.3608999999087,Correct
16,216,337,A,33.27619026082136,63.742079868892056,1.663809513041068,1.0012582492032254,A,722.0042999997531,Correct
16,216,338,B,83.62658168834453,55.50392772293938,4.181329084417226,0.8718536578988261,B,647.8222000000642,Correct
16,216,339,A,53.813323172540755,76.31149819551685,2.6906661586270375,1.1986982105773323,A,1142.721900000197,Correct
16,216,340,A,21.958423599304172,44.65193967538542,1.0979211799652087,0.7013910282636273,A,1589.3610999996781,Correct
16,216,341,B,59.3698344157494,38.80082101492943,2.9684917207874704,0.6094818712687737,A,1330.6281000000126,Incorrect
16,216,342,A,27.386935758385,50.76649211758538,1.36934678791925,0.7974381934256518,B,584.4594999998662,Incorrect
16,216,343,B,50.425433903668214,26.377446686258203,2.521271695183411,0.414335963650026,B,600.1668000003519,Correct
16,216,344,B,39.5503366348305,29.800389792596018,1.977516831741525,0.4681034282326596,B,639.1032999999879,Correct
16,216,345,B,64.63972167962649,45.28512355165735,3.2319860839813246,0.7113370573339641,B,1193.0624000001444,Correct
16,216,346,A,40.9662218215102,59.2565231342602,2.0483110910755102,0.9307992887793273,A,576.2281000002076,Correct
16,216,347,B,39.83155243706556,17.796160896733902,1.9915776218532781,0.2795414416764059,B,1588.4273000001485,Correct
16,216,348,A,33.193966521052666,64.72278726820508,1.6596983260526332,1.0166631650082403,A,611.3195000002634,Correct
16,216,349,A,64.18755598008141,82.23244051433659,3.209377799004071,1.2917041550329975,A,588.9884000002894,Correct
16,216,350,A,34.57053971999972,53.584462381736664,1.728526985999986,0.8417027668251128,A,629.5409000003929,Correct
16,216,351,B,38.846291282710105,23.50744736636277,1.942314564135505,0.36925411975407,B,972.4656000003051,Correct
16,216,352,A,54.27155618075743,64.53768502115726,2.7135778090378717,1.0137555857107983,B,713.4616000003007,Incorrect
16,216,353,A,12.222136566738566,31.768501593828926,0.6111068283369283,0.499018456113643,A,578.0378999997993,Correct
16,216,354,A,59.825960893367615,80.70043665919573,2.991298044668381,1.2676394947500889,A,642.591799999991,Correct
16,216,355,A,50.521809172830594,70.68095962662883,2.5260904586415296,1.1102539175584696,A,1297.8080000002592,Correct
16,216,356,B,79.78999062912713,53.66762366944977,3.9894995314563566,0.8430090612778255,B,598.216500000035,Correct
16,216,357,B,80.67873440656975,51.975624273769384,4.033936720328487,0.8164311969210861,B,573.1322999999975,Correct
16,216,358,B,78.48569215157468,50.859691406222886,3.9242846075787337,0.7989021644281687,B,495.63209999996616,Correct
16,216,359,A,60.01649044904181,82.73704573259062,3.0008245224520906,1.2996304752661474,A,849.8795999998947,Correct
16,216,360,A,41.245072720845855,53.53351678734306,2.0622536360422927,0.840902515299714,A,703.9403999997376,Correct
16,216,361,A,49.2011568792194,71.4964351240549,2.46005784396097,1.1230633767179505,A,654.8490999998648,Correct
16,216,362,A,65.67123406125958,80.89501889499942,3.2835617030629796,1.2706959853626885,A,665.1002000003245,Correct
16,216,363,B,65.60599844356751,35.001449431588696,3.2802999221783757,0.5498014819963685,B,715.8626999998887,Correct
16,216,364,A,24.569250607556114,50.24393523908726,1.2284625303778056,0.7892298891727891,A,518.1070999997246,Correct
16,216,365,A,45.739004508742205,58.19457723612035,2.2869502254371104,0.9141182816187975,A,660.962599999948,Correct
16,216,366,A,65.4838822426571,88.09936090155277,3.274194112132855,1.3838615249713702,A,663.506100000177,Correct
16,216,367,A,34.69728807555272,61.066714418165176,1.734864403777636,0.959233706974868,A,593.7405999998191,Correct
16,216,368,B,46.235464849832894,16.69949249963967,2.311773242491645,0.2623150147777292,B,573.0612999996083,Correct
16,216,369,A,46.22646587195571,71.89012474275088,2.311323293597786,1.1292474387873999,A,1019.9830999999904,Correct
16,216,370,A,30.636278397081007,56.79993544393874,1.5318139198540504,0.8922112995752622,A,657.2433000001183,Correct
16,216,371,B,74.95522614288743,42.88635594591096,3.7477613071443714,0.6736573038945541,B,753.0997000003481,Correct
16,216,372,A,47.13055480324469,65.10769587241914,2.356527740162235,1.0227092952247525,A,643.7654999999722,Correct
16,216,373,A,52.53015709006654,77.58808366836706,2.626507854503327,1.218750768293261,A,677.1675999998479,Correct
16,216,374,A,56.59584168755936,68.64886769730197,2.829792084377968,1.0783338921755077,A,1023.9414000002398,Correct
16,216,375,B,70.78763439068679,56.59295175340458,3.5393817195343393,0.888960007367287,B,618.9868999999817,Correct
16,216,376,B,61.795931188516796,53.88181142406481,3.0897965594258396,0.846373514659763,A,1763.5675000001356,Incorrect
16,216,377,A,38.08960375319036,59.85325621183656,1.904480187659518,0.9401727500426669,A,440.80129999974815,Correct
16,216,378,B,85.90015216306097,59.45421734200386,4.295007608153048,0.9339046621328512,B,571.8858999998702,Correct
16,216,379,B,72.10876837406825,42.26292712309317,3.6054384187034123,0.6638645068455515,B,688.0221999999776,Correct
16,216,380,B,65.37365279737645,52.812111716976275,3.2686826398688225,0.8295707109530804,B,738.7931000002936,Correct
16,216,381,A,62.75658626899951,75.09322557351483,3.1378293134499757,1.1795616289805768,A,878.6755999999514,Correct
16,216,382,B,40.339148201674,14.24596791217531,2.0169574100837,0.22377514068082935,B,763.3867000004102,Correct
16,216,383,A,21.489399612626467,47.20605878477068,1.0744699806313234,0.7415110374158174,A,544.380700000147,Correct
16,216,384,A,43.10936641115824,64.12206748574829,2.155468320557912,1.0072270807310788,A,638.1931000000804,Correct
16,216,385,B,53.824530305851106,47.20845275773306,2.691226515292555,0.741548641855175,A,647.8779999997641,Incorrect
16,216,386,B,63.421589289108894,36.73709558659616,3.171079464455445,0.5770649480453826,B,733.6780000000545,Correct
16,216,387,A,23.090108385857427,48.92368070249292,1.1545054192928714,0.7684913794076225,A,502.5104999999712,Correct
16,216,388,B,37.632632062689765,13.17131899345085,1.8816316031344882,0.2068945949395645,B,693.1604999999763,Correct
16,216,389,A,19.75761145076514,42.320477581263496,0.987880572538257,0.6647685073285446,A,574.8171000000184,Correct
16,216,390,A,26.528558596452328,39.586696534485384,1.3264279298226165,0.621826375063139,A,743.3937000000697,Correct
16,216,391,A,23.00824765074089,37.095352010248185,1.1504123825370445,0.5826924267886153,A,543.6964999998963,Correct
16,216,392,B,77.25264875291923,59.40859451998341,3.8626324376459618,0.9331880205203736,B,700.393499999791,Correct
16,216,393,B,71.74556428745014,49.32056001751905,3.587278214372507,0.7747255451098616,B,617.9321000004165,Correct
16,216,394,B,87.38433982548707,67.73750389297624,4.369216991274354,1.0640182230134207,B,647.475900000245,Correct
16,216,395,B,53.064437239217085,28.25073118532814,2.6532218619608545,0.44376144775183474,B,1765.5664000003526,Correct
16,216,396,B,61.670694602272654,54.369376896035135,3.083534730113633,0.8540321751841929,A,663.2278000001861,Incorrect
16,216,397,A,61.35766246596183,85.21624548576247,3.067883123298092,1.338573653922879,A,535.8251000002383,Correct
16,216,398,B,56.894197648499116,42.254125188154056,2.844709882424956,0.6637262463748411,B,902.9945000002044,Correct
16,216,399,B,51.19772378107009,36.62427922440263,2.5598861890535045,0.5752928327720228,B,561.7738000000827,Correct
16,216,400,B,66.15287142727492,45.93667166709303,3.307643571363746,0.7215715511985293,A,2112.95680000012,Incorrect
16,216,401,B,50.115928581423184,33.919735548029095,2.505796429071159,0.5328099600469838,B,1076.021800000035,Correct
16,216,402,A,54.06615334166685,72.04763718035113,2.7033076670833425,1.1317216383714699,A,659.7824000000401,Correct
16,216,403,A,59.352699829312826,76.82967513632843,2.9676349914656415,1.2068377149298992,A,767.4863000002006,Correct
16,216,404,B,62.26410221594381,29.64816906227239,3.1132051107971903,0.4657123505921157,B,1298.6885999998776,Correct
16,216,405,A,62.234467361688516,72.02293053448165,3.111723368084426,1.1313335472856778,A,2026.440900000125,Correct
16,216,406,A,31.68167534744913,53.27525761182271,1.5840837673724564,0.8368457896570296,A,633.3595999999488,Correct
16,216,407,A,54.73028455012931,62.90583713065954,2.736514227506466,0.9881225789879802,A,482.1975999998358,Correct
16,216,408,A,60.287470602555395,73.09556852871643,3.0143735301277697,1.148182505498924,A,604.9919999995836,Correct
16,216,409,B,51.43256059385433,43.13828339741255,2.5716280296927163,0.677614571048929,A,596.4162999998734,Incorrect
16,216,410,A,51.23357124903626,74.31761584069012,2.561678562451813,1.1673783797871027,A,710.3975999998511,Correct
16,216,411,A,34.45303421400398,67.52599689920922,1.722651710700199,1.060695878924414,A,603.6370000001625,Correct
16,216,412,A,24.818041213575107,52.2466311499929,1.2409020606787553,0.8206881629781666,A,610.8306000000994,Correct
16,216,413,A,29.48770029231337,49.660322025504996,1.4743850146156685,0.7800625142511494,A,637.8750000003492,Correct
16,216,414,A,44.99244227592999,66.04508810273117,2.2496221137964993,1.0374338179461544,A,1057.5057999999444,Correct
16,216,415,A,17.50573174955738,45.96876586097078,0.875286587477869,0.7220756856170754,A,528.6820999999691,Correct
16,216,416,B,34.245554007228044,21.19973955914373,1.712277700361402,0.3330047302851143,B,1300.5503999997927,Correct
16,216,417,A,27.535434261438503,55.19773941469438,1.376771713071925,0.8670440631998381,A,1018.11379999981,Correct
16,216,418,B,32.191750566837825,14.791343998610511,1.6095875283418912,0.23234188821377127,B,1493.9721000000645,Correct
16,216,419,B,75.00267502988387,56.61382230580355,3.750133751494194,0.889287841237752,B,579.2609000000084,Correct
16,216,420,B,34.122880602287594,20.872690593394868,1.7061440301143795,0.3278674571443105,B,701.741100000163,Correct
16,216,421,B,71.97844406305228,44.85859448028838,3.598922203152614,0.7046371543481881,B,592.8069000001415,Correct
16,216,422,A,29.455207729825784,57.739511086757204,1.472760386491289,0.9069701192601141,A,765.2254999998149,Correct
16,216,423,A,19.678805973170824,42.877005741460216,0.9839402986585413,0.673510431226494,A,631.7300000000614,Correct
16,216,424,B,54.50000004206663,31.952262574247058,2.7250000021033314,0.5019049668441332,B,2145.960500000001,Correct
16,216,425,A,48.48510980846069,58.83123600012114,2.4242554904230347,0.9241188940979396,B,712.0589000001019,Incorrect
16,216,426,A,27.149559850209528,53.684924683060075,1.3574779925104763,0.8432808249641144,A,502.9426000000967,Correct
16,216,427,A,45.769559529900974,62.58590765140099,2.2884779764950487,0.9830971384794528,A,2071.8110000002525,Correct
16,216,428,B,63.926857655113544,43.964963151477995,3.196342882755677,0.690600026260146,B,624.6565000001283,Correct
16,216,429,A,58.15013861170142,69.71758684219293,2.9075069305850714,1.0951212932472087,A,604.8193000001447,Correct
16,216,430,A,53.02718696762972,64.15819251717127,2.651359348381486,1.0077945313977246,B,2581.9316999995863,Incorrect
16,216,431,B,83.00258730781293,52.682628488589955,4.150129365390646,0.8275367931577727,A,429.9433000001045,Incorrect
16,216,432,A,35.0976098589894,55.7864243569122,1.7548804929494701,0.8762911046485903,A,819.4755000004079,Correct
16,216,433,A,35.671368754143074,55.059002946507306,1.783568437707154,0.8648647958536306,A,626.6818999997668,Correct
16,216,434,A,54.24328884926015,81.99312808773432,2.7121644424630076,1.2879450442263654,A,670.2826999999161,Correct
16,216,435,A,51.4301721594784,67.13837983515873,2.57150860797392,1.054607204320279,A,1072.7633999999853,Correct
16,216,436,B,65.20621823342472,48.65791806030576,3.260310911671236,0.7643167895861535,B,999.1485000000466,Correct
16,216,437,A,18.65021625600248,45.70528783596353,0.932510812800124,0.7179369824783499,A,520.5525999999736,Correct
16,216,438,A,43.95568072987933,68.7893905088547,2.1977840364939665,1.0805412193376869,A,656.8412000001445,Correct
16,216,439,A,48.13926324480191,79.09145731049145,2.4069631622400953,1.2423657062417532,A,1053.5519000000022,Correct
16,216,440,B,87.01936561353375,65.08499335466567,4.350968280676687,1.0223526849097908,B,540.7254000001558,Correct
16,216,441,A,33.60461509545717,61.63588662414423,1.6802307547728585,0.9681742430795244,A,538.0098999999063,Correct
16,216,442,B,58.57204243343024,36.88673840225064,2.9286021216715117,0.5794155318969956,B,789.0946000002259,Correct
16,216,443,A,32.54315428517057,44.44384075606595,1.6271577142585287,0.6981222180828571,A,1564.8078999997779,Correct
16,216,444,A,38.95044684716778,69.75133732763969,1.947522342358389,1.0956514446328818,B,1488.6618999998973,Incorrect
16,216,445,A,48.561416841623405,74.8351999289151,2.4280708420811705,1.1755085716330154,A,903.0557000000954,Correct
16,216,446,A,11.700817216224717,34.32585276779187,0.5850408608112359,0.539189234417499,A,733.6843999996745,Correct
16,216,447,B,50.287130843359165,41.483215452707576,2.5143565421679583,0.6516168245675434,A,653.1510999998318,Incorrect
16,216,448,B,42.84776382943815,28.092709008707644,2.1423881914719076,0.44127924120595863,B,598.5569999998006,Correct
16,216,449,B,69.2559877669663,44.46079068370448,3.4627993883483152,0.6983884669235975,B,631.0717000001205,Correct
16,216,450,A,47.866245917150664,65.88340736479047,2.393312295857533,1.034894142853447,A,1514.437899999848,Correct
16,216,451,B,58.13193770411037,32.979877384799686,2.9065968852055186,0.5180467025418942,B,663.435599999957,Correct
16,216,452,B,60.67421242082991,30.605591009881252,3.0337106210414952,0.4807514993770837,B,580.9792000000016,Correct
16,216,453,B,45.97114163168705,22.555319657881412,2.2985570815843523,0.35429813268284843,B,564.1521000002285,Correct
16,216,454,B,51.82868733289956,33.22224369063857,2.591434366644978,0.5218537835713999,B,501.8390999998701,Correct
16,216,455,B,53.83390348212693,34.90813044053289,2.6916951741063464,0.5483356307126617,B,455.51979999981995,Correct
16,216,456,B,56.90759427518744,38.07292635650501,2.8453797137593724,0.5980481287113067,B,736.9141000003765,Correct
16,216,457,A,65.85629089776096,78.030471179127,3.292814544888048,1.2256997750624774,A,520.368899999994,Correct
16,216,458,B,54.38919879088739,45.763099094547265,2.71945993954437,0.718845079604657,B,1080.6856999997763,Correct
16,216,459,A,47.794888600296936,70.6639776366966,2.3897444300148467,1.1099871650843973,A,669.637800000146,Correct
16,216,460,A,36.529853768831714,65.59019405673413,1.8264926884415857,1.0302883589808243,B,935.0158000002011,Incorrect
16,216,461,B,44.85675650424535,29.486875043495292,2.242837825212267,0.4631787500698252,B,524.8301999999967,Correct
16,216,462,B,61.28986422370064,53.28154955346464,3.064493211185032,0.8369446232452251,B,2122.9370999999446,Correct
16,216,463,A,27.38213396404784,41.47120093969265,1.369106698202392,0.6514281010384227,A,761.2842000003184,Correct
16,216,464,B,52.09739467139769,20.757139571079428,2.6048697335698843,0.3260523859302056,B,691.8178999999327,Correct
16,216,465,B,48.95040536600817,18.582400381722422,2.4475202683004085,0.29189166262641664,B,556.3744000000952,Correct
16,216,466,B,67.09119647893758,47.994495171450346,3.3545598239468792,0.7538957672168961,B,931.2925999997788,Correct
16,216,467,B,79.88516497214077,55.3688556846061,3.994258248607039,0.86973195128216,B,520.2777999998034,Correct
16,216,468,B,80.85578245129722,61.61514651601347,4.0427891225648604,0.9678484582228332,B,532.9783000001953,Correct
16,216,469,B,69.59927636325112,42.35571100179249,3.479963818162556,0.6653219526040184,B,489.13790000005974,Correct
16,216,470,B,57.67066521266781,40.255399162677094,2.8835332606333903,0.6323303313839553,B,1486.9559000003392,Correct
16,216,471,A,68.77313591747486,89.06182862405629,3.438656795873743,1.398979932603042,A,465.4529999997976,Correct
16,216,472,B,41.45700433824748,22.8593395794026,2.072850216912374,0.35907366644282795,A,544.0828000000693,Incorrect
16,216,473,A,38.31675523654226,67.74189796415214,1.915837761827113,1.0640872449220486,A,526.4326999999867,Correct
16,216,474,A,68.04203393639932,83.11703169244933,3.402101696819966,1.305599280765944,B,543.5633000001872,Incorrect
16,216,475,A,49.76701370165456,69.63574519275723,2.488350685082728,1.0938357276240842,A,551.3034999999036,Correct
16,216,476,A,60.298296536280986,81.59514129513795,3.0149148268140493,1.2816934823071326,A,492.0153999996728,Correct
16,216,477,B,53.907792768647084,42.30325960595261,2.695389638432354,0.6644980480048129,B,526.4924000002793,Correct
16,216,478,A,47.35835278876891,65.00413788013651,2.3679176394384456,1.0210826100858743,A,1373.9740000000893,Correct
16,216,479,B,76.89275495011297,62.67675964218302,3.844637747505649,0.9845242382134771,B,551.0819000000993,Correct
16,216,480,B,31.001392875840118,12.004960259427513,1.5500696437920058,0.18857347478827446,B,893.7417000001915,Correct
16,216,481,B,53.01874337193989,22.979305603105903,2.6509371685969945,0.3609580883365614,A,625.5802000000585,Incorrect
16,216,482,A,23.183395697814056,51.72690330235817,1.159169784890703,0.8125242970381902,A,513.8457999996717,Correct
16,216,483,B,61.21189477321309,52.038957833559195,3.0605947386606545,0.817426038151893,B,618.7244999996437,Correct
16,216,484,B,43.19555779124902,24.421993232472992,2.1597778895624513,0.38361977262578395,B,699.8781000002054,Correct
16,216,485,A,61.39550517315175,86.74366337812984,3.0697752586575873,1.3625662780709933,A,711.4704999999049,Correct
16,216,486,A,44.86039159728803,61.23390612342874,2.2430195798644013,0.961859948139854,A,598.0942999995023,Correct
16,216,487,B,62.65909801608331,32.720430089420624,3.1329549008041657,0.5139713139561112,B,506.535100000292,Correct
16,216,488,B,79.59636341893687,59.70588474178382,3.979818170946844,0.9378578444043348,B,1021.0034000001542,Correct
16,216,489,A,58.99945937173719,81.49949318309311,2.9499729685868594,1.2801910452764835,A,1269.3358999995326,Correct
16,216,490,B,62.541362953635364,47.31796848439923,3.127068147681768,0.7432689108669099,B,885.3624999992462,Correct
16,216,491,B,59.22438487014189,27.65507271116301,2.9612192435070943,0.43440486631940634,B,677.3821999995562,Correct
16,216,492,A,17.829819434464984,41.16870041492527,0.8914909717232491,0.6466764339068415,A,514.1247999999905,Correct
16,216,493,B,52.775108911143235,31.46143423723685,2.6387554455571616,0.49419505335550845,B,908.0377000000226,Correct
16,216,494,B,80.96262524087032,63.13106062900084,4.048131262043516,0.9916603814270044,B,502.52980000004754,Correct
16,216,495,A,49.22694733416458,62.997254097152386,2.461347366708229,0.989558553339717,A,1366.8392999998105,Correct
16,216,496,B,44.57679913125411,19.387295837807343,2.2288399565627057,0.3045349308851376,B,627.5160000004689,Correct
16,216,497,A,61.62507096314647,70.66626590353194,3.0812535481573233,1.110023109095794,A,897.0769999996264,Correct
16,216,498,B,43.58968715897557,27.842488997273826,2.1794843579487786,0.4373487944574505,B,622.3449999997683,Correct
16,216,499,B,35.05566507782558,18.72126416194738,1.752783253891279,0.2940729297854388,B,664.8279000000912,Correct
16,216,500,A,37.483627215048685,47.76095428239335,1.874181360752434,0.7502273155100248,B,1237.8011999999217,Incorrect
16,216,501,B,43.32435049752899,23.959975842759526,2.1662175248764495,0.3763624204390113,B,602.7801999998701,Correct
16,216,502,B,31.4384574587433,17.123745385696083,1.571922872937165,0.2689791635282247,B,935.7908000001771,Correct
16,216,503,B,70.55816508403781,38.39679697342229,3.5279082542018902,0.6031354764654114,B,577.4800999997751,Correct
16,216,504,A,54.300919444274456,82.08500227515859,2.7150459722137223,1.2893882005876984,A,672.6469999994151,Correct
16,216,505,A,22.644491968910796,38.42770577792437,1.13222459844554,0.6036209908311864,A,1408.929199999875,Correct
16,216,506,B,79.98307475875248,50.70520526093316,3.999153737937624,0.7964755017325509,B,534.5163000001776,Correct
16,216,507,B,67.82946596363851,48.328876019992904,3.3914732981819258,0.7591482093033082,B,815.0268000008509,Correct
16,216,508,A,39.160683122022895,50.868929543191584,1.958034156101145,0.7990472767443373,A,1280.742800000553,Correct
16,216,509,A,43.60144773494109,66.989709134744,2.1800723867470544,1.0522718904191442,A,481.83979999976145,Correct
16,216,510,A,44.52361635387422,53.13784826792402,2.226180817693711,0.8346873687303961,A,580.6360999995377,Correct
16,216,511,A,42.387357402481896,71.25649002474587,2.1193678701240946,1.11929432791168,A,483.2569999998668,Correct
16,216,512,B,65.59910722342931,35.11864430755199,3.279955361171466,0.5516423748031917,B,697.609800000464,Correct
16,216,513,A,57.479691980306754,72.87355995050562,2.873984599015338,1.144695202907219,A,602.9943000003186,Correct
16,216,514,B,81.19491042325411,63.61641606166191,4.059745521162705,0.9992843267351439,B,561.9150000002264,Correct
16,216,515,B,53.57357019318974,24.777384917381266,2.678678509659487,0.38920225215805765,B,854.3360000003304,Correct
16,216,516,A,46.95013185147387,71.97461254297306,2.3475065925736938,1.1305745700498797,B,720.8389000006719,Incorrect
16,216,517,A,43.07444619936954,69.65442761641512,2.153722309968477,1.0941291904486588,A,369.97619999965536,Correct
16,216,518,B,44.838718557265366,30.90966971642429,2.2419359278632682,0.4855279565300273,B,1589.329500000531,Correct
16,216,519,B,55.51946024135932,26.758557412136653,2.775973012067966,0.4203224369331461,B,543.2413999997152,Correct
16,216,520,A,27.29881358123621,37.171498057504266,1.3649406790618104,0.5838885261019134,A,552.1464000003107,Correct
16,216,521,B,74.23523730213208,44.90742858958347,3.7117618651066038,0.7054042387432183,B,577.5098999993133,Correct
16,216,522,B,41.35758261851943,32.38889377572378,2.0678791309259714,0.50876355371857,A,595.7242000004044,Incorrect
16,216,523,A,33.13440586413155,62.356214977926456,1.6567202932065777,0.979489134401598,A,600.1598000002559,Correct
16,216,524,B,41.652889155735615,14.939327378258618,2.0826444577867806,0.2346664057055507,B,514.9206000005506,Correct
16,216,525,B,84.98303248800508,65.69021390275219,4.249151624400254,1.0318594670481418,B,553.021899999294,Correct
16,216,526,A,57.13085840829687,68.84352900905364,2.856542920414843,1.0813916249101936,A,607.9079999999522,Correct
16,216,527,B,45.981268639763684,35.18550416117011,2.299063431988184,0.5526926069279254,B,1111.4114000001791,Correct
16,216,528,A,26.0668010343429,49.3003342825987,1.3033400517171452,0.7744078400086655,A,476.1155999995026,Correct
16,216,529,A,54.18252479261739,82.28253594050096,2.7091262396308697,1.2924910521470796,A,734.6066000000064,Correct
16,216,530,A,34.88467920491948,67.73456740127192,1.744233960245974,1.0639720967095927,A,476.1500000004162,Correct
16,216,531,A,25.749324744034723,38.91628250879657,1.287466237201736,0.6112955361733013,A,584.8230999999942,Correct
16,216,532,B,50.38773786853484,31.24014435553296,2.519386893426742,0.4907190400221349,B,807.4906000001647,Correct
16,216,533,B,61.561351194682395,35.748006635343934,3.0780675597341194,0.5615283751303783,B,878.388800000721,Correct
16,216,534,A,39.00519407217142,55.597947477860465,1.9502597036085711,0.873330516755588,A,1319.792100000086,Correct
16,216,535,A,56.682628201475865,83.43751139981705,2.834131410073793,1.3106333642373993,A,611.1307000001034,Correct
16,216,536,B,83.22040901716682,68.36417598177695,4.1610204508583415,1.0738619651653514,B,469.3391000000702,Correct
16,216,537,A,26.186393507461517,58.382986067189194,1.3093196753730758,0.9170778006165842,A,536.6879999992307,Correct
16,216,538,B,61.74471069144701,38.68049721245176,3.087235534572351,0.6075918293991946,B,602.0716999992146,Correct
16,216,539,A,31.095694640555408,54.81450109139767,1.5547847320277703,0.8610241696946233,A,595.4475999997157,Correct
16,216,540,A,65.07666294000796,79.20541827814218,3.2538331470003983,1.2441558009355909,A,788.6124999995445,Correct
16,216,541,A,49.56099569912458,57.823881850577706,2.4780497849562293,0.9082954121190955,A,485.990899999706,Correct
16,216,542,A,55.73980976302528,72.17521317384364,2.7869904881512637,1.1337255973911222,A,600.5000000004657,Correct
16,216,543,B,37.46367831019375,22.176319449695256,1.8731839155096877,0.3483448113341153,B,489.8830000001908,Correct
16,216,544,A,29.668001424800345,61.93106329935241,1.483400071240017,0.9728108674512498,A,756.6436000006433,Correct
16,216,545,B,81.09943643645565,53.58012090363427,4.054971821822782,0.8416345710465516,B,561.9175000001633,Correct
16,216,546,A,17.501227778340347,36.670457918187964,0.8750613889170173,0.5760182059977649,A,508.9312999998583,Correct
16,216,547,B,81.05117674737443,68.03882206328652,4.052558837368721,1.0687513177646202,B,515.8971999999267,Correct
16,216,548,A,55.55207323987597,74.23932449888102,2.7776036619937985,1.166148582265767,A,627.357800000027,Correct
16,216,549,B,62.50404772642056,51.96529244463848,3.125202386321028,0.816268904928607,B,690.2348999992682,Correct
