subject,day,trial,cat,x,y,xt,yt,resp,rt,fb
6,406,0,A,64.82781171955443,85.88916636015387,3.241390585977722,1.349143870300055,A,717.3170999994909,Correct
6,406,1,A,62.40986084582744,82.10159640629027,3.120493042291372,1.2896488605899783,A,536.8993000001865,Correct
6,406,2,A,29.752943767963764,52.96030385394911,1.487647188398188,0.8318985075972486,A,579.7222000001057,Correct
6,406,3,A,44.05619227054283,51.89741600014702,2.2028096135271413,0.8152027042317763,B,941.0760999999184,Incorrect
6,406,4,B,57.3794530282946,47.13057787640657,2.86897265141473,0.7403253860798025,B,874.3601000005583,Correct
6,406,5,A,38.838373157975305,63.56366909807645,1.941918657898765,0.9984557793686477,A,1176.4160999991873,Correct
6,406,6,B,56.05642269967164,39.17037792633619,2.8028211349835823,0.6152868576585677,B,696.2210000001505,Correct
6,406,7,A,41.98882881853765,49.23108801373256,2.0994414409268827,0.7733201221608736,A,610.3925999996136,Correct
6,406,8,A,44.00440484099055,68.89923547055717,2.200220242049528,1.0822666599612787,A,609.0455000003203,Correct
6,406,9,A,27.276114918000893,40.979677498552796,1.3638057459000448,0.6437072688796621,A,669.1954999996597,Correct
6,406,10,B,63.624259714164076,41.525512782138,3.181212985708204,0.652281229464569,B,454.8917000001893,Correct
6,406,11,A,56.35988139853265,84.94467058486389,2.8179940699266326,1.3343077653550668,A,528.5370000001421,Correct
6,406,12,B,68.66326257364165,58.15932306599334,3.4331631286820823,0.9135645104094003,B,519.2075999993904,Correct
6,406,13,A,31.621581930617374,53.34861622447357,1.5810790965308685,0.837998104049937,A,1393.6868999999206,Correct
6,406,14,B,71.87324108748412,45.123041052715934,3.593662054374206,0.708791071394215,B,462.68180000060966,Correct
6,406,15,B,39.47716046570066,24.21611366136017,1.9738580232850331,0.38038582388512265,B,582.6961000002484,Correct
6,406,16,A,67.34138827683319,88.50627312261163,3.3670694138416595,1.3902532871930422,A,487.5476000006529,Correct
6,406,17,A,17.180277144994896,40.60234897326305,0.8590138572497449,0.6377802062644614,A,513.5118999996848,Correct
6,406,18,A,66.02868289142845,86.05551299580375,3.3014341445714224,1.3517568371425903,A,495.8664999994653,Correct
6,406,19,A,19.83899557620182,35.74909519898115,0.991949778810091,0.5615454742480067,A,702.2569000000658,Correct
6,406,20,B,72.43208103397771,57.20444801029031,3.6216040516988857,0.8985653681089363,B,423.6111999998684,Correct
6,406,21,B,59.026034811352055,32.07058064578693,2.9513017405676027,0.5037635027658162,B,412.33379999994213,Correct
6,406,22,A,63.433809807992844,74.02232568903725,3.171690490399642,1.1627399729315522,A,449.30610000028537,Correct
6,406,23,B,56.62807258291094,33.64911307750782,2.831403629145547,0.528559032220554,B,487.9365999995571,Correct
6,406,24,A,63.922628029291225,79.96510109050014,3.1961314014645614,1.2560888706474018,A,545.0547999998889,Correct
6,406,25,B,56.18137525368928,36.45451992866979,2.809068762684464,0.5726262599902585,B,386.73089999974763,Correct
6,406,26,A,48.76338128559819,76.00122766232269,2.4381690642799096,1.1938244924387915,A,513.6703999996826,Correct
6,406,27,B,88.48012584716611,69.65542774670682,4.424006292358305,1.0941449004585437,B,504.5551000002888,Correct
6,406,28,B,41.36015445757724,17.87632233969359,2.068007722878862,0.28080061467792244,B,543.4666999999536,Correct
6,406,29,B,58.916241135072916,29.772952707434833,2.945812056753646,0.467672447506768,B,548.9760999998907,Correct
6,406,30,B,68.33452964673754,48.498771750534274,3.4167264823368773,0.7618169251980333,B,455.7985000001281,Correct
6,406,31,A,11.018988837596662,31.262173756004014,0.5509494418798332,0.49106507703554925,A,480.35089999939373,Correct
6,406,32,B,48.2978819829401,21.24749273737024,2.414894099147005,0.3337548354546242,B,462.43219999996654,Correct
6,406,33,B,73.808363384988,51.29985237405803,3.6904181692494,0.8058161967429082,B,575.0224999992497,Correct
6,406,34,A,55.9920920532215,69.16070510783855,2.799604602661075,1.0863738154193785,A,475.16989999985526,Correct
6,406,35,B,47.902127185543776,27.22070165485247,2.3951063592771886,0.42758178172222017,B,685.1060999997571,Correct
6,406,36,B,80.44046350171683,63.26567896478656,4.022023175085842,0.9937749613007187,B,490.9353999992163,Correct
6,406,37,A,53.63836467294463,62.31114470185638,2.681918233647232,0.978781172160613,B,624.7475000000122,Incorrect
6,406,38,B,70.84691600948179,50.66871361741287,3.5423458004740893,0.795902292336547,B,400.2064000005703,Correct
6,406,39,B,57.86977620248751,47.86241482272408,2.893488810124375,0.7518210539506858,B,1351.380600000084,Correct
6,406,40,A,34.104370938259386,60.12371303639167,1.7052185469129695,0.9444210759083448,A,740.1030999999421,Correct
6,406,41,A,57.99145956896881,73.64203274897828,2.8995729784484405,1.1567663453980455,A,893.7992999999551,Correct
6,406,42,B,50.417543395842145,26.12057743893295,2.520877169792107,0.41030107094837526,B,682.469299999866,Correct
6,406,43,B,64.85479829769976,49.81284733429568,3.2427399148849876,0.7824583761990662,B,590.6348999997135,Correct
6,406,44,A,39.437261730395434,69.51548004435921,1.971863086519772,1.0919466070906336,A,628.190800000084,Correct
6,406,45,B,45.83007735423165,35.272142584075425,2.2915038677115827,0.5540535200925153,B,762.2758000006797,Correct
6,406,46,B,36.78222258678085,25.166600516985,1.8391111293390423,0.39531603649994584,B,663.7972999997146,Correct
6,406,47,B,77.19461748558888,45.45019538737512,3.859730874279444,0.7139299996659918,B,472.9235000004337,Correct
6,406,48,B,61.12936233506893,51.50599263193358,3.0564681167534467,0.8090542403416628,B,520.1007999994545,Correct
6,406,49,A,11.993008436880213,33.46556186417486,0.5996504218440107,0.5256758165037324,A,645.374400000037,Correct
6,406,50,B,58.56104355837001,50.10250826693337,2.9280521779185005,0.7870083594890989,A,1892.2874999998385,Incorrect
6,406,51,A,27.797955354393146,49.26208318356403,1.3898977677196571,0.7738069931500702,A,610.3831000000355,Correct
6,406,52,B,77.03935005473528,57.81442080389273,3.851967502736764,0.9081467983452914,A,746.1266000000251,Incorrect
6,406,53,A,58.26821693607067,85.4208777387796,2.9134108468035333,1.3417880098367092,A,605.1689000005354,Correct
6,406,54,A,22.75996811858751,50.43503689241371,1.1379984059293755,0.7922317069236854,A,778.9887999997518,Correct
6,406,55,A,57.239439615346654,74.27387544664228,2.8619719807673327,1.1666913072840734,A,978.757000000769,Correct
6,406,56,B,80.0650999674354,61.92437975379481,4.00325499837177,0.9727058825631316,B,464.0058000004501,Correct
6,406,57,A,32.47366019753708,57.93254700687551,1.6236830098768538,0.9100023204027272,A,668.6754000002111,Correct
6,406,58,B,60.01720185304381,41.85511313744479,3.0008600926521907,0.657458579738831,B,659.8928999992495,Correct
6,406,59,B,81.89883735129357,52.93433026982605,4.094941867564678,0.8314905154919068,B,550.9315999997852,Correct
6,406,60,B,38.16534667596243,24.040151267367804,1.9082673337981217,0.37762181306375026,B,740.7499999999345,Correct
6,406,61,A,39.94607272421549,71.14774604157805,1.9973036362107746,1.1175861814184695,A,562.0153999998365,Correct
6,406,62,B,83.80685033563151,62.604922379790096,4.190342516781575,0.983395821134539,B,511.2628000006225,Correct
6,406,63,B,62.19301215942743,50.40797003273454,3.1096506079713713,0.7918065416860662,B,551.2660000003962,Correct
6,406,64,B,39.22466833736209,28.01101933231794,1.9612334168681045,0.43999606276985853,B,646.4662000007593,Correct
6,406,65,A,58.805456983850206,79.43024555682445,2.9402728491925103,1.247687379570765,A,567.8480000005948,Correct
6,406,66,A,65.8201093246103,78.7278650275802,3.2910054662305153,1.2366544120172736,A,651.751499999591,Correct
6,406,67,A,29.141937486494392,58.920639630968495,1.4570968743247195,0.9255232430473113,A,634.6627000002627,Correct
6,406,68,B,46.78958623353698,36.34068671053856,2.3394793116768486,0.5708381719811809,B,496.21509999997215,Correct
6,406,69,A,30.201680482711343,56.50088343582911,1.5100840241355673,0.8875138016166698,A,580.9189000001425,Correct
6,406,70,B,71.48710575685186,43.19443252395772,3.574355287842593,0.678496559466228,B,516.9253000003664,Correct
6,406,71,B,64.02558589815216,43.232376963196955,3.2012792949076077,0.6790925893240208,B,475.8420999996815,Correct
6,406,72,B,52.430627315740686,35.912176097419014,2.621531365787034,0.5641071430103727,B,477.2337999993397,Correct
6,406,73,B,35.45479493974509,13.383617227656906,1.7727397469872546,0.21022936780432364,B,509.52349999988655,Correct
6,406,74,B,71.40600112654714,39.543848496523815,3.570300056327357,0.6211533196567349,B,459.5971000007921,Correct
6,406,75,A,58.87054373982705,86.1381607424349,2.9435271869913526,1.3530550649108513,A,689.1307999994751,Correct
6,406,76,A,21.800144977130646,48.1031652646838,1.0900072488565322,0.7556027530497318,A,694.9591000002329,Correct
6,406,77,A,52.878140813272125,61.79682883474728,2.6439070406636063,0.9707023174119396,A,1048.0621000006067,Correct
6,406,78,B,54.84112291318373,41.27487766212729,2.7420561456591868,0.6483442622057827,B,635.1310000000012,Correct
6,406,79,B,68.0292468559385,36.26892151543251,3.4014623427969246,0.5697108869325378,B,643.9491000000999,Correct
6,406,80,B,38.60460630384648,19.84875499631057,1.9302303151923241,0.311783514396565,B,508.8165000006484,Correct
6,406,81,B,51.46220691214442,28.17634194773828,2.573110345607221,0.4425929443402425,B,443.72000000021217,Correct
6,406,82,B,75.7478704618669,55.65502171707482,3.787393523093345,0.8742270368087132,B,484.30350000035105,Correct
6,406,83,A,64.28631792586762,77.18064435309887,3.214315896293381,1.2123507264951099,A,576.1766000005082,Correct
6,406,84,A,41.07718087136432,66.26827371434833,2.053859043568216,1.0409396093353716,A,592.9981999997835,Correct
6,406,85,A,42.153835507483244,69.4897983087332,2.107691775374162,1.0915431993307632,A,581.7317999999432,Correct
6,406,86,B,55.55391921191926,33.164982316239474,2.777695960595963,0.5209543240056667,B,531.778900000063,Correct
6,406,87,B,55.816720137133345,37.8415744089325,2.7908360068566673,0.5944140608168692,B,599.4139000003997,Correct
6,406,88,B,63.18055796001436,43.33369371376174,3.159027898000718,0.6806840691203204,B,470.0391000005766,Correct
6,406,89,B,86.10238112498483,64.23924720053353,4.305119056249242,1.009067735386674,B,576.2622000002011,Correct
6,406,90,B,68.60568212911673,39.33929957680798,3.430284106455837,0.6179402727393402,B,590.9116000002541,Correct
6,406,91,B,67.31295881472037,58.09959085736115,3.365647940736019,0.9126262390702926,B,575.2160000001822,Correct
6,406,92,A,37.600716341927885,62.95943107573366,1.8800358170963944,0.988964430708589,A,581.0295000001133,Correct
6,406,93,A,64.25526083609019,79.8381097521706,3.2127630418045094,1.2540940953695738,A,576.0754000002635,Correct
6,406,94,B,82.46419507822226,60.5270200102386,4.123209753911113,0.9507562070392399,B,499.949199999719,Correct
6,406,95,A,29.695086067850312,58.30215942763558,1.4847543033925155,0.915808178731404,A,517.3632999994879,Correct
6,406,96,A,57.775098548537756,84.0320017496245,2.8887549274268878,1.319971596815325,A,525.3578000001653,Correct
6,406,97,A,33.61340244311192,51.088834500521656,1.680670122155596,0.8025015357365181,A,698.0991999998878,Correct
6,406,98,B,87.82513906334222,67.32937144066241,4.391256953167112,1.0576072934440173,B,539.2013999999108,Correct
6,406,99,B,78.38519047989952,48.20980364267354,3.9192595239949757,0.7572778247741484,B,468.56860000025335,Correct
6,406,100,A,52.90386658954361,73.42430702587342,2.6451933294771806,1.153346317737027,A,537.0237000006455,Correct
6,406,101,A,33.453356421832964,50.201331651318924,1.6726678210916481,0.7885606735810414,A,931.2222999997175,Correct
6,406,102,B,74.5434925529788,54.33999048271925,3.7271746276489406,0.8535705744832502,B,470.2698999999484,Correct
6,406,103,A,15.18538180352925,36.716693232323436,0.7592690901764625,0.576744468613887,A,701.7680000008113,Correct
6,406,104,B,61.86573470818303,39.01669156928913,3.0932867354091513,0.6128727580072878,B,504.0072000001601,Correct
6,406,105,B,50.9923956460174,40.39745320580845,2.54961978230087,0.6345617110755264,B,534.6379000002344,Correct
6,406,106,A,54.986914280498695,81.76766276618467,2.7493457140249347,1.284403443237267,A,512.5600000001214,Correct
6,406,107,A,62.73115419621862,74.47778043845221,3.136557709810931,1.1698942394055756,A,1016.8575000006967,Correct
6,406,108,A,35.28446284410681,49.15539571977772,1.7642231422053407,0.7721311503877643,A,736.0641000004762,Correct
6,406,109,A,64.75522347300355,80.19495414874751,3.2377611736501772,1.2596993940433774,A,497.45829999937996,Correct
6,406,110,B,63.77500332533409,38.06622641785377,3.1887501662667046,0.5979428863210756,B,458.2737000000634,Correct
6,406,111,A,39.35092437204153,68.1507331639034,1.9675462186020767,1.070509213222386,A,565.0660000001153,Correct
6,406,112,A,42.7146109671459,67.60237760049877,2.1357305483572953,1.0618956641746506,A,644.0000000002328,Correct
6,406,113,B,56.163035366401004,32.76086085605886,2.8081517683200503,0.5146063989533597,B,703.0711999996129,Correct
6,406,114,B,35.392889780608655,12.640363094555543,1.7696444890304326,0.1985543591828162,B,674.379900000531,Correct
6,406,115,A,41.554666723801276,66.98882591670397,2.077733336190064,1.0522580168626137,A,496.4494999994713,Correct
6,406,116,A,21.2979727463143,52.341452232168265,1.064898637315715,0.8221776090540045,A,541.9917999997779,Correct
6,406,117,B,64.65992228381558,56.87395388499978,3.232996114190779,0.8933739785285998,B,473.61430000000837,Correct
6,406,118,B,45.282477636767695,31.792473436588885,2.2641238818383846,0.4993950049391814,B,567.3919999999271,Correct
6,406,119,A,21.331943487996373,42.95396243134903,1.0665971743998186,0.6747192640844903,A,669.1932000003362,Correct
6,406,120,B,84.72776526521727,60.10023436049165,4.236388263260864,0.944052273729727,B,510.90339999973367,Correct
6,406,121,A,13.638048676134474,41.989590022888315,0.6819024338067237,0.659570937715766,A,529.3942999996943,Correct
6,406,122,B,64.96739249199055,46.672881161786044,3.2483696245995275,0.7331359028986825,B,485.54450000028737,Correct
6,406,123,A,55.41536425673918,80.41314336476317,2.770768212836959,1.263126702234014,A,693.3005000000776,Correct
6,406,124,B,61.545982391135006,33.72180931524157,3.0772991195567503,0.5297009420525939,B,651.9146000000546,Correct
6,406,125,A,28.679362499132516,54.06276974239652,1.4339681249566256,0.8492160012771472,A,1033.997399999862,Correct
6,406,126,A,18.873537968601045,32.6626599021977,0.9436768984300522,0.5130638619772311,A,654.993199999808,Correct
6,406,127,A,52.51493405044581,65.59411032194666,2.6257467025222905,1.0303498755309302,B,1080.6772000005367,Incorrect
6,406,128,B,46.03441400799866,38.5553617338041,2.301720700399933,0.6056262058970799,B,490.8980000000156,Correct
6,406,129,A,30.902077751150344,55.023057787906694,1.5451038875575172,0.8643001706226716,A,723.1934999999794,Correct
6,406,130,B,83.94076706609204,67.15176776775226,4.197038353304602,1.0548175014736918,B,537.5500000000102,Correct
6,406,131,B,46.043576383834335,20.087791386087158,2.3021788191917167,0.3155382892268787,B,1045.1687999993737,Correct
6,406,132,B,40.719941184402465,23.489113291357718,2.0359970592201235,0.36896612877733886,B,1033.3300000002055,Correct
6,406,133,B,62.600635182796644,39.950478220972386,3.130031759139832,0.6275406444320293,B,994.4203999993988,Correct
6,406,134,B,68.54078778562192,41.626464552523736,3.4270393892810955,0.6538669761656225,B,1385.3506999994352,Correct
6,406,135,A,55.66667380984465,76.79327841368172,2.783333690492233,1.206265996547491,A,924.9755999999252,Correct
6,406,136,A,17.28477854262146,37.41447913182954,0.8642389271310731,0.5877052638922214,A,734.3823000001066,Correct
6,406,137,A,39.241193938310005,60.61587883917277,1.9620596969155002,0.9521519982601707,A,876.6945000006672,Correct
6,406,138,A,49.66145209078309,66.92477740656685,2.4830726045391542,1.051251945218013,B,1039.7402000007787,Incorrect
6,406,139,B,57.99385572337044,44.829673886044,2.8996927861685218,0.7041828707161101,B,662.6994999996896,Correct
6,406,140,A,39.60426252618481,64.04238911771203,1.9802131263092406,1.0059754958527152,A,635.6790999998339,Correct
6,406,141,B,56.943903584778404,44.298480504408495,2.84719517923892,0.695838904589202,B,467.4295000004349,Correct
6,406,142,A,22.195620706123506,46.54299290038759,1.1097810353061752,0.7310956228596978,A,491.98190000061004,Correct
6,406,143,B,42.82738877726283,20.449390204534815,2.1413694388631415,0.32121827018478827,B,568.1356000004598,Correct
6,406,144,A,24.023502820233787,47.015910947245885,1.2011751410116893,0.738524202168498,A,610.6367000002138,Correct
6,406,145,B,35.26010349827095,19.62708086562041,1.7630051749135476,0.30830146529422936,B,472.4508999997852,Correct
6,406,146,A,22.30676296986789,46.931348332205395,1.1153381484933944,0.7371958957176004,A,503.6334000005809,Correct
6,406,147,B,59.55135123319827,28.304989263816157,2.9775675616599138,0.444613731655714,B,584.191799999644,Correct
6,406,148,B,73.30422997721821,62.52136754874937,3.6652114988609106,0.9820833449176914,B,719.3867000005412,Correct
6,406,149,A,64.33892744830585,83.8799418383606,3.216946372415293,1.317583045314664,A,710.8717000000979,Correct
6,406,150,A,48.11145861513981,78.60432722999924,2.4055729307569904,1.234713884830669,A,783.1640999993397,Correct
6,406,151,A,16.475400726222958,41.44778408572543,0.8237700363111479,0.6510602699564547,A,595.6016000000091,Correct
6,406,152,A,33.30219952217767,64.22578503552047,1.6651099761088834,1.008856272193142,A,723.9059000003181,Correct
6,406,153,A,65.54274802474833,81.43599693137429,3.277137401237417,1.279193648486832,A,766.3940000002185,Correct
6,406,154,A,63.32799742920177,86.18690022652366,3.1663998714600887,1.353820662936616,A,549.8459999998886,Correct
6,406,155,A,59.86950293756904,70.97574964102007,2.993475146878452,1.1148844682762853,B,1165.349700000661,Incorrect
6,406,156,A,48.15709532576173,63.716812913866974,2.4078547662880867,1.0008613568017988,B,1262.7374000003329,Incorrect
6,406,157,A,44.17852014152838,57.21414088729267,2.2089260070764194,0.8987176234648504,B,894.4712000002255,Incorrect
6,406,158,B,62.14005739154276,47.61324287961747,3.107002869577138,0.7479070702209638,B,572.834700000385,Correct
6,406,159,A,22.250420289202083,44.84933734965832,1.112521014460104,0.7044917436802844,A,653.1145999997534,Correct
6,406,160,A,68.39957137437729,83.09074543188899,3.4199785687188644,1.3051863771506107,B,1316.5675000000192,Incorrect
6,406,161,A,35.28717910765499,44.51717399705035,1.7643589553827497,0.6992741339385599,A,1991.9247999996514,Correct
6,406,162,A,24.227399378633628,39.99424835098784,1.2113699689316815,0.6282281840265456,A,553.3292000000074,Correct
6,406,163,B,77.58081170602273,55.342780562354584,3.8790405853011363,0.8693223642196257,B,720.4971000001024,Correct
6,406,164,B,35.89865281832883,22.54209131408901,1.7949326409164414,0.35409034234446163,B,1232.546199999888,Correct
6,406,165,B,68.87412119822885,48.955260747713346,3.4437060599114426,0.7689874375979451,B,564.4268999994893,Correct
6,406,166,B,56.20666411980859,24.039376588577102,2.8103332059904296,0.37760964443776146,B,452.1503000005396,Correct
6,406,167,B,59.09139259366932,37.80174019093113,2.954569629683466,0.5937883463836962,B,491.3506000002599,Correct
6,406,168,B,81.22506540179624,50.891113022731304,4.0612532700898125,0.7993957340261025,B,702.6550000000498,Correct
6,406,169,B,71.86982386145964,47.21428636514901,3.593491193072982,0.7416402759461843,B,555.6377000002612,Correct
6,406,170,B,67.02146897710142,57.259070321279964,3.3510734488550713,0.8994233733635726,B,411.12080000038986,Correct
6,406,171,B,54.276567670996386,23.427989133988227,2.713828383549819,0.3680059927585946,B,474.2956000000049,Correct
6,406,172,B,79.91476339193187,50.48005607255766,3.9957381695965934,0.7929388665517398,B,543.2813000006718,Correct
6,406,173,A,18.508585540809296,47.351512074697354,0.9254292770404647,0.743795812351188,A,573.0944000006275,Correct
6,406,174,B,65.95036650821511,33.412581468721726,3.2975183254107554,0.5248436023980332,B,826.8945999998323,Correct
6,406,175,A,45.467310694170614,67.77683051934184,2.2733655347085304,1.064635964215824,A,485.69360000055894,Correct
6,406,176,B,61.0214837473178,32.81856346375505,3.05107418736589,0.5155127893955163,B,520.1908999997613,Correct
6,406,177,A,10.701756678420384,34.14682948280863,0.5350878339210192,0.5363771432328747,A,511.06959999924584,Correct
6,406,178,B,68.15782563736394,53.1980890358428,3.407891281868197,0.8356336285000971,B,529.5981999997821,Correct
6,406,179,A,58.38031339266075,74.00288472933246,2.919015669633038,1.1624345950506159,A,820.375199999944,Correct
6,406,180,A,47.70450618978402,69.39475187130627,2.385225309489201,1.0900502133829117,A,656.5294000001813,Correct
6,406,181,A,49.71970951657637,74.98110813206992,2.4859854758288185,1.1778004923286638,A,593.3740000000398,Correct
6,406,182,A,49.147950573105895,58.94806169629848,2.457397528655295,0.925953987842246,B,1494.0819000003103,Incorrect
6,406,183,B,33.229756573299355,20.104540775342635,1.661487828664968,0.31580138801806434,B,887.2161999997843,Correct
6,406,184,B,72.18704990964517,59.270339136672575,3.6093524954822582,0.9310163100377308,B,567.7736999996341,Correct
6,406,185,B,48.99841283541659,25.189720641308043,2.4499206417708295,0.3956792065635626,B,525.5976999997074,Correct
6,406,186,A,69.15738329562097,84.0849082150058,3.457869164781049,1.3208026496301712,A,552.6329000003898,Correct
6,406,187,A,23.110844053487686,34.07667899762387,1.1555422026743842,0.5352752219883637,A,611.3949999999022,Correct
6,406,188,B,74.02181236166047,59.55553725125057,3.701090618083023,0.9354961915456103,B,631.0020000000804,Correct
6,406,189,A,29.076145366271906,60.751179241692874,1.4538072683135954,0.9542772920130954,A,557.0987000000969,Correct
6,406,190,B,68.75653356437316,48.89183628260865,3.437826678218658,0.7679911684297912,B,445.95100000060484,Correct
6,406,191,A,12.102758559543748,33.41819745236835,0.6051379279771874,0.5249318180628676,A,495.09889999990264,Correct
6,406,192,A,50.592771563513516,79.94249849605261,2.5296385781756756,1.2557338299240597,A,732.6276000003418,Correct
6,406,193,A,59.480723656660615,78.2716215614884,2.974036182833031,1.2294877564106619,A,613.9954999998736,Correct
6,406,194,B,66.03446427515671,42.97884364241145,3.3017232137578354,0.675110097233921,B,546.9655999995666,Correct
6,406,195,B,77.07303778383543,57.62584179965178,3.853651889191772,0.9051846062735682,B,974.3111999996472,Correct
6,406,196,A,14.62210856929807,39.50087759737665,0.7311054284649035,0.6204783343513407,A,470.0507999996262,Correct
6,406,197,A,57.489868378017654,82.80467042682284,2.8744934189008826,1.300692721479153,A,612.694499999634,Correct
6,406,198,B,67.61711807705595,54.94064817882504,3.380855903852797,0.863005683510291,B,562.2272000000521,Correct
6,406,199,B,33.468611137198025,18.735184223157088,1.6734305568599013,0.29429158559560853,B,539.350099999865,Correct
6,406,200,A,36.65004413229701,49.34058623200396,1.8325022066148506,0.7750401161513867,A,609.6910999995089,Correct
6,406,201,B,58.979090092103064,39.05573777688037,2.9489545046051533,0.6134860944018836,B,480.07309999957215,Correct
6,406,202,A,66.28653564675247,80.43281255355596,3.314326782337623,1.2634356651290815,A,504.1020999997272,Correct
6,406,203,B,78.89346356157066,66.39708717598565,3.944673178078533,1.0429630064591877,B,574.9865999996473,Correct
6,406,204,A,38.224650613299765,66.14086870811849,1.9112325306649882,1.0389383361773605,A,489.49199999970006,Correct
6,406,205,B,63.63350867291925,36.85320302292534,3.181675433645962,0.578888759390377,B,492.5898000001325,Correct
6,406,206,B,71.76426484274987,53.19794024553242,3.5882132421374933,0.8356312913073671,B,520.18390000012,Correct
6,406,207,A,41.852666674513486,70.11770052747657,2.0926333337256744,1.1014062643186477,A,572.8421000003436,Correct
6,406,208,A,41.801203553602484,69.7669612790032,2.090060177680124,1.095896865087,A,490.6504999999015,Correct
6,406,209,B,80.05282721995651,60.51218122225528,4.002641360997825,0.9505231199026571,B,636.3232000003336,Correct
6,406,210,A,59.36823564280944,82.10622502910482,2.968411782140472,1.2897215668271305,A,574.5570999997653,Correct
6,406,211,B,33.589933051298345,10.251030513061387,1.6794966525649173,0.16102281075779235,B,489.86820000027365,Correct
6,406,212,B,73.1849656071106,60.858735590119224,3.6592482803555297,0.9559667831834111,B,898.7151999999696,Correct
6,406,213,B,64.9204440158102,52.36015267519196,3.24602220079051,0.8224713549261152,B,536.5353999995932,Correct
6,406,214,B,86.31250595843525,62.189874582041156,4.315625297921763,0.9768762655730555,B,505.37810000059835,Correct
6,406,215,A,13.390700014641645,40.52381281835927,0.6695350007320823,0.6365465632280268,A,556.6976000000068,Correct
6,406,216,A,33.10659669550615,43.45568302901676,1.6553298347753074,0.6826002728034286,A,763.602300000457,Correct
6,406,217,B,66.00399990923975,49.20625429095179,3.300199995461987,0.7729300349556271,B,1310.4183000004923,Correct
6,406,218,B,39.77002194469458,21.027052493564373,1.9885010972347288,0.33029216820214385,B,628.5053999999946,Correct
6,406,219,A,34.57921149321631,65.87705056170326,1.7289605746608157,1.0347942904240515,A,515.4071000006297,Correct
6,406,220,A,38.03022017037726,53.17535827722043,1.9015110085188633,0.8352765745786046,A,830.4474999995364,Correct
6,406,221,B,65.52167590166567,45.951934550200285,3.2760837950832835,0.7218113000057411,B,488.13370000061695,Correct
6,406,222,B,60.51043527210114,43.367587119523996,3.0255217636050573,0.6812164654930596,B,993.2542000005924,Correct
6,406,223,A,29.44193340562647,45.440430977103624,1.4720966702813234,0.713776620668114,A,511.3383999996586,Correct
6,406,224,A,65.85922192201508,80.1686283596419,3.292961096100754,1.2592858695151068,B,475.22620000017923,Incorrect
6,406,225,B,58.56333516233037,38.82791264232489,2.9281667581165185,0.6099074255567707,B,544.7533000005933,Correct
6,406,226,A,23.784433007328744,40.194004539621844,1.1892216503664372,0.6313659469001539,A,573.1889999997293,Correct
6,406,227,A,50.287906879684506,66.52267051055773,2.514395343984225,1.0449356648657127,A,692.070999999487,Correct
6,406,228,A,66.58888367634688,78.73335936912207,3.329444183817344,1.236740716932395,A,451.0153999999602,Correct
6,406,229,A,13.646488457707758,35.40856344991106,0.682324422885388,0.5561964140420432,A,481.3497000004645,Correct
6,406,230,B,75.59024627966978,64.151240487543,3.779512313983489,1.007685329171686,B,564.4197000001441,Correct
6,406,231,A,65.74467145908162,79.41197591071199,3.2872335729540807,1.247400400640712,A,1149.8343999992358,Correct
6,406,232,B,84.3238004941163,64.73693707213803,4.216190024705815,1.0168854296086678,B,575.7732000001852,Correct
6,406,233,B,67.08899218788339,56.41209444100832,3.3544496093941696,0.8861191073474267,B,535.5263999999806,Correct
6,406,234,A,56.549332774746524,71.78959750811521,2.8274666387373264,1.127668360678314,A,969.7393999995256,Correct
6,406,235,B,62.4500163036946,37.68471428280398,3.12250081518473,0.5919501077174367,B,532.7816999997594,Correct
6,406,236,A,27.10438045146914,59.71825689268286,1.3552190225734568,0.9380521856962024,A,679.3030000008002,Correct
6,406,237,A,43.56384686994236,71.878299244412,2.178192343497118,1.1290616842938677,A,568.150400000377,Correct
6,406,238,A,52.02675783916051,77.60466228788502,2.6013378919580252,1.2190111846396823,A,567.0432000006258,Correct
6,406,239,A,30.49044815271958,58.151168504975196,1.524522407635979,0.9134364188644613,A,583.2973999995374,Correct
6,406,240,B,78.17875198692724,60.983637429983176,3.9089375993463618,0.9579287366960932,B,510.81629999953293,Correct
6,406,241,B,50.88412111383923,44.225791522959334,2.5442060556919612,0.694697108738614,B,580.5976000001465,Correct
6,406,242,A,18.018961944160072,46.86959320088714,0.9009480972080035,0.7362258483832457,A,526.3001000002987,Correct
6,406,243,A,34.430871348007116,63.28524708275441,1.7215435674003559,0.9940823365789808,A,588.9090000000579,Correct
6,406,244,B,49.59488419473666,39.698981989155875,2.479744209736833,0.6235901508606281,B,492.66850000003615,Correct
6,406,245,B,78.0048821221649,50.11148003421008,3.9002441061082447,0.7871492876799299,B,1009.6614999993108,Correct
6,406,246,B,65.83224489795938,54.41925542932654,3.2916122448979697,0.8548156653529937,B,528.2860999996046,Correct
6,406,247,B,56.42293008729078,33.85446083420003,2.8211465043645387,0.531784627239831,B,443.34519999938493,Correct
6,406,248,B,49.76064964067039,42.29628287606282,2.4880324820335193,0.6643884577879735,B,438.09259999943606,Correct
6,406,249,B,50.62543027567899,35.87361706789999,2.5312715137839494,0.5635014591910402,B,512.3420999998416,Correct
6,406,250,A,43.50799214911215,53.57399959964633,2.1753996074556072,0.8415384178283571,B,668.228800000179,Incorrect
6,406,251,B,58.3449042299634,46.66400362694299,2.91724521149817,0.7329964549074578,A,1827.3918000004414,Incorrect
6,406,252,A,29.187342489373584,49.50808040550732,1.4593671244686792,0.777671108476373,A,1130.3053999999975,Correct
6,406,253,A,35.2568329335368,54.55756957712898,1.76284164667684,0.856988298906112,A,900.2777999994578,Correct
6,406,254,A,10.572053051308604,35.83587752190735,0.5286026525654302,0.5629086477888385,A,624.4199000002482,Correct
6,406,255,B,80.85086120859297,51.78672404114952,4.042543060429648,0.8134639590057863,B,573.4316000007311,Correct
6,406,256,B,60.65971793404035,45.84466470842085,3.0329858967020176,0.720126309271311,B,556.0689000003549,Correct
6,406,257,A,44.95034102162659,53.37510218843035,2.2475170510813296,0.8384141445988863,A,555.8067000001756,Correct
6,406,258,B,49.915101495447075,35.43981631237335,2.4957550747723536,0.5566873328576192,B,522.6874999998472,Correct
6,406,259,A,40.3336475580524,70.87015618329428,2.01668237790262,1.1132258101209929,A,476.66409999965254,Correct
6,406,260,A,22.694461441893377,49.8880208343244,1.1347230720946688,0.7836391987762403,A,526.5988999999536,Correct
6,406,261,B,78.99584989577106,64.11760913418311,3.949792494788553,1.0071570491084574,B,452.40909999938594,Correct
6,406,262,B,51.39167958318276,30.22475590195427,2.569583979159138,0.47476935549062144,B,404.4197000002896,Correct
6,406,263,B,73.36212286627267,55.57762831590941,3.6681061433136337,0.8730113441060254,B,802.5155000004816,Correct
6,406,264,B,36.19976055559519,25.979788056020713,1.8099880277797595,0.40808955649307266,B,1428.7385999996332,Correct
6,406,265,B,39.60263175969328,18.174166400439933,1.9801315879846642,0.2854791382437027,B,1190.401899999415,Correct
6,406,266,A,27.827222432659916,44.910516118696194,1.3913611216329957,0.7054527375371098,A,569.4442000003619,Correct
6,406,267,A,19.116229966095556,50.3676770985761,0.9558114983047779,0.7911736217563478,A,626.3082000004943,Correct
6,406,268,B,68.86157412757268,38.82918615416482,3.443078706378634,0.6099274298339735,B,387.16199999998935,Correct
6,406,269,B,46.6261872834267,36.06480571858144,2.331309364171335,0.5665046434931931,B,469.4036999999298,Correct
6,406,270,B,61.08756037185233,48.946349936790114,3.0543780185926166,0.7688474669072753,B,540.3249999999389,Correct
6,406,271,A,12.933928795135941,31.3753270077123,0.646696439756797,0.4928424841570319,A,597.387400000116,Correct
6,406,272,B,53.65955450916643,28.112177164035327,2.6829777254583216,0.44158504627474066,B,627.5085999996008,Correct
6,406,273,B,59.09687276858708,48.51707035199109,2.954843638429354,0.7621043589575719,B,965.7078999998703,Correct
6,406,274,B,84.22889172685376,63.499861637850465,4.211444586342688,0.9974534941271967,B,640.2204999994865,Correct
6,406,275,B,77.84531388397629,49.56268315870313,3.8922656941988145,0.7785288065179016,B,975.3995999999461,Correct
6,406,276,B,44.19888987751708,18.302176575152494,2.209944493875854,0.2874899173660114,B,582.8717000003962,Correct
6,406,277,A,48.70904584003301,58.375508355631624,2.4354522920016506,0.9169603409981094,A,578.4899000000223,Correct
6,406,278,B,76.48965063937035,61.82913238658443,3.8244825319685174,0.971209740417622,B,466.2148999996134,Correct
6,406,279,A,41.862961496877496,63.79012217768409,2.093148074843875,1.0020128960250385,A,533.5546999995131,Correct
6,406,280,A,30.753200891775638,61.59946905210339,1.537660044588782,0.9676021971955991,A,977.6931000005789,Correct
6,406,281,A,58.938958674268335,72.23627740599925,2.946947933713417,1.134684792106808,A,781.3223000002836,Correct
6,406,282,B,35.38871563047229,23.538848026872675,1.7694357815236146,0.369747360175949,B,589.9160999997548,Correct
6,406,283,A,20.976164804148617,51.812122430187955,1.048808240207431,0.8138629159678671,A,871.2983999994321,Correct
6,406,284,A,22.936454737355593,55.28536757024412,1.1468227368677797,0.8684205230484514,A,576.9453000002613,Correct
6,406,285,A,44.233357626360345,64.20768593028139,2.211667881318017,1.0085719721128636,A,1407.5739999998405,Correct
6,406,286,A,53.202289472473076,68.43276494944777,2.660114473623654,1.0749393581501112,A,640.1500000001761,Correct
6,406,287,B,64.38578204943656,43.75601732918117,3.2192891024718278,0.6873179129585162,B,677.6961000005031,Correct
6,406,288,A,37.20979727466322,48.104690876680586,1.860489863733161,0.7556267173069383,B,651.4957999997932,Incorrect
6,406,289,B,78.12918413493544,48.730155992954195,3.906459206746772,0.7654515003787475,B,694.5795000001453,Correct
6,406,290,A,68.75241592508934,88.12701177379766,3.4376207962544667,1.3842958638569198,A,812.6271999999517,Correct
6,406,291,B,55.64828305318963,24.198751373705974,2.7824141526594817,0.380113097708403,B,434.4590999999127,Correct
6,406,292,B,50.3093493259371,38.75868905669557,2.515467466296855,0.6088200640164296,B,476.3818999999785,Correct
6,406,293,A,49.64841333445895,70.85394877677919,2.4824206667229474,1.112971224774785,A,796.972299999652,Correct
6,406,294,A,40.02663002702895,63.23005646865664,2.0013315013514474,0.9932154044399975,A,544.0077999992354,Correct
6,406,295,A,43.161302390444874,69.69924869185144,2.1580651195222433,1.0948332382552424,A,654.9112000002424,Correct
6,406,296,A,37.13999475952214,69.93330026510695,1.8569997379761072,1.0985097117707456,A,489.70359999930224,Correct
6,406,297,A,32.796713007755976,55.05237070732311,1.6398356503877989,0.8647606168841411,A,690.5590000005759,Correct
6,406,298,A,46.703841798970686,61.32214598911489,2.3351920899485346,0.9632460167088207,A,630.9854999999516,Correct
6,406,299,B,33.05866199365812,20.565802661104694,1.652933099682906,0.3230468727765196,B,592.6571999998487,Correct
6,406,300,A,64.8208519132746,78.6976212807543,3.24104259566373,1.2361793443530473,A,635.7157000002189,Correct
6,406,301,A,20.345650470251137,36.37482802784076,1.0172825235125569,0.5713744625392833,A,1056.968699999743,Correct
6,406,302,A,39.958721022494274,67.65700615683294,1.9979360511247137,1.0627537675309287,A,634.3627000005654,Correct
6,406,303,B,86.81319816215259,67.14066791829877,4.34065990810763,1.0546431454461966,B,669.716000000335,Correct
6,406,304,B,53.613153441104885,46.435317436749095,2.6806576720552444,0.7294042606320049,B,1187.2509000004356,Correct
6,406,305,A,60.54918643661583,76.41312313116288,3.0274593218307917,1.2002945313335678,A,886.5507000000434,Correct
6,406,306,A,20.993641167529702,52.39022689699958,1.0496820583764852,0.8229437596975814,A,607.6760999994804,Correct
6,406,307,B,51.052735104180144,43.63631935775917,2.5526367552090075,0.6854377016201715,B,467.0175000001109,Correct
6,406,308,A,29.21807275623624,61.720742016443246,1.4609036378118119,0.9695071484648449,A,568.5416999995141,Correct
6,406,309,A,47.297891046226056,58.17788674705487,2.364894552311303,0.9138561080296329,A,650.4967000000761,Correct
6,406,310,B,42.13466296848023,30.3402756930508,2.1067331484240115,0.4765839361258868,B,499.3367999995826,Correct
6,406,311,A,39.799235580348565,62.63470271601429,1.9899617790174284,0.9838636095620558,A,978.8078000001406,Correct
6,406,312,B,74.94056183983191,54.79750156456993,3.7470280919915955,0.8607571417516403,B,471.50429999965127,Correct
6,406,313,B,58.51014232750335,28.556204248942514,2.925507116375168,0.4485598074144372,B,449.4628999991619,Correct
6,406,314,B,71.92465065737136,59.67137879932302,3.5962325328685676,0.9373158263276348,B,476.76309999951627,Correct
6,406,315,A,21.496242494609085,47.687305156786884,1.074812124730454,0.7490704377502818,A,521.7688000002454,Correct
6,406,316,B,59.99785023209718,49.26367242819865,2.999892511604859,0.7738319569464147,B,494.724999999562,Correct
6,406,317,B,80.92494955567119,61.876099315057076,4.0462474777835595,0.9719474952048788,B,605.3807999996934,Correct
6,406,318,A,49.4682616574918,65.3189542794422,2.47341308287459,1.0260277345223159,A,750.8364999994228,Correct
6,406,319,B,32.413122764841624,12.21557363669374,1.6206561382420812,0.19188178198211103,B,495.95210000006773,Correct
6,406,320,B,70.65261808263915,44.03190634611779,3.5326309041319575,0.6916515675025874,B,481.81639999984327,Correct
6,406,321,B,86.13593893203465,65.63203936174249,4.306796946601732,1.0309456634948317,B,506.9739999999001,Correct
6,406,322,A,43.28049962733413,53.31934490797494,2.1640249813667065,0.837538311285572,A,530.967700000474,Correct
6,406,323,B,48.46328130160771,29.779516820877298,2.4231640650803854,0.467775556359609,B,905.3648999997677,Correct
6,406,324,A,45.2387833666121,71.33859599783868,2.261939168330605,1.120584045521101,A,789.4980000000942,Correct
6,406,325,A,26.49189931626367,49.45080480464614,1.3245949658131835,0.7767714254418959,A,917.489100000239,Correct
6,406,326,A,42.53836683527742,69.54291918562599,2.1269183417638713,1.0923776201137565,A,560.8468000000357,Correct
6,406,327,A,65.92840755214627,86.05618074793051,3.2964203776073133,1.3517673261684695,A,767.4924000002648,Correct
6,406,328,A,17.855983161308583,37.70599384752721,0.8927991580654292,0.592284366338467,A,574.4069000002128,Correct
6,406,329,B,78.9901666933344,66.49357131399205,3.94950833466672,1.0444785757549322,B,504.62030000016966,Correct
6,406,330,A,49.18507685582033,66.69646780215403,2.4592538427910164,1.0476656663381765,A,1681.2162999995053,Correct
6,406,331,A,37.04726277147853,54.27107181502638,1.8523631385739265,0.8524880025826549,A,1090.3270999997403,Correct
6,406,332,A,47.23305013238039,64.57343820548726,2.3616525066190195,1.0143171954169663,A,753.7913999994998,Correct
6,406,333,A,40.4826049363767,63.67198480391754,2.024130246818835,1.0001571984973414,A,865.8109999996668,Correct
6,406,334,B,40.942375001927054,29.700051784044334,2.047118750096353,0.46652732247995055,A,986.6540000002715,Incorrect
6,406,335,A,11.643165212760099,36.428277398511725,0.5821582606380049,0.5722140432904776,A,556.8600999995397,Correct
6,406,336,A,14.035247759200782,31.89675642999524,0.7017623879600392,0.5010330783690802,A,594.142599999941,Correct
6,406,337,B,56.46549649624277,39.45212118957769,2.8232748248121387,0.6197124704885574,B,595.786599999883,Correct
6,406,338,B,70.8968637010371,57.82365595020839,3.544843185051855,0.908291863684392,B,573.2021000003442,Correct
6,406,339,A,56.869286988807104,71.99707473264667,2.8434643494403553,1.1309274053001905,A,608.5214999993696,Correct
6,406,340,A,15.911888013118478,42.7234456353346,0.7955944006559238,0.6710983147200504,A,539.5995999997467,Correct
6,406,341,A,47.19428432800876,63.53242777697027,2.3597142164004383,0.9979650418442696,A,564.7116999998616,Correct
6,406,342,B,66.62766298811617,43.65462668037097,3.331383149405809,0.685725272371292,B,533.8160999999673,Correct
6,406,343,A,20.492337057504727,42.90642250755385,1.0246168528752364,0.6739725087077545,A,528.3342000002449,Correct
6,406,344,A,66.04529578556355,78.42162885291981,3.3022647892781776,1.231844065434391,A,615.5037999997148,Correct
6,406,345,A,15.76095405268224,42.272272116030905,0.788047702634112,0.6640112976513567,A,521.4360999998462,Correct
6,406,346,B,35.38559859275737,10.850914828972954,1.7692799296378683,0.17044577155714988,B,616.3561999992453,Correct
6,406,347,A,40.21844303450152,58.54280992503124,2.010922151725076,0.9195883079049089,A,573.3731000000262,Correct
6,406,348,B,46.414991229349525,37.030565348032496,2.3207495614674762,0.5816747602782782,B,624.6567999996842,Correct
6,406,349,A,56.851430054676484,84.21355894386257,2.8425715027338243,1.3228234905534484,A,569.4921999993312,Correct
6,406,350,B,57.159601318378755,24.566533861726192,2.857980065918938,0.3858902115208195,B,560.9910000002856,Correct
6,406,351,A,13.418031930660362,30.68177930197031,0.6709015965330181,0.4819482622706665,A,785.8184000006077,Correct
6,406,352,B,70.21200344635005,48.75677206210072,3.510600172317503,0.7658695846152385,B,1023.6463999999614,Correct
6,406,353,B,58.600933014668705,37.68987790004583,2.930046650733435,0.5920312176274014,B,1237.430399999539,Correct
6,406,354,B,42.971442594268694,31.59284227101503,2.148572129713435,0.49625920592320943,B,775.4112000002351,Correct
6,406,355,B,53.37849000985427,25.709267536780565,2.6689245004927136,0.40384023011362186,B,734.3393999999535,Correct
6,406,356,B,85.83720658576232,57.317954191102274,4.291860329288116,0.9003483190278161,A,1207.4407999998584,Incorrect
6,406,357,A,43.769439724861726,56.51277291662203,2.1884719862430866,0.8877005611442401,A,608.5624000006646,Correct
6,406,358,B,33.54252077881474,20.528494892916655,1.6771260389407372,0.3224608437242128,B,1082.2306999998546,Correct
6,406,359,B,65.84672028385282,41.88933896464851,3.292336014192641,0.6579961977753621,B,1317.3268999998982,Correct
6,406,360,A,67.08683680418433,86.98764336023922,3.354341840209216,1.3663987066680823,A,3027.0934000000125,Correct
6,406,361,B,52.29330719855166,21.418438997488202,2.614665359927583,0.3364400530293503,B,698.0239000004076,Correct
6,406,362,A,56.20046280979931,83.10486468625912,2.8100231404899656,1.3054081618796274,A,568.6787000004188,Correct
6,406,363,B,44.065832313591166,18.61337611823017,2.203291615679558,0.292378228357678,B,572.2894000000451,Correct
6,406,364,A,35.70857543121923,61.255377882599696,1.7854287715609616,0.9621972257442095,A,541.9445999996242,Correct
6,406,365,B,66.7708744305451,38.30510053292431,3.3385437215272553,0.6016951121462673,B,473.5768000000462,Correct
6,406,366,B,79.00960737613184,49.82497786369675,3.950480368806592,0.7826489221093188,B,477.4366999999984,Correct
6,406,367,A,37.134054966545406,64.62924417542978,1.8567027483272704,1.0151937935429556,A,1018.1415999995806,Correct
6,406,368,B,34.38021177019816,13.780932424112748,1.719010588509908,0.21647038031604995,B,503.1331999998656,Correct
6,406,369,A,64.78344587611655,78.15906909454105,3.2391722938058276,1.227719786394136,A,453.4733000000415,Correct
6,406,370,A,28.38677887926414,43.285665763438146,1.419338943963207,0.6799296478408026,A,796.1021000000983,Correct
6,406,371,B,57.67937868099595,45.40991571153647,2.883968934049798,0.7132972879974735,B,1037.802400000146,Correct
6,406,372,A,50.5637497354793,70.88213797866666,2.5281874867739647,1.1134140197225864,A,504.0028000003076,Correct
6,406,373,B,63.42671043238806,41.672936269261996,3.1713355216194032,0.6545969521851457,B,464.3095999999787,Correct
6,406,374,B,53.64387328191055,38.87992022323425,2.6821936640955277,0.6107243587273499,B,721.1366999999882,Correct
6,406,375,A,57.008783365889066,67.67792559348472,2.850439168294453,1.0630823692734412,B,1419.6696999997584,Incorrect
6,406,376,B,32.462694204619496,11.760361666109798,1.6231347102309746,0.18473132906904782,A,1085.8594999999696,Incorrect
6,406,377,B,47.533816424688276,36.77340039465414,2.3766908212344138,0.5776352226368072,B,2539.418499999556,Correct
6,406,378,B,81.94194497177492,63.461519221143675,4.097097248588746,0.9968512128539619,B,1820.2421000005415,Correct
6,406,379,B,72.50746261954103,59.752264473438444,3.625373130977051,0.9385863755255428,A,877.1118000004208,Incorrect
6,406,380,B,54.36801019653776,31.338161628304274,2.718400509826888,0.49225869174245135,B,450.0864999999976,Correct
6,406,381,A,31.636479615589487,59.90506837659707,1.5818239807794743,0.940986613623558,A,454.257399999733,Correct
6,406,382,B,71.45251268831433,58.80117011786167,3.5726256344157163,0.9236466203237894,B,472.73930000028486,Correct
6,406,383,A,41.135247609681606,58.4206173933177,2.05676238048408,0.9176689121051349,A,602.7180999999473,Correct
6,406,384,A,40.3490830716474,73.28070264583997,2.01745415358237,1.1510905854103448,A,559.9390999996103,Correct
6,406,385,B,37.30162463105201,27.500573319284314,1.8650812315526002,0.4319779955468554,B,538.7157999994088,Correct
6,406,386,A,62.216228846582,78.16788527110099,3.1108114423291,1.2278582705717032,A,1297.0894999998563,Correct
6,406,387,A,50.52920490470916,76.87725188963495,2.526460245235458,1.207585048823246,B,650.2183000002333,Incorrect
6,406,388,B,75.4423613720865,62.01764331439886,3.7721180686043247,0.9741708631473381,B,626.8038999996861,Correct
6,406,389,B,74.03206212809783,54.12110870653602,3.7016031064048915,0.8501323875829407,B,489.42429999988235,Correct
6,406,390,A,58.60359880939194,76.02807751781522,2.930179940469597,1.194246248982618,A,497.16370000078314,Correct
6,406,391,A,53.374890938457035,77.38606372339797,2.6687445469228517,1.2155774464182934,A,679.8404000001028,Correct
6,406,392,B,65.71055980094754,42.714646732115,3.2855279900473766,0.6709601018714787,B,426.0152000006201,Correct
6,406,393,B,69.41038233383489,59.44810559073385,3.4705191166917446,0.9338086589683988,B,557.0878999997149,Correct
6,406,394,A,45.701222548477816,56.35717187540809,2.285061127423891,0.8852563857043967,A,1450.6366999994498,Correct
6,406,395,A,37.36345210356782,60.790382171190295,1.8681726051783911,0.9548930901896368,A,728.9780000000974,Correct
6,406,396,A,44.038003974978984,64.98949485024548,2.201900198748949,1.0208525979102143,A,537.5653000000966,Correct
6,406,397,B,44.784069394413045,31.750522928217357,2.2392034697206524,0.4987360478946096,B,757.7231000004758,Correct
6,406,398,B,64.16538757743105,44.46843275131755,3.2082693788715524,0.6985085082409548,B,497.5955999998405,Correct
6,406,399,B,70.52804006594519,37.335201153156916,3.52640200329726,0.5864599683152747,B,480.2201000002242,Correct
6,406,400,A,30.083355775473013,52.03162643108794,1.5041677887736506,0.817310876751172,A,540.9349000001384,Correct
6,406,401,A,53.19250064206859,69.1004602718453,2.6596250321034294,1.0854274917485125,A,1209.6341999995275,Correct
6,406,402,A,45.42372001935688,63.161695591888794,2.271186000967844,0.9921415942987633,A,860.6834000001982,Correct
6,406,403,A,43.057713118430165,51.21580802204538,2.152885655921508,0.8044960311486147,A,737.4142999997275,Correct
6,406,404,A,17.011067592606967,36.159775039227,0.8505533796303483,0.5679964180934756,A,691.9756999996025,Correct
6,406,405,B,35.25502841092782,10.694355514267073,1.762751420546391,0.16798654359249465,B,608.6077999998452,Correct
6,406,406,A,66.89602755961974,84.54904321397947,3.344801377980987,1.3280932651454194,A,815.2485999999044,Correct
6,406,407,B,50.53327503384901,31.08239711024405,2.5266637516924506,0.48824115208751656,B,547.6708000005601,Correct
6,406,408,A,14.329668847363305,31.436845999567584,0.7164834423681653,0.493808822221376,A,576.3981000000058,Correct
6,406,409,B,44.289312422262206,28.33892970280358,2.2144656211131104,0.44514686682462656,B,826.3386999997238,Correct
6,406,410,B,71.99664880821263,61.16010011608829,3.599832440410631,0.960700606087596,B,1739.1655999999784,Correct
6,406,411,B,47.663126661459,21.607906311312703,2.38315633307295,0.3394161986353826,B,437.6657000002524,Correct
6,406,412,A,57.24577197030044,72.29003148753065,2.862288598515022,1.1355291592450056,A,484.0536000001521,Correct
6,406,413,A,37.25440333205851,52.62409462010434,1.8627201666029254,0.8266173453016697,A,551.9211000000723,Correct
6,406,414,B,80.34550767355577,63.607934868150714,4.017275383677788,0.9991511044590016,A,495.1164999993125,Incorrect
6,406,415,A,59.89501581873812,68.55542360334361,2.9947507909369064,1.076866075780003,B,596.0815999997067,Incorrect
6,406,416,B,61.28485390191917,49.04125664193813,3.0642426950959583,0.7703382579456224,B,586.7385999999897,Correct
6,406,417,A,35.876703839395425,68.72310476131118,1.7938351919697713,1.0795000052500847,A,518.6213000006319,Correct
6,406,418,A,39.15680869433062,52.417478029429475,1.957840434716531,0.8233718194848001,A,639.7325000007186,Correct
6,406,419,A,23.40280628343168,47.54695888955655,1.170140314171584,0.7468658837398339,A,500.1671999998507,Correct
6,406,420,A,41.22458371853686,71.28692531536237,2.061229185926843,1.1197724043387334,A,564.189400000032,Correct
6,406,421,B,52.94209892417263,26.770842242800313,2.647104946208632,0.4205154066019639,B,488.05149999952846,Correct
6,406,422,B,64.68349569521924,31.391837721990633,3.2341747847609614,0.4931018338504436,B,479.78299999977025,Correct
6,406,423,A,27.137887617374233,43.50613270691615,1.3568943808687117,0.6833927344907519,A,373.88949999967735,Correct
6,406,424,A,41.48368397570791,50.97634555214634,2.0741841987853955,0.8007345634673882,B,554.0455000000293,Incorrect
6,406,425,B,63.528073108047025,34.53322708399121,3.176403655402351,0.5424466625590743,B,494.1945999999007,Correct
6,406,426,B,77.02388449638663,58.604256437860386,3.8511942248193316,0.9205535074713728,B,808.3980000001247,Correct
6,406,427,A,42.61376220698577,64.55497633524793,2.1306881103492885,1.014027197037389,A,533.4106000000247,Correct
6,406,428,B,48.14601596799319,23.869332811673736,2.40730079839966,0.37493860303622006,B,743.3504999999059,Correct
6,406,429,A,49.55970828409159,68.70307798626469,2.4779854142045794,1.0791854254032789,A,593.8446000000113,Correct
6,406,430,A,33.44075013264566,65.53401255398177,1.672037506632283,1.029405861999252,A,505.28570000005857,Correct
6,406,431,B,77.73742559341632,64.8422476101158,3.886871279670816,1.0185396436709506,B,541.1809000006542,Correct
6,406,432,A,23.978054991188554,39.155541604529986,1.1989027495594278,0.6150538092606045,A,550.3172999997332,Correct
6,406,433,B,75.75456413668971,57.98472740621828,3.7877282068344855,0.9108219681989105,B,468.40920000067854,Correct
6,406,434,A,42.505899494747645,55.63395838887428,2.125294974737382,0.8738961748230384,A,549.2591000001994,Correct
6,406,435,A,46.47723660692813,74.2640287174192,2.3238618303464067,1.166536635223128,A,453.80310000018653,Correct
6,406,436,B,67.39180135612948,36.16196608504618,3.369590067806474,0.5680308349607217,B,404.43709999999555,Correct
6,406,437,A,14.715333443743955,37.49745744919359,0.7357666721871978,0.5890086842534122,A,457.41670000006707,Correct
6,406,438,B,45.30630858507942,20.22764897216095,2.2653154292539712,0.3177351670516698,B,474.29039999951783,Correct
6,406,439,A,40.55502466742539,72.08795596381405,2.0277512333712697,1.1323549643411137,A,527.5159000002532,Correct
6,406,440,B,37.47859141027497,22.14762016604136,1.8739295705137489,0.3478940040406634,B,690.0148000004265,Correct
6,406,441,B,38.89345035656184,14.817515356512128,1.9446725178280924,0.23275298694236224,B,704.6482000005199,Correct
6,406,442,B,44.79903782150885,26.902024601573867,2.2399518910754423,0.4225760142749816,B,517.9162000003998,Correct
6,406,443,A,52.57537212410816,65.72104429400548,2.628768606205408,1.0323437497014851,A,668.843200000083,Correct
6,406,444,A,57.61347548254376,79.09937303531815,2.8806737741271884,1.2424900461565704,A,749.4046000001617,Correct
6,406,445,A,52.17047764205926,62.24209365099426,2.608523882102963,0.9776965207900574,A,1021.9747999999527,Correct
6,406,446,A,33.6603632653978,59.87212806492506,1.6830181632698897,0.9404691884177793,A,668.6432999995304,Correct
6,406,447,A,22.487675081192275,46.49139530323458,1.1243837540596138,0.7302851296989039,A,482.97199999979057,Correct
6,406,448,A,16.19534568493381,35.31806130369773,0.8097672842466905,0.5547748096536538,A,587.5194000000192,Correct
6,406,449,B,82.90742900836057,57.75399792161602,4.145371450418028,0.9071976779299453,B,380.65800000003946,Correct
6,406,450,B,55.84486668437428,25.08807756945458,2.792243334218714,0.3940826009244469,B,538.467700000183,Correct
6,406,451,A,36.28726078745118,45.000558326106535,1.814363039372559,0.7068671172236765,A,450.21470000028785,Correct
6,406,452,A,27.489787341714123,46.338306191102554,1.3744893670857061,0.7278804115488111,B,548.4356999995725,Incorrect
6,406,453,B,67.76158186343463,58.130237574398535,3.3880790931717315,0.913107636575799,B,489.13489999995363,Correct
6,406,454,A,17.095046628830296,44.20334545321847,0.8547523314415147,0.6943445266996146,A,545.1640000001134,Correct
6,406,455,A,56.187582731218086,66.2099518530081,2.809379136560904,1.0400234916797209,A,1165.0654000004579,Correct
6,406,456,A,63.66109557765022,82.26693740108703,3.183054778882511,1.292246030862932,A,880.3775999995196,Correct
6,406,457,B,65.1437685245847,37.290214046914556,3.2571884262292348,0.5857533125028884,B,968.9063000005262,Correct
6,406,458,B,83.62656054292158,65.11949728852356,4.181328027146079,1.0228946714354303,B,2009.5080000000962,Correct
6,406,459,B,78.93978448721069,48.59982332248802,3.946989224360534,0.7634042395784513,B,717.9569999998421,Correct
6,406,460,B,72.42506285839339,42.54510401300389,3.6212531429196697,0.6682969310673332,B,1000.1765999995769,Correct
6,406,461,A,57.391213331178946,78.62297572472828,2.8695606665589475,1.235006814700875,A,528.7441999998919,Correct
6,406,462,A,40.83369644921608,57.287741816257764,2.0416848224608035,0.899873744153521,A,564.6122999996805,Correct
6,406,463,B,82.54674806815657,53.10673683006176,4.127337403407829,0.8341986714072426,B,737.8631000001405,Correct
6,406,464,B,56.84298977053197,36.44400600314377,2.8421494885265988,0.5724611076342939,B,2020.9241000002294,Correct
6,406,465,A,34.06332114112622,48.66343202041937,1.7031660570563107,0.7644034026690789,A,791.4220000002388,Correct
6,406,466,B,72.53440061555831,47.78836614403872,3.6267200307779155,0.7506579000258561,B,543.7366000005568,Correct
6,406,467,A,52.544220772744104,74.10575786051604,2.6272110386372054,1.164050522416506,A,2504.839600000196,Correct
6,406,468,A,67.88349202272374,81.26454126943982,3.3941746011361875,1.2765004292470834,A,606.6405000001396,Correct
6,406,469,A,60.93244647773386,72.84960106117697,3.0466223238866927,1.144318857553704,A,518.6755000004268,Correct
6,406,470,A,49.9108596991122,67.67905847307806,2.49554298495561,1.0631001645044804,A,611.9441000000734,Correct
6,406,471,A,34.624382676345206,44.899157322358434,1.7312191338172602,0.7052743139814681,A,687.0077000003221,Correct
6,406,472,B,30.134163297649277,12.551033282075668,1.5067081648824638,0.19715116976964958,B,858.3239999998113,Correct
6,406,473,A,56.454688613774536,68.42222796272897,2.8227344306887265,1.0747738435497771,B,691.4542000004076,Incorrect
6,406,474,B,47.95805769860087,32.470210220696046,2.397902884930043,0.5100408694492746,B,501.1156000000483,Correct
6,406,475,B,60.68263303430613,31.240955633268374,3.0341316517153065,0.4907317835430029,B,532.3515999998563,Correct
6,406,476,B,53.793562250028984,33.56347420962212,2.689678112501449,0.5272138200294968,B,515.4807999997502,Correct
6,406,477,A,61.1440329922052,81.23688029771311,3.05720164961026,1.2760659317192447,A,592.2065000004295,Correct
6,406,478,B,40.04386310687451,23.694707048682517,2.0021931553437256,0.3721955879655165,B,477.4626000007629,Correct
6,406,479,A,39.42045910385213,57.2588292396185,1.9710229551926064,0.8994195864616895,A,723.8086999996085,Correct
6,406,480,B,33.728373276813855,17.68046841435306,1.6864186638406926,0.2777241484127898,B,558.6090999995577,Correct
6,406,481,B,74.1201393167213,45.139677190985175,3.7060069658360653,0.7090523912430688,B,448.0071999996653,Correct
6,406,482,A,52.77909536224211,82.62005445842925,2.6389547681121055,1.2977927806289498,A,506.484300000011,Correct
6,406,483,A,43.619565482339105,70.14185137131061,2.1809782741169554,1.1017856248864828,A,556.4277999992555,Correct
6,406,484,A,32.21376739710268,46.02273799953579,1.610688369855134,0.7229234779871473,A,637.8339000002597,Correct
6,406,485,A,47.941266070206524,66.07396455247823,2.3970633035103264,1.03788740815809,A,643.3716999999888,Correct
6,406,486,B,79.08497661454456,51.64085402384717,3.9542488307272277,0.8111726381321059,B,994.854800000212,Correct
6,406,487,A,23.84873669438832,55.048236879088364,1.192436834719416,0.8646956828620735,A,590.4405999999653,Correct
6,406,488,A,60.374588057855476,83.61075554794614,3.018729402892774,1.3133546769525983,A,485.6364000006579,Correct
6,406,489,B,66.9600410960643,52.83255269813315,3.348002054803215,0.8298917971342534,B,761.7603000007875,Correct
6,406,490,B,71.83926226566987,53.726821947101485,3.5919631132834935,0.8439389456487044,B,907.1844999998575,Correct
6,406,491,B,58.68093753766766,40.03498095643961,2.934046876883383,0.6288680102967897,B,1418.6537000005046,Correct
6,406,492,B,42.03827369915527,22.219936759436408,2.1019136849577635,0.34902995043337603,B,839.9282000000312,Correct
6,406,493,B,37.00014166969392,17.5215767201808,1.8500070834846958,0.27522828351714973,B,484.89100000006147,Correct
6,406,494,B,37.73967647060354,15.308543318470324,1.886983823530177,0.24046603613233739,B,620.088499999838,Correct
6,406,495,A,32.43004895885379,54.15207927357272,1.6215024479426894,0.8506188721123408,A,764.9348000004466,Correct
6,406,496,A,44.189784372126105,60.65923040212399,2.209489218606305,0.9528329630186169,A,1633.602200000496,Correct
6,406,497,A,39.103733270029586,58.63670155403001,1.9551866635014792,0.9210631541643894,A,612.6898000002257,Correct
6,406,498,A,33.78289332226945,60.41032816278371,1.6891446661134726,0.9489232157857495,A,443.6054999996486,Correct
6,406,499,A,18.630491116485217,32.82042675995136,0.9315245558242609,0.5155420579837252,B,478.3858999999211,Incorrect
6,406,500,A,64.97239394412787,82.05939603092041,3.2486196972063937,1.288985978643775,A,580.9916000007433,Correct
6,406,501,B,60.957828474617386,44.60984473130319,3.047891423730869,0.7007298024282173,B,934.3958999997994,Correct
6,406,502,A,35.15865564171248,47.79675565779738,1.7579327820856239,0.7507896821998132,A,917.3321999996915,Correct
6,406,503,B,51.820144034430434,40.98636987123884,2.591007201721522,0.6438123924239899,B,500.80199999956676,Correct
6,406,504,A,52.79135365967905,66.54612685400704,2.639567682983952,1.0453041162470147,A,1112.3977999995986,Correct
6,406,505,A,60.66401272140659,85.20727386587922,3.0332006360703296,1.3384327280472985,A,490.3461000003517,Correct
6,406,506,A,42.32773139434805,54.26844865563681,2.1163865697174025,0.8524467980913174,B,472.1603000007235,Incorrect
6,406,507,B,42.56690104831221,31.101533763719015,2.1283450524156104,0.48854174993737287,B,519.0672999997332,Correct
6,406,508,B,59.48415038687871,43.96430191004546,2.9742075193439352,0.6905896395040125,A,537.8700000001118,Incorrect
6,406,509,B,85.26163425316363,57.68485955013276,4.263081712658181,0.9061116549302805,B,741.4382999995723,Correct
6,406,510,A,54.20550132136184,62.412304894812976,2.710275066068092,0.9803701927557538,A,1018.950899999254,Correct
6,406,511,B,76.3112392519056,46.69191865601395,3.81556196259528,0.7334349431587281,B,1114.7205999996004,Correct
6,406,512,B,39.906333539597355,27.037085514634775,1.9953166769798678,0.42469754613627814,A,767.1764999995503,Incorrect
6,406,513,B,72.46262167037304,43.024123162182896,3.623131083518652,0.6758213462672813,B,662.6225999998496,Correct
6,406,514,B,61.596150495031786,50.186640695676985,3.079807524751589,0.7883299085894468,B,673.1254999995144,Correct
6,406,515,B,61.1579633801299,41.789493637431676,3.057898169006495,0.6564278310429638,B,740.7291999998051,Correct
6,406,516,A,31.299836832194032,57.209918829649084,1.5649918416097017,0.8986513035384698,A,485.88440000003175,Correct
6,406,517,B,62.164136135836706,50.73757075417244,3.108206806791835,0.7969838977115024,B,912.3511999996481,Correct
6,406,518,A,55.503480544865496,65.00280658546441,2.775174027243275,1.0210616981580662,A,599.533500000689,Correct
6,406,519,A,35.86348416168078,47.84254142045074,1.7931742080840392,0.7515088832777672,A,488.11230000046635,Correct
6,406,520,B,77.06981797339216,51.48273911758238,3.853490898669608,0.8086889749923833,B,598.778499999753,Correct
6,406,521,B,47.79243817695764,18.155087311287616,2.389621908847882,0.2851794446121122,B,531.7285000000993,Correct
6,406,522,A,33.693121265902754,52.360248917752486,1.6846560632951377,0.8224728667007206,A,532.025400000748,Correct
6,406,523,A,26.457499996400067,50.56226487562401,1.3228749998200033,0.794230199410608,A,487.61319999994157,Correct
6,406,524,B,65.14146179817394,53.455680532551185,3.257073089908697,0.8396798662685286,B,950.2596000002086,Correct
6,406,525,A,17.73811461202093,33.42521920026555,0.8869057306010464,0.5250421154209138,A,528.7483000001885,Correct
6,406,526,B,67.17397958655798,54.01262887361511,3.3586989793278987,0.8484283903521058,B,858.7094000004072,Correct
6,406,527,B,67.59774651366556,42.0722135783815,3.379887325683278,0.6608687854905203,B,853.4742000001643,Correct
6,406,528,A,56.52085550274428,83.92133558188199,2.826042775137214,1.3182332567174209,A,1628.9373999998134,Correct
6,406,529,A,51.03627960769784,80.74471261586118,2.551813980384892,1.2683349798510428,A,674.468799999886,Correct
6,406,530,B,61.42118707247873,32.874281672069735,3.071059353623937,0.5163880089650793,B,790.6518999998298,Correct
6,406,531,A,18.75966136126524,35.234072951236186,0.9379830680632621,0.5534555236982522,A,541.8345999996745,Correct
6,406,532,B,51.457754725909815,22.584044350808387,2.572887736295491,0.3547493391042285,B,503.2473999999638,Correct
6,406,533,B,49.37942650777144,21.548346293756328,2.468971325388572,0.33848063206736867,B,425.4406000000017,Correct
6,406,534,B,57.440678538965365,41.8435888726567,2.8720339269482684,0.6572775570108497,B,397.03000000008615,Correct
6,406,535,A,31.6534010534758,40.17330051392751,1.58267005267379,0.6310407288250486,B,368.91839999952936,Incorrect
6,406,536,B,62.23850304581653,47.02804081030607,3.1119251522908264,0.7387147376118925,B,454.7333999998955,Correct
6,406,537,B,45.54595945866313,28.529663333834947,2.2772979729331566,0.44814290369482973,B,397.37719999993715,Correct
6,406,538,B,73.85340427171741,58.54449067766154,3.6926702135858704,0.9196147091054881,B,467.4832000000606,Correct
6,406,539,B,53.877968825050566,31.25507648073257,2.693898441252528,0.49095359329628274,B,547.7449999998498,Correct
6,406,540,A,60.92199234020545,84.76831258318366,3.0460996170102725,1.3315375403426648,A,507.19519999984186,Correct
6,406,541,B,44.26773457003688,16.152277333600868,2.213386728501844,0.2537193790499271,B,373.72919999961596,Correct
6,406,542,B,39.194026891961514,13.796414707126381,1.9597013445980758,0.21671357544893205,B,377.86340000002383,Correct
6,406,543,B,47.784278926462186,23.474972466735597,2.389213946323109,0.3687440052235961,B,378.98820000009437,Correct
6,406,544,B,77.44702066280442,52.14788065701782,3.8723510331402213,0.8191369938618221,B,443.8241999996535,Correct
6,406,545,B,34.072458410920234,23.186947818386738,1.7036229205460116,0.36421972462706825,A,555.85340000016,Incorrect
6,406,546,B,56.21214443357292,34.90526961213801,2.8106072216786457,0.548290692925319,B,528.8375000000087,Correct
6,406,547,A,61.240877531765534,72.97367439688561,3.0620438765882767,1.1462677969535469,A,848.8418999995702,Correct
6,406,548,A,63.21994151565926,79.15487884571415,3.1609970757829626,1.2433619293874283,A,480.5850000002465,Correct
6,406,549,B,42.332729605287795,14.152415408512521,2.1166364802643898,0.22230562138966967,B,476.2059999993653,Correct
