subject,day,trial,cat,x,y,xt,yt,resp,rt,fb
8,408,0,B,64.5118033669578,52.68819517440082,3.2255901683478903,0.827624234454014,B,1693.0047000005288,Correct
8,408,1,A,36.56375775463576,45.40426304651764,1.8281878877317879,0.7132084961429916,B,874.5383000004949,Incorrect
8,408,2,A,61.26133420588097,74.6688417218541,3.0630667102940485,1.1728954230271795,A,902.7401999992435,Correct
8,408,3,A,68.78382159217318,82.46838458736568,3.4391910796086593,1.2954103558654284,A,729.1948000001867,Correct
8,408,4,A,25.50915422316541,48.792220080100684,1.2754577111582706,0.7664264007799035,B,1875.7166000013967,Incorrect
8,408,5,A,20.164064582448525,41.99513566122827,1.0082032291224263,0.6596580483991074,A,1293.9532000000327,Correct
8,408,6,A,23.813428880897202,54.22069061361233,1.1906714440448602,0.8516966165214478,A,552.7378000006138,Correct
8,408,7,A,54.531657653430216,70.68102968824066,2.7265828826715106,1.1102550180836945,A,1030.2124000008916,Correct
8,408,8,B,71.05598906916613,53.84530492895117,3.5527994534583063,0.8458000719754765,B,575.4031999986182,Correct
8,408,9,A,48.29858748133391,57.48172904780658,2.4149293740666957,0.902920888461141,B,1584.7813000000315,Incorrect
8,408,10,B,45.657361161888296,28.948983565115604,2.2828680580944147,0.45472957048529417,B,580.3666000010708,Correct
8,408,11,A,14.431220970505034,39.6396355057128,0.7215610485252517,0.6226579384786224,A,460.10730000125477,Correct
8,408,12,A,52.09539239071113,79.83373812120284,2.6047696195355563,1.2540254259509114,A,568.8441000002058,Correct
8,408,13,B,86.65336104251898,68.22040160190849,4.33266805212595,1.0716035624875053,B,571.8929000013304,Correct
8,408,14,B,73.08897611361475,57.99823258778012,3.6544488056807376,0.9110341070948108,B,655.5180000013934,Correct
8,408,15,A,64.8919890808547,78.5082513549423,3.2445994540427354,1.2332047285143384,A,503.7919000005786,Correct
8,408,16,A,24.95575893338274,43.93728597708406,1.247787946669137,0.6901652742214055,A,420.23750000043947,Correct
8,408,17,A,64.05151702994472,89.46156382033442,3.202575851497236,1.4052589583830852,A,601.7659999997704,Correct
8,408,18,B,38.27618944731556,20.542192352703967,1.9138094723657781,0.3226760029194161,B,547.1684000003734,Correct
8,408,19,A,26.46073701259465,55.16288161195167,1.3230368506297325,0.8664965181147541,A,496.1371000008512,Correct
8,408,20,B,50.96229884573374,27.623773462885246,2.5481149422866873,0.4339132188771448,B,705.7889999996405,Correct
8,408,21,B,73.80579498009959,48.749081413889975,3.6902897490049793,0.7657487801956374,B,471.65270000004966,Correct
8,408,22,A,23.15166024211814,34.265480664037206,1.157583012105907,0.5382409116293119,A,473.33200000139186,Correct
8,408,23,B,38.91908570198238,29.24561052720358,1.9459542850991192,0.4593889759100555,B,2777.567099999942,Correct
8,408,24,B,84.0960523687879,65.63546437451804,4.204802618439395,1.0309994634697024,B,508.90240000080667,Correct
8,408,25,B,82.15371701587999,63.61897983135911,4.107685850794,0.9993245983353748,B,527.1589999993012,Correct
8,408,26,B,47.83793973472334,19.423121355555878,2.391896986736167,0.3050976768019868,B,591.7028000003484,Correct
8,408,27,B,36.45572625234411,25.16464346698605,1.8227863126172053,0.3952852952304488,B,917.7770000005694,Correct
8,408,28,B,61.21106346663341,46.23703290223665,3.060553173331671,0.7262896144472809,B,515.9156000008807,Correct
8,408,29,B,44.012461524197505,25.61301583308414,2.200623076209875,0.40232831188748097,B,1023.497000000134,Correct
8,408,30,A,56.295979229278174,64.32001367882975,2.8147989614639086,1.0103364122610328,A,2380.2068999993935,Correct
8,408,31,B,57.699547670155496,29.90305407881582,2.8849773835077746,0.46971607506953045,B,543.5558000008314,Correct
8,408,32,B,49.19866089921477,38.320984381909255,2.4599330449607386,0.6019446150626766,B,713.1845000003523,Correct
8,408,33,A,32.94810316409913,43.65223614520703,1.6474051582049567,0.6856877219327462,A,2175.0152000004164,Correct
8,408,34,B,68.9772123293466,50.511797506050414,3.44886061646733,0.7934374598231162,B,578.6097000000154,Correct
8,408,35,A,59.242062686360754,85.35991349258575,2.962103134318038,1.3408303856968382,A,573.9702000009856,Correct
8,408,36,B,46.394310833661564,18.012826225334244,2.3197155416830784,0.2829448126994981,B,515.2209000007133,Correct
8,408,37,A,53.23771918739033,62.074505383030946,2.661885959369517,0.9750640504327505,B,2190.80650000069,Incorrect
8,408,38,A,39.16709925286107,51.123295120858174,1.9583549626430536,0.8030428418949549,A,886.5521999996417,Correct
8,408,39,B,56.20213751848059,44.29880184997826,2.8101068759240295,0.6958439522736082,B,865.9059000001434,Correct
8,408,40,A,55.32896945590513,74.66354633778582,2.7664484727952567,1.1728122433287451,A,731.2892999998439,Correct
8,408,41,A,61.1438677280938,85.7005214466173,3.05719338640469,1.3461806429275371,A,551.3393000001088,Correct
8,408,42,B,50.141252999853855,43.243122075773314,2.507062649992693,0.6792613731576802,B,675.062500000422,Correct
8,408,43,A,20.52800291146656,33.461376839619945,1.026400145573328,0.5256100782917483,A,614.9222000003647,Correct
8,408,44,A,20.257796149204644,49.82246200772714,1.0128898074602322,0.7826094031361609,A,421.0166000011668,Correct
8,408,45,A,21.490948336775098,41.33255171822277,1.0745474168387548,0.6492502041604441,A,401.4625999989221,Correct
8,408,46,B,44.55707492558601,27.533137942008395,2.2278537462793,0.43248951944443975,B,623.5316999991483,Correct
8,408,47,A,33.15288566568063,55.749573238236856,1.6576442832840315,0.8757122486300554,A,1410.0605999992695,Correct
8,408,48,B,30.701980260052462,11.346804372127426,1.535099013002623,0.1782351862859803,B,1052.7999000005366,Correct
8,408,49,A,44.323994143429964,56.712733907595705,2.2161997071714983,0.8908415410454771,A,955.1859000002878,Correct
8,408,50,B,49.7650275219437,39.30316155351779,2.488251376097185,0.6173726179969213,B,1016.6853999999148,Correct
8,408,51,B,79.73828714500169,55.5507320763928,3.9869143572500843,0.8725888589636525,B,987.5255000006291,Correct
8,408,52,A,50.788468953152275,81.64692256502005,2.539423447657614,1.2825068605924084,A,478.3229999993637,Correct
8,408,53,B,41.91742088579191,14.516403520840132,2.0958710442895954,0.22802313328808183,B,523.0066000003717,Correct
8,408,54,B,89.48506444959534,68.17964145807267,4.474253222479767,1.0709633036453359,B,551.1290000013105,Correct
8,408,55,A,43.53283558248244,62.58302867823693,2.176641779124122,0.9830519156747425,A,448.2525000003079,Correct
8,408,56,A,44.16539030825739,60.306011061189906,2.2082695154128698,0.9472846065856951,A,479.99880000134,Correct
8,408,57,B,84.62037534496491,62.49786990364986,4.231018767248246,0.9817142447715851,B,531.0473999998067,Correct
8,408,58,A,48.516407566812106,60.58656645720215,2.4258203783406054,0.9516915604408803,A,470.61480000047595,Correct
8,408,59,A,33.80964609422498,45.95259624942116,1.690482304711249,0.721821693952797,A,585.9870999993291,Correct
8,408,60,B,71.83533285718423,39.25062434236008,3.591766642859211,0.6165473654138556,B,504.326400001446,Correct
8,408,61,B,59.736254135129016,39.569660984484585,2.9868127067564507,0.6215587812694772,B,445.59279999884893,Correct
8,408,62,A,36.48350638414572,51.20239207564043,1.824175319207286,0.8042852939552811,A,664.3930999998702,Correct
8,408,63,A,67.00423487112248,89.00621498996657,3.350211743556124,1.3981063556815634,A,671.2969000000157,Correct
8,408,64,A,39.31891057784647,50.12977498380917,1.965945528892323,0.7874366640762214,A,917.3413999997138,Correct
8,408,65,B,49.44672897999702,34.57400603892754,2.472336448999851,0.5430872168853196,B,1037.0978000009927,Correct
8,408,66,A,34.84585887849833,52.85911671797827,1.7422929439249168,0.8303090637822297,A,750.8269000009022,Correct
8,408,67,B,61.42137624017945,28.574927643892515,3.0710688120089724,0.4488539138145631,B,601.5698999999586,Correct
8,408,68,B,38.63492593012643,28.700687871211198,1.9317462965063215,0.4508293508458539,B,633.5832000004302,Correct
8,408,69,B,36.18711461592833,17.93874318449626,1.8093557307964163,0.28178111901523706,B,503.6890000010317,Correct
8,408,70,A,64.91378498454155,88.55130218233573,3.2456892492270777,1.3909606020091787,A,526.0218000003078,Correct
8,408,71,A,15.254056170609562,31.97945840632701,0.7627028085304781,0.5023321579754864,A,510.59390000045823,Correct
8,408,72,A,23.139940131926956,48.49536552365303,1.1569970065963477,0.7617634203113004,A,406.3437000004342,Correct
8,408,73,B,57.64493564250167,26.529585454423348,2.8822467821250837,0.41672575383199506,B,745.9146000001056,Correct
8,408,74,B,46.707913120875126,35.619561121891905,2.3353956560437563,0.5595107577231411,B,2047.465600000578,Correct
8,408,75,B,61.191442614198124,31.342684332362396,3.059572130709906,0.4923297342116681,B,491.09259999931965,Correct
8,408,76,A,41.57269852205725,71.03358815681372,2.0786349261028625,1.1157929935578446,A,441.71800000003714,Correct
8,408,77,B,83.63824167937777,60.397807521198786,4.181912083968888,0.9487265420076423,B,497.15759999889997,Correct
8,408,78,B,32.22491511831386,11.495411259938997,1.6112457559156927,0.18056949782108872,B,974.7217999993154,Correct
8,408,79,A,44.97152899635645,68.04839150644548,2.2485764498178225,1.068901634226256,A,588.2437000000209,Correct
8,408,80,B,38.06190169704874,26.80665956220879,1.903095084852437,0.4210780237395886,B,1113.9084000005823,Correct
8,408,81,B,63.34257065232724,40.74325456368663,3.167128532616362,0.6399935461030836,B,485.3808999996545,Correct
8,408,82,A,66.48738367434834,86.76004665148665,3.3243691837174167,1.3628236259270907,A,504.16089999998803,Correct
8,408,83,A,23.26032073130766,39.21011159030816,1.163016036565383,0.6159109925927405,A,418.94849999880535,Correct
8,408,84,B,67.92460740465197,35.801709561814604,3.3962303702325984,0.5623719387267611,B,573.6930999992182,Correct
8,408,85,A,19.52527080924874,49.22823987799694,0.976263540462437,0.7732753837493564,A,474.9850999996852,Correct
8,408,86,B,77.54625986726987,50.612123911806066,3.8773129933634936,0.7950133833195312,B,500.67479999961506,Correct
8,408,87,A,43.465059992159944,63.23822510985501,2.1732529996079974,0.9933437171558904,A,496.7999000000418,Correct
8,408,88,A,24.808850776987516,51.42183224343506,1.2404425388493758,0.8077322520505117,A,452.09999999860884,Correct
8,408,89,A,50.005401666059136,64.66369107479142,2.5002700833029565,1.0157348841728229,A,543.1788000005326,Correct
8,408,90,A,64.95972295987502,81.49011260487958,3.247986147993751,1.2800436954984735,A,537.4128000003111,Correct
8,408,91,A,40.51538028199131,67.73211653012744,2.025769014099566,1.0639335985156808,A,419.0887000004295,Correct
8,408,92,A,47.050055174257054,57.49649565945821,2.352502758712853,0.9031528418545569,A,404.20760000051814,Correct
8,408,93,A,21.83101868841129,36.258298712974174,1.0915509344205645,0.5695440243417196,A,531.3857000001008,Correct
8,408,94,A,33.249979016268824,50.808968114853876,1.6624989508134411,0.798105404830515,A,487.0025000000169,Correct
8,408,95,A,28.135844802138095,42.253713304207274,1.4067922401069046,0.6637197765169344,A,500.20219999896653,Correct
8,408,96,B,57.95373885238794,30.06230850344008,2.897686942619397,0.47221763772178665,B,641.2488999994821,Correct
8,408,97,B,88.54024946169902,62.83082071460109,4.427012473084951,0.9869442238800409,B,499.75180000001274,Correct
8,408,98,B,70.1131460063394,46.46637743311953,3.5056573003169706,0.7298921499140943,B,481.80039999897417,Correct
8,408,99,A,20.887931912844948,42.85450991189938,1.0443965956422474,0.6731570675620702,A,490.39909999919473,Correct
8,408,100,B,58.43847050385759,30.325919207401427,2.9219235251928795,0.4763584249766496,B,665.8874000004289,Correct
8,408,101,A,41.41083266905272,51.11694022750167,2.070541633452636,0.8029430194635391,A,542.5782999991497,Correct
8,408,102,B,48.939224594650476,32.4388794818222,2.446961229732524,0.5095487273538865,B,649.9016999987361,Correct
8,408,103,B,32.097619305207985,16.68887742851035,1.6048809652603993,0.26214827363034315,B,563.0185000009078,Correct
8,408,104,B,45.005555207578695,35.81639345597601,2.250277760378935,0.562602592796879,B,500.41889999920386,Correct
8,408,105,A,14.122913099561767,39.85820691081523,0.7061456549780885,0.6260912500813952,A,427.0517999993899,Correct
8,408,106,B,38.78014862963034,25.506088297480687,1.9390074314815169,0.4006486980858896,A,461.525900000197,Incorrect
8,408,107,A,41.266771160092254,61.57317071621358,2.0633385580046126,0.9671891039014339,A,496.31030000091414,Correct
8,408,108,B,40.003036715989175,30.487373087152427,2.0001518357994588,0.4788945365892462,B,1103.509500000655,Correct
8,408,109,B,50.48488689477734,24.086568503593405,2.5242443447388667,0.37835093330538166,B,499.3778000007296,Correct
8,408,110,B,69.91645967056962,57.10579489729718,3.4958229835284813,0.8970157286337715,B,1446.1676999999327,Correct
8,408,111,A,16.556450013917612,43.51986785099465,0.8278225006958806,0.6836084856294171,A,540.8193000002939,Correct
8,408,112,A,33.46340507783226,48.11351122516867,1.6731702538916131,0.7557652670169998,A,716.003899999123,Correct
8,408,113,B,40.408969254264875,18.039069978857736,2.0204484627132437,0.2833570486158582,B,675.4567000007228,Correct
8,408,114,B,68.10247042908217,53.019834554149064,3.405123521454109,0.8328336136493046,B,622.499199998856,Correct
8,408,115,B,76.92551483224857,61.64623849970118,3.8462757416124282,0.9683368499605274,B,492.85540000164474,Correct
8,408,116,A,23.08443465137944,34.535146865201526,1.1542217325689719,0.5424768184118085,A,530.119700000796,Correct
8,408,117,A,64.31506488386628,82.8605195309937,3.2157532441933143,1.3015699971560168,A,570.1587000003201,Correct
8,408,118,B,57.72570935728465,49.151793970640284,2.8862854678642327,0.772074574244613,B,1924.636499999906,Correct
8,408,119,B,77.25283295558997,52.08909978719624,3.862641647779498,0.8182136661178068,B,433.91650000012305,Correct
8,408,120,A,22.68990410142965,44.722324072948275,1.1344952050714825,0.7024966237951813,A,617.3736000000645,Correct
8,408,121,A,50.92431699028697,59.83781729672964,2.5462158495143483,0.9399302361312704,A,511.7014999996172,Correct
8,408,122,A,24.402957411768707,56.672447399603826,1.2201478705884354,0.8902087220577468,A,430.65740000020014,Correct
8,408,123,B,57.2998770800272,29.003859658311335,2.8649938540013604,0.4555915621415012,B,823.4804000003351,Correct
8,408,124,A,63.6093341974659,78.7316215402504,3.180466709873295,1.2367134191803129,A,3176.078899999993,Correct
8,408,125,A,40.66095140716796,64.60429672606512,2.0330475703583977,1.0148019199247065,A,499.9344000007113,Correct
8,408,126,B,47.80190267877171,23.73827084507863,2.3900951339385856,0.37287988647911896,B,527.8454999988753,Correct
8,408,127,B,63.46824553445868,53.51293338816318,3.1734122767229342,0.8405791920214669,B,1451.6865000005055,Correct
8,408,128,B,70.86857514524094,56.872493714519166,3.543428757262047,0.8933510422243256,B,531.7307999994227,Correct
8,408,129,A,38.86731731778303,68.9693478652255,1.9433658658891515,1.0833679828813567,A,523.1979999989562,Correct
8,408,130,A,61.45182669678964,72.24892959499473,3.0725913348394815,1.1348835322268083,A,1442.1297999997478,Correct
8,408,131,B,69.73359099831112,59.69366056613951,3.486679549915556,0.9376658275023331,B,640.4803000004904,Correct
8,408,132,A,46.93533468258227,57.203510266985305,2.3467667341291136,0.8985506380715467,A,1314.9751000000833,Correct
8,408,133,A,13.167873200154208,37.43939929849587,0.6583936600077104,0.5880967089548474,A,462.8615000001446,Correct
8,408,134,A,45.84346999478833,71.40650014033642,2.2921734997394165,1.1216506812971971,A,528.5244999995484,Correct
8,408,135,A,48.22716391227467,70.62268980341531,2.4113581956137335,1.1093386173158017,A,450.7384999997157,Correct
8,408,136,A,57.57890332178353,72.12787224406688,2.878945166089176,1.1329819678051183,A,728.297300000122,Correct
8,408,137,A,29.855076937595598,58.62314457161895,1.4927538468797799,0.9208502015826524,A,461.54759999990347,Correct
8,408,138,B,34.836600300802395,12.345853624995634,1.7418300150401196,0.19392821525290604,B,941.2773000003654,Correct
8,408,139,B,66.7734436340659,54.95617519447515,3.3386721817032945,0.8632495813017839,B,1145.140700000411,Correct
8,408,140,B,58.05607405669446,33.91611040124551,2.9028037028347233,0.5327530163744664,B,497.72719999964465,Correct
8,408,141,B,67.16644927776083,35.05173994514942,3.3583224638880416,0.5505914435361067,B,560.3894000014407,Correct
8,408,142,B,77.05373092278373,57.150718920881076,3.8526865461391866,0.8977213935460758,B,424.6330999994825,Correct
8,408,143,B,57.8383713228597,34.594411451139266,2.891918566142985,0.5434077443508086,B,504.95559999944817,Correct
8,408,144,A,18.191995373575182,40.4848265238564,0.9095997686787591,0.6359341679460223,A,462.20549999998184,Correct
8,408,145,B,50.7697594808304,29.20190716555303,2.5384879740415203,0.4587024851105627,B,905.5517999986478,Correct
8,408,146,A,31.231540947143216,45.80116143726434,1.5615770473571609,0.719442961485949,A,536.1698999986402,Correct
8,408,147,B,53.274457114077265,42.26748120110905,2.6637228557038632,0.6639360421357444,B,611.488399999871,Correct
8,408,148,B,62.158917905859745,31.204232790364266,3.1079458952929873,0.49015494247557057,B,501.4640999997937,Correct
8,408,149,B,81.44853818012909,50.683014233386835,4.072426909006455,0.7961269258869749,B,1467.261599998892,Correct
8,408,150,B,43.436133435717124,15.847354639536299,2.1718066717858564,0.2489296645719968,B,747.8117999999085,Correct
8,408,151,A,30.281551477546245,60.1386028314779,1.5140775738773125,0.9446549642626264,A,472.54719999909867,Correct
8,408,152,A,64.5938182890794,88.61278317291716,3.22969091445397,1.391926343150909,A,1718.6335000005784,Correct
8,408,153,A,26.357930716212813,55.308139380725486,1.3178965358106407,0.8687782218110376,A,789.5582000001014,Correct
8,408,154,B,75.76691542472007,45.056601402223926,3.7883457712360036,0.7077474398047514,B,461.8623000005755,Correct
8,408,155,A,20.93369416446672,35.84565289638519,1.046684708223336,0.563062199012067,A,536.9099000017741,Correct
8,408,156,A,29.77809999710758,57.36855525627616,1.488904999855379,0.9011431587008863,A,520.358200001283,Correct
8,408,157,B,85.6667881997011,59.59008692347473,4.2833394099850555,0.9360388965278271,B,637.6196000001073,Correct
8,408,158,A,44.64495342066498,74.58462880867583,2.232247671033249,1.171572609680288,A,1075.7167000010668,Correct
8,408,159,A,23.8795252887949,48.53976560336876,1.193976264439745,0.7624608551325691,A,670.2248000001418,Correct
8,408,160,B,60.58718384209683,35.56006522580911,3.0293591921048413,0.558576198372879,B,773.6765000008745,Correct
8,408,161,B,53.38406682771463,39.776664041629154,2.6692033413857312,0.6248103776874572,B,648.4559000000445,Correct
8,408,162,A,13.661205642959612,36.022024704516014,0.6830602821479806,0.5658326408956877,A,496.7323999990185,Correct
8,408,163,B,54.7129510204257,37.661141386279475,2.735647551021285,0.5915798255247106,B,594.1103000004659,Correct
8,408,164,A,47.04388448750595,71.03190793759715,2.3521942243752973,1.1157666007361087,A,478.0137999987346,Correct
8,408,165,A,44.319189336471645,70.97186992305502,2.2159594668235822,1.1148235258090002,A,740.9397000010358,Correct
8,408,166,A,35.73561672082585,58.55491715870502,1.7867808360412925,0.919778487886733,A,1002.7425999996922,Correct
8,408,167,A,41.4045540765106,60.94665002461498,2.07022770382553,0.957347739891193,A,460.7120999990002,Correct
8,408,168,A,60.07970611197865,74.13042509284094,3.003985305598933,1.1644379943957877,A,4166.386100001546,Correct
8,408,169,B,47.25253307932362,21.678102901859052,2.362626653966181,0.34051884410121985,B,466.229800000292,Correct
8,408,170,B,48.76090629791159,33.29307398560189,2.4380453148955796,0.5229663832429418,B,532.7587000010681,Correct
8,408,171,B,74.2311893363547,56.479298766752535,3.711559466817735,0.8871747504276642,B,560.3484000002936,Correct
8,408,172,A,48.615161205063266,80.23263806390909,2.4307580602531633,1.260291331598528,A,546.0277000001952,Correct
8,408,173,A,52.51543615048104,69.05535966329413,2.625771807524052,1.0847190530460287,A,850.2946999997221,Correct
8,408,174,B,47.0796351204345,38.39982308304822,2.353981756021725,0.6031830104842603,B,799.013300000297,Correct
8,408,175,A,64.69709389438071,84.58713334615706,3.2348546947190355,1.3286915835425361,A,595.9935999999288,Correct
8,408,176,B,64.17745339111781,35.31209001627414,3.2088726695558902,0.5546810128901415,B,625.5616999987978,Correct
8,408,177,A,24.454417330215733,51.926553556658774,1.2227208665107867,0.8156603958991807,A,526.2679000006756,Correct
8,408,178,B,76.33440280045284,54.51356767377967,3.8167201400226416,0.8562971186245811,B,537.8512000006594,Correct
8,408,179,B,33.699155902344316,11.314950996475382,1.6849577951172159,0.17773483463127784,B,819.8087000000669,Correct
8,408,180,A,44.538686461693885,67.88003739366594,2.226934323084694,1.0662571340067069,A,478.30900000008114,Correct
8,408,181,A,28.80062564691122,57.220108845350275,1.440031282345561,0.8988113679308039,A,556.6641999994317,Correct
8,408,182,B,50.489735685371656,28.874048825645488,2.524486784268583,0.4535524983502043,B,473.6281000004965,Correct
8,408,183,B,62.196597820414745,37.29267285217194,3.109829891020737,0.5857919353255545,B,487.4376999996457,Correct
8,408,184,A,65.4946851454275,78.20037951764871,3.274734257271375,1.2283686890028946,A,1400.269699999626,Correct
8,408,185,B,87.29673716242202,64.21850961663428,4.364836858121101,1.0087419901805188,B,487.77899999913643,Correct
8,408,186,B,52.548794170109666,27.117597955199834,2.6274397085054835,0.425962232595287,B,518.3925000001182,Correct
8,408,187,A,39.16359553450223,60.87741725061504,1.9581797767251115,0.9562602340202638,A,709.3123000013293,Correct
8,408,188,A,24.866183826831826,46.00846489141565,1.2433091913415912,0.7226992765290766,A,1216.3820000005217,Correct
8,408,189,A,52.67597286463895,65.89497630570936,2.6337986432319473,1.0350758673524503,A,716.2764999993669,Correct
8,408,190,A,48.714594631704614,73.32742884442541,2.435729731585231,1.1518245588213758,A,565.6579000005877,Correct
8,408,191,A,45.43732949244239,65.31621363198963,2.2718664746221195,1.0259846845328005,A,525.4000000004453,Correct
8,408,192,A,45.083848817855305,70.21841504043721,2.254192440892765,1.1029882841887828,A,442.6402000008238,Correct
8,408,193,A,37.01098265443085,56.659351811328754,1.8505491327215424,0.8900030170381499,A,4168.4667999998055,Correct
8,408,194,A,47.0059925282676,68.5266346233039,2.35029962641338,1.0764138595390176,A,903.6816999996518,Correct
8,408,195,B,86.70846404128008,62.26261867940319,4.335423202064004,0.9780189271823785,B,494.59849999948347,Correct
8,408,196,B,73.84697659281277,48.52566325399649,3.6923488296406384,0.7622393359466376,B,619.860200000403,Correct
8,408,197,A,48.79049449547367,69.91825221547191,2.4395247247736838,1.0982733375598241,A,558.6322999988624,Correct
8,408,198,A,62.65247786254669,75.52119820827039,3.1326238931273345,1.1862842074070046,A,630.0801999987016,Correct
8,408,199,B,60.12290491236886,29.98131352052549,3.006145245618443,0.4709453715052761,B,500.4287000010663,Correct
8,408,200,A,14.646283915496056,32.57273629342248,0.7323141957748028,0.5116513452336685,A,462.10900000005495,Correct
8,408,201,B,72.97055712893687,59.63986834969373,3.6485278564468437,0.936820861342301,B,963.8815999987855,Correct
8,408,202,A,44.54636034841454,73.78102537531751,2.227318017420727,1.1589496364670981,A,485.6082000005699,Correct
8,408,203,A,43.70358938039555,73.09540148745599,2.1851794690197774,1.1481798816209408,A,515.1386999987153,Correct
8,408,204,B,54.6298075195973,35.06608166999663,2.731490375979865,0.5508167228232056,B,584.6787999998924,Correct
8,408,205,B,84.82645289135402,59.30120512366065,4.241322644567702,0.9315011518275685,B,508.7906999997358,Correct
8,408,206,B,70.65356327566256,55.31161823179076,3.532678163783128,0.8688328674757855,B,513.2340000000113,Correct
8,408,207,B,45.80158480354726,34.59529327966182,2.290079240177363,0.5434215960808496,B,441.291099999944,Correct
8,408,208,A,28.132695540782066,41.96437555101697,1.4066347770391032,0.6591748697177903,A,794.1098999999667,Correct
8,408,209,B,76.39276008790014,60.536180012058736,3.819638004395007,0.9509000920113649,B,519.3793999987975,Correct
8,408,210,B,63.49502665520258,32.850785298465624,3.1747513327601293,0.516018928791576,B,1719.114300000001,Correct
8,408,211,A,16.612850090444418,39.404784133314884,0.830642504522221,0.6189689017475684,A,504.4830999995611,Correct
8,408,212,B,88.78412341243967,68.46419642233619,4.439206170621984,1.0754330825716998,B,1131.0117000011815,Correct
8,408,213,A,55.252105206350734,83.91736133304198,2.7626052603175366,1.3181708293626244,A,540.6707000001916,Correct
8,408,214,A,40.37503936876893,47.602379049792034,2.0187519684384467,0.7477364215811165,A,3147.5787999988825,Correct
8,408,215,A,37.61118817659257,45.421154716903125,1.8805594088296287,0.7134738298809411,A,745.9825999994791,Correct
8,408,216,B,59.87079931921459,32.65581405715192,2.9935399659607294,0.5129563276947139,B,552.6129999998375,Correct
8,408,217,B,47.83267704945853,24.89004782942908,2.3916338524729266,0.3909719570421648,B,538.8355000013689,Correct
8,408,218,B,73.6065324411797,50.5481597308338,3.6803266220589848,0.7940086363143545,B,2242.3147999998037,Correct
8,408,219,A,12.71572566889827,40.71117191655209,0.6357862834449135,0.6394895930603558,A,468.2618000006187,Correct
8,408,220,B,56.00120040313122,30.727831000382242,2.800060020156561,0.48267164065774776,B,617.2485000006418,Correct
8,408,221,B,53.61966651745806,30.055251773585276,2.6809833258729032,0.4721067908684355,B,574.4985000001179,Correct
8,408,222,B,67.33128738091747,53.4320996454801,3.3665643690458738,0.8393094585605904,B,618.0793000003177,Correct
8,408,223,B,54.719251958679926,43.585158660961326,2.7359625979339963,0.6846340712741081,B,680.4441999993287,Correct
8,408,224,A,52.037531982812865,64.79201804748612,2.6018765991406436,1.0177506395461984,A,506.670299999314,Correct
8,408,225,B,50.65423829343221,35.75680332205254,2.5327119146716104,0.5616665531620769,B,543.129300000146,Correct
8,408,226,A,43.168441972935575,66.44806081887648,2.1584220986467786,1.0437636985693508,A,424.48070000136795,Correct
8,408,227,B,65.00350666882949,56.90504143649004,3.250175333441474,0.8938623006454992,B,796.3703999994323,Correct
8,408,228,A,16.360450139291807,45.99924107592914,0.8180225069645902,0.7225543891742242,A,475.56929999882414,Correct
8,408,229,B,55.681768338881355,33.01240103668579,2.7840884169440674,0.5185575828710607,B,539.8600000007718,Correct
8,408,230,A,66.00151858374473,82.42087265200028,3.300075929187236,1.2946640401299199,A,596.4135000012902,Correct
8,408,231,A,27.276697122080762,56.03438367498718,1.3638348561040379,0.8801860405088578,A,437.8247000004194,Correct
8,408,232,A,45.15044892563648,63.705801116350344,2.257522446281824,1.0006883838908935,A,443.1366999997408,Correct
8,408,233,B,51.850508311421535,35.66435978057277,2.592525415571077,0.5602144534081535,B,785.1514000012685,Correct
8,408,234,A,34.627315502753945,64.11143591359145,1.7313657751376974,1.0070600803861587,A,500.78750000102445,Correct
8,408,235,B,63.63380045599917,45.772359379933995,3.181690022799959,0.7189905398273625,B,632.369099999778,Correct
8,408,236,B,68.7191365593436,52.88478241605168,3.43595682796718,0.8307122196248132,B,778.0299999994895,Correct
8,408,237,A,44.25482343317019,65.23486736265188,2.2127411716585095,1.0247069003220586,A,893.9070000014908,Correct
8,408,238,B,79.32116033382891,53.26954545588603,3.966058016691446,0.8367560633213956,B,515.2170000001206,Correct
8,408,239,A,14.639344793581365,34.24341037666672,0.7319672396790682,0.5378942323659833,A,498.3520000005228,Correct
8,408,240,B,31.489949119055705,14.34690471937041,1.5744974559527853,0.22536065234063404,B,761.3098000001628,Correct
8,408,241,B,88.67501647419223,63.027943746833316,4.433750823709612,0.9900406252296112,B,478.56380000121135,Correct
8,408,242,B,79.79631595934427,56.0168175047388,3.9898157979672133,0.8799101117518378,B,531.5389999996114,Correct
8,408,243,A,66.16445153863907,83.18639524053211,3.3082225769319535,1.306688840831363,A,518.310699999347,Correct
8,408,244,A,16.148321362742315,31.28600305857772,0.8074160681371157,0.4914393868450779,A,541.4872999990621,Correct
8,408,245,B,34.63062777097585,15.779779058460921,1.7315313885487924,0.2478681898266544,B,810.7536000006803,Correct
8,408,246,B,75.42576897190523,50.22798364253598,3.771288448595261,0.7889793220800968,B,625.9508999992249,Correct
8,408,247,A,20.102735448761443,47.204938171944875,1.0051367724380722,0.7414934348707121,A,486.0702999994828,Correct
8,408,248,B,52.432843246551,27.97209946662487,2.62164216232755,0.43938471094915826,B,554.811800000607,Correct
8,408,249,B,80.13747521935491,61.16137718500491,4.006873760967745,0.9607206662392289,B,446.7101999998704,Correct
8,408,250,A,48.99975285839038,67.5456489017088,2.4499876429195186,1.0610045718578194,A,609.4725999992079,Correct
8,408,251,B,54.006375538729785,39.969851948496824,2.7003187769364896,0.6278449662323464,B,480.9230999999272,Correct
8,408,252,A,29.33093569900875,41.48338758357696,1.4665467849504374,0.6516195283929171,A,510.7358999994176,Correct
8,408,253,B,58.73088569069098,45.62232377587062,2.936544284534549,0.7166337860698505,B,523.4441000011429,Correct
8,408,254,A,27.086620778035382,54.232834535635135,1.354331038901769,0.8518873728025108,A,495.0485999997909,Correct
8,408,255,A,25.30480249051475,39.517857279653214,1.2652401245257374,0.6207450505768423,A,1178.097300000445,Correct
8,408,256,B,41.885342110484515,31.89031121128751,2.0942671055242257,0.5009318371103653,B,1179.5101999996405,Correct
8,408,257,B,56.093923706767136,36.04913420309837,2.8046961853383565,0.5662584759036319,B,1319.671199998993,Correct
8,408,258,A,60.123847595774954,71.55054714067906,3.0061923797887475,1.1239133662874374,A,579.2538999994576,Correct
8,408,259,A,41.53739770456689,48.592930922238644,2.0768698852283447,0.763295974008506,A,503.4169999998994,Correct
8,408,260,B,44.90562667858997,35.6458339141369,2.245281333929498,0.5599234497786719,A,1133.503800001563,Incorrect
8,408,261,B,58.85648817061321,51.91601303524278,2.9428244085306607,0.8154948257759533,B,1395.0201999996352,Correct
8,408,262,A,25.78560045582379,44.295199231794214,1.2892800227911894,0.6957873624795048,A,722.4769000004017,Correct
8,408,263,B,40.78583178775047,31.141171853033626,2.039291589387523,0.4891643835883384,B,1087.7437999988615,Correct
8,408,264,A,16.936407868928114,31.55571936471341,0.8468203934464057,0.4956760806746242,A,614.9688999994396,Correct
8,408,265,B,56.7550238492657,34.40021791592359,2.8377511924632848,0.5403573594327677,B,542.9657999993651,Correct
8,408,266,A,20.42813420991024,44.08512996723612,1.021406710495512,0.6924876021881012,A,477.3343999986537,Correct
8,408,267,B,56.58952887515668,35.37139310843895,2.829476443757834,0.5556125436835423,B,583.7909000001673,Correct
8,408,268,B,64.35382012465381,52.179769453760336,3.21769100623269,0.8196379019097129,B,2035.7308000002377,Correct
8,408,269,B,61.395587423793245,41.05478390469816,3.069779371189662,0.6448870375485811,B,689.5005999995192,Correct
8,408,270,A,42.07974096118018,52.00445716684288,2.103987048059009,0.8168841029463934,A,526.4772000009543,Correct
8,408,271,A,12.884158849215037,30.07990817521559,0.6442079424607519,0.4724940927195643,A,597.1449000007851,Correct
8,408,272,B,31.08729513336171,12.873573187873657,1.5543647566680854,0.20221761476237204,B,1081.8589000009524,Correct
8,408,273,A,42.35874700054233,60.80118748936019,2.1179373500271166,0.9550628197305481,A,519.6859999996377,Correct
8,408,274,B,60.753141531378745,35.777645362958026,3.0376570765689372,0.5619939391750493,B,1085.7584000004863,Correct
8,408,275,B,54.831408292197125,35.00745694413034,2.741570414609856,0.5498958477827043,B,1514.728500000274,Correct
8,408,276,B,62.6859918084226,52.87795416754039,3.13429959042113,0.8306049617480133,B,623.4246000003623,Correct
8,408,277,B,60.6728436607711,28.956473974134273,3.0336421830385554,0.4548472295550214,B,593.6590000001161,Correct
8,408,278,B,62.92060893669757,47.2244156199919,3.1460304468348785,0.7417993859091881,B,577.9566000001068,Correct
8,408,279,B,76.66677572163044,58.376838822442686,3.833338786081522,0.9169812399219068,B,620.1643000003969,Correct
8,408,280,A,31.754739629220154,59.25370948235527,1.5877369814610076,0.9307550920385558,A,531.0862999995152,Correct
8,408,281,B,87.8894277632694,61.83256265068094,4.39447138816347,0.9712636228800493,B,733.0421000006027,Correct
8,408,282,B,53.36669809195936,46.03721311250598,2.668334904597968,0.7231508525299826,B,929.2211000010866,Correct
8,408,283,A,46.30708955944702,69.00059376146223,2.315354477972351,1.083858792271717,A,576.9321000007039,Correct
8,408,284,B,66.95805430382127,34.2834627683731,3.347902715191063,0.5385233738637005,B,663.8519000007364,Correct
8,408,285,A,57.24186218836917,71.03715585488625,2.8620931094184585,1.115849034828119,A,649.797000000035,Correct
8,408,286,B,49.07648151134993,39.4786494485738,2.4538240755674967,0.6201291754064309,B,611.4679999991495,Correct
8,408,287,B,57.6211330329409,34.08468505391293,2.881056651647045,0.5354009808264734,B,574.5200000001205,Correct
8,408,288,B,64.80248344283851,55.49724009705281,3.240124172141925,0.8717486089170501,B,1499.5103000001109,Correct
8,408,289,A,18.44068615222244,36.441413675659476,0.922034307611122,0.5724203874493922,A,677.4677999983396,Correct
8,408,290,A,28.996813733070258,55.250855378939484,1.449840686653513,0.8678784068151421,A,513.8724000007642,Correct
8,408,291,B,39.4813885811819,24.982335624231936,1.9740694290590952,0.39242161033300815,B,695.422900000267,Correct
8,408,292,A,45.40496891582041,67.44773141693135,2.2702484457910206,1.0594664876036453,A,591.4694000002783,Correct
8,408,293,B,76.60855601266154,55.04217332968052,3.830427800633077,0.8646004368507019,B,1325.5630000003293,Correct
8,408,294,A,51.18812181709937,66.75449953566539,2.559406090854969,1.0485772266765483,A,580.7248999990406,Correct
8,408,295,B,46.61070218896831,19.75611132823351,2.3305351094484155,0.31032827106140237,B,609.7130999987712,Correct
8,408,296,A,33.1518502159044,59.046820825908014,1.65759251079522,0.9275052926225271,A,556.4983000003849,Correct
8,408,297,A,57.99550123286904,76.54636729990685,2.8997750616434517,1.2023875258418666,A,551.5210999983537,Correct
8,408,298,B,73.92102247586837,51.04261613379783,3.6960511237934184,0.8017755393297156,B,564.797400000316,Correct
8,408,299,B,54.142997668138804,40.76412017288298,2.7071498834069403,0.6403213023259033,B,1028.5356000003958,Correct
8,408,300,B,50.223249738806395,22.51788854093999,2.5111624869403197,0.35371016607285427,B,548.5616000005393,Correct
8,408,301,A,32.358865031290954,64.59848734299268,1.6179432515645475,1.0147106663487953,A,455.59660000071744,Correct
8,408,302,B,43.475575784620204,35.65463341652074,2.1737787892310103,0.5600616720388936,B,1443.7465999999404,Correct
8,408,303,B,86.06834851166937,60.549563763636826,4.3034174255834685,0.9511103234895409,B,545.2545000007376,Correct
8,408,304,A,62.74175669237307,87.2260075729121,3.137087834618654,1.3701429229651414,A,651.5092000008735,Correct
8,408,305,A,51.63638940471535,76.49827632759146,2.5818194702357675,1.2016321146152165,A,470.5838000008953,Correct
8,408,306,A,43.80754236807275,56.16410351705918,2.1903771184036374,0.8822236750232489,A,615.3856000000815,Correct
8,408,307,B,57.47866970524448,44.62412039702745,2.873933485262224,0.7009540440610393,B,1097.0948000012868,Correct
8,408,308,B,48.99382829516241,28.66053649271452,2.4496914147581204,0.45019865446727064,B,582.33349999864,Correct
8,408,309,B,45.65293255799542,29.22647087201294,2.282646627899771,0.45908833090935963,B,511.19680000010703,Correct
8,408,310,B,45.952584310861404,22.797267382558054,2.29762921554307,0.358098638654833,B,664.0099000014743,Correct
8,408,311,B,86.42810001089566,61.281399855937494,4.321405000544783,0.9626059779455592,B,606.1165000010078,Correct
8,408,312,A,47.67808904642088,75.24613667519925,2.383904452321044,1.1819635509490973,A,725.3130000008241,Correct
8,408,313,B,84.4447659799475,69.3903607041341,4.222238298997375,1.0899812370902677,B,562.5719999989087,Correct
8,408,314,A,40.434005399015135,50.66007799468243,2.0217002699507565,0.7957666442919012,A,1994.8543999998947,Correct
8,408,315,B,52.046922132346815,28.639962232142985,2.6023461066173406,0.4498754747379476,B,717.6431000007142,Correct
8,408,316,A,29.352775760449276,42.80180475288857,1.4676387880224637,0.6723291768602971,A,885.9228000001167,Correct
8,408,317,B,54.256325585458214,25.827251785902913,2.7128162792729107,0.4056935223650323,B,591.8682999999874,Correct
8,408,318,A,39.48361087971682,55.14583909747167,1.974180543985841,0.8662288149233088,A,539.4806999993307,Correct
8,408,319,B,47.082266968886,16.97675848876967,2.3541133484443004,0.26667029875043474,B,546.4068000001134,Correct
8,408,320,B,71.15607091460171,39.6189547090775,3.557803545730086,0.6223330852847231,B,492.62219999945955,Correct
8,408,321,B,66.3680176470385,49.66285698342683,3.3184008823519253,0.7801023332770715,B,522.420899998906,Correct
8,408,322,B,60.36740088113572,46.476285921097656,3.018370044056786,0.7300477920792957,B,788.6593000002904,Correct
8,408,323,B,38.5739956617048,22.530245928692047,1.92869978308524,0.3539042754657514,B,599.1564999985712,Correct
8,408,324,A,49.06013995112809,71.08862622328444,2.453006997556405,1.1166575294843055,A,1036.1266999989311,Correct
8,408,325,B,58.289420000605745,50.51482712169258,2.914471000030287,0.7934850489143392,A,655.2095000006375,Incorrect
8,408,326,A,40.26214421359099,64.55799126645232,2.0131072106795496,1.0140745554660031,A,1988.717500000348,Correct
8,408,327,B,51.941576781838215,40.39703279771431,2.597078839091911,0.634555107320626,B,2054.1446000006545,Correct
8,408,328,A,43.18003164046955,50.211555385306916,2.159001582023478,0.7887212676189861,A,654.1620000007242,Correct
8,408,329,B,36.63697582873008,26.56350240145239,1.8318487914365038,0.4172585199900883,B,662.717999999586,Correct
8,408,330,A,45.801355876463504,61.090841362134015,2.2900677938231753,0.9596126921244985,A,637.8982000005635,Correct
8,408,331,A,26.33896954375261,58.076685805167116,1.3169484771876308,0.9122664473517782,A,428.5584999997809,Correct
8,408,332,B,63.176920960917,40.34620529498587,3.1588460480458505,0.6337567107747661,B,770.3846999993402,Correct
8,408,333,A,35.282965236232826,56.85989337172343,1.7641482618116413,0.8931531165025264,A,506.6640000004554,Correct
8,408,334,B,63.42110976465854,41.05154383571311,3.171055488232927,0.6448361426639784,B,615.3678999999102,Correct
8,408,335,B,42.95012580237503,27.08976097488627,2.147506290118751,0.4255249703310309,B,2069.1998999991483,Correct
8,408,336,B,56.50018676044137,45.86387554365046,2.8250093380220687,0.7204280723654443,B,611.8198999993183,Correct
8,408,337,B,63.29601480291442,48.94002427051334,3.1648007401457208,0.7687481035737543,B,849.3631000001187,Correct
8,408,338,B,41.832924669501786,32.460985014331094,2.0916462334750894,0.5098959602465546,B,600.2609000006487,Correct
8,408,339,B,39.634876703279744,22.48463035566979,1.9817438351639873,0.3531877477202714,B,611.3248000001477,Correct
8,408,340,B,88.05626872305278,62.42413146772655,4.4028134361526385,0.9805559641286659,B,546.2337999997544,Correct
8,408,341,A,31.641549248575863,39.93042896465887,1.5820774624287932,0.627225711450307,A,1326.6698999996152,Correct
8,408,342,B,49.8805297767879,34.9390868498358,2.494026488839395,0.5488218928528995,B,714.5246000000043,Correct
8,408,343,B,54.79595936872286,46.371076589120754,2.7397979684361427,0.728395167757157,B,621.8582999990758,Correct
8,408,344,B,62.96709512215387,50.57813371441672,3.1483547561076937,0.794479466547469,B,524.5238999996218,Correct
8,408,345,A,39.58324365065844,60.882957066904666,1.9791621825329218,0.9563472532510523,A,502.44770000063,Correct
8,408,346,A,31.591065507885638,47.36828242712947,1.579553275394282,0.7440592404311823,A,536.3993999999366,Correct
8,408,347,A,46.364884502673604,71.8942158436796,2.31824422513368,1.1293117016505136,A,816.9936000012967,Correct
8,408,348,B,76.11360900439263,61.15377788415438,3.8056804502196315,0.9606012967006068,B,649.2632999998023,Correct
8,408,349,B,72.31242646354565,60.01385874417957,3.6156213231772822,0.9426954887214507,B,620.6070000007458,Correct
8,408,350,B,65.67763450538692,47.716037293238045,3.2838817252693455,0.7495217610942664,B,666.1184999993566,Correct
8,408,351,B,72.37227801495224,41.144629905405885,3.6186139007476124,0.6462983352274702,B,618.9807999999175,Correct
8,408,352,A,14.510669960731423,41.35116099109487,0.7255334980365711,0.6495425179351624,A,562.9774999997608,Correct
8,408,353,B,63.126443739127076,49.884327513073266,3.156322186956354,0.7835811842216908,B,720.5336000006355,Correct
8,408,354,B,61.0861590077509,32.56208336780927,3.054307950387545,0.51148400946944,B,539.2889000013383,Correct
8,408,355,A,54.6498678521643,70.71820487289071,2.732493392608215,1.110838964518657,A,612.6595999994606,Correct
8,408,356,A,16.72758150287465,41.046444822536664,0.8363790751437324,0.6447560475522999,A,631.501699999717,Correct
8,408,357,A,44.70099458205816,65.94868083640519,2.235049729102908,1.0359194561479426,A,940.7260000007227,Correct
8,408,358,A,44.50479358243292,74.923868274701,2.2252396791216458,1.17690137075165,A,700.4723999998532,Correct
8,408,359,A,39.36672466340965,64.1232525125651,1.9683362331704826,1.0072456950887887,A,834.0019000006578,Correct
8,408,360,B,76.17146380329407,57.88060781891979,3.8085731901647035,0.9091864615461518,B,713.7478999993618,Correct
8,408,361,B,54.03931721347782,41.22614935851077,2.7019658606738908,0.647578839802465,B,549.6478000004572,Correct
8,408,362,B,55.56704947902677,44.73573792753771,2.7783524739513386,0.7027073281303539,B,554.9025000000256,Correct
8,408,363,A,45.53913310739171,52.5798028231053,2.2769566553695855,0.8259216113813372,B,569.257999999536,Incorrect
8,408,364,A,46.892657835173985,61.28350695644864,2.344632891758699,0.9626390762029903,A,2595.7817999988038,Correct
8,408,365,B,43.416530992703436,34.50119470399302,2.1708265496351715,0.5419434991106777,B,681.5774999995483,Correct
8,408,366,B,36.617614618798484,26.022286497007116,1.8308807309399242,0.4087571204430321,B,681.867000001148,Correct
8,408,367,A,43.9740216483725,52.800366604508675,2.198701082418625,0.8293862191578615,A,1611.8103000007977,Correct
8,408,368,B,49.76120047635268,38.58088362428968,2.488060023817634,0.6060271028153562,B,1209.9096999991161,Correct
8,408,369,A,49.35752667009403,71.31939613011855,2.4678763335047016,1.1202824547042038,A,3156.4135999997234,Correct
8,408,370,B,47.00389711279195,18.39490719099032,2.3501948556395975,0.28894652647340624,B,700.1602000000275,Correct
8,408,371,A,36.77650339844472,47.828746452827495,1.838825169922236,0.7512921924330586,A,2027.080300000307,Correct
8,408,372,A,53.035310664687756,70.35409374721418,2.651765533234388,1.1051195203310784,A,583.5100999993301,Correct
8,408,373,A,46.47430947778418,53.13107592948782,2.323715473889209,0.8345809890870023,A,568.637000000308,Correct
8,408,374,A,28.851370277708853,44.82539267124601,1.4425685138854425,0.704115621551321,A,1021.5966000014305,Correct
8,408,375,B,67.6927314560082,59.0611515412968,3.3846365728004106,0.9277303989734577,B,1315.4110000014043,Correct
8,408,376,A,25.176015677265603,57.10001938612248,1.2588007838632802,0.8969250071163859,A,1337.7909999999247,Correct
8,408,377,B,37.830595386455826,16.966578241629417,1.8915297693227913,0.2665103878022971,B,584.696800000529,Correct
8,408,378,B,44.889621942830686,16.161446841731017,2.2444810971415343,0.25386341334682067,B,636.8888999986666,Correct
8,408,379,B,49.373476030552126,28.95178498909813,2.4686738015276064,0.45477357515030964,B,661.9919999993726,Correct
8,408,380,B,81.35593842481407,67.1819274262554,4.067796921240704,1.0552912482816328,B,639.1036000004533,Correct
8,408,381,B,69.99958227417225,37.31570055491632,3.499979113708613,0.5861536536344084,B,647.1091000003071,Correct
8,408,382,B,83.44072042793746,62.177330396916545,4.172036021396873,0.9766792219738918,B,1024.8063000017282,Correct
8,408,383,A,48.918842506876565,71.56926592666002,2.4459421253438283,1.1242074002900473,A,1049.0534999989904,Correct
8,408,384,B,72.88246815930782,44.50530117466565,3.644123407965391,0.6990876360806539,B,1069.5291000010911,Correct
8,408,385,B,55.153011663570425,23.06875298876471,2.757650583178521,0.36236312458490394,B,546.7660000012984,Correct
8,408,386,A,30.8116446999652,45.62889507236441,1.54058223499826,0.7167370077537978,A,759.7770000011224,Correct
8,408,387,B,52.39543696906538,38.055927164726,2.619771848453269,0.5977811060312573,B,632.8778999995848,Correct
8,408,388,A,34.68954327210547,60.85507677921993,1.7344771636052736,0.9559093107162007,A,691.9689000005746,Correct
8,408,389,A,30.94643799624213,57.35361711033665,1.5473218998121063,0.9009085108531775,A,1369.18500000138,Correct
8,408,390,A,38.78782416597571,55.41403111368217,1.9393912082987854,0.8704415652627006,A,915.7446000008349,Correct
8,408,391,A,25.501857439533794,45.313026119689226,1.2750928719766896,0.7117753498476904,A,1472.6855999997497,Correct
8,408,392,A,21.3342312790695,42.212447171275016,1.066711563953475,0.6630715696166242,A,1203.1980000010662,Correct
8,408,393,A,18.733658932189538,44.79177227025582,0.9366829466094769,0.7035875135275135,A,482.3821999998472,Correct
8,408,394,A,44.427600182217226,55.96496741049489,2.2213800091108613,0.8790956523760147,A,1221.4170999995986,Correct
8,408,395,B,33.84372767537906,14.61222244846633,1.6921863837689528,0.2295282534836084,B,793.0443000004743,Correct
8,408,396,A,50.87181060900034,74.6011088709391,2.543590530450017,1.1718314778929733,A,685.1449999994657,Correct
8,408,397,A,44.14148758014383,54.29591485322677,2.2070743790071914,0.8528782361141707,A,841.6118000004644,Correct
8,408,398,B,74.7048689212731,50.91360227009662,3.735243446063655,0.7997489942976407,B,673.072300000058,Correct
8,408,399,A,54.72980241959415,69.3951843850183,2.7364901209797075,1.090057007292413,A,953.3513999995193,Correct
8,408,400,A,35.79102560157727,53.82420677060013,1.7895512800788635,0.845468662879077,A,613.5217000010016,Correct
8,408,401,A,57.082387130401564,75.09976154544711,2.854119356520078,1.1796642957876093,A,689.1352000002371,Correct
8,408,402,A,68.76285799352858,87.61573795485222,3.4381428996764294,1.3762647934890606,A,1207.2162000004028,Correct
8,408,403,A,38.60426322024399,48.29177964877641,1.9302131610121995,0.7585655008668654,B,1122.2834999989573,Incorrect
8,408,404,A,47.855984751587044,67.32379280382384,2.3927992375793523,1.0575196644214717,A,2586.2851000001683,Correct
8,408,405,B,41.88241980047873,30.366202393963057,2.0941209900239364,0.4769911917914756,B,683.1388999999035,Correct
8,408,406,A,21.185863374675595,51.43227860004606,1.0592931687337797,0.8078963430364412,A,741.6515000004438,Correct
8,408,407,B,50.8630395416104,25.44683676576922,2.54315197708052,0.39971797720219615,B,680.7198000005883,Correct
8,408,408,A,55.2959437415946,74.94907507479836,2.76479718707973,1.177297318241682,A,619.7487999997975,Correct
8,408,409,B,69.35296135227388,50.697989946300694,3.4676480676136943,0.7963621638353372,B,673.018299999967,Correct
8,408,410,B,68.88568543986439,56.727779179237764,3.4442842719932196,0.8910778716197869,B,674.9378999993496,Correct
8,408,411,B,87.35144709948784,59.89342399810661,4.367572354974392,0.9408037041539519,B,605.9726999992563,Correct
8,408,412,A,47.155514288503404,71.37831720523943,2.3577757144251703,1.1212079847879106,A,727.9257999998663,Correct
8,408,413,A,18.20874521702309,46.73006291605097,0.9104372608511545,0.7340341117942727,A,654.6185000006517,Correct
8,408,414,A,12.486825654260457,34.99577992527495,0.6243412827130228,0.5497124255994448,A,495.70540000058827,Correct
8,408,415,A,54.074329026003056,84.1795177087526,2.703716451300153,1.3222887720827452,A,692.1292999995785,Correct
8,408,416,B,71.69476043912802,47.449514866244456,3.584738021956401,0.7453352366009663,B,792.5945999995747,Correct
8,408,417,A,38.21966824977268,54.24638285670538,1.910983412488634,0.8521001893322245,A,583.2189999982802,Correct
8,408,418,A,20.64095185855027,33.58206337819226,1.0320475929275135,0.5275058180065781,A,527.5208999992174,Correct
8,408,419,B,32.56879601656358,13.518927863931605,1.6284398008281789,0.2123548223086894,B,779.395100000329,Correct
8,408,420,A,60.14690114782414,75.75453122650333,3.007345057391207,1.1899493938866073,A,906.2924000008934,Correct
8,408,421,A,19.866275754808107,35.74960918156492,0.9933137877404054,0.5615535478675528,A,723.9967999994406,Correct
8,408,422,B,57.96913438878441,49.247550449564734,2.8984567194392206,0.7735787134982264,B,520.6856000004336,Correct
8,408,423,B,80.3557707669708,56.40726299123841,4.01778853834854,0.8860432151119101,B,1396.5717000010045,Correct
8,408,424,A,40.843671995107194,64.8869296122476,2.0421835997553597,1.0192415069191751,A,635.5057999990095,Correct
8,408,425,A,40.34806222331209,65.54825987288889,2.0174031111656046,1.029629658361312,A,683.4870999991836,Correct
8,408,426,A,40.6715701346658,66.0568140218802,2.03357850673329,1.0376180082534305,A,877.1694000006391,Correct
8,408,427,A,19.248143097252736,44.52725683111547,0.9624071548626368,0.6994325147256915,A,619.5208000008279,Correct
8,408,428,A,58.26592583566075,86.75730392533517,2.9132962917830376,1.3627805432854494,A,600.217999999586,Correct
8,408,429,B,51.28736381298797,23.272042174157807,2.5643681906493985,0.36555638364183,B,632.25649999913,Correct
8,408,430,B,48.297764977425956,30.375355746947562,2.414888248871298,0.4771349723239348,B,591.7453000001842,Correct
8,408,431,A,47.05475544460976,61.681224664198105,2.352737772230488,0.9688864113473317,A,595.0451999997313,Correct
8,408,432,B,68.94009891834716,46.332211102161814,3.4470049459173584,0.7277846701156152,B,540.99320000023,Correct
8,408,433,A,49.90115137559457,72.78473471585957,2.4950575687797287,1.143299939384132,A,622.6487000003544,Correct
8,408,434,B,31.822639472740594,17.596224693308745,1.5911319736370297,0.2764008511370703,B,543.7971000010293,Correct
8,408,435,A,46.51032582587472,78.57067656406113,2.325516291293736,1.234185301406171,A,616.0724999990634,Correct
8,408,436,B,59.18852022667095,26.29032928545569,2.9594260113335475,0.4129675267182209,B,642.8556000009849,Correct
8,408,437,A,29.204013933128508,49.431655170204046,1.4602006966564256,0.7764706236874847,A,1100.8003000006283,Correct
8,408,438,A,41.483971109939866,63.91351138813755,2.0741985554969933,1.0039510892105026,A,543.0345999993733,Correct
8,408,439,B,54.58278743023412,36.893237076391586,2.7291393715117063,0.579517612831692,B,728.9584000009199,Correct
8,408,440,B,45.548697637187104,17.803200820279013,2.2774348818593553,0.27965202453686167,B,500.3149000003759,Correct
8,408,441,B,60.330992140164675,50.8079192599795,3.016549607008234,0.7980889294566748,B,598.5135000009905,Correct
8,408,442,B,77.53365296407824,47.066018918676114,3.876682648203912,0.7393112963431556,B,1051.7696999995678,Correct
8,408,443,B,57.71520585501705,25.364861379518935,2.8857602927508528,0.39843031084610075,B,445.9815999998682,Correct
8,408,444,B,66.74550426017441,39.369227885809224,3.337275213008721,0.6184103855178034,B,601.6179999987799,Correct
8,408,445,B,43.42702243077349,23.05552176179625,2.1713511215386747,0.3621552889576935,B,464.529599999878,Correct
8,408,446,B,45.656678845482276,24.463913395507902,2.282833942274114,0.38427825300692275,B,539.2786000011256,Correct
8,408,447,B,51.92599307824084,32.31351125606472,2.5962996539120424,0.5075794478687201,B,606.3326999992569,Correct
8,408,448,B,72.89982962172243,56.46548394253307,3.6449914810861217,0.8869577476762716,B,2236.998799999128,Correct
8,408,449,A,60.62845843295359,71.32494278921735,3.03142292164768,1.1203695814215873,A,649.7230000004492,Correct
8,408,450,A,60.69108441741461,78.62535637247436,3.03455422087073,1.2350442098282244,A,526.6707999999198,Correct
8,408,451,B,59.04255754391903,51.37600171374478,2.9521278771959514,0.8070123477735862,B,971.4199999998527,Correct
8,408,452,A,59.998090551547136,81.55084863285289,2.999904527577357,1.2809977347949193,A,553.7553000012849,Correct
8,408,453,A,67.08725328561545,80.55482697669736,3.3543626642807727,1.2653522632059466,A,541.059099999984,Correct
8,408,454,B,72.32952442331752,54.806713228274276,3.6164762211658763,0.8609018382267449,B,1018.618800000695,Correct
8,408,455,B,74.05137786938634,63.727797612998486,3.702568893469317,1.001033904052266,B,560.1834999997664,Correct
8,408,456,B,75.0272067799464,54.836070809143834,3.7513603389973196,0.8613629860286799,B,710.5324000003748,Correct
8,408,457,A,21.844112227359293,40.07936184121755,1.0922056113679646,0.6295651436046806,A,1340.5960999989475,Correct
8,408,458,B,78.21275651014743,54.68329498822921,3.9106378255073713,0.8589631890455222,B,849.3067999988853,Correct
8,408,459,A,39.42050563614673,56.55183336744728,1.9710252818073366,0.8883141212710325,A,692.6136999991286,Correct
8,408,460,B,75.68048623322522,47.61317240318149,3.7840243116612613,0.7479059631796962,B,651.5799000007974,Correct
8,408,461,A,54.56367347922625,67.46436887182867,2.728183673961313,1.0597278281340443,A,760.2678000002925,Correct
8,408,462,A,40.66745972574234,69.46645755351119,2.033372986287117,1.0911765636050896,A,516.9940000014321,Correct
8,408,463,A,69.52066356318929,87.82454451159609,3.476033178159464,1.3795447192125003,A,625.1421000015398,Correct
8,408,464,A,39.29342289450936,64.45466735447434,1.9646711447254683,1.0124515472519522,A,499.3331000005128,Correct
8,408,465,B,50.457318576494615,24.175525680672585,2.522865928824731,0.3797482693753619,B,760.6140000007144,Correct
8,408,466,B,61.354495540347095,35.51499234477535,3.0677247770173546,0.55786819521322,B,630.4067000000941,Correct
8,408,467,B,64.30024198371464,46.85209290544228,3.215012099185732,0.7359509543852196,B,2141.8816999994306,Correct
8,408,468,B,54.15905711069962,28.96113224471009,2.707952855534981,0.4549204014981184,B,462.99689999978,Correct
8,408,469,A,39.617792278587125,56.1712645067749,1.9808896139293564,0.8823361595866656,A,572.5424000011117,Correct
8,408,470,A,53.87131963354488,78.02340288934862,2.693565981677244,1.2255887466262712,A,550.2219999998488,Correct
8,408,471,B,60.11871640851736,52.736288510565814,3.0059358204258677,0.8283796828119269,B,1362.3611999992136,Correct
8,408,472,A,63.77191326156135,84.94335330240217,3.1885956630780674,1.3342870735305448,A,684.5947000001615,Correct
8,408,473,B,40.012413486456495,24.92108220765316,2.0006206743228248,0.39145944391535237,B,519.1049000004568,Correct
8,408,474,A,46.1003389267175,73.1972239917308,2.3050169463358747,1.1497793057779402,A,537.5704999987647,Correct
8,408,475,B,78.85894898101033,49.79618690726209,3.942947449050516,0.7821966748231941,B,652.0933999981935,Correct
8,408,476,B,56.47642894722659,47.844854802817935,2.8238214473613295,0.7515452218030158,B,732.3725999995077,Correct
8,408,477,A,38.55404884859628,58.62375382700605,1.927702442429814,0.9208597717438938,A,513.3659000002808,Correct
8,408,478,A,15.63375473147697,32.114068484117674,0.7816877365738485,0.504446608132918,A,592.2578000008798,Correct
8,408,479,A,33.992050528917,61.052792875269986,1.6996025264458499,0.9590150278904374,A,462.3615000000427,Correct
8,408,480,B,73.40042070692363,43.8028911186505,3.6700210353461813,0.6880542047217301,B,723.0708999995841,Correct
8,408,481,A,45.48007718715759,60.45881636421633,2.2740038593578795,0.9496848666727818,A,486.1362999999983,Correct
8,408,482,B,75.25349551079658,53.75872498075167,3.7626747755398293,0.8444400773294177,B,688.3433000002697,Correct
8,408,483,A,30.180931905606116,49.86465429033652,1.5090465952803058,0.7832721579615798,A,698.0157999987568,Correct
8,408,484,A,58.50855912874165,80.02077894770876,2.9254279564370824,1.256963456383273,A,987.4079999990499,Correct
8,408,485,B,60.7917978687335,36.03856818757527,3.039589893436675,0.5660925053199064,B,742.1743000013521,Correct
8,408,486,B,47.97436730817382,34.94201794670488,2.398718365408691,0.5488679344148538,B,691.1636999993789,Correct
8,408,487,B,73.67038101884009,45.623987112868335,3.6835190509420044,0.7166599137063129,B,626.0975000004692,Correct
8,408,488,A,30.69794948817794,47.86500886667092,1.5348974744088968,0.7518618010977183,A,593.2603999990533,Correct
8,408,489,B,57.864529977958924,25.780283297632927,2.893226498897946,0.40495574307653626,B,710.5246999999508,Correct
8,408,490,B,74.21548891301398,56.85329997786326,3.7107744456506992,0.8930495477139598,B,957.977199999732,Correct
8,408,491,B,63.2061234572507,36.790690909578274,3.160306172862535,0.5779068214101195,B,790.2863000017533,Correct
8,408,492,B,61.30597219424872,40.12620846613972,3.065298609712436,0.6303010086681856,B,610.9924999982468,Correct
8,408,493,A,23.09620663623051,34.24104941024741,1.1548103318115255,0.537857146392192,A,866.4564999999129,Correct
8,408,494,B,72.62084814423862,42.463276347960864,3.6310424072119307,0.6670115851105355,B,723.8743999987491,Correct
8,408,495,B,76.64448294241471,47.474063944377875,3.8322241471207352,0.745720852618548,B,620.7070000000385,Correct
8,408,496,A,17.739055702847608,43.42723697063642,0.8869527851423804,0.6821534431632723,A,499.5742999999493,Correct
8,408,497,B,77.01726648797641,62.33146934932482,3.850863324398821,0.9791004309764811,B,615.7982000004267,Correct
8,408,498,B,82.9513571693501,60.28194562491469,4.1475678584675055,0.9469065875966568,B,587.9024000005302,Correct
8,408,499,B,65.74193074747784,36.75853016842388,3.287096537373892,0.5774016416693962,B,2782.441600000311,Correct
8,408,500,A,29.766085049302276,51.901913832882414,1.4883042524651138,0.8152733560231692,A,677.353300001414,Correct
8,408,501,B,82.36605956238185,51.929939856343076,4.118302978119092,0.815713587770236,B,615.8704999998008,Correct
8,408,502,A,58.357329621258295,76.12676323964834,2.9178664810629145,1.1957964006762436,A,976.1488999993162,Correct
8,408,503,A,50.57580551772177,80.00241589064026,2.5287902758860885,1.256675010157354,A,704.696700000568,Correct
8,408,504,A,25.15376920854594,52.16506256793171,1.2576884604272969,0.8194068866873311,A,637.1402999993734,Correct
8,408,505,A,44.112628511887515,63.187498913823184,2.2056314255943756,0.9925469119318996,A,1026.0842999996385,Correct
8,408,506,A,57.67162021027417,68.79479860429838,2.8835810105137085,1.0806261695022656,A,597.4227999995492,Correct
8,408,507,B,67.48965172024855,52.917729712776904,3.3744825860124275,0.831229754551551,B,454.56860000012966,Correct
8,408,508,A,46.42291852887906,76.2574067132704,2.3211459264439527,1.1978485435610964,A,977.6034999995318,Correct
8,408,509,B,66.44935508370207,58.24473328982252,3.3224677541851038,0.9149061310680164,B,609.358700001394,Correct
8,408,510,B,66.31256339506444,36.44704259583439,3.3156281697532224,0.5725088063207379,B,536.2554000003001,Correct
8,408,511,A,16.84632766895515,33.42808253341313,0.8423163834477576,0.5250870925528198,A,1312.2758000008616,Correct
8,408,512,A,51.75152256881117,79.23680411704714,2.5875761284405585,1.244648808540244,A,615.1991000006092,Correct
8,408,513,A,46.82218976495587,77.08498428597298,2.3411094882477936,1.210848101674487,A,493.57880000025034,Correct
8,408,514,B,41.93697975278553,28.00819529682269,2.0968489876392766,0.43995170292403174,B,582.1360000009008,Correct
8,408,515,A,26.671258271002397,47.734156828617294,1.33356291355012,0.7498063820904357,A,552.9179999994085,Correct
8,408,516,A,22.42806591931799,43.515964974459166,1.1214032959658995,0.6835471793881583,A,489.48120000022755,Correct
8,408,517,A,64.59822280411609,83.01775946972924,3.2299111402058043,1.3040399163379293,A,658.5949000000255,Correct
8,408,518,A,15.943786511645381,35.57001598362899,0.7971893255822691,0.5587325045112017,A,742.1986999997898,Correct
8,408,519,B,52.62912277395458,32.990222291963676,2.631456138697729,0.5182091999636366,B,783.0537999998342,Correct
8,408,520,B,79.7851907405053,62.917183016944634,3.989259537025265,0.9883007997529889,B,1421.3885999997729,Correct
8,408,521,A,13.22802033753322,30.415452834257895,0.6614010168766611,0.47776481589855724,A,523.495899999034,Correct
8,408,522,A,65.11839268891828,87.50980198760388,3.255919634445914,1.374600755206769,A,610.4255999998713,Correct
8,408,523,A,47.09894821722816,55.372792737906266,2.354947410861408,0.8697937943707827,A,2027.2483999997348,Correct
8,408,524,B,60.05771850076119,49.64926068105356,3.0028859250380595,0.7798887630588122,B,1153.0794999998761,Correct
8,408,525,A,61.24743970870165,80.04565093453323,3.0623719854350826,1.2573541446387126,A,527.6825000000827,Correct
8,408,526,A,63.27475213342127,74.34195079020266,3.1637376066710634,1.1677606322801728,A,566.6309000007459,Correct
8,408,527,A,63.23686749791791,73.15071392884833,3.1618433748958954,1.1490487274185923,A,3581.0129000001325,Correct
8,408,528,B,73.75459222234912,46.41510157263697,3.687729611117456,0.7290867105811019,B,672.3058000006858,Correct
8,408,529,A,45.6824463677157,75.05185526231512,2.284122318385785,1.178911785651868,A,684.7588000000542,Correct
8,408,530,A,35.18647927479008,48.22269770409075,1.7593239637395042,0.7574803642172644,B,1559.2557999989367,Incorrect
8,408,531,A,64.55769909517252,77.43068432266256,3.2278849547586264,1.2162783451525352,A,673.4801000002335,Correct
8,408,532,A,68.45912064429545,87.57565483414575,3.4229560322147727,1.375635169301339,A,625.238000000536,Correct
8,408,533,B,61.45766237979205,32.58306098126487,3.072883118989602,0.5118135250510498,B,652.8426999993826,Correct
8,408,534,A,43.84993359309523,53.137613791957136,2.192496679654761,0.8346836855905211,A,1184.7297000003891,Correct
8,408,535,B,87.27501877796428,61.68920853365182,4.363750938898214,0.9690118216754465,B,573.7028000003193,Correct
8,408,536,A,46.23414196749339,72.258460889757,2.31170709837467,1.1350332494548299,A,509.1609999999491,Correct
8,408,537,B,70.42658529437371,61.38224624319929,3.5213292647186853,0.9641900692923728,B,950.5566999996518,Correct
8,408,538,B,66.45901300139603,49.139747557403716,3.3229506500698016,0.7718853496279823,B,620.6404000004113,Correct
8,408,539,A,54.29381755965187,81.6443991972473,2.7146908779825933,1.2824672236241226,A,565.7533000012336,Correct
8,408,540,B,51.36443486461463,40.40881974745633,2.5682217432307315,0.6347402562942147,B,1196.9601000000694,Correct
8,408,541,A,45.036986513952385,62.81241539256749,2.2518493256976195,0.9866551137576023,A,479.18660000141244,Correct
8,408,542,A,15.125770855765502,32.82806462093382,0.7562885427882751,0.5156620332234836,A,592.8455000012036,Correct
8,408,543,A,59.504524495140274,68.34586124081322,2.975226224757014,1.073574277887031,A,654.6607999989646,Correct
8,408,544,B,49.092678623977456,24.39216172795755,2.454633931198873,0.3831511804486278,B,871.7889999988984,Correct
8,408,545,A,27.723016283709395,41.79752510420988,1.3861508141854697,0.6565539890281035,A,1382.9944000008254,Correct
8,408,546,A,40.26540315475397,58.36560110256306,2.013270157737699,0.9168047182308222,A,631.2868999993952,Correct
8,408,547,A,22.538847073547807,40.66702582949159,1.1269423536773902,0.6387961479463858,A,660.8319000006304,Correct
8,408,548,A,56.944024939954645,71.21585778903649,2.8472012469977326,1.1186560782456625,A,677.6353000004747,Correct
8,408,549,B,83.31874352058514,63.89284035219117,4.165937176029257,1.0036263893371462,B,768.4073000000353,Correct
