subject,day,trial,cat,x,y,xt,yt,resp,rt,fb
11,111,0,B,67.46263932225246,37.194604601381954,3.373131966112623,0.5842514828443933,A,13199.774199998501,Incorrect
11,111,1,B,61.202629874761676,46.58232114817256,3.060131493738084,0.7317133895312968,B,785.8384000010119,Correct
11,111,2,B,45.308902430256296,26.518003603900496,2.2654451215128146,0.41654382654940725,A,1150.0207000008231,Incorrect
11,111,3,A,34.20423322292382,51.22298229712212,1.7102116611461908,0.8046087243979944,B,752.4971000002552,Incorrect
11,111,4,A,49.86027861075709,57.21246853561243,2.4930139305378547,0.898691354226086,B,892.9367000000639,Incorrect
11,111,5,B,54.787137623417905,41.31134690086717,2.7393568811708953,0.6489171196683189,B,1512.5509000008606,Correct
11,111,6,B,61.00155947874686,31.72234445403554,3.050077973937343,0.49829342145721484,B,1314.2048999998224,Correct
11,111,7,B,74.1485374196812,62.499719913196856,3.70742687098406,0.9817433046535948,B,1397.2807000009198,Correct
11,111,8,A,62.95200986292531,73.1043257867054,3.1476004931462653,1.1483200641857427,B,797.5701000013942,Incorrect
11,111,9,B,77.9571067180193,52.69137739263206,3.897855335900965,0.8276742206211012,B,785.1487000007182,Correct
11,111,10,B,60.42659613884666,42.60590381206634,3.021329806942333,0.6692519720777048,A,1333.3595000003697,Incorrect
11,111,11,B,77.86435155417706,60.80442061161747,3.893217577708853,0.955113605496206,B,779.715099999521,Correct
11,111,12,A,26.325018852824755,49.38655626158534,1.3162509426412379,0.7757622116874775,A,704.1398000001209,Correct
11,111,13,B,76.22697572813493,44.38642289345691,3.811348786406746,0.6972203004060702,B,671.9068000002153,Correct
11,111,14,A,47.535670302003375,59.14924387796318,2.376783515100169,0.9291141501620008,A,1713.8348999997106,Correct
11,111,15,B,75.7902470939614,47.39089478488137,3.78951235469807,0.7444144345161507,B,634.4130999987101,Correct
11,111,16,A,29.968861936650757,47.97415235017711,1.4984430968325377,0.7535762229275696,A,664.7941999999603,Correct
11,111,17,B,33.00499772585765,12.156470407303114,1.6502498862928825,0.19095339062582595,A,884.9374000001262,Incorrect
11,111,18,A,49.41865136925303,79.42658561013083,2.4709325684626515,1.247629889262539,B,1082.7343999990262,Incorrect
11,111,19,B,61.71075183956641,52.61315393248957,3.0855375919783206,0.8264454893824907,B,763.8156000011804,Correct
11,111,20,B,65.88397869029828,53.442316304500125,3.2941989345149136,0.8394699414651982,B,659.3351999999868,Correct
11,111,21,A,51.50354235858477,80.67955199639535,2.575177117929238,1.2673114392339566,B,1034.807300000466,Incorrect
11,111,22,A,48.47937186574337,65.88105672149092,2.423968593287168,1.0348572190348417,A,1490.8097999996244,Correct
11,111,23,B,62.873044516935394,39.86696433394138,3.14365222584677,0.6262288113621827,B,922.0408000001044,Correct
11,111,24,B,52.90431016371966,41.080335803855654,2.6452155081859825,0.6452884058419733,B,1387.9870000000665,Correct
11,111,25,A,17.67519811382961,33.6089922388925,0.8837599056914804,0.5279288155613051,A,748.0062000013277,Correct
11,111,26,B,77.82234569390816,46.24333103460808,3.891117284695408,0.7263885452792281,B,813.3883000009519,Correct
11,111,27,B,68.42867926887774,55.497579937405746,3.4214339634438873,0.8717539471168309,B,1371.2061999995058,Correct
11,111,28,A,53.33137785358332,65.85304969580122,2.666568892679166,1.0344172857040632,B,1839.0499999986787,Incorrect
11,111,29,B,57.19741740476177,33.91592262059174,2.8598708702380886,0.5327500667228545,B,631.3871999991534,Correct
11,111,30,B,89.06358757366716,67.31419699369458,4.453179378683358,1.0573689337884353,B,830.5788000016037,Correct
11,111,31,A,50.996994797581564,72.98497552826203,2.5498497398790785,1.146445314710094,A,1236.936400000559,Correct
11,111,32,A,20.84864643915183,37.81037801385863,1.0424323219575913,0.5939240289889565,A,679.173800001081,Correct
11,111,33,A,64.11151868552048,85.27122129373538,3.205575934276024,1.339437211895143,B,1622.6179000004777,Incorrect
11,111,34,A,21.51592458769959,48.050445333735965,1.0757962293849794,0.7547746303109142,A,1532.1674999995594,Correct
11,111,35,A,24.893185471519857,43.53560119645131,1.244659273575993,0.6838556244419322,A,1077.5709000008646,Correct
11,111,36,B,65.47650305047745,46.92664116214245,3.273825152523872,0.7371219556631555,B,850.5502000007255,Correct
11,111,37,B,70.59782044973565,52.615339121949674,3.5298910224867823,0.8264798142582638,B,717.3034000006737,Correct
11,111,38,A,32.718789639147374,64.12213270458636,1.6359394819573685,1.0072281051861915,A,1061.0999000000447,Correct
11,111,39,B,80.53757066982322,65.92908451762,4.026878533491161,1.0356116378922777,B,773.9572000009503,Correct
11,111,40,B,85.16926711569211,56.043426926738135,4.258463355784605,0.8803280915751847,B,1002.6560999995127,Correct
11,111,41,B,81.12219741727364,55.63987695320613,4.056109870863682,0.873989143414162,B,623.8855000010517,Correct
11,111,42,B,72.11207499476077,43.52876115001563,3.6056037497380387,0.6837481812437696,B,721.3119000007282,Correct
11,111,43,A,43.692044685427625,67.69736540021925,2.1846022342713813,1.0633877290435634,A,1523.5257000003912,Correct
11,111,44,B,67.39170901479675,49.77429001976723,3.3695854507398373,0.7818527193187425,B,731.5565999997489,Correct
11,111,45,B,34.84435013009471,22.88022059380792,1.7422175065047356,0.3594016646501043,A,1021.4954999992187,Incorrect
11,111,46,B,84.47622023132558,63.76622190132946,4.223811011566279,1.001637471361966,B,535.9863999983645,Correct
11,111,47,A,12.055982706388473,36.768793083215925,0.6027991353194238,0.5775628511579717,A,729.3912000004639,Correct
11,111,48,B,56.53129119783046,26.924600670938915,2.826564559891523,0.42293063834330263,B,2144.8435000002064,Correct
11,111,49,B,87.35400298298204,63.640004836948634,4.367700149149102,0.9996548583508837,B,1086.9425000000774,Correct
11,111,50,B,71.61930601631256,52.329939835375384,3.5809653008156284,0.8219967727480559,B,1359.8081000000093,Correct
11,111,51,A,49.261368547801716,78.35636322003666,2.463068427390086,1.2308188752704032,A,1653.084999999919,Correct
11,111,52,A,31.103814767036816,58.8114742593248,1.5551907383518409,0.9238084773994001,A,731.7137000009097,Correct
11,111,53,A,59.61424741129888,75.90489699546535,2.980712370564944,1.1923113338622195,B,1839.3190000006143,Incorrect
11,111,54,B,68.58599545469312,44.19548184828318,3.429299772734656,0.6942210054821375,B,686.2419999997655,Correct
11,111,55,A,11.13742253368532,37.497813150764344,0.5568711266842661,0.58901427160062,A,665.8669999997073,Correct
11,111,56,B,87.92666918940944,64.978942595994,4.396333459470472,1.020686843488038,B,883.8047999997798,Correct
11,111,57,B,34.29678355103907,11.027614365127722,1.7148391775519536,0.17322136138053262,A,1260.3299999991577,Incorrect
11,111,58,A,24.864201704110116,54.14754371231646,1.2432100852055057,0.850547627682728,A,1106.7241999990074,Correct
11,111,59,A,39.03785956846487,53.906520536428026,1.9518929784232433,0.846761644489148,A,2728.809700000056,Correct
11,111,60,A,52.53083241144323,67.53513545399642,2.6265416205721612,1.0608394270073336,B,2214.924500000052,Incorrect
11,111,61,B,82.52816582022437,59.46799503222236,4.126408291011219,0.9341210815847204,B,983.5057999989658,Correct
11,111,62,A,54.330445399033614,82.31821553846919,2.7165222699516804,1.2930515059613799,A,1629.6001999999135,Correct
11,111,63,A,37.05180734889235,52.117429453762476,1.8525903674446176,0.8186586674796223,A,880.1290999999765,Correct
11,111,64,A,57.77343825049927,69.30690388290854,2.8886719125249636,1.0886703004079967,B,709.5946000008553,Incorrect
11,111,65,A,42.720833049812384,67.78822961531952,2.136041652490619,1.0648150207967293,B,2705.768399999215,Incorrect
11,111,66,B,40.55670767857589,26.14575546882743,2.0278353839287946,0.41069656651711717,B,1854.7772000001714,Correct
11,111,67,B,65.5139405820773,56.24321772766031,3.2756970291038647,0.8834663981373442,B,1434.118799999851,Correct
11,111,68,B,50.5316485952659,41.25625270623326,2.526582429763295,0.6480517020827322,B,1164.6147999999812,Correct
11,111,69,A,41.36086742351229,53.39736000787295,2.068043371175614,0.8387637696091154,B,769.6067000015319,Incorrect
11,111,70,A,53.922419147174594,80.94969619591292,2.6961209573587297,1.2715548543970283,A,1205.759999998918,Correct
11,111,71,B,63.73843279752176,39.19550215800934,3.186921639876088,0.6156815081668251,A,1099.3015000003652,Incorrect
11,111,72,B,52.57467287526776,31.785313650309455,2.628733643763388,0.4992825392792978,A,1723.3237000000372,Incorrect
11,111,73,B,38.95878794505176,26.10909642699916,1.947939397252588,0.41012072763464036,A,1365.241800000149,Incorrect
11,111,74,B,44.673329739992,33.46786909302634,2.2336664869996,0.5257120583697821,B,1412.4573999997665,Correct
11,111,75,B,84.55163189651428,59.52371251757613,4.227581594825714,0.93499628979804,B,649.1790000000037,Correct
11,111,76,A,32.39339365061724,62.084138142166296,1.619669682530862,0.9752153614594175,A,1338.5734999992565,Correct
11,111,77,A,47.61502295632872,69.13866050275158,2.380751147816436,1.0860275395724157,B,1279.5641000011528,Incorrect
11,111,78,B,81.69569126311234,51.10268178242983,4.084784563155617,0.8027190483320926,B,706.6228999992745,Correct
11,111,79,B,60.313741885773936,47.50823029525874,3.0156870942886966,0.7462575364031845,B,2800.1430000003893,Correct
11,111,80,A,22.21429509260865,41.04558828232938,1.1107147546304326,0.6447425930501864,A,929.8105999987456,Correct
11,111,81,B,79.83285191778867,60.90965361644485,3.9916425958894335,0.9567666016706105,B,1129.1369999999006,Correct
11,111,82,B,85.43884727593819,57.475695920545576,4.271942363796909,0.9028261203197341,B,1302.8042999994796,Correct
11,111,83,A,61.011667464264875,77.81325023648103,3.0505833732132435,1.222287676474365,B,970.1723999987735,Incorrect
11,111,84,A,35.08180329455878,65.2665709703415,1.754090164727939,1.0252048994271086,A,2273.362400001133,Correct
11,111,85,A,63.50187656964903,87.6695130888289,3.1750938284824515,1.3771094913182953,B,1920.559800000774,Incorrect
11,111,86,A,23.971024191594577,42.15990880137923,1.1985512095797288,0.6622462988321433,A,1049.382199998945,Correct
11,111,87,A,42.17416255108339,53.77253651841531,2.1087081275541695,0.8446570284557121,B,845.8539999992354,Incorrect
11,111,88,B,42.32805959029104,20.014492194696608,2.116402979514552,0.3143869082209456,B,2443.6279000001377,Correct
11,111,89,A,32.16344379359693,62.87517833013822,1.6081721896798467,0.9876409916755519,A,2270.1693999988493,Correct
11,111,90,B,33.54266159863115,15.639003795300887,1.6771330799315576,0.2456568971639008,A,1278.447500000766,Incorrect
11,111,91,B,74.47346637279088,49.52066351421301,3.723673318639544,0.7778687634857187,B,631.0077999987698,Correct
11,111,92,A,50.59106131525387,67.97726577412656,2.529553065762693,1.0677843938355844,B,1196.8295999995462,Incorrect
11,111,93,A,55.43186916828711,71.50185293626075,2.7715934584143556,1.1231484795130728,B,804.282000000967,Incorrect
11,111,94,B,38.61661082689915,16.386159574611934,1.9308305413449574,0.2573931927007545,B,3757.7103999992687,Correct
11,111,95,A,44.95447388950846,70.44930983444148,2.247723694475423,1.1066151711317624,B,2412.353499999881,Incorrect
11,111,96,B,39.16988035598776,15.469274836140137,1.9584940177993877,0.24299080090789651,B,1291.2673999999242,Correct
11,111,97,B,61.03353773707798,52.11804175450386,3.051676886853899,0.818668285477177,A,1462.0797999996284,Incorrect
11,111,98,B,51.537345547352345,31.531143067885097,2.5768672773676173,0.49529003710678277,B,1040.5633999998827,Correct
11,111,99,B,70.57597947347745,48.05671128710141,3.5287989736738723,0.7548730556762174,B,790.9559999989142,Correct
11,111,100,B,47.297909734417615,29.29560481654317,2.3648954867208807,0.4601742843706089,A,4328.323300000193,Incorrect
11,111,101,B,57.85170451280553,36.69364927101629,2.8925852256402766,0.5763824949161263,B,609.4686000014917,Correct
11,111,102,B,86.50356466385162,68.98921029233945,4.325178233192581,1.0836799811568747,B,1588.533500000267,Correct
11,111,103,B,72.96234102222809,53.44474542810445,3.6481170511114045,0.8395080980495481,B,654.1861000005156,Correct
11,111,104,A,29.420934112114658,58.54688334474536,1.4710467056057328,0.9196522930321532,A,840.7040000001871,Correct
11,111,105,B,61.05271862424395,53.156996773854345,3.0526359312121976,0.8349881527581857,B,900.2988000011101,Correct
11,111,106,B,74.29814019236393,46.81721446901267,3.714907009618196,0.73540308518694,B,1296.1743000014394,Correct
11,111,107,B,74.20023406604307,52.01757987019008,3.7100117033021536,0.8170902338885474,B,717.1735000010813,Correct
11,111,108,A,25.99584867778657,51.95451235764743,1.2997924338893285,0.8160995717181265,A,954.1745999995328,Correct
11,111,109,A,25.994068354347878,52.86480267919491,1.2997034177173938,0.8303983786521638,A,766.3018999992346,Correct
11,111,110,B,60.11786753580605,39.67768425631817,3.0058933767903024,0.6232556068555228,B,1770.7416000012017,Correct
11,111,111,B,42.99742751970646,31.492057238044247,2.149871375985323,0.49467607832734545,B,721.93309999966,Correct
11,111,112,B,63.97556590910322,32.81726592173723,3.1987782954551607,0.5154924076531618,B,588.4282000006351,Correct
11,111,113,B,75.9908035774136,58.258691178929354,3.79954017887068,0.9151253810774048,B,1341.8426000007457,Correct
11,111,114,A,36.37827165047286,47.07794471276356,1.818913582523643,0.7394986262786224,A,1319.8104000002786,Correct
11,111,115,B,76.94188519189156,50.148269204575,3.847094259594578,0.7877271706166804,B,665.1493999997911,Correct
11,111,116,B,67.49547555277883,47.48726776157404,3.3747737776389415,0.7459282576940621,B,915.3834000007919,Correct
11,111,117,B,36.05983970879908,22.439803838957367,1.802991985439954,0.35248361444232246,A,912.4136999998882,Incorrect
11,111,118,A,15.064994419503865,39.975395931489274,0.7532497209751932,0.6279320509135501,A,665.8372000001691,Correct
11,111,119,A,31.771755182688416,49.214108001339596,1.5885877591344209,0.7730534007499158,A,2911.3624000001437,Correct
11,111,120,A,37.33212217701264,58.8819463743911,1.8666061088506323,0.9249154507942763,A,1679.360000000088,Correct
11,111,121,A,45.32531210149885,61.26656957179257,2.266265605074943,0.9623730243869575,B,2577.595199998541,Incorrect
11,111,122,B,71.13751713855872,38.68549015524053,3.5568758569279364,0.6076702583611195,B,769.0650999993522,Correct
11,111,123,B,75.71926344293712,44.03550171213749,3.785963172146856,0.6917080433799594,B,630.0200000005134,Correct
11,111,124,B,47.21217201442944,38.893347803649675,2.3606086007214717,0.6109352786672927,A,3193.635199999335,Incorrect
11,111,125,B,79.5486577028508,65.0949455426335,3.97743288514254,1.0225090135128252,B,3814.8959999998624,Correct
11,111,126,A,40.84187658486976,50.311007527865044,2.042093829243488,0.7902834582212082,B,1563.639800000601,Incorrect
11,111,127,A,40.990071922360706,71.71637841279869,2.049503596118035,1.12651823781857,B,3546.831099998599,Incorrect
11,111,128,B,79.31359594700406,63.02471488533565,3.965679797350203,0.9899899063918087,B,719.5528000011109,Correct
11,111,129,B,71.89484888057005,61.7145159164923,3.594742444028503,0.9694093491155129,B,678.1991999996535,Correct
11,111,130,B,78.93103845275398,54.464258958422114,3.946551922637699,0.855522579134955,B,1503.5936000003858,Correct
11,111,131,B,84.36246982348945,57.282451829885844,4.218123491174472,0.8997906492419028,B,1015.9032999999908,Correct
11,111,132,B,33.991940394927,13.103595285526396,1.69959701974635,0.20583079342311786,A,1116.8926999998803,Incorrect
11,111,133,B,41.05938308902715,15.08146433574845,2.0529691544513575,0.23689908781281904,B,1610.1326999996672,Correct
11,111,134,A,58.37942044334342,80.07863741427634,2.9189710221671707,1.2578722950508563,B,1828.0947000002925,Incorrect
11,111,135,A,46.63745365965075,69.1326401925588,2.331872682982538,1.085932972761046,A,1877.1737999995821,Correct
11,111,136,A,33.35212302854984,47.02684955770836,1.667606151427492,0.738696025459845,A,1940.67140000152,Correct
11,111,137,A,21.27341592305926,49.521108447494996,1.063670796152963,0.7778757524813686,A,864.2536000006658,Correct
11,111,138,B,43.461454090899295,26.890426341960442,2.1730727045449645,0.4223938292390019,B,1184.583800000837,Correct
11,111,139,B,35.56126902679249,17.000342673474954,1.7780634513396245,0.2670407582574899,B,423.21480000100564,Correct
11,111,140,A,21.97859893991212,49.51319393886902,1.098929946995606,0.7777514316705879,A,725.3061999999773,Correct
11,111,141,B,59.67404174110314,41.48471744367494,2.9837020870551565,0.6516404177864877,A,777.1811000002344,Incorrect
11,111,142,B,66.7350426424623,40.3076037882945,3.3367521321231153,0.6331503597255705,B,653.0697999987751,Correct
11,111,143,B,62.79209019859318,31.42940010375645,3.139604509929659,0.49369186236347773,B,1411.4454999998998,Correct
11,111,144,A,38.344532589731955,51.93517851915477,1.9172266294865978,0.8157958764932552,A,2062.2408999988693,Correct
11,111,145,B,73.5073345595093,49.69091287921873,3.6753667279754656,0.78054303425762,B,827.7476000002935,Correct
11,111,146,B,79.63781614187536,52.69158416947368,3.981890807093768,0.8276774686641338,B,399.09650000117836,Correct
11,111,147,A,32.59843641458706,59.14672600109283,1.6299218207293533,0.9290745994446082,A,479.3697000004613,Correct
11,111,148,B,69.05193210914408,44.409021833074185,3.452596605457204,0.697575283719473,B,581.1851999987994,Correct
11,111,149,A,26.186165247540828,39.08469711433997,1.3093082623770413,0.6139409866109632,B,217.87360000053013,Incorrect
11,111,150,A,57.14772453988296,76.76135459308468,2.857386226994148,1.2057645383461797,B,591.4127999985794,Incorrect
11,111,151,B,61.29700191510552,47.07888724127536,3.064850095755276,0.7395134314818647,B,451.86330000069574,Correct
11,111,152,A,59.73638844249376,72.82465443414176,2.986819422124688,1.1439269968525758,B,2641.4003999998386,Incorrect
11,111,153,B,81.32330786749107,51.27847334447861,4.066165393374553,0.8054803757315703,A,555.609100001675,Incorrect
11,111,154,A,54.4877638594464,69.22435861800942,2.7243881929723206,1.0873736824190183,B,4563.099099999818,Incorrect
11,111,155,A,22.755809139747942,51.9596047955701,1.1377904569873971,0.8161795635459599,A,783.2737999997335,Correct
11,111,156,B,35.38596317187498,23.700129208995055,1.7692981585937488,0.3722807590605387,A,1265.495200001169,Incorrect
11,111,157,A,32.56756070054686,54.396454719033386,1.6283780350273431,0.8544575126332258,A,801.2299999991228,Correct
11,111,158,B,86.23113078036664,61.35041729870664,4.311556539018332,0.9636901014014246,B,525.1270000007935,Correct
11,111,159,A,36.17929645843663,57.884854710465845,1.8089648229218316,0.9092531715625601,A,817.2560999992129,Correct
11,111,160,B,64.8680601351837,32.950270188094635,3.2434030067591846,0.5175816337835843,B,673.5767999998643,Correct
11,111,161,B,60.62626214729984,42.50056446169533,3.031313107364992,0.6675973054314075,B,1252.6116000008187,Correct
11,111,162,A,43.578482474861076,51.640122468198285,2.1789241237430534,0.8111611468828447,A,1824.780799999644,Correct
11,111,163,B,64.62095208216064,37.07862129126491,3.2310476041080323,0.5824296212693797,B,1652.1006000002671,Correct
11,111,164,A,28.808878857205315,50.32386227826766,1.4404439428602658,0.790485380168351,A,722.7494999988266,Correct
11,111,165,B,33.20335173050633,17.76727948499617,1.6601675865253163,0.27908777352170305,A,1101.2514000012743,Incorrect
11,111,166,A,45.94472122993477,73.82969762957562,2.2972360614967386,1.1597141784491527,B,1213.278300001548,Incorrect
11,111,167,A,32.56736428337034,42.17552272722755,1.628368214168517,0.6624915618058371,A,1138.2831999999325,Correct
11,111,168,B,70.30949934775961,39.76319914464031,3.51547496738798,0.6245988715801497,B,1325.8542999992642,Correct
11,111,169,A,16.763459362491236,44.405509798141665,0.8381729681245618,0.6975201168037573,A,565.5822999997326,Correct
11,111,170,A,14.931182475651557,31.035724613899998,0.7465591237825778,0.4875080222293208,A,591.2685000002966,Correct
11,111,171,B,73.83215312701726,49.55085162090914,3.691607656350863,0.7783429571568302,B,2568.1159000014304,Correct
11,111,172,B,61.605994102389666,53.97680301965883,3.080299705119483,0.8478656391541177,B,2081.22960000037,Correct
11,111,173,A,30.966751710637496,56.76114464502002,1.5483375855318746,0.8916019751307126,A,616.4612000011402,Correct
11,111,174,A,41.946687758585824,51.86134752496595,2.0973343879292914,0.8146361419485012,A,2324.883999999656,Correct
11,111,175,A,62.3461490601528,80.73608464531671,3.11730745300764,1.2681994520066533,B,619.5241999994323,Incorrect
11,111,176,B,74.29109605606932,41.78622933702593,3.714554802803466,0.6563765555320947,B,591.3956999993388,Correct
11,111,177,A,66.12738587263738,88.77614192791856,3.3063692936318687,1.394492376473969,B,615.6779000011738,Incorrect
11,111,178,B,42.209880059726956,31.98877848669388,2.110494002986348,0.5024785574555435,B,829.7624999995605,Correct
11,111,179,A,30.868381820804117,60.91233345112568,1.543419091040206,0.9568086964153414,A,981.7949000007502,Correct
11,111,180,A,12.75287243501721,36.23453863879008,0.6376436217508605,0.569170801969192,A,715.9017000012682,Correct
11,111,181,B,51.920175492427816,28.957616850691032,2.5960087746213905,0.45486518181799473,B,834.5386999990296,Correct
11,111,182,B,41.38411986739705,20.891087492321137,2.0692059933698523,0.3281564349568885,A,1283.6661000001186,Incorrect
11,111,183,A,49.749916833337224,68.81726475346736,2.4874958416668616,1.0809790669481842,B,573.0634999999893,Incorrect
11,111,184,A,46.602828339938014,76.43781605761171,2.330141416996901,1.2006824069152042,B,7013.375099999394,Incorrect
11,111,185,A,29.005835338891576,42.83550017736895,1.4502917669445787,0.6728584633503328,A,1661.1182000015106,Correct
11,111,186,A,61.82132892852161,78.43430537379835,3.0910664464260806,1.2320431877587166,B,638.5095999994519,Incorrect
11,111,187,A,40.10518738792182,66.35639368275567,2.005259369396091,1.0423237945622867,A,4770.670700001574,Correct
11,111,188,A,55.19996816444451,79.41756844313471,2.7599984082222253,1.2474882479345828,A,992.2184000006382,Correct
11,111,189,A,41.872499864501656,69.76314873423463,2.0936249932250828,1.095836977773818,A,696.7745999991166,Correct
11,111,190,A,40.22496594136523,64.4388299014892,2.0112482970682612,1.0122027731222039,A,1009.9026999996568,Correct
11,111,191,B,55.81994790807332,37.0730267683321,2.790997395403666,0.5823417427086494,A,3203.333500001463,Incorrect
11,111,192,A,32.97918229942969,55.68644448529232,1.6489591149714844,0.8747206244976511,A,928.0865000000631,Correct
11,111,193,B,53.04779161593435,24.445796084463254,2.6523895807967177,0.38399366695051945,B,810.2684999994381,Correct
11,111,194,B,52.887817265998684,33.91064169043777,2.6443908632999342,0.5326671140659753,B,1177.4814000000333,Correct
11,111,195,A,27.446347182890484,44.59474521116393,1.3723173591445244,0.700492619720506,A,718.436200000724,Correct
11,111,196,A,52.3023017750898,80.1555088848884,2.6151150887544903,1.259079789287584,A,781.3362000015331,Correct
11,111,197,B,66.84374242219229,40.25694929332875,3.342187121109615,0.632354680779292,B,1002.5913000008586,Correct
11,111,198,A,29.74233117952221,54.08488071216639,1.4871165589761106,0.8495633195781112,A,904.4465999995737,Correct
11,111,199,A,32.91589255412114,51.23072709336677,1.6457946277060571,0.804730379372923,A,2285.4208999997354,Correct
11,111,200,B,37.41546889707598,22.63747442134159,1.8707734448537992,0.355588616689568,B,1906.4039000004414,Correct
11,111,201,A,46.738630589833285,62.62460298225292,2.336931529491664,0.9837049633151161,A,1139.7992000001977,Correct
11,111,202,A,23.2278785934888,45.22589147740167,1.16139392967444,0.7104066420872717,A,1193.8726000007591,Correct
11,111,203,A,22.442083615068388,36.56540778102149,1.1221041807534193,0.5743680823018609,A,1652.3789999992005,Correct
11,111,204,B,74.0365713498123,49.378228090789065,3.7018285674906157,0.7756313930865204,A,818.7679999991815,Incorrect
11,111,205,B,73.06428277220954,54.50212757219133,3.653214138610477,0.85611741792905,B,1739.610900000116,Correct
11,111,206,B,64.13283004455397,48.71130426512198,3.206641502227699,0.7651553781304218,B,936.8769000011525,Correct
11,111,207,A,46.61315716887135,56.85755437214539,2.3306578584435673,0.8931163755830708,B,1234.5660999999382,Incorrect
11,111,208,B,57.54962270685661,29.254060797435777,2.8774811353428307,0.459521712444467,B,649.1877999997087,Correct
11,111,209,B,79.19871407948973,63.56375554651612,3.9599357039744865,0.9984571372975626,B,673.4777000001486,Correct
11,111,210,B,49.98537926129854,20.873193432495913,2.4992689630649267,0.32787535572243937,A,1020.2542999995785,Incorrect
11,111,211,A,37.20340809353179,47.62106266867748,1.8601704046765895,0.7480299031802816,A,885.0815999994666,Correct
11,111,212,A,42.07481488150282,51.392862686273816,2.103740744075141,0.8072771993107342,A,923.183799999606,Correct
11,111,213,B,35.211723307572385,22.83919709257539,1.7605861653786192,0.35875726899962107,A,828.8689000000886,Incorrect
11,111,214,B,64.07995463882196,38.83241141362315,3.203997731941098,0.6099780920910747,B,749.1594000002806,Correct
11,111,215,A,53.41542553187503,75.83018571002569,2.6707712765937517,1.1911377717348322,B,1541.9885999999678,Incorrect
11,111,216,A,32.45029810306021,49.482412992057434,1.6225149051530108,0.7772679256887187,B,1969.3428999999014,Incorrect
11,111,217,A,45.101296109488366,72.35711774859745,2.2550648054744182,1.1365829477696268,B,972.1129999998084,Incorrect
11,111,218,B,66.4150302809551,51.14004492976269,3.3207515140477546,0.803305947277972,B,2219.3083000001934,Correct
11,111,219,A,45.45077472028283,57.17431896542425,2.2725387360141416,0.8980921021788821,A,2211.882200001128,Correct
11,111,220,A,17.46709540938594,40.857276363606225,0.873354770469297,0.641784596347966,A,519.5170999995753,Correct
11,111,221,B,86.98175354040852,65.95462397124122,4.349087677020426,1.0360128106916435,B,845.572500000344,Correct
11,111,222,B,58.4172960649261,31.815579185986444,2.920864803246305,0.4997579492019967,B,1497.1621000004234,Correct
11,111,223,B,49.66620485642113,26.459930126230848,2.4833102428210565,0.41563161049533043,B,1003.9458999999624,Correct
11,111,224,A,64.99887567195515,85.71857439651512,3.2499437835977574,1.3464642180014104,B,541.6199999999662,Incorrect
11,111,225,A,52.07985422981285,80.85721581428446,2.6039927114906423,1.2701021759594024,A,1054.2507999998634,Correct
11,111,226,B,66.72211558877464,36.35591552055692,3.3361057794387317,0.5710773855695638,B,429.6830000002956,Correct
11,111,227,B,73.13104382532246,45.22510104989261,3.6565521912661234,0.7103942260809931,B,1776.447599999301,Correct
11,111,228,A,31.055122793362724,57.233826437766695,1.5527561396681362,0.8990268433686056,B,2127.0805000003747,Incorrect
11,111,229,B,34.829542589683726,23.767972068528714,1.7414771294841864,0.373346432206086,A,1036.637500001234,Incorrect
11,111,230,A,38.21172603681137,63.54611615321069,1.9105863018405684,0.998180058355452,B,3700.6545000003825,Incorrect
11,111,231,A,26.794631793666976,45.36418504619475,1.3397315896833488,0.7125789523860668,A,1559.9578999990626,Correct
11,111,232,B,61.12322428778858,48.84233143020848,3.0561612143894292,0.767213548026704,B,1478.9070999995602,Correct
11,111,233,B,56.695558911613084,24.932106762241435,2.834777945580654,0.39163261721387055,B,1027.6356999984273,Correct
11,111,234,B,86.86459725926527,60.25622574228885,4.3432298629632635,0.946502580625114,B,697.1408999997948,Correct
11,111,235,B,40.127342563278006,27.71152658416357,2.0063671281639004,0.43529164168283263,A,2613.0329000006896,Incorrect
11,111,236,B,49.53949572814901,28.070315049490958,2.4769747864074505,0.44092747771715907,B,544.0959000006842,Correct
11,111,237,A,31.141063202321583,52.26182915008835,1.5570531601160793,0.8209268926054124,B,1306.0707000004186,Incorrect
11,111,238,B,55.23874786294386,23.075306908665034,2.761937393147193,0.3624660733179593,B,499.4282999996358,Correct
11,111,239,A,24.71662409468378,41.03012796463632,1.235831204734189,0.644499742947753,A,1054.2604999991454,Correct
11,111,240,A,59.272405696973564,80.57948735407994,2.9636202848486786,1.265739627508046,B,781.9674999991548,Incorrect
11,111,241,B,65.74146689425936,53.568784824725356,3.287073344712968,0.8414565043354479,B,1296.1969999996654,Correct
11,111,242,A,48.22545476704246,63.56220535971729,2.411272738352123,0.9984327870202679,B,3523.254800000359,Incorrect
11,111,243,A,58.35420929545161,82.98632794158698,2.9177104647725804,1.303546191048415,B,799.9560000007477,Incorrect
11,111,244,A,52.030093577658604,81.60058740686114,2.60150467888293,1.2817790296300338,B,1126.3410999999905,Incorrect
11,111,245,A,51.77197378140876,68.48324659472459,2.5885986890704378,1.075732321979825,A,1301.2482000012824,Correct
11,111,246,B,49.497922888663446,20.976487268849446,2.4748961444331723,0.3294978915096862,B,1495.761100000891,Correct
11,111,247,A,42.58771709695792,62.19837179243717,2.129385854847896,0.9770097394418362,A,1823.2111999986955,Correct
11,111,248,B,38.21074450597801,21.528370250094337,1.9105372252989008,0.33816684910728717,B,864.6210999995674,Correct
11,111,249,B,34.878812793220455,16.60554335128075,1.7439406396610226,0.26083926500625226,B,665.4678999984753,Correct
11,111,250,A,37.83880511773304,52.854870831986105,1.891940255886652,0.8302423695610249,A,714.3520000008721,Correct
11,111,251,A,44.244293980528575,63.96682414529792,2.2122146990264286,1.0047885240416907,A,2065.798300000097,Correct
11,111,252,B,38.904164568376885,26.84106339954199,1.945208228418844,0.421618437952695,B,1589.9525999993784,Correct
11,111,253,A,67.70731761060098,84.11271693433802,3.385365880530049,1.3212394679719706,A,676.3100999996823,Correct
11,111,254,B,39.97899550150818,19.046146427851838,1.9989497750754088,0.2991761684846741,B,549.1590000001452,Correct
11,111,255,B,66.1809530183016,50.16682805740763,3.3090476509150797,0.7880186923952704,A,1371.7894000001252,Incorrect
11,111,256,A,69.73239679065269,87.58264012151577,3.486619839532634,1.375744893938763,A,1633.042800000112,Correct
11,111,257,B,72.51853248606871,54.780630959591,3.6259266243034354,0.8604921389083233,B,836.1192000011215,Correct
11,111,258,B,58.37172837515742,45.515707091143895,2.918586418757871,0.7149590551024125,B,767.7128999985143,Correct
11,111,259,B,81.64028588717814,61.899952241855914,4.082014294358907,0.972322176102868,B,708.7104999991425,Correct
11,111,260,B,89.67526438325558,66.21607090955021,4.483763219162779,1.0401196095951188,B,1253.8280999997369,Correct
11,111,261,A,41.61155576597585,58.823866329514374,2.0805777882987924,0.9240031315827518,B,1161.4356000009138,Incorrect
11,111,262,B,45.291456739606645,30.74230951685388,2.2645728369803324,0.48289906866265864,B,802.281899999798,Correct
11,111,263,A,12.491550974649723,36.40967766418214,0.6245775487324862,0.5719218793468349,B,1411.6739000000962,Incorrect
11,111,264,B,34.61590620145179,17.159459685753397,1.7307953100725897,0.26954016244166545,B,1270.4546000004484,Correct
11,111,265,B,61.75588115092912,29.016671233651238,3.087794057546456,0.455792805896345,B,727.0364000014524,Correct
11,111,266,B,64.89813668610164,34.719049804286016,3.2449068343050818,0.5453655590238154,B,583.0487999992329,Correct
11,111,267,A,51.09801528428172,62.98705028438371,2.554900764214086,0.9893982722235538,A,2350.794900001347,Correct
11,111,268,B,41.34987121942281,13.47490212697733,2.0674935609711405,0.21166326764976726,B,538.1385999990016,Correct
11,111,269,B,54.986516798097234,34.499199465656154,2.749325839904862,0.5419121579801714,B,763.5377000005974,Correct
11,111,270,B,51.90894289902758,36.02955743121968,2.595447144951379,0.5659509646900565,B,799.6612999995705,Correct
11,111,271,B,44.47996723124032,35.29909530649975,2.2239983615620162,0.5544768924663278,B,469.20959999988554,Correct
11,111,272,B,67.23501371515596,52.82630012578484,3.361750685757798,0.8297935819574761,B,2659.5583999987866,Correct
11,111,273,B,67.87501866548156,52.30731954179315,3.393750933274078,0.8216414540073558,B,633.6382999998023,Correct
11,111,274,B,48.52421727452911,31.627076360960775,2.4262108637264554,0.4967969537505889,B,661.2698000008095,Correct
11,111,275,A,50.252563734607264,70.20174274209815,2.512628186730363,1.1027263963388807,B,839.7531999999046,Incorrect
11,111,276,A,32.39954694344834,56.823144900594436,1.619977347172417,0.8925758728678789,A,534.1630000002624,Correct
11,111,277,A,63.81497551832043,80.20563510262207,3.190748775916022,1.2598671700745057,A,630.9875999995711,Correct
11,111,278,B,61.52925000660652,34.79881417544955,3.076462500330326,0.5466184948361433,B,749.0777000002709,Correct
11,111,279,A,44.7981695203002,67.3164001364286,2.23990847601501,1.0574035406735751,A,977.7764000009483,Correct
11,111,280,B,71.23159505398311,41.49833576336169,3.561579752699156,0.6518543338518983,B,541.3720999986253,Correct
11,111,281,B,63.0180207414307,48.634864825607295,3.150901037071535,0.7639546702223026,B,693.1165000005421,Correct
11,111,282,A,59.97986644644993,86.13427274011761,2.9989933223224967,1.3529939923132654,A,787.4879999999393,Correct
11,111,283,B,39.479019396166976,13.092585698116945,1.9739509698083486,0.20565785522849495,B,896.4825999992172,Correct
11,111,284,A,22.629712453509253,40.35642069581999,1.1314856226754626,0.6339171739158359,B,1018.0954999996175,Incorrect
11,111,285,A,33.890513563794684,62.43193121812538,1.6945256781897342,0.9806784823214297,A,884.9016999993182,Correct
11,111,286,A,21.980857570374713,36.99087549245641,1.0990428785187356,0.5810513134847789,A,910.3205000010348,Correct
11,111,287,B,51.11508320321724,22.359077505322972,2.5557541601608618,0.3512155681588372,B,1593.3784000008018,Correct
11,111,288,A,36.96873400874554,61.244543520691145,1.848436700437277,0.9620270399853185,A,2027.2976999985985,Correct
11,111,289,A,31.615079670305647,52.169462904299934,1.5807539835152824,0.8194760070093695,A,522.7675000005547,Correct
11,111,290,A,36.957791049633244,61.462492222779204,1.847889552481662,0.9654505701920146,A,1453.5845999998855,Correct
11,111,291,B,46.41304739062467,24.607147640844012,2.3206523695312335,0.3865281712713748,B,674.8328000012407,Correct
11,111,292,A,57.8871821275478,78.25342981366482,2.89435910637739,1.2292020011040694,B,593.2098000012047,Incorrect
11,111,293,A,32.276467224448886,59.207566612499555,1.6138233612224442,0.9300302815337845,A,1233.755100000053,Correct
11,111,294,A,19.714068136385677,35.339269850074196,0.9857034068192838,0.5551079527211018,A,805.6412999994791,Correct
11,111,295,A,64.33081255163646,76.97855126665583,3.2165406275818227,1.209176255716556,B,702.2588999989239,Incorrect
11,111,296,A,54.535929051786525,61.69173226559793,2.7267964525893262,0.9690514643641543,A,4213.707200000499,Correct
11,111,297,B,50.853514062811605,38.23823519395854,2.54267570314058,0.6006447938578942,A,1717.1684000004461,Incorrect
11,111,298,B,43.151314618239994,31.865592129021238,2.1575657309119998,0.5005435506741093,B,655.3808999997273,Correct
11,111,299,B,53.30664225963965,33.704438820460766,2.6653321129819822,0.529428086958631,B,717.1756999996433,Correct
11,111,300,A,42.24457321948541,70.69772875246183,2.1122286609742704,1.11051732637109,A,3353.6378999997396,Correct
11,111,301,B,40.301072056676816,28.645291945602438,2.0150536028338406,0.4499591936811974,B,1105.92700000052,Correct
11,111,302,B,62.85278794963684,41.61568042858695,3.142639397481842,0.6536975795429464,B,1346.4892000010877,Correct
11,111,303,B,58.342324774465126,50.40015001824684,2.9171162387232563,0.7916837051857387,B,1287.4879999999393,Correct
11,111,304,A,39.620515346580525,62.183045529688776,1.9810257673290264,0.9767689950695494,A,1858.8294000001042,Correct
11,111,305,A,20.652693321938248,46.986337629767654,1.0326346660969123,0.7380596655838387,A,574.9971000004734,Correct
11,111,306,A,62.498812895629,78.5985210294509,3.12494064478145,1.234622681245729,B,1338.047600000209,Incorrect
11,111,307,A,58.43472570734702,83.70067069872745,2.921736285367351,1.314767060838303,A,480.6760999999824,Correct
11,111,308,B,47.4485836552052,30.699833585401734,2.3724291827602597,0.48223185829163645,B,660.5622000006406,Correct
11,111,309,A,23.578999300211954,36.84906513408845,1.178949965010598,0.5788237615845203,B,1633.273100000224,Incorrect
11,111,310,A,30.086918373076124,46.973467607969816,1.5043459186538062,0.7378575037541805,A,788.0277000003844,Correct
11,111,311,B,58.218128266824934,48.04552984351413,2.9109064133412463,0.7546974179710658,B,749.402999999802,Correct
11,111,312,B,59.77079940908977,39.64528852176045,2.9885399704544886,0.6227467358470519,B,3023.679699999775,Correct
11,111,313,B,65.25221455894119,32.417405511918886,3.2626107279470595,0.5092114150234283,B,802.1897999988141,Correct
11,111,314,B,74.98473046156077,43.596768231484226,3.749236523078039,0.6848164339814387,B,426.7554999987624,Correct
11,111,315,B,33.518712984345186,18.791016832644495,1.6759356492172595,0.29516860217459046,A,1196.4146999998775,Incorrect
11,111,316,B,67.9686137265033,54.41332408657236,3.398430686325165,0.8547224960388813,A,1264.0198999997665,Incorrect
11,111,317,B,84.88051061250769,64.50547132225574,4.244025530625384,1.0132495741117287,B,545.9810000011203,Correct
11,111,318,A,20.966397545848913,51.1127489299773,1.0483198772924456,0.8028771827159812,B,1037.2884000007616,Incorrect
11,111,319,A,48.48267525539839,71.22915935055835,2.4241337627699195,1.1188650186854543,A,1077.0690000008472,Correct
11,111,320,B,48.02828253720622,34.96802686164443,2.401414126860311,0.5492764814953635,B,909.3198999999004,Correct
11,111,321,B,56.78344473606051,36.323109083407815,2.839172236803025,0.5705620632598735,B,559.3065000011848,Correct
11,111,322,A,17.547137197908032,47.08908610530047,0.8773568598954016,0.7396736348633458,A,866.6219000006095,Correct
11,111,323,B,62.2988157969397,49.12279071467999,3.114940789846985,0.7716189921653378,B,566.4665999993304,Correct
11,111,324,A,32.48142711416865,41.012020935333005,1.6240713557084325,0.6442153183965648,B,1205.1642000005813,Incorrect
11,111,325,A,22.964431120908056,46.830544010679056,1.1482215560454028,0.735612465137814,A,664.4758000002184,Correct
11,111,326,A,57.03417923566781,71.62324895428598,2.85170896178339,1.1250553637050884,B,493.449800000235,Incorrect
11,111,327,B,63.062565297959544,55.61085017420098,3.153128264897977,0.8735331918357624,B,1034.1356999997515,Correct
11,111,328,A,66.560176548839,83.94701738341664,3.3280088274419497,1.3186366655125816,B,673.5912999993161,Incorrect
11,111,329,A,32.39797103189422,55.18111980703631,1.6198985515947113,0.8667830030132175,A,1561.9071000000986,Correct
11,111,330,B,49.33063963506629,19.623931718812212,2.4665319817533145,0.3082519986118408,B,1277.7879999994184,Correct
11,111,331,B,31.70652092551847,11.122572088658082,1.5853260462759236,0.17471295381375554,A,4675.8910000007745,Incorrect
11,111,332,A,22.30840793426227,46.45120946304291,1.1154203967131135,0.7296538919972815,A,687.7872000004572,Correct
11,111,333,A,34.09650221483365,60.62735186395602,1.7048251107416825,0.9523322161120384,A,1062.160200001017,Correct
11,111,334,B,62.85543410274297,38.69625781875486,3.1427717051371484,0.6078393964240844,B,929.7800999993342,Correct
11,111,335,B,38.717810824622866,23.82780970961369,1.9358905412311431,0.37428635967428947,A,1085.360099999889,Incorrect
11,111,336,A,41.23898414802554,53.767424222819855,2.061949207401277,0.8445767247042838,B,2092.8235999999742,Incorrect
11,111,337,A,35.84231360281397,52.50737942059735,1.7921156801406983,0.8247839872350028,A,1095.6032000012783,Correct
11,111,338,A,35.30690053228687,66.28433237094463,1.7653450266143436,1.0411918581233186,A,1307.7737999992678,Correct
11,111,339,A,25.19967026073511,43.335207344104965,1.2599835130367554,0.6807078451701531,A,668.6222000007547,Correct
11,111,340,A,10.99918341626022,34.08532813021044,0.549959170813011,0.5354110822453332,A,654.2621999997209,Correct
11,111,341,A,42.94673702865323,69.26208810659448,2.1473368514326614,1.087966335839831,B,1911.6899000000558,Incorrect
11,111,342,A,41.59915437876249,55.95674626096292,2.0799577189381244,0.8789665148611462,A,3137.10170000013,Correct
11,111,343,B,50.509510226269455,25.511665225134553,2.525475511313473,0.40073630026062457,A,876.4432999996643,Incorrect
11,111,344,A,50.240041860303144,70.92556440194387,2.512002093015157,1.1140961603842832,B,1394.249700000728,Incorrect
11,111,345,A,35.562451962727245,66.76009889228689,1.7781225981363622,1.0486651811646828,A,1115.378000000419,Correct
11,111,346,B,63.36567306736187,46.6453966341311,3.168283653368093,0.7327041769478417,B,1141.315200000463,Correct
11,111,347,B,66.15019137068134,57.18629775722063,3.307509568534067,0.898280264600414,B,838.168799999039,Correct
11,111,348,A,22.84472211734225,40.63299438771326,1.1422361058671127,0.6382615833089763,A,1267.9822999998578,Correct
11,111,349,A,38.316065351743816,59.19481994251228,1.9158032675871908,0.9298300573098359,A,2855.016200001046,Correct
11,111,350,A,37.8861707175369,68.13871508594562,1.894308535876845,1.0703204336952739,A,936.1677999986568,Correct
11,111,351,B,67.26757200690287,54.48308834788445,3.3633786003451434,0.8558183504929872,B,1197.4467999989429,Correct
11,111,352,B,68.84301451532707,49.7147227881274,3.4421507257663535,0.7809170394321706,B,817.3041999998532,Correct
11,111,353,B,43.79184482358073,31.168554915797372,2.1895922411790365,0.48959451573239526,B,1026.679200000217,Correct
11,111,354,A,69.73040578824646,86.00762623255879,3.486520289412323,1.3510046336245172,B,4158.852700000352,Incorrect
11,111,355,B,36.83359261443783,16.641773051500966,1.8416796307218917,0.2614083598065201,B,1169.0923000005569,Correct
11,111,356,A,34.15621760331844,44.18553126562118,1.707810880165922,0.6940647020951881,B,1326.900800000658,Incorrect
11,111,357,B,41.60624000279885,16.576390654706607,2.0803120001399424,0.26038133551930387,B,846.3768000001437,Correct
11,111,358,A,63.05682583163749,86.32465308783681,3.1528412915818746,1.3559844798221778,A,1486.6867999990063,Correct
11,111,359,A,37.59078887460363,46.54902052772679,1.8795394437301816,0.7311903046085348,B,1522.8561999992962,Incorrect
11,111,360,B,43.67986728272797,28.51371565295406,2.1839933641363984,0.44789239810934384,B,839.8096000000805,Correct
11,111,361,B,71.47531016041708,43.35864588692937,3.5737655080208537,0.681076016939893,B,1857.5015000005806,Correct
11,111,362,A,48.57078743130699,66.13711693022051,2.4285393715653494,1.0388794033879496,A,2494.75110000094,Correct
11,111,363,A,41.76057821457585,55.21211737129259,2.0880289107287924,0.8672699116139511,A,1514.3719999996392,Correct
11,111,364,B,37.664730769433376,18.433231555745056,1.883236538471669,0.2895485241872411,B,1015.101400000276,Correct
11,111,365,A,55.16467630580983,76.46303809982567,2.7582338152904913,1.2010785938278437,A,1227.2551999994903,Correct
11,111,366,A,22.346545309030365,39.357909062403124,1.1173272654515183,0.6182325898555039,A,2515.5394000012166,Correct
11,111,367,A,47.62996215925658,69.98860353417525,2.381498107962829,1.099378413489868,A,865.1018000000477,Correct
11,111,368,B,44.27300016396092,19.30143187803138,2.213650008198046,0.3031861829589361,B,569.0790000007837,Correct
11,111,369,B,49.05818215899684,39.01124785845675,2.452909107949842,0.6127872483974913,B,3991.7263999996067,Correct
11,111,370,A,40.642361548674614,64.93754970717676,2.0321180774337306,1.0200366455109426,A,2277.829999999085,Correct
11,111,371,A,27.47725696117402,56.86346179436617,1.373862848058701,0.8932091691543231,A,1011.3987000004272,Correct
11,111,372,B,83.88255573344013,69.29862269677803,4.194127786672007,1.088540219840444,B,1632.0938999997452,Correct
11,111,373,A,50.108428325996954,59.234466857714466,2.5054214162998476,0.9304528295975192,A,2769.505799999024,Correct
11,111,374,A,34.12660759440854,63.11070850602205,1.706330379720427,0.9913406910268286,A,888.1149999997433,Correct
11,111,375,A,32.511989236887224,48.988230212232295,1.6255994618443612,0.7695053207355727,A,1338.3537999998225,Correct
11,111,376,A,67.13697272843896,82.45060576323411,3.3568486364219483,1.2951310867490227,A,1251.4891999999236,Correct
11,111,377,A,30.20652521322993,62.83353406149335,1.5103262606614964,0.9869868450333578,A,1555.4919999995036,Correct
11,111,378,A,12.14387046220659,31.370522813915894,0.6071935231103295,0.4927670200573459,A,759.1170999985479,Correct
11,111,379,B,61.97509201331353,28.876333915198483,3.0987546006656768,0.45358839245296667,B,1362.9973999995855,Correct
11,111,380,A,51.15348203136463,66.27835026968314,2.5576741015682316,1.0410978914964382,B,1639.729200000147,Incorrect
11,111,381,B,81.82267728024632,60.985686577387696,4.091133864012317,0.9579609246282542,B,904.8364000009315,Correct
11,111,382,A,29.69293361827299,57.197652818938465,1.4846466809136496,0.8984586294927829,A,1002.237900000182,Correct
11,111,383,A,21.696565805695545,33.381766617734726,1.0848282902847772,0.524359563850622,A,2825.965500000166,Correct
11,111,384,B,53.151550420516486,24.819232932411516,2.6575775210258246,0.3898595992409894,B,2107.9278999986855,Correct
11,111,385,B,44.74034297912705,20.582835019821065,2.2370171489563524,0.3233144164416029,B,1062.9664999996749,Correct
11,111,386,B,80.44946173412414,61.1985334071017,4.022473086706207,0.9613043148111011,B,1215.8216999996512,Correct
11,111,387,B,35.33165189294074,12.622635882710842,1.7665825946470368,0.19827590079031646,B,1003.7137999988772,Correct
11,111,388,A,24.675258787420944,53.59415274826844,1.2337629393710472,0.8418549827466468,A,845.6683000003977,Correct
11,111,389,A,61.252501368409256,72.82681977845363,3.062625068420463,1.1439610100014885,A,880.724899998313,Correct
11,111,390,B,75.81889214175614,45.19260284347822,3.790944607087807,0.7098837454483619,B,944.730500001242,Correct
11,111,391,B,60.83449004680398,29.375163892084217,3.041724502340199,0.4614239954068396,B,983.6375999984739,Correct
11,111,392,B,47.65527720940845,26.278343937187472,2.3827638604704227,0.41277926130787024,B,903.9506999997684,Correct
11,111,393,A,56.88266595710223,83.76260466970122,2.8441332978551115,1.315739917379397,A,567.4271000007138,Correct
11,111,394,A,68.49381617877081,84.72990587003605,3.424690808938541,1.3309342491032996,A,468.4101999991981,Correct
11,111,395,B,58.56664284130145,28.900471437593616,2.9283321420650723,0.4539675437681287,B,763.3103000007395,Correct
11,111,396,A,42.08928139867586,50.68819786559103,2.104464069933793,0.7962083501912329,B,1319.9858000007225,Incorrect
11,111,397,A,23.125033598574174,49.026472664050836,1.1562516799287088,0.7701060317640146,A,469.25519999967946,Correct
11,111,398,A,20.695163073860606,49.846274728482086,1.0347581536930304,0.7829834524790894,A,565.261300000202,Correct
11,111,399,A,17.623845276778916,37.80068772443155,0.8811922638389459,0.5937718142785802,A,564.7893999994267,Correct
11,111,400,B,64.45354517549508,35.219847870903294,3.222677258774754,0.5532320766588994,B,828.4725000012259,Correct
11,111,401,A,62.926032220201726,87.86726678793278,3.1463016110100863,1.3802157991599202,A,1661.8964000008418,Correct
11,111,402,A,62.60641451231519,74.8275317869464,3.1303207256157592,1.1753881207406376,A,561.7818999999145,Correct
11,111,403,A,27.539411211099207,47.831995855247584,1.3769705605549603,0.7513432339269163,B,759.0319000009913,Incorrect
11,111,404,A,57.60341400337273,69.01517889244654,2.880170700168636,1.084087894973477,A,1973.6696999989363,Correct
11,111,405,B,58.412305752294266,39.527339737705894,2.920615287614713,0.6208940006796236,B,1301.7056999997294,Correct
11,111,406,A,66.1716047716817,88.05290739664531,3.308580238584085,1.3831318350226163,A,4444.911700000375,Correct
11,111,407,B,51.58471859297324,31.670805141765257,2.579235929648662,0.49748384383321786,B,633.877799999027,Correct
11,111,408,A,24.04010311249602,42.31317678772007,1.2020051556248008,0.6646538267317376,B,736.2506999998004,Incorrect
11,111,409,B,67.9571331842298,35.116603061874066,3.3978566592114903,0.551610310991062,B,955.3338999994594,Correct
11,111,410,A,55.14715248052793,70.48571602971532,2.757357624026396,1.1071870383098499,A,1074.2652000008093,Correct
11,111,411,A,56.18018348431371,69.28585802414855,2.809009174215685,1.0883397128316525,A,796.735500000068,Correct
11,111,412,A,55.93983341842271,69.73956091236171,2.7969916709211358,1.0954664611342673,A,2687.7832999998645,Correct
11,111,413,B,51.615785486222656,37.240193079656365,2.580789274311133,0.5849675849865695,B,851.1338000007527,Correct
11,111,414,B,81.82411304160928,60.39223674607993,4.091205652080464,0.9486390364767013,B,621.6118000011193,Correct
11,111,415,B,76.38632469063947,51.644922242702904,3.8193162345319736,0.8112365415644577,B,551.0354000016378,Correct
11,111,416,A,34.76779603066264,56.39231395470517,1.7383898015331318,0.8858083961951547,A,3109.641199998805,Correct
11,111,417,B,63.751301406599055,32.9500125661465,3.1875650703299527,0.517577587067486,B,668.011400000978,Correct
11,111,418,B,62.11368805580569,30.913667291745604,3.1056844027902843,0.4855907502963353,B,667.2355999999127,Correct
11,111,419,A,41.017511166123406,66.20808397691292,2.05087555830617,1.0399941511506285,A,1287.669499999538,Correct
11,111,420,A,16.951910523319047,46.64841669498777,0.8475955261659522,0.7327516159528452,A,514.7264999995969,Correct
11,111,421,A,30.302420470730922,49.71071360670168,1.515121023536546,0.7808540633576009,A,930.1481000002241,Correct
11,111,422,A,36.11671966538418,62.78437423385053,1.805835983269209,0.9862146442664854,A,679.1496000005282,Correct
11,111,423,B,67.78796223253362,57.0248272478563,3.389398111626681,0.895743891770462,B,1851.0471999998117,Correct
11,111,424,B,56.597980466841896,30.665098788625272,2.829899023342095,0.4816862453797521,B,813.3147999997163,Correct
11,111,425,B,39.47940009111912,27.946570182008934,1.9739700045559558,0.43898369788415414,A,1369.7001000000455,Incorrect
11,111,426,A,46.58113079547378,59.80481819506411,2.329056539773689,0.9394118874544329,B,416.063499998927,Incorrect
11,111,427,A,42.850569314317895,74.69475096390347,2.1425284657158947,1.1733024044495914,A,721.4273999998113,Correct
11,111,428,B,64.40865720683308,47.37515087067331,3.220432860341654,0.7441671296900766,B,900.7722000005742,Correct
11,111,429,A,48.00988827969949,62.4414304024619,2.4004944139849744,0.9808276951600634,A,1153.7815000010596,Correct
11,111,430,A,32.08449277876082,42.67477130278059,1.604224638938041,0.6703337400922001,A,1254.764299999806,Correct
11,111,431,B,77.60881124444907,45.82673304588798,3.880440562222453,0.7198446393749115,B,753.545400000803,Correct
11,111,432,A,43.94805525449752,56.09527904092461,2.197402762724876,0.8811425826801913,A,2451.208399999814,Correct
11,111,433,A,36.972938042228115,53.66498141876459,1.8486469021114058,0.8429675569011179,A,1215.6476000000112,Correct
11,111,434,B,54.553443439991845,45.216971742678126,2.7276721719995924,0.7102665312218743,B,5191.968600000109,Correct
11,111,435,A,27.053216883241532,58.732005825165594,1.3526608441620767,0.9225601901546658,A,2634.190499999022,Correct
11,111,436,B,40.56414110841389,32.024601917873625,2.0282070554206943,0.5030412705966468,B,873.9520999988599,Correct
11,111,437,A,64.75919224807717,82.68035780816328,3.2379596124038583,1.2987400234315063,B,2208.8806000010663,Incorrect
11,111,438,A,52.91088548469513,63.16721471864785,2.645544274234757,0.9922282885391656,B,1085.5648999986443,Incorrect
11,111,439,A,61.694384452441014,70.94142021012324,3.0847192226220503,1.1143452228367485,A,977.4641999993037,Correct
11,111,440,B,40.472539974916614,14.3107081297968,2.023626998745831,0.22479207764118678,B,721.7660999995132,Correct
11,111,441,B,49.74363073344823,20.578500793505732,2.4871815366724115,0.32324633457384666,B,597.3584999992454,Correct
11,111,442,A,26.37108070814741,41.673124852991805,1.3185540354073706,0.6545999144514465,A,932.8279999990627,Correct
11,111,443,B,42.911327079865075,31.8797750937507,2.145566353993254,0.5007663361631103,B,753.2208000011451,Correct
11,111,444,A,62.90075690434007,84.55472021781667,3.145037845217004,1.3281824393131658,A,986.6469999997207,Correct
11,111,445,A,19.68383368564324,34.96057753817398,0.984191684282162,0.5491594677959185,A,1064.2016999991029,Correct
11,111,446,B,62.48192280854244,52.50412282486568,3.124096140427122,0.824732832748871,B,2318.2756999995036,Correct
11,111,447,A,57.819829221362305,86.22327310532216,2.8909914610681153,1.3543920067807325,A,829.1948999994929,Correct
11,111,448,B,56.40186664608014,47.86868702013884,2.8200933323040065,0.7519195773972863,B,807.7108999987104,Correct
11,111,449,A,59.303939253866766,77.73784796853906,2.9651969626933385,1.2211032604192127,A,1131.5875000000233,Correct
11,111,450,A,40.8692470341859,60.60756896992416,2.043462351709295,0.9520214671392522,A,3080.5749999999534,Correct
11,111,451,B,53.75672804438328,26.011901454363613,2.687836402219164,0.4085939925746519,B,786.4843000006658,Correct
11,111,452,B,76.2152498365874,58.822414944391035,3.8107624918293705,0.9239803332785468,B,2360.891000000265,Correct
11,111,453,B,89.00685254871838,68.58298835566761,4.450342627435919,1.0772990618969982,B,675.1094999999623,Correct
11,111,454,B,58.66654760743726,47.97301235684321,2.9333273803718627,0.753558315954155,B,1124.7766999986197,Correct
11,111,455,A,34.92577155647178,60.74712868090548,1.7462885778235888,0.9542136659530324,A,4629.091200000403,Correct
11,111,456,B,82.29241757342558,64.91337403644663,4.114620878671279,1.0196568949631355,B,2319.862899999862,Correct
11,111,457,A,31.136008611692247,48.17621504224374,1.5568004305846126,0.7567502162723753,A,1156.8478000008326,Correct
11,111,458,B,39.356357543413026,27.03702417510486,1.9678178771706514,0.4246965826171954,B,636.0703999998805,Correct
11,111,459,B,69.17728208428062,43.556809319592965,3.458864104214031,0.6841887608612234,B,846.2519000004249,Correct
11,111,460,A,35.65652273234349,53.39980194658167,1.7828261366171745,0.8388021274926546,A,1519.6708000003127,Correct
11,111,461,B,77.43945732282175,47.81295382609851,3.8719728661410873,0.7510441224324953,B,737.086700000873,Correct
11,111,462,A,41.483558679247025,48.601679616145915,2.0741779339623516,0.763433398171044,A,1303.451200001291,Correct
11,111,463,B,48.07456270678089,33.498594679283684,2.4037281353390445,0.5261946947500988,A,2588.7091000004148,Incorrect
11,111,464,B,43.29854412329783,35.23311185424777,2.1649272061648914,0.5534404268220612,B,752.3192999997264,Correct
11,111,465,B,55.96090525015788,43.698538065615324,2.798045262507894,0.6864150307977551,B,1272.039199999199,Correct
11,111,466,B,70.99877529509357,56.86047182227911,3.549938764754678,0.8931622027826075,B,570.5879999986792,Correct
11,111,467,A,31.87452169888252,57.433215791844255,1.5937260849441262,0.902158844018476,A,1087.2787999996945,Correct
11,111,468,B,53.02582749116709,22.98778502110719,2.6512913745583546,0.3610912827230592,B,739.9806000012177,Correct
11,111,469,A,31.16537514393285,41.71621172743738,1.5582687571966425,0.6552767214925683,A,1474.639500000194,Correct
11,111,470,A,25.41622330044246,53.86489727728897,1.270811165022123,0.8461078278634993,A,854.2334000012488,Correct
11,111,471,B,85.94663849300866,68.17644633749002,4.297331924650433,1.070913114808587,B,565.1452000001882,Correct
11,111,472,B,60.259875728199845,37.60932821788896,3.0129937864099925,0.5907659461788364,B,741.1549000007653,Correct
11,111,473,B,79.0159040230415,49.95911572751583,3.9507952011520753,0.78475595474703,B,491.7951000006724,Correct
11,111,474,B,69.61583432021081,45.857958500243605,3.4807917160105406,0.7203351276649546,B,495.6789999996545,Correct
11,111,475,A,66.02357366647311,87.25422460152683,3.3011786833236556,1.3705861550141523,A,4248.514400000204,Correct
11,111,476,B,59.9212069817127,47.976483956793714,2.996060349085635,0.7536128477186586,B,730.740799999694,Correct
11,111,477,A,37.460769991294484,46.78259224456706,1.8730384995647242,0.7348592405570936,A,689.9578000011388,Correct
11,111,478,A,40.80040036572721,53.76541266301324,2.04002001828636,0.84454512719673,A,825.9957999998733,Correct
11,111,479,A,22.983812476549858,46.73727198568588,1.149190623827493,0.734147351595294,A,716.210399999909,Correct
11,111,480,B,73.17649038817979,63.00492622069223,3.6588245194089892,0.989679066774468,B,1181.297999999515,Correct
11,111,481,A,37.449296441642346,65.18590685437134,1.8724648220821172,1.0239378304564077,A,881.1974999989616,Correct
11,111,482,A,17.541431461254128,39.69907623975132,0.8770715730627063,0.6235916313455193,A,499.1035000002739,Correct
11,111,483,A,52.994886615911696,69.18077930314848,2.649744330795585,1.0866891401419403,B,591.5712999994867,Incorrect
11,111,484,A,44.73569060245633,55.54379365107596,2.2367845301228164,0.8724798704336381,A,855.5835999995907,Correct
11,111,485,A,66.00649588776538,88.529198285851,3.3003247943882688,1.390613394815118,A,668.5675999997329,Correct
11,111,486,A,38.48986184645864,66.83309358761427,1.924493092322932,1.0498117791576402,A,2121.8305000002147,Correct
11,111,487,A,29.385472189120883,54.4430066007793,1.4692736094560441,0.8551887478817443,A,586.6819000002579,Correct
11,111,488,B,58.7053675553754,29.620168002098076,2.9352683777687703,0.4652725109674339,B,1262.8342999996676,Correct
11,111,489,A,32.84827440625943,57.944736649405506,1.6424137203129714,0.9101937948598378,A,1179.5561999988422,Correct
11,111,490,A,62.64070111190317,86.98465210414426,3.132035055595159,1.3663517201272177,A,1010.73180000094,Correct
11,111,491,B,74.1127000239357,56.23469749081799,3.705635001196785,0.8833325625699909,B,2418.755400000009,Correct
11,111,492,A,14.567194956778906,34.528117431965924,0.7283597478389453,0.5423664003327491,A,798.9136999985931,Correct
11,111,493,B,52.0905593001368,29.71843951001953,2.6045279650068403,0.46681615620415007,B,468.1682999998884,Correct
11,111,494,B,72.7679927649762,46.2070055493162,3.63839963824881,0.7258179458905729,B,1261.8409000006068,Correct
11,111,495,B,48.92169553462223,37.80034343081522,2.446084776731112,0.5937664061271014,B,690.5752000002394,Correct
11,111,496,A,27.968702950608446,39.09993626149016,1.3984351475304222,0.6141803625746332,A,1541.6220999995858,Correct
11,111,497,A,42.79352644986684,73.94380377914703,2.139676322493342,1.1615065536552676,A,461.6458000000421,Correct
11,111,498,B,65.67821814622724,40.42913359810984,3.2839109073113617,0.6350593455141107,B,724.2825999983324,Correct
11,111,499,B,58.02032230197428,47.31316676572449,2.9010161150987144,0.7431934856463441,A,1312.9869000003964,Incorrect
11,111,500,A,69.40471201139005,84.37062633821321,3.4702356005695028,1.3252906994145006,A,554.938500001299,Correct
11,111,501,B,70.78965075300269,46.7467028149764,3.539482537650134,0.7342954907153758,B,776.1797000002844,Correct
11,111,502,B,47.899141531794484,23.535955240809784,2.3949570765897246,0.36970192039873107,B,752.9868000001443,Correct
11,111,503,A,63.070492775522155,73.41766562732664,3.1535246387761076,1.1532419948926065,B,1905.3259000011167,Incorrect
11,111,504,A,24.863084876489978,35.126557555669045,1.243154243824499,0.5517666758139446,A,500.9243999993487,Correct
11,111,505,B,53.18173145749845,27.376023715694934,2.6590865728749224,0.43002157494863574,B,735.4376999992382,Correct
11,111,506,B,42.28334855828773,20.318245646935743,2.1141674279143867,0.3191582562912306,B,900.1849999986007,Correct
11,111,507,B,71.95762668394558,52.283090060807226,3.597881334197279,0.8212608582100275,B,1537.9689000001235,Correct
11,111,508,A,61.51772905879537,71.79695898404779,3.075886452939768,1.127783994471861,A,1369.7149999989051,Correct
11,111,509,A,48.244766611730405,71.36741975510961,2.4122383305865203,1.1210368080415571,A,673.9799999995739,Correct
11,111,510,B,63.26503733687632,38.21300420884348,3.163251866843816,0.6002484664704926,B,842.2862999996141,Correct
11,111,511,B,59.62061155814247,52.61127600059911,2.9810305779071236,0.826415990897336,B,3213.8919000008173,Correct
11,111,512,A,55.512313400882306,76.04592261233012,2.7756156700441155,1.1945265590717713,A,693.0867000010039,Correct
11,111,513,B,71.62718549047436,57.322626874336265,3.581359274523718,0.9004217173644183,B,956.2927999995736,Correct
11,111,514,B,73.39530304833286,45.40166504270594,3.669765152416643,0.7131676867945476,B,2140.850400001,Correct
11,111,515,B,59.45633289175866,45.096867606975394,2.972816644587933,0.708379939869927,B,958.8031999992381,Correct
11,111,516,A,20.605440118139537,36.057387114282335,1.030272005906977,0.5663881123293634,A,654.2702000006102,Correct
11,111,517,A,44.83153453579998,69.99818725468668,2.241576726789999,1.0995289542196318,B,758.8611000010133,Incorrect
11,111,518,A,58.25717758867344,67.27196781471187,2.9128588794336725,1.0567055993961392,A,909.7505999998248,Correct
11,111,519,A,42.45034879756928,59.43324113923365,2.122517439878464,0.9335751687102356,A,1944.8038000009547,Correct
11,111,520,A,42.46215793013839,65.81515719287154,2.1231078965069194,1.0338220716599134,A,563.8935000006313,Correct
11,111,521,A,45.28960396798036,62.314102707688924,2.264480198399018,0.9788276364075769,A,545.933999999761,Correct
11,111,522,B,53.146209681597334,42.69064606556126,2.6573104840798667,0.6705831002828463,B,892.728700000589,Correct
11,111,523,B,71.94294290043578,56.549568182780945,3.5971471450217893,0.8882785398334987,B,762.8218999998353,Correct
11,111,524,A,58.42079718928048,70.65505409973579,2.9210398594640243,1.1098469944935967,A,1189.0294999993785,Correct
11,111,525,A,44.76556991254363,56.595448413399055,2.2382784956271817,0.888999224810773,A,2899.3891999998596,Correct
11,111,526,B,75.91544073874957,44.767858362842645,3.7957720369374783,0.7032118747482742,B,796.2208999997529,Correct
11,111,527,A,39.16057600604862,66.17512313016753,1.958028800302431,1.0394764033806716,A,868.561100000079,Correct
11,111,528,A,29.497537762240064,57.02504595571473,1.4748768881120031,0.8957473272254688,A,1029.983499998707,Correct
11,111,529,A,35.889708793196604,46.80194909519279,1.7944854396598302,0.7351632972557056,A,1199.3562999996357,Correct
11,111,530,B,69.58003000312917,55.06105367392043,3.4790015001564587,0.8648970086045086,B,5034.156599998823,Correct
11,111,531,B,60.376568631765814,41.97225351184061,3.018828431588291,0.6592986164370344,B,1056.2518000006094,Correct
11,111,532,A,20.953346419252313,41.144134754996195,1.0476673209626157,0.6462905574230227,B,1002.4835999993229,Incorrect
11,111,533,B,71.72457992211535,50.07401759986045,3.586228996105768,0.7865608291372379,B,775.7151999994676,Correct
11,111,534,A,22.278579174354764,48.61559192729413,1.1139289587177381,0.7636519322435323,A,487.1918999997433,Correct
11,111,535,B,52.25817522187351,23.623443890328655,2.6129087610936756,0.37107618889173594,B,738.2443000005878,Correct
11,111,536,A,51.922264883958945,80.60722138164516,2.5961132441979475,1.2661752725943127,A,798.6555999996199,Correct
11,111,537,B,77.08836083289282,65.50753464160813,3.854418041644641,1.0289899479242748,B,2354.2600000000675,Correct
11,111,538,A,32.26782992464828,62.27306806452777,1.613391496232414,0.978183065740088,A,867.982399999164,Correct
11,111,539,B,74.04530408788953,43.05846808611437,3.7022652043944766,0.6763608350708373,B,950.4299999989598,Correct
11,111,540,A,54.330920081845335,83.82939648174903,2.7165460040922667,1.316789080709644,A,632.6678000004904,Correct
11,111,541,A,60.955823128084305,71.05215702076563,3.0477911564042155,1.1160846725907287,A,849.5350000011967,Correct
11,111,542,B,44.860909778304894,25.923602785340186,2.2430454889152447,0.40720700032502316,B,646.5093999995588,Correct
11,111,543,B,78.17368820814377,57.69088382517255,3.9086844104071883,0.9062062840213215,A,2149.411599999439,Incorrect
11,111,544,A,49.53462558086714,57.225363563675415,2.4767312790433573,0.8988939088532386,A,829.7273000007408,Correct
11,111,545,B,35.00124318423737,12.144182860705165,1.7500621592118681,0.1907603782952121,B,589.7552999995241,Correct
11,111,546,B,62.74094956383901,50.540942755616626,3.137047478191951,0.7938952723327373,B,1142.02590000059,Correct
11,111,547,A,62.344632164388095,82.96746427204029,3.117231608219405,1.303249881220077,A,877.4954999989859,Correct
11,111,548,B,31.60524703569741,10.73946249970161,1.5802623517848704,0.16869508246282827,B,749.5130999996036,Correct
11,111,549,B,58.48120611832366,36.28099305073134,2.9240603059161834,0.5699005061655995,B,1746.5013000000909,Correct
