subject,day,trial,cat,x,y,xt,yt,resp,rt,fb
15,515,0,B,57.529066590043655,46.915745916394,2.876453329502183,0.7369508135431436,A,1052.410000000009,Incorrect
15,515,1,B,40.63205286989699,26.76114140493646,2.0316026434948493,0.42036302619713006,A,629.551999999876,Incorrect
15,515,2,B,45.77239267087028,24.055103109559422,2.2886196335435143,0.3778566760516843,B,1256.900400000177,Correct
15,515,3,B,69.628465393608,44.19859221931737,3.4814232696803997,0.6942698630760922,B,533.0684000000474,Correct
15,515,4,B,72.31442697415203,52.55257434432247,3.615721348707601,0.8254939074367745,B,594.8945999998614,Correct
15,515,5,A,34.11425043063683,59.860364781385655,1.7057125215318416,0.940284411192032,A,498.62610000013774,Correct
15,515,6,B,52.677615833203504,24.264362201638228,2.633880791660175,0.3811437101835426,B,535.8625999999731,Correct
15,515,7,A,69.29092884349137,88.30589762304135,3.4645464421745684,1.3871057962059956,A,1071.0550999999668,Correct
15,515,8,B,66.90036291757238,35.18597835440113,3.3450181458786186,0.5527000555377803,B,1201.5588000001571,Correct
15,515,9,A,28.137106764166546,51.218411290372366,1.4068553382083275,0.8045369231918718,A,765.4540999999426,Correct
15,515,10,B,70.43903255782732,54.70109526591096,3.521951627891366,0.8592427951535062,B,636.6251000001739,Correct
15,515,11,B,31.930194694796274,12.642220365743388,1.5965097347398136,0.1985835331304135,B,1876.1280999999599,Correct
15,515,12,B,60.047204104247264,49.75742997604923,3.002360205212363,0.781587882371324,B,3110.3508999999576,Correct
15,515,13,A,68.24095271928849,84.68139117008167,3.4120476359644245,1.3301721819784609,A,729.3789000000288,Correct
15,515,14,A,57.91383688533915,84.10595285682277,2.8956918442669575,1.3211332180908195,A,785.7122000000345,Correct
15,515,15,A,40.16313493093496,65.19185874151853,2.008156746546748,1.0240313224810906,A,2535.242599999947,Correct
15,515,16,A,44.399978973639534,70.17938126231392,2.2199989486819764,1.102375143035813,A,686.4276999999674,Correct
15,515,17,A,25.132081520769738,46.235491899795214,1.256604076038487,0.7262654084375352,A,706.3201999999364,Correct
15,515,18,A,12.581848389129672,34.33875063323802,0.6290924194564836,0.5393918336141622,A,669.9353999999857,Correct
15,515,19,B,63.966439839919495,42.89030451370731,3.1983219919959747,0.67371932785246,B,723.7225000001217,Correct
15,515,20,A,18.219979369639606,38.69702029575187,0.9109989684819803,0.607851373384746,A,538.0998999999065,Correct
15,515,21,A,31.359993933913444,45.0429312080512,1.5679996966956722,0.7075327088968204,A,478.53970000005575,Correct
15,515,22,B,56.457668481380736,33.36307290148822,2.822883424069037,0.5240659236424805,B,698.6838999998781,Correct
15,515,23,B,40.3262645077876,22.03296248049894,2.01631322538938,0.34609296532777506,B,1073.8844999998491,Correct
15,515,24,B,52.82088771406624,22.118080797373466,2.641044385703312,0.3474300007226698,B,742.8319999999076,Correct
15,515,25,B,47.88635174860604,18.469923449307174,2.394317587430302,0.2901248791035464,B,403.85550000019066,Correct
15,515,26,A,59.23139559817979,75.68867720715998,2.9615697799089897,1.188914961369715,B,321.1080999999467,Incorrect
15,515,27,A,61.83632848963061,71.91347595791618,3.0918164244815305,1.1296142388174784,A,862.3689999999442,Correct
15,515,28,B,53.60084271140593,33.44679479536315,2.680042135570296,0.5253810240761909,B,565.2585999998792,Correct
15,515,29,B,55.77079070621858,45.10345304129319,2.788539535310929,0.7084833836302946,B,634.0119000001323,Correct
15,515,30,A,63.26820351706958,74.30675252907623,3.163410175853479,1.1672077392873033,B,1360.0973999998587,Incorrect
15,515,31,B,63.50652827697312,54.01637098104257,3.175326413848656,0.8484871712381211,B,517.9004999999961,Correct
15,515,32,B,56.26673167139476,36.08981328756092,2.813336583569738,0.5668974614681435,B,549.9179999999342,Correct
15,515,33,A,12.388253724148711,30.54445071955687,0.6194126862074356,0.4797911099424767,A,570.365000000038,Correct
15,515,34,A,23.063373610444707,43.09656189316076,1.1531686805222352,0.6769592111926583,A,537.0052000000669,Correct
15,515,35,A,46.17503925709643,73.83123011551666,2.3087519628548216,1.1597382506820233,A,585.8557000001383,Correct
15,515,36,A,34.6598133085955,54.66796995097078,1.7329906654297753,0.8587224639231867,A,506.69220000008863,Correct
15,515,37,A,39.16734885400672,47.38040811597563,1.958367442700336,0.7442497103061764,A,983.6635999999999,Correct
15,515,38,A,47.544426328366214,77.03277665014741,2.3772213164183107,1.2100280260486322,A,467.2628999999233,Correct
15,515,39,A,16.633436070878947,35.914911651014634,0.8316718035439473,0.5641501129857701,A,490.19139999995787,Correct
15,515,40,B,72.47898956027231,59.57689635522165,3.623949478013616,0.9358316995662241,B,477.5201999998444,Correct
15,515,41,A,38.63704214856149,50.626577655875465,1.9318521074280743,0.7952404222004575,B,438.35459999991144,Incorrect
15,515,42,B,87.2410941764176,65.21505937065547,4.362054708820881,1.024395757111367,B,493.5609999999997,Correct
15,515,43,B,69.10963733350602,38.518523360539824,3.455481866675301,0.6050475500829937,B,500.199000000066,Correct
15,515,44,B,72.18054451717872,41.39493176109258,3.6090272258589358,0.6502300675824964,B,716.7723000000024,Correct
15,515,45,A,63.26418832234822,74.74239746985141,3.163209416117411,1.1740508340148677,A,670.7208000000264,Correct
15,515,46,B,67.88923304235546,56.87914890702811,3.394461652117773,0.893455581743797,B,496.94240000007994,Correct
15,515,47,A,25.459970580512127,49.729711801341196,1.2729985290256065,0.7811524863011556,A,650.6248000000596,Correct
15,515,48,A,52.05143593985811,59.21711004528221,2.602571796992905,0.9301801894253846,B,557.6605999999629,Incorrect
15,515,49,A,20.357830239336753,41.18218778899691,1.0178915119668377,0.64688829308334,A,597.9571000000306,Correct
15,515,50,B,61.26179314234697,30.93461267922418,3.0630896571173487,0.4859197596734818,B,628.3128000000033,Correct
15,515,51,B,80.97888735100595,66.43122345552038,4.048944367550297,1.043499217884224,B,919.062699999813,Correct
15,515,52,A,53.37750064903281,63.547528281426075,2.6688750324516404,0.9982022400135888,A,790.0198999998338,Correct
15,515,53,A,15.2316943010098,34.83728623103856,0.76158471505049,0.547222812472178,A,603.0155999999351,Correct
15,515,54,B,51.613549907038376,30.388517524021776,2.5806774953519187,0.4773417170347575,B,467.0231000000058,Correct
15,515,55,B,44.5841809912016,17.437861695921846,2.22920904956008,0.27391329099111467,B,512.2868000000835,Correct
15,515,56,B,79.97322005660584,49.978615919243225,3.998661002830292,0.7850622630424019,B,493.22110000002795,Correct
15,515,57,A,53.896737673204356,69.30078079467539,2.694836883660218,1.088574119162944,B,611.918199999991,Incorrect
15,515,58,B,61.1632304119832,42.553541662281404,3.0581615205991604,0.6684294693522523,B,637.0085999999446,Correct
15,515,59,A,19.90111511636164,37.16468196164951,0.995055755818082,0.5837814591185959,A,661.6211000000476,Correct
15,515,60,B,54.12806506503034,45.2971163537396,2.706403253251517,0.711525439828552,B,1552.6597000000493,Correct
15,515,61,B,40.25615947966076,20.361968046232505,2.0128079739830382,0.3198450461333707,B,571.138000000019,Correct
15,515,62,B,44.826183885330934,26.51859508464783,2.2413091942665466,0.41655311750726015,B,441.3048000001254,Correct
15,515,63,A,60.06926797544713,82.19432594391276,3.0034633987723565,1.2911054527608061,A,798.5020999999506,Correct
15,515,64,A,41.812372730289084,72.62350193460601,2.0906186365144546,1.140767300778612,A,1058.1190000000333,Correct
15,515,65,B,62.125870856320226,52.030828937365804,3.106293542816011,0.8172983497490781,B,592.500500000142,Correct
15,515,66,B,65.1244318535869,39.58028131125335,3.2562215926793447,0.6217256049722546,B,536.779099999876,Correct
15,515,67,A,29.83606151810598,54.55378596275872,1.4918030759052987,0.8569288660305638,A,753.0283000000964,Correct
15,515,68,A,51.109889493564914,67.1116722254571,2.5554944746782455,1.0541876821681109,A,654.3133000000125,Correct
15,515,69,B,70.2341441866274,52.677586272375336,3.5117072093313704,0.8274575902106845,B,527.7147000001605,Correct
15,515,70,A,32.97189715978774,46.58169295087128,1.648594857989387,0.7317035218311633,A,724.1500000000087,Correct
15,515,71,B,49.43305016019785,38.51281281611153,2.4716525080098926,0.6049578490608739,A,1153.1585000000177,Incorrect
15,515,72,B,80.9671786509706,61.364006044533255,4.048358932548529,0.9639035529217267,B,730.261199999859,Correct
15,515,73,B,52.322312946139036,30.358468500951908,2.616115647306952,0.4768697080841383,B,501.3359000001856,Correct
15,515,74,B,63.41596996694991,34.92605383736929,3.1707984983474957,0.5486171707718047,B,445.3541000000314,Correct
15,515,75,B,70.01228375550156,59.55541289184322,3.5006141877750783,0.9354942381126075,B,581.6375000001699,Correct
15,515,76,A,63.21378933682775,77.68876281717351,3.160689466841388,1.2203322326645607,A,1372.282900000073,Correct
15,515,77,B,48.448948470023886,36.96162277579337,2.422447423501194,0.5805918128859482,B,1078.539899999896,Correct
15,515,78,B,54.703200491846495,23.595783989217363,2.7351600245923247,0.37064170818108466,B,1016.717799999924,Correct
15,515,79,B,69.01827790605829,37.891293193571876,3.4509138953029144,0.5951950416597117,B,769.8562999999012,Correct
15,515,80,A,31.586366358752766,45.94814138205899,1.5793183179376382,0.7217517170599085,A,761.3064000001941,Correct
15,515,81,A,59.66568387473968,72.27117035320677,2.983284193736984,1.1352328892398542,B,1392.241199999944,Incorrect
15,515,82,B,53.3612384236262,35.840644840653646,2.6680619211813097,0.5629835326565921,B,497.0931999998811,Correct
15,515,83,B,68.94151314800659,55.28813655401687,3.4470756574003296,0.8684640181438434,B,592.2827000001689,Correct
15,515,84,B,55.593532135842,27.23586108273759,2.7796766067921,0.4278199054586028,B,597.8170999999293,Correct
15,515,85,A,31.664962304251734,62.253763948302286,1.5832481152125868,0.977879837391498,A,582.6830000000882,Correct
15,515,86,A,13.822691377347088,34.383105917990406,0.6911345688673544,0.540088564797792,A,611.9068000000425,Correct
15,515,87,A,34.82650825145552,65.15739944953852,1.7413254125727762,1.0234900371884292,A,570.600599999807,Correct
15,515,88,A,58.063884934227396,77.22736720521104,2.9031942467113696,1.2130846473398613,A,501.60940000000664,Correct
15,515,89,A,47.03632585777609,55.84083569076106,2.3518162928888047,0.8771457958820486,B,1116.5112999999565,Incorrect
15,515,90,B,84.39655812598397,57.38713768695244,4.219827906299199,0.9014350508393787,B,796.2686999999278,Correct
15,515,91,A,49.5959807008616,74.04970880960308,2.4797990350430803,1.163170105983562,A,708.8502999999946,Correct
15,515,92,A,13.152375889744217,31.693663975021106,0.657618794487211,0.49784290954634897,A,928.156399999807,Correct
15,515,93,A,34.19969063478936,45.55957156933957,1.7099845317394682,0.7156480767146779,B,863.0889999999454,Incorrect
15,515,94,B,41.197130343179936,29.23771605822812,2.059856517158997,0.4592649698813689,B,582.2747000001982,Correct
15,515,95,B,43.543764551761306,15.051119878313713,2.1771882275880654,0.23642243819004832,B,706.1512000000221,Correct
15,515,96,A,39.978942846606905,67.30221383324958,1.9989471423303453,1.0571807027443312,A,926.3136999998096,Correct
15,515,97,A,61.24630418694639,77.59871597561178,3.06231520934732,1.2189177801849145,A,1628.9331000002676,Correct
15,515,98,B,51.41903700419025,42.066584896755714,2.5709518502095126,0.6607803703662956,B,1116.1500000002889,Correct
15,515,99,A,55.06610093228461,83.11028011286774,2.7533050466142304,1.305493227201876,B,1111.4717999998902,Incorrect
15,515,100,B,49.725272914439216,27.879462163469945,2.486263645721961,0.43792956759395896,B,891.6517999996358,Correct
15,515,101,A,40.39642609425395,71.61986608012911,2.019821304712697,1.1250022256420922,A,571.3925999998537,Correct
15,515,102,B,49.40661963282433,28.805180256353246,2.470330981641217,0.4524707133934456,B,1994.8750000003201,Correct
15,515,103,B,72.04899883348462,45.39456973605465,3.602449941674231,0.7130562339782941,B,509.3750999999429,Correct
15,515,104,A,54.33321540076523,63.77310979419216,2.7166607700382617,1.0017456661300468,B,976.1321999999382,Incorrect
15,515,105,B,86.99245513296373,63.34464279562089,4.349622756648187,0.995015322254961,B,988.5643000002347,Correct
15,515,106,B,51.21285197495256,30.79617215503157,2.560642598747628,0.48374514100466864,B,476.32770000018354,Correct
15,515,107,A,37.6898838784863,45.02496008872429,1.8844941939243147,0.7072504192145493,B,735.626400000001,Incorrect
15,515,108,B,84.88995408101391,61.631714531213944,4.244497704050696,0.9681087079970251,B,453.1891000001451,Correct
15,515,109,B,46.4609246443285,37.85839852666165,2.323046232216425,0.5946783334401745,B,430.8606999998119,Correct
15,515,110,A,37.14505739088563,63.382420035395114,1.8572528695442816,0.995608725749699,A,591.6994000003797,Correct
15,515,111,B,72.34322829413588,41.80277309247826,3.617161414706794,0.6566364242350539,B,508.40629999993325,Correct
15,515,112,A,62.7421315521301,78.65803402508611,3.1371065776065046,1.2355575091951325,A,632.8530999999202,Correct
15,515,113,A,50.66412935567368,72.35973553965057,2.533206467783684,1.1366240679353325,A,1107.0590999997876,Correct
15,515,114,B,65.66864386043116,49.629585340969015,3.283432193021558,0.7795797035394798,B,1137.978700000076,Correct
15,515,115,B,40.3376464835718,14.701397247747582,2.01688232417859,0.23092900795514504,B,735.8125999999174,Correct
15,515,116,B,44.388352085418916,16.657055191032086,2.2194176042709457,0.26164841109293063,B,1505.1926000001004,Correct
15,515,117,A,57.123723682397866,71.71695228079142,2.8561861841198937,1.1265272521159202,A,677.3456999999325,Correct
15,515,118,A,20.03577350255702,48.19405802168319,1.001788675127851,0.7570304931380007,A,982.7454000001126,Correct
15,515,119,A,67.11644468129813,79.55652509243859,3.355822234064907,1.2496709738776857,A,1162.6421000000846,Correct
15,515,120,A,61.02524082534201,77.63120996965749,3.0512620412671003,1.2194281946498133,A,2999.631700000009,Correct
15,515,121,A,59.43879774996645,82.05875423610755,2.9719398874983223,1.2889758973544292,A,678.5309000001689,Correct
15,515,122,A,24.514303250600275,41.961226044616566,1.2257151625300138,0.6591253973869405,A,678.5691000000043,Correct
15,515,123,A,17.999781168727402,36.61219186881212,0.89998905843637,0.5751029650344006,A,750.0028000004022,Correct
15,515,124,A,19.83575564464744,38.98889660869419,0.9917877822323719,0.6124361557872284,A,691.8479000000843,Correct
15,515,125,B,56.53878016004097,29.17773878781975,2.8269390080020487,0.45832284912088234,B,567.9927000001044,Correct
15,515,126,B,72.6863347350799,56.01603674317903,3.6343167367539944,0.8798978475779358,B,616.0163999998076,Correct
15,515,127,B,63.217951919527344,34.14168745137283,3.160897595976367,0.5362963723919586,B,1606.9479999996474,Correct
15,515,128,A,33.76368050221977,57.43433128819961,1.6881840251109883,0.9021763661942515,B,1293.8428999996177,Incorrect
15,515,129,A,27.969431930181404,48.66263180434254,1.3984715965090704,0.7643908329043378,A,917.289499999697,Correct
15,515,130,A,39.92780388977308,66.7787244068241,1.9963901944886542,1.0489577500628802,A,670.162800000071,Correct
15,515,131,A,47.43197141472518,57.30830468465594,2.3715985707362592,0.900196744935003,B,1136.964700000135,Incorrect
15,515,132,B,40.825948680156856,30.792935820203276,2.0412974340078427,0.48369430477606296,B,634.3351000000439,Correct
15,515,133,B,47.26570363451275,39.34522831066649,2.3632851817256375,0.618033401073015,B,695.868899999823,Correct
15,515,134,B,51.15229404654005,36.18535243706753,2.5576147023270024,0.5683981869192444,B,527.9194999998253,Correct
15,515,135,B,64.80310044831025,38.93276685556663,3.2401550224155127,0.6115544716868616,B,608.4616999996797,Correct
15,515,136,B,85.33899775788441,62.46828391432037,4.266949887894221,0.9812495091379514,B,559.9532000001091,Correct
15,515,137,B,50.60462509583961,19.209610184465447,2.53023125479198,0.3017438511692016,B,587.8136999999697,Correct
15,515,138,A,61.75628991338456,84.53224608235435,3.0878144956692277,1.327829416418845,A,820.4138000000967,Correct
15,515,139,B,41.55851223237063,28.32497031778366,2.0779256116185314,0.44492759331749043,B,635.5560000001788,Correct
15,515,140,A,47.521581496021724,68.38139864317337,2.376079074801086,1.0741324980979425,B,1103.7141000001611,Incorrect
15,515,141,B,65.10506523107011,42.79176663620717,3.2552532615535057,0.6721714984921863,B,528.595100000075,Correct
15,515,142,A,56.621169720422,83.16272278713981,2.8310584860211003,1.3063169948030147,A,771.5977000002567,Correct
15,515,143,A,22.933725857134146,38.294944784577964,1.1466862928567074,0.6015355860242845,A,1171.1050000003524,Correct
15,515,144,B,69.82832267263606,46.42229001957063,3.4914161336318035,0.7291996264414894,B,593.194499999754,Correct
15,515,145,A,41.61821265170528,73.09675126222442,2.080910632585264,1.1482010838334236,A,577.502000000095,Correct
15,515,146,A,30.177385975978453,57.251222684369004,1.5088692987989225,0.8993001029712349,A,576.7093999997996,Correct
15,515,147,A,23.862595737965574,50.81946573831641,1.1931297868982786,0.7982703011142651,A,593.5239000000365,Correct
15,515,148,B,36.99745026699597,18.547797967656887,1.8498725133497984,0.29134812917729286,B,640.7113000000209,Correct
15,515,149,A,49.06706134053586,79.83160333397917,2.453353067026793,1.253991892791617,A,1577.2845000001325,Correct
15,515,150,B,44.50220970356427,28.763351043682093,2.2251104851782135,0.4518136616572799,B,615.3884000000289,Correct
15,515,151,B,62.38121403777691,40.11756913532586,3.1190607018888454,0.6301653023771017,B,497.33130000004167,Correct
15,515,152,B,56.45948196679163,38.68241030695263,2.8229740983395812,0.6076218802173425,B,478.86300000027404,Correct
15,515,153,B,73.63548254831511,42.660637607150704,3.6817741274157556,0.6701117285204055,B,464.27029999995284,Correct
15,515,154,A,16.23724237018184,39.79225645318178,0.8118621185090918,0.6250553027153847,A,697.9649999998401,Correct
15,515,155,B,53.38504234652632,41.816224992835124,2.6692521173263164,0.6568477261917436,B,471.7419999997219,Correct
15,515,156,B,64.96272865872254,45.00123045832358,3.248136432936127,0.706877675051853,B,566.3890999999239,Correct
15,515,157,A,57.38093588592492,75.89343310377771,2.869046794296246,1.1921312594726823,A,865.9772999999404,Correct
15,515,158,B,33.50483444169256,20.5642119236824,1.675241722084628,0.3230218855315213,B,718.4222000000773,Correct
15,515,159,A,40.303459821719976,48.46909312036292,2.015172991085999,0.7613507343654586,B,699.6678000000429,Incorrect
15,515,160,B,78.20044001300593,50.30909179635221,3.910022000650297,0.7902533659809733,B,620.2441000000363,Correct
15,515,161,B,75.65676849781511,60.583566809377075,3.7828384248907554,0.9516444420830273,B,781.3694999999825,Correct
15,515,162,B,64.96607944143373,54.497335150211136,3.248303972071687,0.8560421387406205,B,575.6076999996367,Correct
15,515,163,B,75.34927565999205,62.45783135633252,3.7674637829996023,0.9810853207410225,B,615.8958999999413,Correct
15,515,164,A,54.46112627688744,75.13620298184534,2.7230563138443724,1.1802367165319843,A,525.9819000002608,Correct
15,515,165,B,71.77454138914074,43.69336086885451,3.5887270694570366,0.6863337075812054,B,724.3493999999373,Correct
15,515,166,B,32.58414020621473,15.479637628815563,1.6292070103107363,0.24315357927459552,B,963.2784000000356,Correct
15,515,167,A,55.3892485560816,74.51265809269283,2.76946242780408,1.1704420963172593,A,1398.8562999998067,Correct
15,515,168,B,74.66928599397707,48.948430740412526,3.7334642996988534,0.7688801520941441,B,841.3728000000447,Correct
15,515,169,B,69.19977013953333,58.936638396374775,3.459988506976666,0.9257745510666456,B,659.0469000002486,Correct
15,515,170,A,66.95147624974732,80.02687264979926,3.347573812487366,1.2570591760318766,A,598.3649999998306,Correct
15,515,171,A,26.51248753691454,49.99068991610362,1.325624376845727,0.7852519209415824,A,755.0814999999602,Correct
15,515,172,B,64.16955997434724,42.88534310768259,3.208477998717362,0.6736413942688665,B,656.3433000001169,Correct
15,515,173,B,61.12180981385025,49.16097855050574,3.056090490692512,0.7722188452877712,B,2082.828800000243,Correct
15,515,174,A,56.6433236099447,80.19718786769447,2.832166180497235,1.2597344812185471,A,2495.8348000000115,Correct
15,515,175,A,25.044093744775008,36.49703592243971,1.2522046872387504,0.5732940996586968,A,776.1152999996739,Correct
15,515,176,B,59.194455645521614,42.118431396187006,2.9597227822760805,0.661594773274934,B,673.8461999998435,Correct
15,515,177,A,48.4961510076267,57.12076237629482,2.424807550381335,0.8972508372440801,B,765.1576999996905,Incorrect
15,515,178,B,49.601504965910856,41.08041203163631,2.480075248295543,0.6452896032251518,B,566.0133000001224,Correct
15,515,179,A,40.83879182560882,67.35993704350813,2.0419395912804412,1.0580874168107806,A,810.1646999998593,Correct
15,515,180,B,73.78812925093871,57.87197178314947,3.6894064625469354,0.9090508070134908,B,705.5959999997867,Correct
15,515,181,A,49.605759925609696,59.86691451568812,2.480287996280485,0.9403872941778696,B,704.5320000001993,Incorrect
15,515,182,A,36.57491144028451,60.00093737760325,1.8287455720142254,0.9424925203698981,B,1359.994999999799,Incorrect
15,515,183,A,27.322233417094385,46.19861125210788,1.3661116708547192,0.7256860885783643,B,470.0769000000946,Incorrect
15,515,184,B,76.089907386814,61.332610219089,3.8044953693407,0.9634103884488814,B,637.598700000126,Correct
15,515,185,B,60.16816208352259,50.99653133772335,3.0084081041761292,0.8010516410457668,B,519.2334000003029,Correct
15,515,186,B,61.31386348758671,32.3333718497758,3.0656931743793354,0.5078914173452135,B,642.8320999998505,Correct
15,515,187,B,78.1549555221705,57.25507535730826,3.9077477761085246,0.8993606206162481,B,541.0530999997718,Correct
15,515,188,B,34.56279007315489,15.19476289793674,1.7281395036577447,0.2386787774659841,B,718.1655999997929,Correct
15,515,189,A,58.188620210332346,77.76482732258259,2.9094310105166175,1.2215270511215215,A,1446.1938999997983,Correct
15,515,190,A,43.294877760303216,67.99652220609352,2.164743888015161,1.0680868731615931,A,531.445800000256,Correct
15,515,191,B,57.471838488328586,30.565653462512557,2.873591924416429,0.48012416185000434,B,777.2688999998536,Correct
15,515,192,A,17.467839588037062,41.50579486296978,0.8733919794018532,0.6519715011145542,A,666.6516000000229,Correct
15,515,193,A,65.68304441205018,89.39459493878795,3.2841522206025093,1.4042070136516578,A,780.621500000052,Correct
15,515,194,B,52.80253922139235,32.22150996792124,2.6401269610696176,0.5061342950139583,B,666.9981000000007,Correct
15,515,195,B,50.25006336473307,39.74043458371663,2.5125031682366537,0.6242412866933496,B,918.0175000001327,Correct
15,515,196,B,53.21734160867027,27.11362611193619,2.6608670804335133,0.42589984302719563,B,588.1463000000622,Correct
15,515,197,A,15.593025503453244,41.08594856103204,0.7796512751726623,0.645376570825532,A,537.9377999997814,Correct
15,515,198,A,59.48316781218553,79.05882196650725,2.974158390609276,1.241853071457213,A,554.7970000002351,Correct
15,515,199,B,80.15243326655951,52.30441525307904,4.007621663327976,0.821595833546915,B,888.570599999639,Correct
15,515,200,B,40.95419488379598,17.846740609321934,2.047709744189799,0.2803359459438421,B,627.8965999999855,Correct
15,515,201,B,78.61198456818165,60.52780744324494,3.9305992284090827,0.9507685760079795,B,1180.7808000003206,Correct
15,515,202,A,47.760063620989925,70.68556727743585,2.388003181049496,1.1103262943680978,A,1316.2230000002637,Correct
15,515,203,A,44.32016257929743,62.14233523598212,2.2160081289648716,0.9761295192713777,A,877.063299999918,Correct
15,515,204,A,23.444754469413756,44.475387577134555,1.1722377234706878,0.6986177543894233,A,647.8520999999091,Correct
15,515,205,B,43.39464408916325,34.87238731611744,2.1697322044581626,0.5477741790272622,B,1107.1830999999293,Correct
15,515,206,B,32.21044591314884,19.442554600308988,1.610522295657442,0.30540293349674574,B,634.1142000001128,Correct
15,515,207,A,45.698508765375045,59.72945277103102,2.2849254382687523,0.9382280501420479,B,664.7534000003361,Incorrect
15,515,208,A,18.01498933611845,45.386300998058516,0.9007494668059225,0.7129263489455787,A,736.2217999998393,Correct
15,515,209,A,57.414896799060315,65.62775489462003,2.8707448399530158,1.0308783632426493,B,903.4076000002642,Incorrect
15,515,210,A,34.85745017482016,44.047730727790615,1.7428725087410077,0.691900136308642,B,595.0149999998757,Incorrect
15,515,211,A,11.10044705178814,34.77538161194107,0.555022352589407,0.5462504169892782,A,754.1882000000442,Correct
15,515,212,A,56.56330653113435,67.70035004466027,2.828165326556718,1.0634346117288107,A,2468.988399999944,Correct
15,515,213,B,75.37373373311092,56.1521487861502,3.7686866866555464,0.8820358905492525,B,2114.8106000000553,Correct
15,515,214,A,13.234394436540647,35.24041788135031,0.6617197218270323,0.5535551896274227,A,832.8883000003771,Correct
15,515,215,A,46.055528727802105,55.697075688274296,2.3027764363901055,0.8748876190435859,A,1846.7231999998148,Correct
15,515,216,A,29.391331033694645,61.83889214136725,1.4695665516847323,0.9713630462872547,A,765.35610000019,Correct
15,515,217,B,53.333725700722496,33.21315459464862,2.666686285036125,0.5217110123854509,A,7124.534700000368,Incorrect
15,515,218,B,54.05095596781361,32.38121104130237,2.7025477983906803,0.5086428736084811,B,1241.837999999916,Correct
15,515,219,A,49.43739638009913,67.65980153697869,2.4718698190049566,1.0627976772595782,B,639.376799999809,Incorrect
15,515,220,A,20.591458832193272,42.984845644171216,1.0295729416096635,0.6752043764570975,A,695.0966999997945,Correct
15,515,221,A,47.74816913754924,76.08095953669152,2.387408456877462,1.195076917792662,A,2157.216299999618,Correct
15,515,222,A,40.69378457067539,72.3414062321866,2.03468922853377,1.1363361518469615,A,817.9179000003387,Correct
15,515,223,A,31.504157636181624,42.33851805835121,1.5752078818090811,0.6650518864799747,A,1252.093000000059,Correct
15,515,224,B,63.791062297688065,53.67649964476183,3.189553114884403,0.8431484847719944,B,757.5213999998596,Correct
15,515,225,B,81.8975739889756,63.326051719170486,4.094878699448779,0.9947232943089664,B,549.2805999997472,Correct
15,515,226,B,80.88503767612394,59.108287207948436,4.044251883806197,0.9284708042938317,B,560.6158999999025,Correct
15,515,227,A,34.61505406592061,44.461517687415174,1.7307527032960306,0.6983998866711809,B,821.0526000002574,Incorrect
15,515,228,A,20.29664332832512,37.68232196650506,1.014832166416256,0.5919125293008878,A,663.2792000000336,Correct
15,515,229,A,64.34384361948123,86.38689991622533,3.2171921809740613,1.3569622507160513,A,1398.1953999996222,Correct
15,515,230,B,51.940386975158134,24.2267687601506,2.597019348757907,0.3805531937855391,B,671.3205999999445,Correct
15,515,231,B,71.41922818567939,48.517634650945496,3.5709614092839694,0.7621132229448198,B,471.6472000000067,Correct
15,515,232,A,11.259895907487461,37.811752772861745,0.562994795374373,0.5939456236528797,A,570.3880000000936,Correct
15,515,233,B,87.30258196054,64.03366994650088,4.365129098027,1.0058385354316033,B,537.870600000133,Correct
15,515,234,B,68.99737000740068,47.45224410083451,3.449868500370034,0.7453781073176565,B,849.8424000003979,Correct
15,515,235,A,37.011040055637764,62.05910408822545,1.850552002781888,0.974822127459667,A,515.5288999999357,Correct
15,515,236,B,76.18141835859538,57.707309242616525,3.809070917929769,0.9064642938751921,B,555.569099999957,Correct
15,515,237,A,17.68868676820453,36.130621458914206,0.8844343384102266,0.567538474724793,A,583.7303999996948,Correct
15,515,238,B,55.645205645524634,41.123552503398884,2.7822602822762317,0.6459672521709604,B,567.7416999997149,Correct
15,515,239,B,67.83984282715335,46.74484583481494,3.3919921413576675,0.7342663213392102,B,572.9954999997062,Correct
15,515,240,B,61.60697296877007,35.072271890246206,3.0803486484385036,0.5509139585755065,B,558.6840999999367,Correct
15,515,241,A,61.165697084689455,71.91327590506044,3.0582848542344725,1.1296110963945687,A,1034.00449999981,Correct
15,515,242,B,58.11425040782104,49.36951078831811,2.9057125203910523,0.775494462019511,B,737.1519999996963,Correct
15,515,243,B,41.89536680923267,21.126075540969577,2.0947683404616333,0.3318476185934652,B,772.8129999995872,Correct
15,515,244,A,32.227004869017044,56.78464280968079,1.6113502434508522,0.8919710834380682,A,946.6136000000915,Correct
15,515,245,A,48.94879377410376,64.85286111673848,2.447439688705188,1.0187063602431239,A,713.5143999998945,Correct
15,515,246,B,79.13776827797014,65.6774407620944,3.956888413898507,1.031658827023873,B,609.0060999999878,Correct
15,515,247,B,73.58924589068958,43.605958354725985,3.6794622945344795,0.684960792099748,B,607.3605999999927,Correct
15,515,248,A,53.92033207847206,84.10667359950341,2.6960166039236024,1.3211445394903727,A,561.8721000000733,Correct
15,515,249,B,39.928313249678354,13.53235793605539,1.9964156624839178,0.2125657813882957,B,449.88320000038584,Correct
15,515,250,B,44.54612707145664,34.0005451024147,2.227306353572832,0.5340793135589721,B,772.6518999998007,Correct
15,515,251,B,62.589646541562445,36.51334344129856,3.1294823270781222,0.573550257565923,B,630.8672999998635,Correct
15,515,252,A,28.71233455193819,56.250080370576654,1.4356167275969096,0.8835741962801953,A,484.42060000024867,Correct
15,515,253,A,11.4077819438664,36.6349781592923,0.57038909719332,0.5754608912482762,A,567.1925999999985,Correct
15,515,254,B,50.65093355494188,33.841790620371945,2.532546677747094,0.5315856039864224,B,718.0874999999105,Correct
15,515,255,A,49.597686847667454,78.6642965177711,2.479884342383373,1.2356558802001942,A,1062.9516000003605,Correct
15,515,256,B,51.73567438057293,34.76868589022234,2.586783719028647,0.546145240838468,B,490.273100000195,Correct
15,515,257,A,43.46110132359264,59.379031586335614,2.1730550661796317,0.9327236470445411,A,702.6835000001483,Correct
15,515,258,B,47.658380684737544,17.15993736543919,2.382919034236877,0.26954766581662376,B,486.4548000000468,Correct
15,515,259,A,38.724741046142086,58.25111430627137,1.9362370523071042,0.9150063638400071,A,1255.5720000000292,Correct
15,515,260,A,57.55267854834843,71.61236811662936,2.877633927417422,1.1248844479068536,B,789.6559000000707,Incorrect
15,515,261,B,62.73847976503634,50.75704976064823,3.1369239882518167,0.7972898732297202,B,822.2151999998459,Correct
15,515,262,A,36.79657114369055,55.56309775482272,1.8398285571845276,0.8727830985862131,A,732.8849999998965,Correct
15,515,263,A,35.182828311331896,55.520051012242284,1.7591414155665948,0.8721069219349544,A,524.6287999998458,Correct
15,515,264,B,85.63931768714662,62.519446957475424,4.281965884357331,0.9820531763405076,B,941.1705999996229,Correct
15,515,265,B,85.93259744155694,68.52734258262763,4.296629872077847,1.0764249801380696,B,832.2427999996762,Correct
15,515,266,A,29.276402242623025,44.44904521848385,1.4638201121311514,0.6982039695873469,A,955.0131999999394,Correct
15,515,267,B,48.44023614214794,31.35375532709883,2.422011807107397,0.4925036369903276,B,568.2993999998871,Correct
15,515,268,B,36.5469470272469,21.774854362343316,1.8273473513623453,0.3420386124886271,B,622.8946999999607,Correct
15,515,269,A,25.90295893673234,36.96359220348193,1.2951479468366172,0.580622748583739,A,729.1467999998531,Correct
15,515,270,A,19.501635461416708,46.6919306982568,0.9750817730708354,0.7334351323178364,A,596.7556000000513,Correct
15,515,271,A,36.453796933064986,61.18209891543976,1.8226898466532493,0.9610461624197479,A,640.6200000001263,Correct
15,515,272,A,28.566685605187693,49.858662281585644,1.4283342802593848,0.7831780357082199,A,710.4661000003034,Correct
15,515,273,B,60.75206693227101,33.29680252328305,3.0376033466135506,0.5230249509758805,B,507.1505000000798,Correct
15,515,274,B,63.725613961983726,47.89072413677339,3.1862806980991865,0.7522657356159134,B,535.0188000002163,Correct
15,515,275,B,70.79926140612973,52.25906679704224,3.5399630703064866,0.8208835016652309,B,563.7351000000308,Correct
15,515,276,A,39.47750325709853,55.01972847799351,1.9738751628549267,0.8642478739448477,B,792.4373000000742,Incorrect
15,515,277,A,38.21558053258995,57.37362929653123,1.9107790266294973,0.9012228615388334,A,1164.324299999862,Correct
15,515,278,A,28.22938721013611,49.667560769040804,1.4114693605068056,0.780176220168716,A,1954.7006000002511,Correct
15,515,279,A,45.125473098915215,58.25719288762499,2.256273654945761,0.915101845972631,A,1066.9560000001184,Correct
15,515,280,A,27.521799387421858,49.60342553287149,1.3760899693710928,0.7791687862347872,A,813.7415000001056,Correct
15,515,281,B,62.80781477711113,46.77918122113346,3.1403907388555568,0.7348056603262925,B,505.6460999999217,Correct
15,515,282,A,29.772896644552077,59.69709769477808,1.4886448322276038,0.9377198177927349,A,750.9194999997817,Correct
15,515,283,B,32.84021667358732,14.137254158382742,1.642010833679366,0.22206746902953484,B,453.5541000000194,Correct
15,515,284,A,32.88644709812805,47.71038998970721,1.6443223549064028,0.749433053457841,B,792.8730999997242,Incorrect
15,515,285,B,51.66911811677677,31.418933292817265,2.5834559058388384,0.4935274500817125,B,671.2385000000722,Correct
15,515,286,B,78.84802816692815,61.06133259043321,3.942401408346407,0.9591491694225398,B,582.1335999999064,Correct
15,515,287,B,43.04752011666001,25.561974546955838,2.152376005833,0.4015265572398288,B,863.0020000000513,Correct
15,515,288,B,49.48528250128205,27.318326063696254,2.4742641250641024,0.42911526235039366,B,3197.083300000031,Correct
15,515,289,A,29.634187759123446,49.24368405720687,1.4817093879561722,0.7735179803490897,A,894.2130000000361,Correct
15,515,290,B,39.439700403992084,28.586109402682546,1.971985020199604,0.449029556470908,A,1707.4781000001167,Incorrect
15,515,291,A,45.33997734029658,74.245852146813,2.266998867014829,1.1662511183197082,B,1637.9796999999598,Incorrect
15,515,292,B,49.25610666684754,25.088436022608214,2.462805333342377,0.39408823149341754,B,547.7998999999727,Correct
15,515,293,A,27.98504790991826,59.72260642410823,1.399252395495913,0.9381205079760649,A,501.7401999998583,Correct
15,515,294,A,44.40512223223135,56.81412632086593,2.2202561116115676,0.8924342093487746,A,910.8824999998433,Correct
15,515,295,A,46.65440137063289,55.1412552042681,2.3327200685316445,0.8661568112972429,A,773.5049000002618,Correct
15,515,296,B,89.33904643848015,67.58793784867893,4.466952321924008,1.0616688450834664,B,571.3158000003205,Correct
15,515,297,B,56.81777138390432,39.74134756421613,2.8408885691952164,0.6242556277575001,B,717.5444999998035,Correct
15,515,298,A,63.09052236675981,73.3542827376358,3.1545261183379902,1.152246378789526,B,977.7020999999877,Incorrect
15,515,299,B,68.38424879250144,56.60449632846232,3.4192124396250723,0.8891413491282382,B,714.543699999922,Correct
15,515,300,A,13.15698501002721,32.21804447021681,0.6578492505013606,0.506079859103312,A,582.1557999997822,Correct
15,515,301,A,35.27108294104024,46.204492254363075,1.7635541470520122,0.7257784671457677,A,677.0833999999013,Correct
15,515,302,A,18.668664479323628,35.99586326089364,0.9334332239661813,0.565421697900231,A,518.4372999997322,Correct
15,515,303,A,17.073754459975433,41.472427248714475,0.8536877229987716,0.6514473638554927,A,513.5122000001502,Correct
15,515,304,B,61.96602471589482,52.19396116516642,3.0983012357947413,0.8198608247911889,B,906.0884000000442,Correct
15,515,305,A,40.86727600200385,72.45329171138037,2.0433638001001926,1.1380936448443542,A,665.5547000000297,Correct
15,515,306,B,36.23204918117371,11.261989536184576,1.8116024590586852,0.17690291795841293,B,917.7161000002343,Correct
15,515,307,A,39.541223583404346,70.62650920229255,1.9770611791702175,1.109398612293071,A,739.5179999998618,Correct
15,515,308,B,77.76090026089142,46.58897414331914,3.8880450130445707,0.731817894534681,B,477.74329999992915,Correct
15,515,309,B,49.12427147637285,30.799202168404594,2.4562135738186424,0.4837927363434335,B,617.8810999999769,Correct
15,515,310,B,54.13377175724111,24.8395748408033,2.7066885878620552,0.39017912919080755,B,649.6597000000293,Correct
15,515,311,A,47.2104182371171,77.55972278722564,2.360520911855855,1.2183052766140445,A,907.5932999999168,Correct
15,515,312,B,73.82938001112892,63.27230431448605,3.691469000556446,0.9938790320504359,B,649.4474999999511,Correct
15,515,313,A,35.98450235753332,68.12216794409528,1.7992251178766663,1.070060511798899,A,622.9487999999037,Correct
15,515,314,A,44.95827859556202,52.68659240937271,2.2479139297781012,0.8275990582798253,B,1053.0373000001418,Incorrect
15,515,315,A,15.13386019582714,36.42685240587512,0.756693009791357,0.5721916595584848,A,779.6874000000571,Correct
15,515,316,A,50.32318560597848,57.96695452731143,2.516159280298924,0.9105427924698759,B,873.4846000002108,Incorrect
15,515,317,B,44.94293184915272,35.9744796838355,2.247146592457636,0.5650858054572643,B,576.1139999999614,Correct
15,515,318,A,54.46228716729102,77.97183416685229,2.7231143583645507,1.2247787070275238,A,1116.8304000002536,Correct
15,515,319,A,49.87536174282401,62.414598836848114,2.4937680871412002,0.9804062259129805,A,1246.249700000135,Correct
15,515,320,A,24.11446741700602,37.68725625138447,1.2057233708503008,0.5919900368665272,A,783.6409999999887,Correct
15,515,321,A,11.97762368502243,38.65912927384929,0.5988811842511215,0.6072561826045153,A,636.3353000001553,Correct
15,515,322,A,58.22847236880071,69.3221340958602,2.9114236184400353,1.0889095360336047,B,939.5460000000639,Incorrect
15,515,323,A,16.806019019643568,41.72401837802117,0.8403009509821784,0.6553993480731841,A,1096.787200000108,Correct
15,515,324,B,80.83613544567886,62.7496108263045,4.041806772283943,0.9856685819376837,B,610.7513000001745,Correct
15,515,325,A,59.27680056994572,85.3660962151291,2.963840028497286,1.3409275036754453,A,1306.770300000153,Correct
15,515,326,A,37.94331756190983,55.07589641925136,1.8971658780954914,0.8651301579029624,B,872.8738999998313,Incorrect
15,515,327,B,57.60043583772517,41.96023509006197,2.8800217918862585,0.6591098315091968,B,759.5050999998421,Correct
15,515,328,B,65.82495015655111,36.6017332270301,3.2912475078275554,0.574938681073456,B,548.1848999997965,Correct
15,515,329,B,81.37643256757812,60.04818750249411,4.068821628378906,0.9432347235960896,B,778.2920999998169,Correct
15,515,330,A,64.9813981746187,81.24874423264343,3.249069908730935,1.2762522899733435,B,979.1135000000395,Incorrect
15,515,331,A,32.75487271991048,47.82918448705951,1.637743635995524,0.7512990730586853,A,810.0567999999839,Correct
15,515,332,A,37.70268286082952,60.306334517371134,1.885134143041476,0.9472896874235087,A,637.9351999999017,Correct
15,515,333,B,33.22065057235456,21.780846210794355,1.6610325286177277,0.34213273222400314,B,815.6162999998742,Correct
15,515,334,B,63.81491995074102,46.31598888681486,3.1907459975370513,0.7275298521528204,B,709.1395000002194,Correct
15,515,335,B,75.96432086880355,61.83212893410091,3.7982160434401777,0.9712568100759416,B,765.4462999998941,Correct
15,515,336,B,58.91917606657808,51.070740798418946,2.9459588033289044,0.8022173205285075,B,857.8616999998303,Correct
15,515,337,B,59.34922969648162,44.29861431113496,2.967461484824081,0.6958410064203464,B,1068.3653000000959,Correct
15,515,338,A,31.499815992202016,47.84636129061198,1.5749907996101007,0.7515688856579482,A,924.4099000002279,Correct
15,515,339,A,22.3763916724216,43.640395392083875,1.1188195836210801,0.6855017278176228,A,777.6807999998709,Correct
15,515,340,A,20.26080773157325,37.02749096449043,1.0130403865786626,0.5816264679745279,A,964.6938000000773,Correct
15,515,341,B,58.903061998382356,42.96856247128917,2.9451530999191173,0.6749486009755807,B,579.9167000000125,Correct
15,515,342,A,63.88398081808551,81.3001879016782,3.1941990409042758,1.27706036523691,A,1604.482199999893,Correct
15,515,343,A,55.34930723710763,79.94889716810505,2.7674653618553817,1.2558343400296232,B,1470.4404000003706,Incorrect
15,515,344,A,15.4351661798534,42.579840761819554,0.77175830899267,0.6688425746417777,A,812.5204000002668,Correct
15,515,345,A,18.370445250952503,49.33876172939893,0.9185222625476251,0.7750114569314848,A,580.8277999999518,Correct
15,515,346,B,39.348922127974646,28.81588666770479,1.9674461063987323,0.4526388893096871,B,724.0240000000995,Correct
15,515,347,B,37.69813727496381,27.926216761213936,1.8849068637481907,0.4386639870979293,B,545.8294999998543,Correct
15,515,348,A,48.62899984358513,64.4935775134692,2.4314499921792563,1.0130627466001936,B,827.1983999998156,Incorrect
15,515,349,B,83.59265414978738,60.02928326002059,4.179632707489369,0.9429377764497073,B,555.5269999999837,Correct
15,515,350,A,16.891933964376154,32.85440244747913,0.8445966982188077,0.5160757468354148,A,784.4827000003534,Correct
15,515,351,B,63.6902905494146,41.61004502219269,3.1845145274707303,0.6536090587863055,B,1037.739700000202,Correct
15,515,352,A,54.8563532308287,79.01482359525676,2.742817661541435,1.2411619466577601,A,905.0920999998198,Correct
15,515,353,A,18.197305781468337,34.9239837572752,0.9098652890734169,0.5485846540297252,A,547.8643999999804,Correct
15,515,354,B,33.166085950398816,11.752297632169387,1.6583042975199407,0.18460465952012034,B,682.7844999997978,Correct
15,515,355,B,60.90261986793634,28.772159415178727,3.0451309933968167,0.4519520232331995,B,1255.2155999997012,Correct
15,515,356,B,37.112478293022846,15.037388688369994,1.8556239146511422,0.23620674916278717,B,720.6296999997903,Correct
15,515,357,B,42.935240543035604,32.31312206393273,2.14676202715178,0.5075733344530066,B,514.5551999999043,Correct
15,515,358,A,23.724357207784674,54.58129239854748,1.1862178603892337,0.8573609361135659,A,595.429200000126,Correct
15,515,359,A,22.63814991464169,47.17391963464523,1.1319074957320845,0.7410061968261838,A,955.4307999997036,Correct
15,515,360,A,36.45954435844419,50.620202894753625,1.8229772179222095,0.7951402876869139,A,473.2116000000133,Correct
15,515,361,B,85.58777506955167,59.783450110849074,4.279388753477583,0.9390762383724768,B,584.1528999999355,Correct
15,515,362,B,85.41912516573547,67.76191329046401,4.270956258286773,1.0644016449325513,B,430.25170000009894,Correct
15,515,363,B,82.57871731592749,52.36497777424165,4.128935865796375,0.8225471474047519,B,438.78059999997276,Correct
15,515,364,A,39.084179362188216,59.82866258020299,1.9542089681094108,0.9397864341803412,A,677.447900000061,Correct
15,515,365,B,60.17773442411864,47.90074757360726,3.008886721205932,0.7524231833935183,B,694.5608999999422,Correct
15,515,366,A,58.835282746766936,69.56252723165628,2.941764137338347,1.0926856225805566,B,545.3511000000617,Incorrect
15,515,367,A,64.71131973142278,88.64575823533067,3.2355659865711393,1.3924443142200587,A,625.9022999997796,Correct
15,515,368,B,59.280549007886236,43.80131332078342,2.964027450394312,0.6880294207307898,B,701.2424999998075,Correct
15,515,369,A,23.317093353014872,55.2515912741823,1.1658546676507435,0.8678899662305852,A,521.407299999737,Correct
15,515,370,B,42.67587799543779,24.786069362286113,2.1337938997718893,0.3893386670996255,B,613.804799999798,Correct
15,515,371,B,65.49876238359785,44.33955545449343,3.2749381191798927,0.696484108396369,B,695.2103000003262,Correct
15,515,372,A,49.99157830374979,74.53558229907057,2.49957891518749,1.1708021889089877,A,622.9748000000654,Correct
15,515,373,A,59.91560590199154,69.65747150708681,2.9957802950995767,1.0941770037715213,B,896.6065999998136,Incorrect
15,515,374,A,40.84812879260223,65.34219954503394,2.0424064396301116,1.0263928703003846,A,955.7018999998945,Correct
15,515,375,B,78.80384363811419,49.71154965427902,3.9401921819057093,0.7808671959622359,B,689.4888000001629,Correct
15,515,376,B,65.12134132176736,47.53139317967493,3.2560670660883684,0.7466213781407738,B,1279.5875000001615,Correct
15,515,377,B,42.130280566551555,26.756355023802556,2.106514028327578,0.4202878418980924,B,719.0408999999818,Correct
15,515,378,B,55.55145250729356,25.957913212094454,2.777572625364678,0.4077459472481868,B,690.1293999999325,Correct
15,515,379,B,70.02352040042273,57.25813117602053,3.5011760200211364,0.899408621304334,B,817.2981999996409,Correct
15,515,380,A,65.6849834423563,78.61983935190585,3.2842491721178146,1.2349575486717856,B,1026.1701000003995,Incorrect
15,515,381,B,33.9097890449659,20.46669815785878,1.6954894522482948,0.32149014287984445,B,919.1404000002876,Correct
15,515,382,A,31.52232170320864,55.28952505440711,1.576116085160432,0.8684858286569709,A,1075.8409000000029,Correct
15,515,383,B,75.40373904938838,50.688409454132746,3.7701869524694187,0.7962116738162742,B,1018.4896000000663,Correct
15,515,384,B,63.9834083242111,33.551327086475695,3.199170416210555,0.5270230134653013,B,550.9021000002576,Correct
15,515,385,A,12.50857985589128,36.30091416079078,0.6254289927945641,0.5702134262306701,A,729.1354999997566,Correct
15,515,386,A,44.860871897655954,55.55835845711249,2.243043594882798,0.8727086538718647,A,1313.4327000002486,Correct
15,515,387,B,78.67099258943286,52.76676741673877,3.9335496294716426,0.8288584443505389,B,760.0773999997728,Correct
15,515,388,B,41.58647346792557,27.969105911112266,2.0793236733962788,0.4393376882891257,B,631.0231000002204,Correct
15,515,389,A,47.861562863189945,67.98840543866763,2.393078143159497,1.0679593752770127,A,796.8077000000449,Correct
15,515,390,B,66.97086004205097,47.80581405343042,3.3485430021025486,0.7509319711456836,B,875.223399999868,Correct
15,515,391,B,51.85179121562936,36.08915509865206,2.592589560781468,0.5668871226609397,B,513.2456999999704,Correct
15,515,392,B,73.60579836590878,55.97527505744119,3.680289918295439,0.8792575645156261,B,596.8693999998322,Correct
15,515,393,A,13.454104462945608,38.35695026372686,0.6727052231472804,0.6025095658131667,A,697.8339000002052,Correct
15,515,394,A,18.388662194478094,34.51828919458386,0.9194331097239047,0.5422120187409629,A,452.35360000015135,Correct
15,515,395,B,79.88433248688602,58.62542240537357,3.9942166243443014,0.9208859817116004,B,606.0145999999804,Correct
15,515,396,A,15.067489226678692,37.521181393582026,0.7533744613339346,0.5893813391004367,A,719.4159000000582,Correct
15,515,397,B,79.9221271322834,50.808243669734836,3.996106356614171,0.7980940252731953,B,679.9977999999101,Correct
15,515,398,B,50.30564281877173,19.693286129907577,2.5152821409385866,0.3093414151537971,B,508.9808000002449,Correct
15,515,399,B,78.99407117817006,51.421542257437885,3.9497035589085034,0.8077276969611199,B,508.9907999999923,Correct
15,515,400,A,58.35808433524677,75.8827735105345,2.9179042167623384,1.1919638189735668,A,706.2451000001602,Correct
15,515,401,A,17.580766329155267,47.001443909443594,0.8790383164577633,0.7382969544701036,A,555.9352000000217,Correct
15,515,402,B,54.754671469418454,45.72429863296428,2.7377335734709227,0.7182356033793321,A,704.9124999998639,Incorrect
15,515,403,A,36.297037692085866,56.41809712381641,1.8148518846042934,0.8862133972684852,A,503.502799999751,Correct
15,515,404,A,46.44258097297408,64.07952210946628,2.3221290486487036,1.00655877952322,A,571.3959999998224,Correct
15,515,405,B,86.89683808373351,63.53523060150424,4.344841904186676,0.9980090685090957,B,837.945999999647,Correct
15,515,406,A,29.82087356836344,45.21296602691169,1.4910436784181718,0.7102036095857532,A,918.5106999998425,Correct
15,515,407,A,60.73188801114696,81.0007743636755,3.0365944005573478,1.272357188380037,A,1034.6589000000677,Correct
15,515,408,A,30.40687446166674,43.444848018366685,1.520343723083337,0.6824300768541294,A,679.3703999996978,Correct
15,515,409,B,87.26231725715999,59.769031243836096,4.363115862858,0.9388497473390716,B,746.7022000000725,Correct
15,515,410,B,57.66172724399063,44.69738591978836,2.8830863621995313,0.7021048962013747,B,755.2629000001616,Correct
15,515,411,A,40.66223694261026,55.53409168011584,2.0331118471305127,0.8723274722301699,A,1950.5930999998782,Correct
15,515,412,A,33.61925095493602,61.90182924299461,1.680962547746801,0.9723516599678084,A,1343.727299999955,Correct
15,515,413,B,35.31533149200776,21.611735436807443,1.765766574600388,0.33947634639800234,B,928.8464000001113,Correct
15,515,414,B,86.40752908501636,66.05659552528171,4.320376454250818,1.0376145761168871,B,665.9641000001102,Correct
15,515,415,B,73.34161910211147,63.57537389110233,3.667080955105573,0.998639637827557,B,1203.6491999997452,Correct
15,515,416,A,26.227025434562947,36.66952471612062,1.3113512717281475,0.5760035472939694,A,890.5538000003617,Correct
15,515,417,A,27.485920454338686,43.05935622571299,1.3742960227169343,0.6763747859350292,A,1001.7794999998841,Correct
15,515,418,B,53.69335912239295,28.199067354926704,2.6846679561196476,0.44294991420160745,B,580.8109999998123,Correct
15,515,419,A,50.24824675865343,77.42290922349602,2.5124123379326715,1.2161562141804225,B,1920.4054000001634,Incorrect
15,515,420,A,28.12317581431369,52.31393410559674,1.4061587907156845,0.8217453553326163,A,3855.0599000000147,Correct
15,515,421,A,15.506485214789858,45.396982184155036,0.775324260739493,0.7130941286244409,A,638.5334999999941,Correct
15,515,422,A,39.18101679453011,67.20432832196249,1.9590508397265054,1.0556431207285693,A,737.3288999997385,Correct
15,515,423,A,24.011767768935236,55.625568869710335,1.2005883884467619,0.8737643925641753,A,596.6502999999648,Correct
15,515,424,A,27.07418673601707,51.1584719172617,1.3537093368008533,0.8035953977207455,A,523.2670999998845,Correct
15,515,425,A,38.90295379519662,62.17250777644586,1.9451476897598312,0.9766034684286831,A,495.9944000001997,Correct
15,515,426,A,53.43686359630472,79.2855589986536,2.6718431798152356,1.2454146484296513,B,966.9122000000243,Incorrect
15,515,427,A,42.87318524584056,71.50992167206134,2.1436592622920276,1.1232752229186471,A,638.0958999998256,Correct
15,515,428,A,38.440503428634045,70.8750151418823,1.922025171431702,1.113302134464014,A,627.6256000001013,Correct
15,515,429,B,61.57964092545065,52.3273763051474,3.0789820462725324,0.8219565049093985,B,1103.7783000001582,Correct
15,515,430,A,46.332697229712664,68.38074301848246,2.316634861485633,1.0741221995693804,B,1168.0727999996634,Incorrect
15,515,431,B,55.97688093100085,32.07898416656551,2.7988440465500424,0.5038955049615275,B,545.7357999998749,Correct
15,515,432,B,67.16475534846197,58.13312102769959,3.3582377674230988,0.9131529297543368,B,923.9628999998786,Correct
15,515,433,B,37.285979116250786,15.123998985731848,1.8642989558125393,0.23756722053237328,B,626.6304999999193,Correct
15,515,434,B,47.73671583526072,39.970785325521135,2.386835791763036,0.6278596276843594,B,652.0146000002569,Correct
15,515,435,B,71.36291200514424,56.747610053738256,3.5681456002572123,0.8913893742680119,B,535.0573999999142,Correct
15,515,436,B,60.53881218302522,27.875663366167007,3.026940609151261,0.43786989622546196,B,403.246400000171,Correct
15,515,437,B,86.65250973322733,69.68092094871284,4.332625486661367,1.094545346739237,B,802.409500000067,Correct
15,515,438,B,53.643646393630995,43.245964302678,2.6821823196815497,0.6793060187534982,B,681.8741000001864,Correct
15,515,439,B,35.186632835392636,21.629517451543293,1.7593316417696316,0.33975566563230325,B,714.7339999996802,Correct
15,515,440,B,30.304100880831317,14.44375298155347,1.5152050440415659,0.22688194128557027,B,516.9603999997889,Correct
15,515,441,A,34.9810948210601,44.480371710902574,1.7490547410530046,0.6986960449795739,B,854.6313000001646,Incorrect
15,515,442,B,85.38758318010639,61.326729211670965,4.26937915900532,0.9633180098003802,B,710.9231000004002,Correct
15,515,443,A,41.31474024212945,61.474428231814,2.0657370121064726,0.9656380605834992,A,1187.3531000001094,Correct
15,515,444,A,22.3582470382432,42.8694529611688,1.11791235191216,0.6733917924311054,A,638.9718000000357,Correct
15,515,445,B,39.06165336027234,16.448818063215143,1.953082668013617,0.25837742993815893,B,1164.2282000002524,Correct
15,515,446,A,25.72193058684825,50.817011415070745,1.2860965293424125,0.7982317486948745,A,682.2775999999067,Correct
15,515,447,B,39.96644290274726,24.346623577250362,1.998322145137363,0.3824358688500289,B,813.3735000001252,Correct
15,515,448,B,86.5082859337939,64.10811765835466,4.325414296689695,1.0070079573547852,B,707.4546999997438,Correct
15,515,449,B,82.86862234045077,56.106973857031235,4.143431117022539,0.8813262844220195,B,704.989100000148,Correct
15,515,450,A,53.63290408839187,82.53637121890384,2.6816452044195933,1.2964782873763419,A,1192.744699999821,Correct
15,515,451,A,22.71061413487019,42.833097325128904,1.1355307067435094,0.672820719435608,A,576.7759000000297,Correct
15,515,452,B,78.93374636086921,51.87689348856319,3.9466873180434607,0.8148803373736514,B,782.5167999999394,Correct
15,515,453,A,63.8985207870041,75.93601218868258,3.194926039350205,1.192800090174351,A,971.2445999998636,Correct
15,515,454,A,29.189390558588414,50.11065760483302,1.4594695279294205,0.7871363689894846,A,979.2962999999872,Correct
15,515,455,B,43.45288847731601,17.149262522025882,2.1726444238658003,0.2693799857683964,B,958.6113999998815,Correct
15,515,456,B,44.362164350200786,33.01401638368539,2.2181082175100393,0.5185829566823955,A,1825.398899999982,Incorrect
15,515,457,B,40.59024793579236,24.439885223148927,2.0295123967896185,0.383900819358112,B,619.3497999997817,Correct
15,515,458,A,29.13914629514564,53.082231952236675,1.4569573147572819,0.8338137496864806,A,736.3378000000012,Correct
15,515,459,A,44.85285212579232,71.64816338874473,2.242642606289616,1.1254467187264081,A,947.3994999998467,Correct
15,515,460,A,19.39129204876846,32.85587701974981,0.969564602438423,0.5160989093624786,A,893.9086000000316,Correct
15,515,461,B,83.99618834296712,55.035674397094546,4.199809417148356,0.8644983518563606,B,583.8435999999092,Correct
15,515,462,A,25.837455998892334,48.235981822961,1.2918727999446167,0.7576890306685254,A,766.1911999998665,Correct
15,515,463,B,61.78920137325276,35.33133735674936,3.089460068662638,0.5549833494073321,B,820.5635999997867,Correct
15,515,464,B,51.49017764850242,30.338014161101434,2.5745088824251208,0.4765484120650969,B,1226.1186999999154,Correct
15,515,465,A,49.68189815883716,75.04305543145682,2.484094907941858,1.178773558231982,A,633.3191999997325,Correct
15,515,466,A,18.85359513842176,33.77971334412434,0.942679756921088,0.5306104964113507,A,520.492699999977,Correct
15,515,467,A,54.46075907021665,70.33522438570854,2.723037953510833,1.104823121093658,A,643.5567999997147,Correct
15,515,468,A,28.152925022945556,48.38535886848858,1.4076462511472778,0.7600354398127475,A,578.7261000000399,Correct
15,515,469,A,27.733375897443366,41.973313210285454,1.386668794872168,0.659315262141281,A,807.9757999998947,Correct
15,515,470,B,44.00617520147214,17.125141135068734,2.200308760073607,0.26900108790810157,B,563.6051000001316,Correct
15,515,471,B,68.13584021887796,59.34586494902925,3.4067920109438976,0.9322026667240114,B,864.5792000002075,Correct
15,515,472,A,50.93660877368076,60.30607590527135,2.546830438684038,0.9472856251541444,B,1136.8910000001051,Incorrect
15,515,473,B,58.01377711413981,40.78854651368085,2.9006888557069908,0.6407049903899267,B,508.7625000001026,Correct
15,515,474,B,81.13066639570903,53.57367675852873,4.056533319785451,0.8415333466519405,B,668.5217000003831,Correct
15,515,475,A,27.84967145274871,44.60475728624463,1.3924835726374354,0.7006498890281097,A,457.75640000010753,Correct
15,515,476,B,89.85698135367414,67.38325603688654,4.492849067683707,1.058453710702214,B,538.3429000003161,Correct
15,515,477,B,86.07600691872611,67.41180993255736,4.303800345936305,1.0589022342465682,B,724.8672000000624,Correct
15,515,478,A,21.084129187922542,46.09393929965595,1.0542064593961271,0.724041905394065,A,572.2866000000977,Correct
15,515,479,B,74.72477451755083,43.22490819957902,3.7362387258775414,0.6789752702594533,B,721.8539999998939,Correct
15,515,480,A,55.65023410794259,71.09810548532161,2.782511705397129,1.1168064293841928,B,695.0878000002376,Incorrect
15,515,481,B,37.13337524630886,18.193219958380144,1.8566687623154428,0.28577843083195137,B,414.27560000011,Correct
15,515,482,A,27.715641589051508,47.56686779351406,1.3857820794525753,0.7471786120719034,A,990.8716999998433,Correct
15,515,483,B,81.56898605616138,52.179517747441636,4.078449302808069,0.8196339481161043,B,588.1208000000697,Correct
15,515,484,B,44.73495638221758,31.17792302840993,2.236747819110879,0.4897416697012033,A,913.3894000001419,Incorrect
15,515,485,B,66.0436033021244,43.77739187374182,3.3021801651062197,0.6876536635193441,B,511.4453000001049,Correct
15,515,486,B,38.91121084481979,19.101844052490602,1.9455605422409894,0.3000510647266118,A,952.596000000085,Incorrect
15,515,487,B,42.93113298565197,18.634321377177365,2.1465566492825987,0.2927072357158582,B,484.4780000003084,Correct
15,515,488,B,71.90413035389984,57.988641668904094,3.5952065176949923,0.9108834532934004,B,759.7957999996652,Correct
15,515,489,A,38.06083781447801,45.22466387591812,1.9030418907239008,0.7103873589682603,A,847.235599999749,Correct
15,515,490,A,12.248965471108875,36.97434714002071,0.6124482735554437,0.5807916867318392,A,669.9084000001676,Correct
15,515,491,B,63.06880803404138,55.28924507650274,3.1534404017020687,0.8684814307743332,B,765.1157999998759,Correct
15,515,492,A,27.103652393298866,42.3583740143124,1.3551826196649432,0.6653637831068632,A,931.9814000000406,Correct
15,515,493,A,49.60143674413988,78.49775380211331,2.480071837206994,1.2330398333400971,A,588.3050999996158,Correct
15,515,494,A,20.75950805443142,51.824611193494874,1.037975402721571,0.8140590890031542,A,504.45319999971616,Correct
15,515,495,B,44.95307247103684,30.95427041090135,2.2476536235518423,0.48622854260059795,B,866.4024000004247,Correct
15,515,496,B,78.61389956881305,54.359976734853305,3.930694978440653,0.8538845177976361,B,733.7330999998812,Correct
15,515,497,B,81.67812954230067,66.34433491668253,4.0839064771150335,1.0421343759077533,B,741.466500000115,Correct
15,515,498,B,40.930547274340064,17.85282372964187,2.046527363717003,0.28043149937438216,B,743.4317000002011,Correct
15,515,499,A,54.13245794416804,80.08900071420814,2.706622897208402,1.25803508138552,A,739.299100000153,Correct
15,515,500,B,47.867502501766886,25.757589312975313,2.3933751250883444,0.40459926679913105,B,694.3477999998322,Correct
15,515,501,A,56.08643169417864,65.79765141810637,2.8043215847089322,1.033547091592925,B,1030.3681999998844,Incorrect
15,515,502,A,44.2544042943649,76.27760626796268,2.2127202147182454,1.1981658374242314,A,1511.2678999998934,Correct
15,515,503,B,64.46841114690574,46.2672160645672,3.2234205573452868,0.7267637304524799,B,1941.856800000096,Correct
15,515,504,B,76.32143632844478,62.93604815015948,3.8160718164222387,0.9885971325725726,B,1075.6845999999314,Correct
15,515,505,A,49.753802250586304,74.26669501140651,2.4876901125293154,1.1665785172711423,A,814.2108000001826,Correct
15,515,506,B,68.46936754209412,51.26842672181728,3.423468377104706,0.805322563751839,B,864.4085000000814,Correct
15,515,507,A,25.697809201278286,38.43110720000567,1.2848904600639142,0.6036744202442981,B,2679.6171999999387,Incorrect
15,515,508,A,39.54209894901798,52.06824842940436,1.9771049474508993,0.8178861337555252,B,978.6804999998822,Incorrect
15,515,509,B,81.4354112446642,59.035640615799416,4.071770562233209,0.9273296742928132,B,938.6795999998867,Correct
15,515,510,B,87.3439357914177,69.11944062599288,4.367196789570886,1.0857256344542756,B,547.8183999998691,Correct
15,515,511,A,38.10522016321602,65.88619785134219,1.9052610081608008,1.0349379757137012,A,644.676299999901,Correct
15,515,512,B,56.44080832964629,37.524514957424145,2.8220404164823147,0.58943370259882,B,1486.3322999999582,Correct
15,515,513,A,53.89751952388979,78.15454885536563,2.6948759761944894,1.2276487826432065,B,1833.6740999998256,Incorrect
15,515,514,B,58.75560547621781,35.916842367040886,2.9377802738108905,0.5641804406021914,B,904.3252999999822,Correct
15,515,515,B,74.17507011094438,52.23299823048582,3.708753505547219,0.8204740175793145,B,582.4311999999736,Correct
15,515,516,B,79.43154475253827,51.863881213556674,3.9715772376269136,0.8146759410358165,B,693.0677999998807,Correct
15,515,517,B,60.813148702134946,46.753988559653266,3.0406574351067475,0.7344099349251397,B,641.4733000001434,Correct
15,515,518,A,47.687922641308525,74.72893722501993,2.3843961320654263,1.1738394009834772,A,3394.063499999902,Correct
15,515,519,B,42.82551078398632,25.441759253847465,2.1412755391993157,0.3996382198314367,B,752.6887000003626,Correct
15,515,520,A,55.99347226961896,76.45595028877563,2.799673613480948,1.2009672587522195,A,788.0507999998372,Correct
15,515,521,A,28.390808896394905,43.111706273858985,1.4195404448197453,0.677197098568382,A,920.7498000000669,Correct
15,515,522,A,47.19361437812425,66.90913301720227,2.359680718906213,1.0510062037245245,A,4257.047499999771,Correct
15,515,523,A,64.23218150264384,74.33331334155872,3.2116090751321917,1.1676249555541451,B,786.7310999999972,Incorrect
15,515,524,A,45.676839744135016,60.93813518039538,2.283841987206751,0.9572139890309592,A,831.9916000000376,Correct
15,515,525,A,21.44170101281744,36.65432961363405,1.0720850506408721,0.5757648631822575,A,784.8432000000685,Correct
15,515,526,B,62.22007204044659,48.67159124689914,3.1110036020223295,0.764531567498918,B,689.9376999999731,Correct
15,515,527,A,33.5317571928688,52.68874263266922,1.6765878596434403,0.8276328339083847,A,605.2985000001172,Correct
15,515,528,B,51.62560439327858,26.38267430768593,2.5812802196639293,0.41441807893539157,B,903.2271999999466,Correct
15,515,529,B,69.26756398541715,51.6047411705017,3.4633781992708577,0.8106053787582546,B,483.1137999999555,Correct
15,515,530,A,43.67231682433152,68.60084328861231,2.183615841216576,1.0775795265278456,A,858.0333999998402,Correct
15,515,531,B,73.69536442890968,60.08020309366614,3.684768221445484,0.9437376233262215,B,470.18230000003314,Correct
15,515,532,A,39.956816591717406,61.23068832608309,1.9978408295858703,0.9618094030973448,A,533.6440999999468,Correct
15,515,533,B,34.475659782999486,22.169978722892747,1.7237829891499743,0.3482452114304093,B,536.6902000000664,Correct
15,515,534,A,25.310752514926687,53.70156150785259,1.2655376257463344,0.8435421555968506,A,446.2202999998226,Correct
15,515,535,A,35.57733839980532,68.27096827507495,1.778866919990266,1.0723978619321863,A,959.064699999999,Correct
15,515,536,A,19.905988786822174,33.794614688326575,0.9952994393411088,0.5308445661787224,A,949.4518999999855,Correct
15,515,537,B,82.04287319898214,52.63860836954794,4.102143659949107,0.8268453267448101,B,628.9166999999907,Correct
15,515,538,B,41.14370435736096,19.611616361032187,2.0571852178680476,0.3080585494242005,B,478.8653999999042,Correct
15,515,539,B,71.7473727540183,61.94850575563666,3.5873686377009153,0.9730848529138656,B,515.0161999999909,Correct
15,515,540,A,13.628087096442474,41.931961003324716,0.6814043548221237,0.6586657031932931,A,533.801599999606,Correct
15,515,541,A,38.02790354449789,52.17497444879771,1.9013951772248945,0.8195625821478902,A,521.9434000000547,Correct
15,515,542,A,30.736589954233004,56.457511182549055,1.5368294977116503,0.8868325118552985,A,347.06539999979213,Correct
15,515,543,B,84.64533533646207,66.2120786947049,4.232266766823103,1.0400569000309707,A,289.9750999999924,Incorrect
15,515,544,B,39.438518157654755,26.50945268723695,1.9719259078827378,0.416409509064549,B,510.98529999990205,Correct
15,515,545,B,73.14129734801848,47.885121561208685,3.6570648674009245,0.7521777305647371,B,322.8433999997833,Correct
15,515,546,A,47.88468240825581,72.03967194889076,2.3942341204127904,1.1315965208082694,A,429.5972999998412,Correct
15,515,547,B,56.27096929896084,30.615432002294522,2.8135484649480422,0.4809060813244316,B,424.99240000006466,Correct
15,515,548,A,42.55116306556741,59.93852268652703,2.1275581532783705,0.9415121126950925,A,532.3262000001705,Correct
15,515,549,A,66.29570172455111,82.70238730552808,3.3147850862275554,1.299086061966924,A,809.505999999601,Correct
