subject,day,trial,cat,x,y,xt,yt,resp,rt,fb
13,213,0,B,58.47566102230279,39.2327349885755,2.9237830511151395,0.6162663601017202,B,599.0916000000652,Correct
13,213,1,B,59.65882763610828,46.49787463906042,2.982941381805414,0.7303869068680567,B,626.3743999998042,Correct
13,213,2,A,49.3280571444375,78.20495139202019,2.4664028572218752,1.2284405038375874,A,559.0671999998449,Correct
13,213,3,A,42.01049914794338,73.41922576182732,2.100524957397169,1.1532665014280357,B,942.0184000000518,Incorrect
13,213,4,B,52.19214271894016,28.203835322262893,2.609607135947008,0.44302480925738713,B,798.5779000000548,Correct
13,213,5,B,72.43505248114381,58.342484607074425,3.6217526240571907,0.916441605168803,B,563.0217999996603,Correct
13,213,6,B,86.1620954793343,59.73839643617332,4.308104773966715,0.9383685369055839,B,493.50779999986116,Correct
13,213,7,A,37.73488345656421,61.37192289617809,1.8867441728282106,0.9640279105365616,B,710.5944000004456,Incorrect
13,213,8,B,48.26278895073685,39.27372806510681,2.4131394475368424,0.6169102778421142,B,542.380900000353,Correct
13,213,9,B,52.77541168289719,39.990443903503454,2.6387705841448597,0.628168423905206,B,434.77900000016234,Correct
13,213,10,B,39.369925477270556,25.98692889416865,1.9684962738635279,0.4082017245164028,B,429.8208000000159,Correct
13,213,11,B,66.57356381498526,51.973117198392266,3.3286781907492635,0.8163918158731523,B,476.48930000013934,Correct
13,213,12,A,39.3328689968796,48.52600544900663,1.9666434498439798,0.7622447111332876,B,833.7534000002051,Incorrect
13,213,13,B,47.98971739221303,29.713034215670575,2.399485869610652,0.4667312500390642,B,1084.2559000002439,Correct
13,213,14,A,60.80703224222834,70.23462556065854,3.040351612111417,1.103242918444974,A,1735.3413999999248,Correct
13,213,15,B,61.139190712965885,43.586602438042355,3.0569595356482946,0.6846567500714642,B,451.2011999995593,Correct
13,213,16,B,84.55401401543506,57.50671225234791,4.227700700771753,0.9033133237203916,B,420.32640000070387,Correct
13,213,17,B,66.21891080629243,44.87135867335077,3.3109455403146217,0.7048376538239571,B,453.472199999851,Correct
13,213,18,B,76.38770137467196,53.67222700325038,3.819385068733598,0.8430813702760754,B,411.54850000020815,Correct
13,213,19,B,37.351923675390665,17.010567145361538,1.8675961837695332,0.26720136388631854,B,634.9943999994139,Correct
13,213,20,A,13.929388270658482,31.01715959965369,0.696469413532924,0.4872164036674709,A,563.2761999995637,Correct
13,213,21,B,53.888201008593484,41.03237152421637,2.6944100504296737,0.6445349846992258,B,466.5231999997559,Correct
13,213,22,B,61.97108989309693,34.61121272738258,3.0985544946548464,0.5436716581808932,B,394.7848999996495,Correct
13,213,23,B,82.98999676493571,65.05648565485097,4.149499838246785,1.0219048870082479,A,627.8849000000264,Incorrect
13,213,24,A,33.04962883829965,65.48006863547172,1.6524814419149823,1.028558512908767,A,1045.8134000000427,Correct
13,213,25,B,40.12131039434665,13.719886285157944,2.0060655197173327,0.21551146980769775,B,472.07129999969766,Correct
13,213,26,A,22.75292478763818,51.47396922953667,1.137646239381909,0.8085512179130973,A,601.7449999999371,Correct
13,213,27,B,38.910586071973576,21.49444594201183,1.9455293035986787,0.33763396732203654,B,458.5861000005025,Correct
13,213,28,B,59.12258560037476,44.397421431622966,2.9561292800187378,0.6973930650395836,B,490.3396999998222,Correct
13,213,29,A,35.60549217094407,56.42832431269916,1.7802746085472034,0.88637404557579,A,1125.4086999997526,Correct
13,213,30,A,24.607632738821028,54.17219984545403,1.2303816369410514,0.8509349253163825,A,685.6675999997606,Correct
13,213,31,B,89.02704567155665,66.33893746018131,4.451352283577832,1.0420495928592917,B,452.05309999983,Correct
13,213,32,B,39.8275256454004,26.705074061309332,1.9913762822700198,0.4194823224229038,B,526.8044000004011,Correct
13,213,33,B,53.70846221041416,44.16751072477749,2.6854231105207083,0.6937816361015469,B,586.7066999999224,Correct
13,213,34,A,66.30978311199955,78.32820871525237,3.3154891555999773,1.2303766253434245,A,620.6457999996928,Correct
13,213,35,A,52.28625692975075,75.57206334284068,2.6143128464875374,1.1870831950724539,A,675.2857999999833,Correct
13,213,36,A,65.09341464546416,78.3281401922642,3.2546707322732082,1.230375548986843,A,519.1790999997465,Correct
13,213,37,B,44.42548161837264,30.90988456317441,2.2212740809186324,0.4855313313348864,B,434.7649999999703,Correct
13,213,38,A,13.495532784720982,31.862179038643372,0.674776639236049,0.5004899379758236,A,513.0980000003547,Correct
13,213,39,B,56.499804653376636,41.69622188569559,2.824990232668832,0.6549627217927562,B,318.66660000014235,Correct
13,213,40,A,45.94064827579296,68.98388727629683,2.297032413789648,1.0835963674164026,A,477.028700000119,Correct
13,213,41,A,68.6832815903879,89.01687901276881,3.434164079519395,1.3982738657600295,A,573.5827999997127,Correct
13,213,42,A,58.61384851285224,69.54805099976582,2.9306924256426123,1.0924582304617627,B,592.6675000000614,Incorrect
13,213,43,A,60.187854430467794,84.43368200881812,3.0093927215233895,1.3262811755721984,A,593.5088000005635,Correct
13,213,44,B,66.70196317164691,43.39008755486481,3.335098158582346,0.681569901504906,B,394.31189999959315,Correct
13,213,45,A,47.70485125527079,58.443476443646574,2.3852425627635396,0.918027981228041,B,540.8489000001282,Incorrect
13,213,46,B,69.52849132771001,57.23155779797608,3.476424566385501,0.8989912076581065,B,724.810300000172,Correct
13,213,47,A,35.3450258082484,46.92171683756043,1.7672512904124202,0.7370446045535018,B,1034.4144999999116,Incorrect
13,213,48,A,35.23937731287557,54.97273102571753,1.7619688656437784,0.8635096396908093,A,528.4931000005599,Correct
13,213,49,B,45.784083008795776,19.600509846912026,2.289204150439789,0.30788408870836614,B,540.9059000003253,Correct
13,213,50,B,85.76348935754504,66.97923335684635,4.288174467877252,1.0521073372847245,B,691.8341999999029,Correct
13,213,51,B,52.304652029300975,39.835247285692226,2.6152326014650487,0.6257306011333172,B,852.6752999996461,Correct
13,213,52,A,49.14950998802868,57.25989894931398,2.457475499401434,0.8994363894222936,B,1524.970200000098,Incorrect
13,213,53,A,36.280542067452814,50.41011026898342,1.8140271033726407,0.7918401604384486,A,867.8761999999551,Correct
13,213,54,A,17.810609040684128,48.19821883703293,0.8905304520342063,0.7570958510726792,A,500.4431999996086,Correct
13,213,55,A,28.337315488675337,46.52754498189067,1.4168657744337667,0.7308529675233818,A,586.0017000004518,Correct
13,213,56,A,53.50596575201225,80.00703820652531,2.675298287600613,1.256747617325489,A,741.5915000001405,Correct
13,213,57,A,58.02466604845718,68.31534352339564,2.9012333024228587,1.073094906702814,A,947.9335999994873,Correct
13,213,58,B,70.61023322679718,55.41758243842593,3.5305116613398586,0.8704973493413282,B,592.6786999998512,Correct
13,213,59,A,44.33984968835457,65.251881111565,2.2169924844177284,1.024974151665036,B,815.3076999997211,Incorrect
13,213,60,B,62.67964868396848,48.11017668695834,3.133982434198424,0.7557128882132763,B,648.4282000001258,Correct
13,213,61,B,39.232390146603436,12.007560229731975,1.9616195073301719,0.1886143150263147,B,631.896300000335,Correct
13,213,62,B,46.232034706382,32.552010397257995,2.3116017353191,0.5113257836180214,B,718.8237000000299,Correct
13,213,63,A,46.63046435015334,57.70273449552991,2.3315232175076672,0.9063924339159956,A,1196.0821999991822,Correct
13,213,64,A,32.255081124172726,63.94919572323127,1.6127540562086364,1.0045116174353959,A,782.3107000003802,Correct
13,213,65,A,23.620173939652595,37.7646607240164,1.18100869698263,0.5932059034794046,A,462.04430000034336,Correct
13,213,66,A,36.204356069392425,44.326143955887446,1.8102178034696212,0.6962734410688981,A,472.8356999994503,Correct
13,213,67,A,39.16781725656334,64.50669216338585,1.958390862828167,1.0132687510393563,A,536.880900000142,Correct
13,213,68,A,30.967445905984114,44.90684071467478,1.5483722952992056,0.7053950044257465,A,510.87439999992057,Correct
13,213,69,B,62.19905504311537,33.57473926139903,3.1099527521557686,0.5273907710490199,B,416.3325999998051,Correct
13,213,70,B,77.9927216264941,56.59276771123503,3.8996360813247053,0.8889571164396481,B,429.85630000021047,Correct
13,213,71,B,75.71134584833698,63.28781179175305,3.785567292416849,0.9941226229337243,B,399.5236999999179,Correct
13,213,72,B,79.63173542329143,51.59008257858325,3.981586771164572,0.8103751221348398,B,437.32920000002196,Correct
13,213,73,B,74.63133918249727,43.217002952635625,3.731566959124864,0.6788510949308424,B,351.5519000002314,Correct
13,213,74,B,53.180617765454926,43.111959691945074,2.6590308882727465,0.6772010792503695,B,397.91349999995873,Correct
13,213,75,B,74.05533256940123,44.878248593383276,3.7027666284700613,0.7049458804347469,B,354.34540000005654,Correct
13,213,76,B,64.80688634024801,53.10796614738939,3.2403443170124007,0.8342179814786698,B,344.42699999999604,Correct
13,213,77,A,42.4143076604586,60.977063428950004,2.12071538302293,0.957825472529341,A,658.8900999995531,Correct
13,213,78,A,68.41725664471329,85.50503613063282,3.4208628322356645,1.3431099667646293,A,598.2499000001553,Correct
13,213,79,A,57.66077686759858,68.5212629403981,2.883038843379929,1.076329481341246,A,747.2428999999465,Correct
13,213,80,B,69.07489967162341,39.4444291616453,3.4537449835811707,0.6195916443963394,B,443.262799999502,Correct
13,213,81,B,66.34031178470696,44.93368651578928,3.3170155892353477,0.7058166972835518,B,441.0765000002357,Correct
13,213,82,B,60.01686174138051,43.95994757647935,3.0008430870690255,0.6905212417922998,B,383.96499999998923,Correct
13,213,83,B,74.40572942388336,53.80218928662735,3.720286471194168,0.8451228130495798,B,394.21410000068136,Correct
13,213,84,B,80.21663394797274,50.390243191787704,4.010831697398637,0.7915280891196166,B,334.9306999998589,Correct
13,213,85,B,81.96330660853653,52.29353028945928,4.098165330426826,0.821424852938203,B,319.7696999995969,Correct
13,213,86,B,43.97103454184428,22.7240132571064,2.198551727092214,0.35694796554301267,A,521.3835999993535,Incorrect
13,213,87,B,51.693111727434825,29.32698393183815,2.584655586371741,0.46066718636104315,B,393.70270000017626,Correct
13,213,88,A,41.63083677356042,48.675575983464554,2.081541838678021,0.7645941595945202,A,776.9490999999107,Correct
13,213,89,A,29.258740984794777,45.40815175401006,1.4629370492397387,0.7132695798174424,A,565.5549999992218,Correct
13,213,90,B,73.90329934505735,58.43134052298059,3.6951649672528672,0.9178373506319971,B,448.9504000002853,Correct
13,213,91,A,52.80575128322947,74.72720134193752,2.640287564161474,1.1738121337957812,A,608.1432000000859,Correct
13,213,92,B,64.3976717967282,45.29374085578983,3.21988358983641,0.7114724176307459,B,554.6194999997169,Correct
13,213,93,B,60.9868920042012,31.062377142137024,3.0493446002100604,0.48792667916386595,B,477.1488999995199,Correct
13,213,94,B,51.78119022985289,39.78084702190918,2.5890595114926445,0.6248760837880464,B,397.96019999994314,Correct
13,213,95,A,34.40796419297984,66.82331120315204,1.720398209648992,1.049658117821835,A,515.7986000003802,Correct
13,213,96,B,40.41906693887623,13.277917087761157,2.0209533469438115,0.20856903388942416,B,718.0144000003565,Correct
13,213,97,B,56.77774394681672,38.1988301380647,2.8388871973408363,0.6000258206873422,B,412.6548999993247,Correct
13,213,98,B,37.45959045917675,15.239379112033411,1.8729795229588375,0.23937960731816957,B,356.0981000000538,Correct
13,213,99,A,41.10975364794786,58.429794986172496,2.055487682397393,0.9178130733965862,A,809.9540000002889,Correct
13,213,100,B,36.20013121968428,19.952367699838124,1.8100065609842142,0.3134110589376687,B,392.8541999994195,Correct
13,213,101,A,57.85112860077224,65.72946393528997,2.892556430038612,1.0324760051175113,A,961.1328999999387,Correct
13,213,102,A,43.03904906477171,53.11196304541345,2.1519524532385854,0.8342807646060174,A,990.9762999996019,Correct
13,213,103,B,34.902623573480724,18.40231664505225,1.7451311786740362,0.28906291390564653,B,487.25350000040635,Correct
13,213,104,B,52.35756579173589,41.4486572225706,2.6178782895867942,0.6510739851579467,B,651.9297000004372,Correct
13,213,105,B,54.10528377402024,33.888547951838305,2.7052641887010123,0.5323200664316033,B,439.82599999981176,Correct
13,213,106,A,39.434906435224924,51.02393873568277,1.9717453217612462,0.8014821554461833,B,532.535999999709,Incorrect
13,213,107,B,34.473031657246594,17.465749022767913,1.7236515828623298,0.2743513440968539,B,587.4256000006426,Correct
13,213,108,B,48.416053561764215,18.404611836459345,2.4208026780882106,0.28909896668796214,B,440.1196000007985,Correct
13,213,109,B,55.32378872236779,23.606451876098536,2.766189436118389,0.3708092789563608,B,461.7198999994798,Correct
13,213,110,B,56.69759340951148,24.65923881428475,2.834879670475574,0.38734641751036625,B,478.8281000001007,Correct
13,213,111,B,50.489839013858365,40.551740408556384,2.524491950692918,0.6369852487890054,B,567.4132999993162,Correct
13,213,112,B,50.33436993807033,33.52333244726865,2.5167184969035166,0.5265832747009376,B,630.8577999998306,Correct
13,213,113,A,48.525013603793575,55.958090886425545,2.426250680189679,0.8789876361885223,A,538.7350999999398,Correct
13,213,114,B,40.519642278234386,14.051643241723006,2.025982113911719,0.2207226958953083,B,439.1499000003023,Correct
13,213,115,A,32.26523799707772,41.25811761827113,1.613261899853886,0.648080996052521,A,574.347900000248,Correct
13,213,116,A,35.65864181960794,61.206318693973785,1.7829320909803972,0.9614266058113183,A,480.57280000011815,Correct
13,213,117,A,28.8890841546718,57.091377182967236,1.4444542077335898,0.896789255706669,A,441.70070000018313,Correct
13,213,118,B,58.167403175601486,35.14548826151396,2.9083701587800745,0.5520640386459928,B,403.3694999998261,Correct
13,213,119,B,66.54703945979828,48.63221051855972,3.327351972989914,0.7639129764646972,B,375.5297999996401,Correct
13,213,120,A,26.443106254488264,48.489438426964696,1.3221553127244132,0.7616703176942345,A,425.4556000005323,Correct
13,213,121,B,58.39871609491052,29.370445337335973,2.919935804745526,0.4613498765221764,B,330.5764000006093,Correct
13,213,122,A,17.70814027267397,42.865301851888375,0.8854070136336984,0.6733265869590074,A,415.8457000003182,Correct
13,213,123,B,34.92924984791898,12.96794884380865,1.746462492395949,0.20370006409918748,B,505.4962999993222,Correct
13,213,124,A,23.511335740544197,49.486233406156366,1.17556678702721,0.7773279366130533,B,435.7474000007642,Incorrect
13,213,125,A,15.613517307572714,38.98058700072613,0.7806758653786358,0.612305628770495,A,529.808199999934,Correct
13,213,126,B,49.45345075823917,34.239699179130234,2.4726725379119587,0.5378359370114001,B,593.0181999992783,Correct
13,213,127,B,67.62677251950973,39.73126592938395,3.381338625975486,0.6240972658078754,B,485.74439999993047,Correct
13,213,128,B,63.70822044867535,52.1265605244113,3.185411022433767,0.8188020980019713,B,825.0410000000556,Correct
13,213,129,B,82.50717683357985,57.849123110084754,4.125358841678992,0.908691900896269,B,453.7705000002461,Correct
13,213,130,A,40.869306953152105,73.40765713170443,2.0434653476576052,1.153084781811005,A,554.2045000001963,Correct
13,213,131,A,24.340718923417462,45.12011276161531,1.217035946170873,0.7087450739051686,A,482.2168000000602,Correct
13,213,132,A,36.37660995328318,57.662069361180066,1.818830497664159,0.905753667479342,A,528.8147000001118,Correct
13,213,133,A,31.03602310189352,51.514730647309285,1.5518011550946762,0.8091914967662192,A,510.3668000001562,Correct
13,213,134,A,37.75654004957243,49.3518631190013,1.8878270024786215,0.7752172530781177,A,841.3958000001003,Correct
13,213,135,A,53.89819943869896,70.35804803135952,2.694909971934948,1.1051816340811842,A,724.4874999996682,Correct
13,213,136,A,24.251911328729186,55.66885558398256,1.2125955664364594,0.8744443386819537,B,458.0134000007092,Incorrect
13,213,137,A,55.88979820172709,74.91264373376481,2.7944899100863547,1.176725056074925,A,1208.9359999999942,Correct
13,213,138,B,83.94956456701674,57.72184547105768,4.197478228350837,0.9066926284176002,B,1550.4572999998345,Correct
13,213,139,B,81.39678119091661,54.28911311658511,4.0698390595458305,0.8527713946848454,B,486.21929999990243,Correct
13,213,140,B,43.594192418806045,17.574590510261302,2.179709620940302,0.276061022184429,A,446.4864999999918,Incorrect
13,213,141,A,20.235275732991955,33.256857087238416,1.0117637866495977,0.5223974895337693,A,504.1860999999699,Correct
13,213,142,B,35.87397099808763,25.128307101599,1.7936985499043814,0.3947145249376582,B,1009.3123000006017,Correct
13,213,143,B,73.2126891675264,60.14830546444078,3.66063445837632,0.9448073728648098,A,906.702199999927,Incorrect
13,213,144,B,75.06042699218165,48.96654952346472,3.7530213496090825,0.7691647612727877,B,541.1992999997892,Correct
13,213,145,B,60.40812991554656,42.31013423600171,3.020406495777328,0.6646060344411049,B,459.8473999994894,Correct
13,213,146,A,46.641068914879725,67.27904553768161,2.3320534457439863,1.0568167760085685,B,774.338400000488,Incorrect
13,213,147,B,46.52191757413243,18.64427460458065,2.3260958787066217,0.29286358064630663,B,795.0679999994463,Correct
13,213,148,A,53.82545279835976,62.441851791349485,2.6912726399179885,0.980834314321231,A,870.3826000000845,Correct
13,213,149,B,59.1789320235212,43.49956210935336,2.95894660117606,0.6832895237855872,B,607.7832000000853,Correct
13,213,150,B,46.05644155084388,30.516549293824347,2.302822077542194,0.47935283537194673,B,614.1252999996141,Correct
13,213,151,A,44.46812981650832,69.33259011906522,2.2234064908254165,1.089073778862038,A,500.4941000006511,Correct
13,213,152,A,11.765302405582773,31.313898402224893,0.5882651202791387,0.4918775658784344,A,532.214699999713,Correct
13,213,153,B,45.16252208288259,25.003777448322786,2.2581261041441296,0.392758417718225,B,448.659000000589,Correct
13,213,154,B,59.14064028820557,45.173179756395506,2.957032014410278,0.7095786483099165,B,626.3121000001775,Correct
13,213,155,A,28.774863293104765,38.38375497053845,1.4387431646552384,0.6029306131631714,A,680.4149999998117,Correct
13,213,156,B,73.51986449857739,49.85988488137398,3.6759932249288694,0.7831972402607865,B,602.9343999998673,Correct
13,213,157,A,38.521825981901955,60.31002519843434,1.9260912990950976,0.9473476605060831,A,478.2634999992297,Correct
13,213,158,A,35.054422723336174,52.93089518758602,1.752721136166809,0.8314365573462578,A,1068.0733999997756,Correct
13,213,159,A,33.229112692910746,58.58518045778644,1.6614556346455374,0.920253862677071,A,591.6770999992877,Correct
13,213,160,B,36.02746328221089,25.031351547874173,1.8013731641105444,0.39319155066112493,B,574.2778999992879,Correct
13,213,161,A,58.91723847626507,71.36858529083919,2.9458619238132537,1.1210551162339848,A,673.1048000001465,Correct
13,213,162,B,57.161761788219444,27.992029861074638,2.858088089410972,0.43969777685309097,B,444.6656999998595,Correct
13,213,163,B,67.71289095088147,53.344156491565094,3.3856445475440737,0.8379280507292258,B,1303.7136000002647,Correct
13,213,164,A,51.616443908943964,78.11559637695683,2.580822195447198,1.2270369185431653,A,616.039799999271,Correct
13,213,165,A,22.855705404059727,46.753412363755814,1.1427852702029864,0.7344008840611473,A,719.2322999999305,Correct
13,213,166,A,47.692636097266444,74.50444163944539,2.3846318048633224,1.1703130325714555,A,1552.8521999995064,Correct
13,213,167,A,28.47807494698313,48.38498618441717,1.4239037473491567,0.7600295857050432,A,432.87640000016836,Correct
13,213,168,A,25.330863794997185,40.401989256020315,1.2665431897498594,0.634632963185636,A,499.38380000003235,Correct
13,213,169,B,82.50139509355539,64.15199364320628,4.12506975467777,1.0076971597131796,A,562.3536000002787,Incorrect
13,213,170,B,78.25182580226223,53.301414341886556,3.9125912901131117,0.8372566586120822,B,404.87739999935,Correct
13,213,171,A,37.01370433654302,53.97873916976379,1.850685216827151,0.8478960521288477,A,573.1306999996377,Correct
13,213,172,A,42.03409709793977,68.81311049546768,2.1017048548969886,1.08091381201612,A,696.7322000000422,Correct
13,213,173,A,29.89795917461932,38.631065309289056,1.4948979587309659,0.6068153548800501,A,547.2105999997439,Correct
13,213,174,A,24.362935589851503,35.83677488483814,1.218146779492575,0.5629227435327936,A,509.465199999795,Correct
13,213,175,B,38.80866292802918,18.67140807583711,1.940433146401459,0.29328979221613505,B,500.6923999999344,Correct
13,213,176,A,64.34340746117181,76.14864048486152,3.2171703730585905,1.1961400476404562,A,440.24979999994684,Correct
13,213,177,B,58.93444925442437,28.76742994032814,2.9467224627212185,0.45187773281596966,B,448.2271999995646,Correct
13,213,178,A,55.89741140321103,72.79658228452384,2.794870570160551,1.143486040557525,A,524.1302999993422,Correct
13,213,179,A,30.806677843117015,60.02760238188912,1.540333892155851,0.9429113732777601,A,547.3311999994621,Correct
13,213,180,B,64.25716264525974,54.23535811716205,3.2128581322629874,0.8519270131284393,B,780.1951999999801,Correct
13,213,181,B,71.81284257011855,39.720200745711615,3.5906421285059276,0.6239234543091972,B,500.1696000008451,Correct
13,213,182,A,18.9839641871385,32.34478440929412,0.949198209356925,0.5080706854109205,A,465.72090000063326,Correct
13,213,183,B,69.65208307978727,55.034549424778206,3.482604153989364,0.8644806808325379,B,381.3304999994216,Correct
13,213,184,B,63.77336466960475,36.1943671552717,3.1886682334802376,0.5685397897816663,B,454.44580000003043,Correct
13,213,185,B,66.24605281386002,57.056644803532635,3.312302640693001,0.8962436807663019,B,344.6913999996468,Correct
13,213,186,B,81.65867925621808,55.72252387334226,4.082933962810904,0.8752873581998695,B,388.5500000005777,Correct
13,213,187,A,50.57108053337161,64.19105169104883,2.5285540266685804,1.0083106820940084,A,652.0360000004075,Correct
13,213,188,B,87.28432214510332,66.90676109433434,4.3642161072551655,1.0509689456472406,B,421.96079999939684,Correct
13,213,189,B,37.70710690145035,17.143606146932797,1.8853553450725176,0.2692911356362045,B,679.3581000001723,Correct
13,213,190,A,45.29655053269884,57.57210889649313,2.264827526634942,0.9043405718044719,A,780.3466000004846,Correct
13,213,191,B,65.5383204134566,38.76257256598827,3.2769160206728305,0.60888106603775,B,577.5831999999355,Correct
13,213,192,B,79.46937856767545,54.193046933777424,3.9734689283837725,0.85126239061401,B,467.2796000004382,Correct
13,213,193,B,59.77613223499206,42.11959724510975,2.9888066117496033,0.6616130863869885,B,487.97800000011193,Correct
13,213,194,B,65.61060131804226,33.01332850024902,3.280530065902113,0.5185721514346443,B,398.360700000012,Correct
13,213,195,A,65.36504045210702,77.34762305036031,3.268252022605351,1.2149736217382225,A,510.1008000001457,Correct
13,213,196,A,47.49839717601008,56.41142535091278,2.3749198588005043,0.8861085973047831,B,520.5412999994223,Incorrect
13,213,197,B,56.916551424765146,31.41026547360071,2.8458275712382575,0.4933912962958455,B,771.6340999995737,Correct
13,213,198,B,41.09215677170613,32.969828370746995,2.0546078385853064,0.5178888529982756,B,563.8812999995935,Correct
13,213,199,B,69.34624689976745,56.86969898106927,3.4673123449883723,0.8933071426539507,B,583.5463000003074,Correct
13,213,200,A,35.43599190091206,62.094921247347436,1.771799595045603,0.9753847420795173,A,466.8423000002804,Correct
13,213,201,A,50.34266500024787,70.39557817667017,2.5171332500123937,1.1057711562251649,A,1393.2621000003564,Correct
13,213,202,A,42.64872153890127,52.493521279111576,2.1324360769450634,0.8245663040575822,A,455.034099999466,Correct
13,213,203,A,52.57969737944006,82.57580761809946,2.6289848689720032,1.2970977528863266,A,645.94550000038,Correct
13,213,204,B,42.03401815678424,21.572741263804684,2.101700907839212,0.33886382736081094,B,510.5372999996689,Correct
13,213,205,B,79.44318846386564,58.55171342535348,3.9721594231932817,0.9197281637609268,B,627.232400000139,Correct
13,213,206,A,40.49459118693117,66.43414294608968,2.024729559346558,1.0435450771348476,A,1007.1309000004476,Correct
13,213,207,A,28.233432451198283,53.207371915514464,1.411671622559914,0.8357794436330006,A,1007.1320999995805,Correct
13,213,208,A,50.10249508897944,67.88128472401456,2.5051247544489716,1.066276727026006,B,538.1935999994312,Incorrect
13,213,209,B,65.3672717171063,57.19534116570499,3.2683635858553153,0.8984223181287033,B,718.8711999997395,Correct
13,213,210,A,48.825886069178196,62.01294181773018,2.4412943034589096,0.974097012210362,A,688.5592999997243,Correct
13,213,211,A,28.648424854667102,39.439620619899486,1.4324212427333551,0.6195161119992237,A,602.2372999996151,Correct
13,213,212,B,78.14058269036155,58.72235827079702,3.9070291345180777,0.9224086467250187,B,613.3121000002575,Correct
13,213,213,A,57.89318386001338,69.48191070114667,2.894659193000669,1.091419301080522,B,1555.9198000000833,Incorrect
13,213,214,A,48.89895571593105,61.38180612843185,2.4449477857965523,0.9641831559857721,A,824.6406000007482,Correct
13,213,215,A,57.30486424230007,75.69123684957322,2.8652432121150038,1.1889551681387214,A,650.0272999992376,Correct
13,213,216,B,53.4843716752658,36.722963689494975,2.67421858376329,0.5768429647248108,B,444.2713999997068,Correct
13,213,217,A,39.567894525612296,46.7687315353198,1.978394726280615,0.73464151704537,A,687.8570999997464,Correct
13,213,218,A,14.571415405071924,41.75402989817796,0.7285707702535962,0.6558707679294222,A,739.1596000006757,Correct
13,213,219,A,39.91332814666498,48.5449017769635,1.995666407333249,0.762541533958733,A,540.5972999997175,Correct
13,213,220,A,14.912178331541078,35.12880720960016,0.7456089165770539,0.5518020132952601,A,514.3999000001713,Correct
13,213,221,A,37.16756227777706,56.53058649241132,1.8583781138888529,0.887980376138409,B,714.1232000003583,Incorrect
13,213,222,B,46.04649078910249,38.66818536487279,2.3023245394551246,0.6073984353496635,A,516.3747999995394,Incorrect
13,213,223,B,53.905499684770106,35.5258382130563,2.6952749842385053,0.5580385617137862,B,1600.5048000006354,Correct
13,213,224,A,46.90573934853489,65.29052280161035,2.3452869674267443,1.0255811339128797,A,673.6323999994056,Correct
13,213,225,B,50.43268428060897,28.795953184854227,2.521634214030448,0.4523257748932682,B,694.3383999996513,Correct
13,213,226,B,55.20312747639644,31.321546108953925,2.7601563738198216,0.49199769577481806,B,539.3089999997756,Correct
13,213,227,B,82.95818195594512,67.48989063147607,4.147909097797256,1.0601287229971192,B,712.0469999999841,Correct
13,213,228,A,22.079951309909628,52.54959524567174,1.1039975654954814,0.8254471118645973,A,470.95269999954326,Correct
13,213,229,B,61.88746046864009,29.261412889336626,3.094373023432005,0.45963719883398807,B,513.1703999995807,Correct
13,213,230,B,32.09972970119223,12.45940784255517,1.6049864850596116,0.19571192073125188,B,790.4162999993787,Correct
13,213,231,A,59.196648715399675,81.68620365021532,2.9598324357699837,1.2831238864357808,A,566.7102999996132,Correct
13,213,232,B,54.60315464681436,39.16765476905753,2.730157732340718,0.6152440824040617,B,517.9090999999971,Correct
13,213,233,B,82.25483263446948,67.19367844690245,4.112741631723474,1.055475832882318,A,693.6447999996744,Incorrect
13,213,234,A,57.841231944047614,84.37662897421956,2.892061597202381,1.3253849886003994,A,714.0779999999722,Correct
13,213,235,A,14.828071179571747,32.45372243914126,0.7414035589785875,0.5097818799822421,A,576.7303000002357,Correct
13,213,236,B,52.03152744617231,24.282661082772773,2.6015763723086156,0.3814311483362485,B,855.356899999606,Correct
13,213,237,B,81.65779142991624,58.47659586689369,4.082889571495812,0.9185482199118623,A,598.8337999997384,Incorrect
13,213,238,B,61.82321678039487,41.21037526093796,3.091160839019744,0.6473310608572063,B,1415.4232999999294,Correct
13,213,239,B,47.56367185502968,25.910837151015038,2.378183592751484,0.40700647820995167,B,596.6607000000295,Correct
13,213,240,A,19.40384616594152,47.379740549790384,0.9701923082970759,0.7442392242010595,A,525.5154999995284,Correct
13,213,241,A,61.0378060432641,73.24088905130345,3.051890302163205,1.1504651949298002,A,755.876399999579,Correct
13,213,242,B,65.33611690887592,47.019095728311754,3.266805845443796,0.7385742285924972,B,777.4136999996699,Correct
13,213,243,A,60.67757108188943,77.80465989559015,3.0338785540944717,1.222152739715192,A,544.0267000003587,Correct
13,213,244,B,72.29872717335533,62.71457691475214,3.6149363586677667,0.9851182705418867,B,569.6854999996503,Correct
13,213,245,A,35.49624367416403,51.92021794576752,1.7748121837082014,0.8155608763560208,A,577.1808999998029,Correct
13,213,246,A,15.574007355800767,38.622505437152945,0.7787003677900384,0.6066808967229577,A,612.2035999997024,Correct
13,213,247,B,73.5599535137687,59.08978709310853,3.6779976756884354,0.9281802051694736,B,737.2136000003593,Correct
13,213,248,A,44.86749915104862,73.68827393458992,2.243374957552431,1.1574927002430997,A,507.9990000003818,Correct
13,213,249,A,50.064115655508076,74.19685703711241,2.503205782775404,1.1654815049362224,A,482.08490000070015,Correct
13,213,250,A,43.70646678937439,60.89891793435872,2.1853233394687193,0.9565979659707453,A,623.5888000001069,Correct
13,213,251,B,56.533454015352746,23.897004823490548,2.826672700767637,0.3753732739813888,B,472.1448000000237,Correct
13,213,252,B,79.25400213789045,47.89772367288344,3.9627001068945225,0.7523756840720226,B,741.962500000227,Correct
13,213,253,B,48.97658973800491,19.148926284813168,2.448829486900246,0.30079063070250767,B,686.0168999992311,Correct
13,213,254,A,34.03706822061941,44.30636417188051,1.7018534110309704,0.695962740948269,B,782.0066000003862,Incorrect
13,213,255,A,41.33882425461497,54.77928911918026,2.0669412127307485,0.86047106132844,A,521.3610999999219,Correct
13,213,256,B,79.54646511902573,67.44128635334393,3.977323255951286,1.0593652487815541,B,1033.3739000006972,Correct
13,213,257,A,58.755865484245646,72.71890890556976,2.9377932742122823,1.1422659499740169,B,942.6228000002084,Incorrect
13,213,258,B,71.90380821642148,38.735964295016146,3.5951904108210737,0.6084631042946962,B,570.5630999991627,Correct
13,213,259,B,35.57327913739808,24.289877340821995,1.778663956869904,0.38154450105261783,B,762.2522000001482,Correct
13,213,260,B,62.680998591781986,40.50411026151456,3.134049929589099,0.6362370761888254,B,667.106099999728,Correct
13,213,261,B,64.85541773426843,39.637752669704746,3.2427708867134215,0.6226283629597683,B,470.70129999974597,Correct
13,213,262,B,60.87612707411348,32.01512490886706,3.043806353705674,0.5028924060872817,B,429.6076999999059,Correct
13,213,263,B,36.5317012701795,12.068432748807254,1.8265850635089749,0.18957049831997672,B,671.2791999998444,Correct
13,213,264,B,54.72222461767922,43.64381933446994,2.736111230883961,0.6855555109788547,B,561.2186999996993,Correct
13,213,265,A,53.72852790154245,62.273563017927415,2.6864263950771226,0.978190840449909,A,676.3036000002103,Correct
13,213,266,A,19.82827254659785,38.85828428281614,0.9914136273298925,0.6103845021699946,A,520.4486000002362,Correct
13,213,267,A,67.96210440229643,88.19444708134336,3.398105220114821,1.3853551351908102,A,747.2193999992669,Correct
13,213,268,B,47.710911345235964,31.792832714339774,2.385545567261798,0.4994006484608953,B,482.1458000005805,Correct
13,213,269,B,64.35213757145382,48.38242729017048,3.217606878572691,0.7599893906882096,B,467.8085000005012,Correct
13,213,270,A,45.581945998606,70.82359630931127,2.2790972999303,1.1124944493307074,A,491.54970000017784,Correct
13,213,271,B,49.213372065922286,37.29190268524261,2.460668603296114,0.5857798375717184,B,622.0474000001559,Correct
13,213,272,B,78.19605848419168,65.14512189726642,3.909802924209584,1.0232971818483187,B,654.6084999999948,Correct
13,213,273,B,39.382411565527235,23.075059621424796,1.9691205782763617,0.36246218893907306,B,693.2622999993328,Correct
13,213,274,B,78.25384200656354,66.63718805912615,3.9126921003281776,1.046734502312161,A,675.3455999996731,Incorrect
13,213,275,B,55.49587354837037,23.173081721829018,2.7747936774185185,0.3640019164916698,B,755.3641000004063,Correct
13,213,276,A,51.72659365216181,70.43247177379149,2.58632968260809,1.1063506794935691,B,735.2541000000201,Incorrect
13,213,277,B,56.97124845006667,38.29363340481644,2.8485624225033335,0.6015149869191602,B,908.505200000036,Correct
13,213,278,A,37.20878795333541,69.95823075536012,1.8604393976667706,1.0989013189958945,A,739.4221000004109,Correct
13,213,279,B,32.213810131456185,16.42747418764602,1.6106905065728092,0.2580421611247234,B,709.3744000003426,Correct
13,213,280,A,44.30520977728875,69.52903496548268,2.2152604888644376,1.0921595272937412,A,1040.9629000005225,Correct
13,213,281,A,37.706888097767795,54.552270063451495,1.8853444048883898,0.856905054339928,A,892.3082000001159,Correct
13,213,282,B,53.20761130725081,35.027146304246436,2.6603805653625403,0.5502051275281774,B,949.9615000004269,Correct
13,213,283,B,67.88310234924334,36.14456546992091,3.3941551174621676,0.5677575067374941,B,519.3801000004896,Correct
13,213,284,A,39.57303413465697,69.73963099690906,1.9786517067328486,1.0954675620197625,A,474.71539999969536,Correct
13,213,285,A,19.080169749791505,37.43492180017694,0.9540084874895753,0.5880263765757212,A,490.9916000005978,Correct
13,213,286,B,53.10954754240241,25.384261886631148,2.6554773771201208,0.39873505329919895,B,440.2573000006669,Correct
13,213,287,B,62.99338709622036,36.66045267462576,3.149669354811018,0.5758610439994029,B,550.0622999998086,Correct
13,213,288,A,40.37626129235511,59.2691748022007,2.0188130646177553,0.9309980207146151,A,572.6959000003262,Correct
13,213,289,A,56.84123375042793,67.47660075693906,2.8420616875213964,1.059919966136056,A,1201.142599999912,Correct
13,213,290,A,60.1448662968387,83.96707384355936,3.007243314841935,1.3189517116517888,A,501.8101999994542,Correct
13,213,291,B,72.95001427775017,61.44893779504014,3.647500713887508,0.9652376577389715,A,696.065300000555,Incorrect
13,213,292,B,40.807476128606226,32.6736669571686,2.040373806430311,0.5132367603924022,A,1397.6079000003665,Incorrect
13,213,293,A,63.6596140141368,88.535433687892,3.18298070070684,1.3907113402813387,A,661.3402000002679,Correct
13,213,294,B,54.687138226690664,47.684696913224734,2.734356911334533,0.7490294675562136,A,2897.2163999997065,Incorrect
13,213,295,B,62.397113919939926,42.04169280320262,3.119855695996996,0.6603893662751013,B,2316.829599999437,Correct
13,213,296,A,58.47556763448709,75.34712814960524,2.923778381724355,1.1835499213194427,A,654.5200000000477,Correct
13,213,297,B,68.99200739310753,60.012635561806555,3.4496003696553768,0.9426762750176653,A,3302.7967000007266,Incorrect
13,213,298,B,35.902218911256,21.60762696349444,1.7951109455628,0.33941181065011433,A,617.0614000002388,Incorrect
13,213,299,B,75.98769578606812,57.83358209827927,3.7993847893034056,0.9084477832536818,B,969.6028999996997,Correct
13,213,300,B,63.307636183738126,52.52367096826553,3.165381809186906,0.8250398942673525,B,547.55650000061,Correct
13,213,301,A,66.53601318567922,85.2969015560281,3.326800659283961,1.3398405965119484,A,534.0864999998303,Correct
13,213,302,B,72.20402071781419,56.24555044391816,3.610201035890709,0.8835030403586371,B,448.28830000005837,Correct
13,213,303,B,52.85798470175649,39.76789568042319,2.6428992350878246,0.6246726445917137,B,485.2603999997882,Correct
13,213,304,A,13.160608637224982,37.38568677731884,0.6580304318612491,0.5872529946451697,A,411.3550000001851,Correct
13,213,305,A,43.19848950932733,53.09732486121115,2.1599244754663665,0.8340508285462582,B,484.7461999997904,Incorrect
13,213,306,A,43.11775145608459,64.77581771901858,2.1558875728042297,1.0174961653817016,A,629.5837999996365,Correct
13,213,307,B,46.251790086949306,17.007499590903638,2.3125895043474656,0.2671531788535714,B,458.31730000008974,Correct
13,213,308,B,48.586158902775225,40.561807554003835,2.429307945138761,0.6371433831399071,B,976.6827000003104,Correct
13,213,309,B,30.57890721614243,15.42818635031163,1.5289453608071215,0.2423453844817667,B,603.1731000002765,Correct
13,213,310,B,67.51311843689365,45.20613699168669,3.3756559218446824,0.7100963393512835,B,607.3445000001811,Correct
13,213,311,B,45.60816269542382,29.465747763024098,2.280408134771191,0.4628468835242319,B,466.3638000001811,Correct
13,213,312,A,36.42981664672635,50.084727001777395,1.8214908323363175,0.786729052029171,A,631.9043000003148,Correct
13,213,313,A,27.67159477566655,58.92916465085119,1.3835797387833275,0.925657153746487,B,756.0653999998976,Incorrect
13,213,314,B,53.889001627107156,35.07068349546082,2.694450081355358,0.5508890081285626,B,1241.3478999997096,Correct
13,213,315,A,61.92035971918175,86.11318894483016,3.0960179859590875,1.352662808831341,A,532.3729000001549,Correct
13,213,316,A,68.67620715446954,89.05053094419524,3.433810357723477,1.3988024690627716,A,535.969199999272,Correct
13,213,317,A,68.41714006231348,86.71460213956468,3.4208570031156738,1.3621097852030908,A,520.8088999997926,Correct
13,213,318,A,24.054627645811813,41.67435045949586,1.2027313822905907,0.654619166233393,A,800.557800000206,Correct
13,213,319,A,29.259352888920862,40.69571107303277,1.462967644446043,0.6392467346982628,A,826.7863999999463,Correct
13,213,320,B,84.4815878701394,54.978622581974946,4.22407939350697,0.8636021840400919,B,457.69430000018474,Correct
13,213,321,A,69.15019004806601,83.56190863465478,3.4575095024033002,1.3125873914328647,A,650.8144000008542,Correct
13,213,322,A,47.62816937062217,75.06745773546311,2.3814084685311085,1.179156868726966,A,730.8469999998124,Correct
13,213,323,A,23.492812378472124,40.48400540924252,1.1746406189236063,0.6359212699078288,A,845.8908000002339,Correct
13,213,324,A,35.432297056692505,55.85307079785104,1.7716148528346252,0.877337984494797,A,516.270600000098,Correct
13,213,325,A,66.11238990855372,80.54918121582895,3.305619495427686,1.2652635798016059,A,899.9806000001627,Correct
13,213,326,A,35.60952153840541,44.460602042573484,1.7804760769202703,0.698385503755641,A,2034.6340999994936,Correct
13,213,327,A,11.501604748883434,34.88765428603797,0.5750802374441717,0.5480139920299868,A,450.07429999986925,Correct
13,213,328,A,50.3792449994602,69.43176707774293,2.5189622499730095,1.0906316468859742,A,743.0934000003617,Correct
13,213,329,A,65.87468228545677,77.01285584067082,3.2937341142728385,1.2097151107051063,B,698.6710999999559,Incorrect
13,213,330,A,14.247830121371187,31.047174692426438,0.7123915060685593,0.4876878796422292,A,516.6566999996576,Correct
13,213,331,B,47.78006567849397,24.201390447610343,2.3890032839246986,0.3801545521843542,B,491.0066000002189,Correct
13,213,332,A,24.325053730616766,38.160292079565096,1.2162526865308383,0.5994204662800123,A,1116.4029000001392,Correct
13,213,333,B,51.31756205085341,22.57259843807208,2.565878102542671,0.35456954712739847,B,606.3544999997248,Correct
13,213,334,A,23.306724383102363,49.33176316051506,1.1653362191551182,0.7749015236685284,A,450.5089999993288,Correct
13,213,335,A,29.084490207086525,42.112218895627414,1.4542245103543263,0.6614971875443417,B,1128.5735999999815,Incorrect
13,213,336,B,41.822838497902936,20.82051831097679,2.0911419248951466,0.32704793684848227,B,568.6178000005384,Correct
13,213,337,A,21.60984512877629,46.3047058052581,1.0804922564388144,0.7273526179221775,A,621.8760000001566,Correct
13,213,338,B,60.283786340940196,32.34962231380482,3.01418931704701,0.5081466790372684,B,521.2062000000515,Correct
13,213,339,A,55.672692157857966,68.56913613575276,2.7836346078928984,1.0770814717353963,A,541.9130000000223,Correct
13,213,340,B,35.25507802214498,18.96880252182084,1.7627539011072488,0.2979612532497395,B,1490.8911000002263,Correct
13,213,341,A,43.59218459117363,74.11564731229173,2.1796092295586815,1.1642058655617389,A,449.51940000009927,Correct
13,213,342,A,64.54443764763127,77.98292669129792,3.227221882381564,1.2249529479940646,A,603.4940999998071,Correct
13,213,343,B,86.49532626449633,58.97559368721917,4.324766313224816,0.9263864593443215,B,1218.1534999999712,Correct
13,213,344,B,69.9979126697159,39.492292393977245,3.499895633485795,0.6203434782916949,B,465.0119999996605,Correct
13,213,345,A,48.160036504206246,70.60829887944291,2.408001825210312,1.1091125652106513,A,533.4837999998854,Correct
13,213,346,B,52.55068911319436,29.150416952538365,2.6275344556597178,0.4578936787358694,B,430.58419999943,Correct
13,213,347,A,22.33948807323128,44.594880118188,1.116974403661564,0.7004947388350848,A,508.3826999998564,Correct
13,213,348,A,36.749847306152176,65.74146505682039,1.8374923653076087,1.032664518293685,B,633.1096000003527,Incorrect
13,213,349,A,33.44946217314513,60.8136156716766,1.6724731086572564,0.9552580411618616,A,544.2916000001787,Correct
13,213,350,A,46.700793164500425,56.38826189146505,2.3350396582250212,0.8857447465346194,A,796.7329999992216,Correct
13,213,351,A,64.53004041402679,75.18547604532635,3.226502020701339,1.1810106960032432,A,1995.6271000000925,Correct
13,213,352,A,45.99697673563226,69.05589739469244,2.299848836781613,1.0847274997110814,A,782.4178999999276,Correct
13,213,353,B,62.28760051643958,52.343954786303954,3.114380025821979,0.8222169190824441,B,863.5440999996717,Correct
13,213,354,B,57.234433956750834,27.721911798104138,2.8617216978375417,0.43545477224194085,B,686.7224999996324,Correct
13,213,355,A,11.949270113568161,39.12992634600284,0.5974635056784081,0.6146514457205612,A,492.5518000000011,Correct
13,213,356,A,60.10015750613322,81.2250052066827,3.0050078753066614,1.2758793982255354,A,831.8748000001506,Correct
13,213,357,B,69.40544026727984,46.12291894080893,3.470272013363992,0.7244971165328143,B,509.6573000000717,Correct
13,213,358,B,57.828979535861386,32.31712375896588,2.8914489767930696,0.5076361929315968,B,370.3872999994928,Correct
13,213,359,B,68.94098750221349,60.101361993630505,3.4470493751106743,0.944069986549652,B,481.0262999999395,Correct
13,213,360,B,50.84913248005526,25.701950131020418,2.542456624002763,0.40372528857272477,B,509.1341999996075,Correct
13,213,361,B,59.33221275897677,36.18075246805683,2.966610637948839,0.5683259307749906,B,521.3375000002998,Correct
13,213,362,A,35.26424666164378,44.75233171872045,1.763212333082189,0.7029679827927281,B,1810.4499999999462,Incorrect
13,213,363,A,49.73288249974408,80.64362041204524,2.4866441249872038,1.2667470272268262,A,546.7664000007062,Correct
13,213,364,B,67.04926027865974,48.3620242155253,3.3524630139329874,0.7596688999411298,B,519.7117999996408,Correct
13,213,365,A,40.37408410410624,70.03428618289402,2.018704205205312,1.100095994857925,A,628.7094999997862,Correct
13,213,366,A,11.600741626510295,34.40898780328946,0.5800370813255148,0.5404951165013748,A,653.2905000003666,Correct
13,213,367,A,23.19223685400253,39.07900676319198,1.1596118427001265,0.6138516027841487,A,506.26290000036533,Correct
13,213,368,A,46.26596593388514,72.50169970673662,2.313298296694257,1.1388540358572852,A,878.1496999999945,Correct
13,213,369,A,58.646704113526596,81.54993551493168,2.93233520567633,1.2809833915721534,A,950.9989999996833,Correct
13,213,370,A,54.58261774613503,78.55403797725212,2.7291308873067517,1.2339239430957443,A,802.3200000006909,Correct
13,213,371,B,46.43645137228729,33.07268403382486,2.321822568614364,0.5195045059758031,B,735.3124999999636,Correct
13,213,372,A,58.38473549640388,77.74713501241959,2.919236774820194,1.221249140963356,A,564.5727000000988,Correct
13,213,373,B,64.48061130810025,49.76028158983629,3.2240305654050125,0.7816326754159456,B,1897.8558999997404,Correct
13,213,374,A,36.648306111559926,66.19265166187863,1.8324153055779961,1.0397517409129304,A,467.52399999968475,Correct
13,213,375,A,21.14012763422897,34.04537476420073,1.0570063817114486,0.5347834962396217,A,554.1562999997041,Correct
13,213,376,A,57.500224984257606,82.96319080170112,2.8750112492128803,1.3031827537049627,A,623.4075000002122,Correct
13,213,377,A,17.50461192991782,45.521795171469165,0.875230596495891,0.7150546864445343,A,429.77650000011636,Correct
13,213,378,A,12.81684406288942,38.130153257978336,0.6408422031444709,0.5989470467775883,A,453.5058999999819,Correct
13,213,379,A,40.19021429465816,49.79313149707589,2.009510714732908,0.7821486805522208,B,854.3313999998645,Incorrect
13,213,380,A,37.56587146801016,54.769753224196805,1.878293573400508,0.8603212718403129,A,544.5401999995738,Correct
13,213,381,B,65.35840555486148,36.46546649145342,3.2679202777430736,0.5727982081963741,A,767.2061000002941,Incorrect
13,213,382,A,42.015386018426476,66.88095186496344,2.100769300921324,1.0505635352203084,A,481.4466999996512,Correct
13,213,383,A,54.2183224178139,83.25659615000633,2.710916120890695,1.3077915541387608,A,872.0643999995445,Correct
13,213,384,B,80.88709804168971,51.824818322526234,4.044354902084486,0.8140623425783706,B,555.652199999713,Correct
13,213,385,B,57.604691265964625,39.85182042805479,2.8802345632982314,0.6259909314447829,B,525.6354999992254,Correct
13,213,386,B,54.01962161357976,37.99868765302505,2.700981080678988,0.5968819898839833,B,408.6712999996962,Correct
13,213,387,B,58.86176873293659,34.36928470218384,2.9430884366468297,0.539871461647584,B,544.6881000007124,Correct
13,213,388,A,44.63875656374855,76.84616872794619,2.231937828187428,1.2070967956611873,A,456.4331999999922,Correct
13,213,389,A,57.62936192850503,68.21920474894613,2.8814680964252513,1.0715847623651353,B,981.6895000003569,Incorrect
13,213,390,A,19.470708119328293,32.932036675899525,0.9735354059664146,0.5172952224437779,A,597.4468999993405,Correct
13,213,391,B,35.58273904316265,15.057446372969963,1.7791369521581322,0.23652181453572352,B,511.386200000743,Correct
13,213,392,B,77.19396056414205,47.68736686319286,3.8596980282071023,0.7490714070322398,B,634.4358999995166,Correct
13,213,393,A,69.37200322660787,88.70127494187987,3.468600161330394,1.393316368607291,A,534.5981000000393,Correct
13,213,394,B,70.93273321838016,39.821995996545176,3.5466366609190083,0.6255224503701424,B,765.7547999997405,Correct
13,213,395,B,54.92591399747759,26.54568896044459,2.7462956998738797,0.416978707113062,B,464.5279999995182,Correct
13,213,396,B,49.911264681925026,27.951667531775747,2.495563234096251,0.4390637668670552,B,475.58630000003177,Correct
13,213,397,A,31.3313047823117,41.671487429939866,1.566565239115585,0.6545741938702925,A,638.1686000004265,Correct
13,213,398,B,53.15888377790109,41.441969821158416,2.6579441888950543,0.6509689397022059,B,562.8303999992568,Correct
13,213,399,A,31.559956020509052,47.73658811542373,1.5779978010254527,0.749844572654285,A,696.04900000013,Correct
13,213,400,A,32.22238641579154,64.25334838055079,1.6111193207895769,1.00928923620442,A,513.4721000003992,Correct
13,213,401,A,19.739385155749016,43.03694936311922,0.9869692577874508,0.6760228197604563,A,572.5181999996494,Correct
13,213,402,B,57.365398555222086,28.148368718644527,2.8682699277611046,0.44215354188515194,B,677.9268999998749,Correct
13,213,403,A,45.744675322343035,74.8944769891781,2.2872337661171516,1.1764396935182586,A,464.1377999996621,Correct
13,213,404,B,59.51773119936551,48.59877945056367,2.9758865599682753,0.7633878424766072,B,768.9941999997245,Correct
13,213,405,A,42.308715211822374,72.89787178501122,2.1154357605911187,1.1450770923106097,A,459.1927999999825,Correct
13,213,406,B,88.36841094933267,67.4713719727017,4.418420547466633,1.0598378325853197,B,699.7401999997237,Correct
13,213,407,B,66.43166518226508,34.35067114846137,3.321583259113254,0.5395790806294255,B,524.9040000007881,Correct
13,213,408,A,44.64248270284442,57.4794923935328,2.2321241351422207,0.9028857551779652,A,686.7911999997887,Correct
13,213,409,B,79.83951176647234,49.87014179403545,3.9919755883236174,0.7833583554681154,B,482.9791000001933,Correct
13,213,410,A,50.080504186992144,63.639066979479466,2.504025209349607,0.9996401265202073,A,496.79980000018986,Correct
13,213,411,A,41.538895102223336,65.85418795496018,2.0769447551111666,1.0344351654371218,A,529.9402999999074,Correct
13,213,412,B,76.5747503129191,58.588241735192014,3.8287375156459547,0.9203019491101109,B,476.9736999996894,Correct
13,213,413,B,52.24405283374281,36.4846000606192,2.6122026416871402,0.5730987575980151,B,741.5492999998605,Correct
13,213,414,A,26.688430325899812,46.40680211669235,1.3344215162949906,0.7289563430319798,A,518.0980999994063,Correct
13,213,415,A,59.74997216663094,83.94900973936986,2.987498608331547,1.3186679613667116,A,643.0958000000828,Correct
13,213,416,A,16.946587365655603,36.410044724897425,0.8473293682827802,0.5719276451230677,A,535.5124999996406,Correct
13,213,417,B,77.04510955705248,55.1461527996865,3.852255477852624,0.8662337425461766,B,513.4663999997429,Correct
13,213,418,B,45.79660973453726,33.596393554314695,2.289830486726863,0.5277309158867326,B,1074.0477999997893,Correct
13,213,419,B,58.46488840772524,42.33170450258353,2.923244420386262,0.6649448593962519,B,557.9244999998991,Correct
13,213,420,B,43.0048812127785,19.60318138180113,2.1502440606389253,0.30792605308027315,B,728.7128999996639,Correct
13,213,421,B,73.41319019611814,42.31323808003349,3.670659509805907,0.6646547895091456,B,635.7496000000538,Correct
13,213,422,B,62.87184663010454,49.071252616212895,3.1435923315052268,0.7708094336077168,B,473.5799000000043,Correct
13,213,423,A,10.77098192194521,32.56233128864659,0.5385490960972605,0.511487903800846,A,445.44349999978294,Correct
13,213,424,A,65.97049875680906,80.40202554041683,3.2985249378404533,1.2629520638575622,A,870.8125000002838,Correct
13,213,425,A,40.70642991237889,69.86803631794714,2.0353214956189443,1.097484548086038,A,796.0764999997991,Correct
13,213,426,A,49.91774655431712,67.47160413155127,2.495887327715856,1.0598414793280013,A,896.5171999998347,Correct
13,213,427,A,22.804574520900047,51.98774860553442,1.1402287260450024,0.8166216454790998,A,570.7507999995869,Correct
13,213,428,B,40.25233696896854,21.720824734170918,2.012616848448427,0.34118991707391416,B,485.25989999961894,Correct
13,213,429,A,15.978959621386618,41.92660361341481,0.798947981069331,0.6585815495093763,A,458.77959999961604,Correct
13,213,430,B,51.10888129131811,20.480395163074824,2.5554440645659056,0.321705294934659,B,446.92849999955797,Correct
13,213,431,A,49.75075361794751,77.28653369617169,2.4875376808973755,1.214014032406565,A,611.0923000005641,Correct
13,213,432,B,68.96008107354082,36.74504235057838,3.448004053677041,0.5771897755221143,B,671.8190000001414,Correct
13,213,433,A,25.76119018825064,43.968808383880805,1.288059509412532,0.6906604270294863,A,391.5439000002152,Correct
13,213,434,B,53.08241326759392,34.98898520616543,2.654120663379696,0.5496056944012563,B,527.2645000004559,Correct
13,213,435,A,14.844063989329353,38.48526996400683,0.7422031994664677,0.604525206951719,A,437.63529999978346,Correct
13,213,436,A,43.7778662459261,63.97630067749415,2.188893312296305,1.0049373810613367,B,876.5684999998484,Incorrect
13,213,437,A,53.512289355814886,64.45181403062037,2.6756144677907447,1.0124067273456625,A,374.55359999967186,Correct
13,213,438,A,38.78895438658627,62.74440815731482,1.9394477193293136,0.9855868586042987,A,599.6314999993047,Correct
13,213,439,B,66.34527171461697,45.94297380719708,3.3172635857308483,0.7216705449837931,B,409.8381999992853,Correct
13,213,440,A,38.308944614693786,70.5138761830105,1.9154472307346893,1.1076293769634302,A,507.53009999971255,Correct
13,213,441,B,72.09577507267464,44.17797684581813,3.6047887536337324,0.693946037546411,B,480.80149999987043,Correct
13,213,442,A,15.054620847539631,42.51821284906668,0.7527310423769816,0.6678745256519751,A,345.6126999999469,Correct
13,213,443,B,65.44375068308018,37.43835543769566,3.2721875341540088,0.5880803120277408,B,463.9554000004864,Correct
13,213,444,A,39.10330236851672,56.2192080476334,1.955165118425836,0.8830892549654064,A,600.5482999999003,Correct
13,213,445,B,82.74792248149755,65.36809815056031,4.137396124074877,1.0267996846446843,B,521.1325000000215,Correct
13,213,446,A,52.64719973788716,67.35896109913122,2.632359986894358,1.0580720867123565,A,518.6620000004041,Correct
13,213,447,B,45.669208705505994,35.78954940778828,2.2834604352752996,0.562180927473983,A,723.0935999996291,Incorrect
13,213,448,B,53.95466188760978,29.468579481562056,2.697733094380489,0.4628913640550113,B,542.6925000001575,Correct
13,213,449,A,54.02685994090505,81.6284055530718,2.7013429970452525,1.2822159960488932,A,464.64839999953256,Correct
13,213,450,A,43.29527754342686,63.83437772752772,2.1647638771713433,1.002708060576385,A,487.8265999996074,Correct
13,213,451,A,64.87077421233994,86.68684598439187,3.243538710616997,1.3616737925371767,B,454.7178000002532,Incorrect
13,213,452,B,75.94265053753485,63.03383472156247,3.7971325268767426,0.9901331604442694,B,895.0264999994033,Correct
13,213,453,B,56.709449257348815,25.204736746738114,2.835472462867441,0.3959150789960858,B,793.2841000001645,Correct
13,213,454,A,21.586849536013148,38.19065483967622,1.0793424768006574,0.5998974034005515,A,954.9394000005123,Correct
13,213,455,B,69.14862916193893,43.7342773458235,3.4574314580969463,0.6869764220984881,B,514.9398999992627,Correct
13,213,456,B,74.25569303162379,45.485732907016555,3.7127846515811895,0.7144882217191535,B,432.2384000006423,Correct
13,213,457,B,43.3024717909085,33.1093298005032,2.165123589545425,0.5200801363327122,B,978.4405000000334,Correct
13,213,458,A,61.23321776651308,80.57389191463139,3.0616608883256538,1.2656517345507199,A,501.49320000036823,Correct
13,213,459,B,59.90972978881941,29.07407176812205,2.9954864894409705,0.4566944513833732,B,436.90959999912593,Correct
13,213,460,B,56.87189081731056,37.65327896480514,2.843594540865528,0.5914563228969946,B,427.8525999998237,Correct
13,213,461,A,11.60227375895614,33.82361092386708,0.580113687947807,0.5313000379815015,A,421.2558999997782,Correct
13,213,462,A,45.4494219142507,70.8902865821855,2.272471095712535,1.1135420176873452,A,2162.51579999971,Correct
13,213,463,A,31.71168541464145,64.77537798805287,1.5855842707320726,1.0174892581038444,A,389.02410000082455,Correct
13,213,464,A,21.766717718302836,45.91341594265547,1.0883358859151417,0.7212062511332945,A,504.87749999956577,Correct
13,213,465,B,46.271823734037824,35.8663616999071,2.313591186701891,0.5633874921371124,B,1081.1720000001515,Correct
13,213,466,A,57.708551356003866,81.12065432415727,2.885427567800193,1.274240258395848,A,477.0706999997856,Correct
13,213,467,A,69.0728738817534,83.45543055055,3.4536436940876696,1.3109148375989055,A,1137.226499999997,Correct
13,213,468,B,71.4780010074113,54.43976131641626,3.5739000503705647,0.8551377710741757,B,549.0915999998833,Correct
13,213,469,B,62.49723581109476,37.24375804619914,3.1248617905547382,0.5850235833500749,B,530.6382999997368,Correct
13,213,470,B,50.630703433481436,22.440080515102213,2.5315351716740717,0.35248796046104286,B,476.3199999997596,Correct
13,213,471,A,63.6458893999185,74.13061058832093,3.182294469995925,1.164440908151974,A,414.53809999984514,Correct
13,213,472,A,50.55328131485606,62.597532332152376,2.527664065742803,0.9832797385376971,B,495.66719999984343,Incorrect
13,213,473,A,57.62730144352927,81.97185526512602,2.881365072176463,1.2876108915102287,A,1330.4215999996813,Correct
13,213,474,B,46.143400530217335,35.70981862630439,2.3071700265108666,0.5609285192871092,B,561.6050000007817,Correct
13,213,475,A,49.522158153743526,68.15116566766815,2.4761079076871764,1.070516006975636,A,767.974200000026,Correct
13,213,476,A,60.353848117906196,73.77252795765864,3.0176924058953096,1.15881615934264,A,523.8472999999431,Correct
13,213,477,B,46.81546715546158,33.0068760506517,2.340773357773079,0.5184707965933814,B,513.6391999994885,Correct
13,213,478,B,43.6881640306863,31.330970623541262,2.184408201534315,0.49214573570377423,B,540.7298000000083,Correct
13,213,479,A,65.68492313609339,85.78890020624333,3.2842461568046697,1.3475688932374097,A,486.6865999993024,Correct
13,213,480,A,24.62411724922067,50.64106087797701,1.2312058624610336,0.7954679241212302,A,539.8965000003955,Correct
13,213,481,B,44.31574273630777,27.51294773927536,2.215787136815388,0.43217237248153695,B,457.2267000003194,Correct
13,213,482,B,63.631817575770135,31.845348108392102,3.1815908787885068,0.5002255583416713,B,496.6250999996191,Correct
13,213,483,A,12.514044754933558,31.986393226275226,0.6257022377466779,0.5024410898725028,A,431.8493999999191,Correct
13,213,484,B,35.287155567734004,16.522166354984925,1.7643577783867002,0.25952958221104544,B,607.8766000000542,Correct
13,213,485,B,78.6383374230345,50.581136620011314,3.931916871151725,0.7945266360782459,B,665.7852999996976,Correct
13,213,486,B,43.579615110739624,26.947684459198197,2.178980755536981,0.4232932376413645,B,527.0929999996952,Correct
13,213,487,A,14.034774010017262,36.74492490278993,0.7017387005008631,0.5771879306565675,A,397.16909999970085,Correct
13,213,488,A,33.64802650676702,61.49987175857529,1.682401325338351,0.9660377265672725,A,500.6097999994381,Correct
13,213,489,A,53.05774052292627,75.99709062745544,2.6528870261463133,1.1937595080470584,A,617.0560000000478,Correct
13,213,490,A,34.522752985175735,51.36143029794519,1.7261376492587868,0.806783460509444,A,690.7345999998142,Correct
13,213,491,A,12.203112226144288,36.78381793394753,0.6101556113072144,0.5777988609613702,A,467.5545999998576,Correct
13,213,492,A,20.128998765053662,40.08677589163371,1.0064499382526833,0.6296816032362844,A,614.8739999998725,Correct
13,213,493,A,38.19816568582639,52.189594172489116,1.9099082842913193,0.8197922282306225,A,624.0154000006441,Correct
13,213,494,B,57.165916769125865,44.09517421836695,2.8582958384562933,0.6926453769159183,B,747.5759999997535,Correct
13,213,495,B,59.32786628960204,27.180675390305503,2.9663933144801025,0.4269530506289632,B,564.7391000002244,Correct
13,213,496,A,50.353252343480314,78.075550800866,2.5176626171740155,1.2264078841048864,A,653.8547000000108,Correct
13,213,497,B,46.38652635042248,24.244723013951273,2.319326317521124,0.3808352185447435,B,528.3822000001237,Correct
13,213,498,B,50.214238249488425,36.30749622453701,2.5107119124744215,0.5703168170462232,B,496.0938000003807,Correct
13,213,499,B,61.090308258222514,28.222046062849973,3.0545154129111256,0.4433108629016112,B,488.963199999489,Correct
13,213,500,B,70.40029309900135,52.82069874276695,3.5200146549500677,0.8297055956387813,B,599.577799999679,Correct
13,213,501,A,31.407678901795308,48.248363701305756,1.5703839450897652,0.757883524758753,A,671.0712000003696,Correct
13,213,502,A,66.38308062060486,83.15743485547247,3.319154031030243,1.3062339321666208,A,606.241599999521,Correct
13,213,503,A,37.271305503361575,60.711469635039336,1.863565275168079,0.953653534970397,A,833.2905999996001,Correct
13,213,504,A,18.23097650895986,39.92778732979805,0.9115488254479929,0.627184216746946,B,435.51860000025044,Incorrect
13,213,505,A,56.343364403411684,67.39957161878976,2.817168220170584,1.0587099952634453,A,911.9234999998298,Correct
13,213,506,A,55.63669020341083,68.39597571100936,2.7818345101705417,1.0743614741440646,A,665.3544000000693,Correct
13,213,507,B,67.33015858291351,53.16087021550102,3.3665079291456754,0.8350489966372923,A,780.9628999993947,Incorrect
13,213,508,B,54.057776974139294,29.739998551856765,2.7028888487069644,0.4671548048414215,B,807.7227000003404,Correct
13,213,509,A,12.631028842448629,32.571953341574925,0.6315514421224314,0.5116390466548064,A,692.4274000002697,Correct
13,213,510,A,64.95938165991063,77.39682856331441,3.247969082995531,1.215746540128286,A,881.6735999998855,Correct
13,213,511,B,79.70126303551817,61.601581627184885,3.9850631517759085,0.96763538144738,B,709.5690999994986,Correct
13,213,512,A,53.59023590920419,60.996993158750016,2.6795117954602095,0.9581385279929797,A,884.208899999976,Correct
13,213,513,B,54.46149907036919,23.924493338050763,2.7230749535184593,0.3758050625583911,B,414.13789999933215,Correct
13,213,514,B,61.541313297350264,28.78428197084051,3.077065664867513,0.45214244389224834,B,479.2799999995623,Correct
13,213,515,B,52.253881877567096,36.56596539951051,2.6126940938783547,0.5743768413526039,B,461.94259999992937,Correct
13,213,516,A,60.33285619579285,71.26948923466477,3.0166428097896425,1.1194985190235986,A,619.6896000001288,Correct
13,213,517,A,36.25289528764243,55.47477561465306,1.8126447643821217,0.8713957376526815,A,639.5944999994754,Correct
13,213,518,B,45.12760807568897,20.022853600118218,2.256380403784448,0.31451824887017665,B,763.4699999998702,Correct
13,213,519,B,33.48180626932251,11.291458019322029,1.6740903134661256,0.17736580780909822,B,498.95720000040455,Correct
13,213,520,B,86.3645955395506,65.84800598543957,4.31822977697753,1.0343380592869684,B,654.8322999997254,Correct
13,213,521,B,36.74731272948961,16.615032629366986,1.8373656364744804,0.2609883222378701,B,498.13189999986207,Correct
13,213,522,A,41.36423874057773,72.03250498583091,2.0682119370288863,1.1314839424157828,A,507.783300000483,Correct
13,213,523,A,52.30236901142605,72.64291179349767,2.6151184505713023,1.141072190129118,A,545.3766000000542,Correct
13,213,524,A,53.44461235934316,82.02313861293263,2.6722306179671578,1.2884164484538323,A,493.49290000009205,Correct
13,213,525,A,44.014065492426234,73.78565172348648,2.2007032746213118,1.159022306974201,A,444.1389000003255,Correct
13,213,526,B,81.72426707521552,58.52226285031857,4.086213353760776,0.9192655552100584,A,581.2505000003512,Incorrect
13,213,527,B,35.76195568562757,24.311878406151436,1.7880977842813786,0.3818900929786684,B,739.9143000002368,Correct
13,213,528,B,43.62281815318939,24.475710828350955,2.18114090765947,0.38446356664867753,B,529.4042000004993,Correct
13,213,529,B,51.73831179859137,29.800373813248882,2.5869155899295686,0.46810317722966166,B,450.56799999929353,Correct
13,213,530,A,50.94003994653001,72.52391947011228,2.5470019973265003,1.1392030630842125,A,499.40520000018296,Correct
13,213,531,B,67.159593262645,35.42561863830841,3.35797966313225,0.5564643163149167,B,601.761500000066,Correct
13,213,532,A,38.311345744537704,49.24366206559409,1.9155672872268852,0.7735176349056438,A,2328.418799999781,Correct
13,213,533,B,55.91508835790587,44.513246027962886,2.7957544178952936,0.6992124335444162,B,725.3796000004513,Correct
13,213,534,B,32.946563395997885,20.903421876226208,1.6473281697998943,0.3283501830062021,B,630.5112000000008,Correct
13,213,535,B,85.67557013469809,57.30518343581524,4.283778506734905,0.9001477164728633,A,790.8057000004192,Incorrect
13,213,536,A,42.63413192005608,58.53429094595804,2.131706596002804,0.9194544920945465,A,2638.0051999994976,Correct
13,213,537,B,71.68593928612324,58.82433458499918,3.584296964306162,0.924010486922707,B,393.60469999974157,Correct
13,213,538,A,30.314839965711815,49.822942765994725,1.5157419982855906,0.7826169548693688,A,526.8690000002607,Correct
13,213,539,A,30.05872047102177,38.81112943090437,1.5029360235510885,0.609643795488259,B,583.1617000003462,Incorrect
13,213,540,B,67.46512233572565,36.76926402672299,3.3732561167862825,0.577570248721282,B,667.8675999992265,Correct
13,213,541,A,27.96919982362315,59.80310507205773,1.3984599911811575,0.9393849777811752,A,488.6177999997017,Correct
13,213,542,B,76.58789422966998,57.27033394425462,3.8293947114834994,0.8996003019395222,B,406.35569999994914,Correct
13,213,543,B,63.245105024435304,37.940688629274874,3.162255251221765,0.5959709433493388,B,454.40360000065994,Correct
13,213,544,B,37.77608583793055,17.458633735949906,1.8888042918965278,0.27423957743287575,B,606.1589999999342,Correct
13,213,545,A,14.113893505370807,39.40992341195421,0.7056946752685405,0.6190496293476587,A,420.51230000015494,Correct
13,213,546,B,75.91719593337889,45.133588328896224,3.7958597966689442,0.708956747621032,B,568.37859999996,Correct
13,213,547,A,21.667833904955714,47.86425260456458,1.0833916952477858,0.7518499217603309,A,438.7615999994523,Correct
13,213,548,A,66.28654547958986,78.04784106052924,3.314327273979493,1.2259726205215122,A,621.6526000007434,Correct
13,213,549,A,47.96713199417577,59.78878493226146,2.3983565997087886,0.9391600375512635,A,582.2262000001501,Correct
