subject,day,trial,cat,x,y,xt,yt,resp,rt,fb
11,311,0,A,41.395399171813025,59.039245372055085,2.0697699585906513,0.9273862976716671,A,2989.849999999933,Correct
11,311,1,A,56.61422707105129,80.38255548916825,2.8307113535525645,1.2626462290077245,A,659.9648999999772,Correct
11,311,2,A,50.839614137757756,77.74633028173349,2.541980706887888,1.2212365002832979,A,554.3113999992784,Correct
11,311,3,B,56.01450435168833,39.17582007537879,2.8007252175844166,0.6153723427358276,B,729.8045999996248,Correct
11,311,4,A,47.867502144947274,73.91042062044833,2.3933751072473637,1.1609821722246603,A,736.4132000002428,Correct
11,311,5,A,47.559665189503235,62.09881468637632,2.3779832594751618,0.975445900076769,A,1451.7601000006835,Correct
11,311,6,A,35.32816853824562,62.55711543464156,1.766408426912281,0.9826448713961929,A,1284.5949999991717,Correct
11,311,7,B,38.95707602916906,27.05635462086804,1.947853801458453,0.4250002245491964,B,548.6406999989413,Correct
11,311,8,A,50.63872121237908,69.61861221072122,2.5319360606189543,1.0935666033715923,A,707.2685000002821,Correct
11,311,9,A,41.30169206440584,54.92560603657975,2.065084603220292,0.8627694020924306,A,4646.325499999875,Correct
11,311,10,B,64.24951732768663,53.81645414738924,3.212475866384332,0.8453468849584499,B,561.9541000014578,Correct
11,311,11,B,70.0055978006549,61.092872568650336,3.5002798900327448,0.9596445982418463,B,582.1196999986569,Correct
11,311,12,B,61.8342277897857,50.95498536323728,3.091711389489285,0.8003990384046085,B,613.2718000008026,Correct
11,311,13,A,68.67324040146391,85.8138999342651,3.4336620200731955,1.3479615880468843,A,585.4828000010457,Correct
11,311,14,B,55.62391459273894,40.472456896715286,2.781195729636947,0.6357398662972515,B,908.2206999992195,Correct
11,311,15,B,36.62319398491741,18.983648089739138,1.8311596992458703,0.29819444688529195,B,554.0255999985675,Correct
11,311,16,B,45.42892331501054,24.119772832586072,2.271446165750527,0.3788725056855354,B,510.1923000001989,Correct
11,311,17,A,26.331899933458512,56.54871384649097,1.3165949966729256,0.8882651199504372,A,871.5849999989587,Correct
11,311,18,A,33.2466895583578,51.224471554733775,1.66233447791789,0.8046321176018548,A,930.9304999987944,Correct
11,311,19,B,57.37704304008436,34.10619261714213,2.8688521520042176,0.5357388208396607,B,729.5501000007789,Correct
11,311,20,A,39.48876230852454,52.41752625420155,1.9744381154262272,0.8233725769977484,A,744.7873000000982,Correct
11,311,21,B,52.543357099888965,35.25098909701438,2.627167854994448,0.5537212418947713,B,701.1880999998539,Correct
11,311,22,B,50.84465582948992,39.06349321683789,2.542232791474496,0.6136079165678633,B,643.0024999990565,Correct
11,311,23,A,45.017065378810535,61.78461445488159,2.250853268940527,0.9705104543816686,A,859.8653000008198,Correct
11,311,24,A,38.55376058310794,59.78051108010381,1.9276880291553968,0.9390300721854867,A,611.8599000001268,Correct
11,311,25,B,51.12079532089024,37.412653910648146,2.556039766044512,0.5876765933849483,B,606.6392000011547,Correct
11,311,26,A,65.68386509309678,82.95505614022923,3.284193254654839,1.3030549747413653,A,553.7016000016592,Correct
11,311,27,A,42.127290525251794,52.268088684977855,2.1063645262625896,0.8210252171495311,A,1589.848499999789,Correct
11,311,28,B,59.09668759533103,43.473995941840066,2.954834379766552,0.6828879313653862,B,720.3258000008645,Correct
11,311,29,A,12.769821931819806,40.82416227652863,0.6384910965909902,0.6412644414844996,A,492.2442000006413,Correct
11,311,30,A,22.941578397256535,47.7098018327564,1.1470789198628268,0.7494238147100617,A,687.0162999985041,Correct
11,311,31,A,48.54685688909941,71.56802512666816,2.4273428444549707,1.1241879098493521,A,681.2370999996347,Correct
11,311,32,B,56.94395487705209,38.721441382983826,2.8471977438526044,0.6082349789259489,B,716.5690999991057,Correct
11,311,33,A,57.60963886555529,81.25525030178395,2.8804819432777644,1.2763544870684211,A,499.48699999913515,Correct
11,311,34,A,67.22296082006454,85.53081543008797,3.361148041003227,1.3435149070535446,A,453.70849999926577,Correct
11,311,35,B,44.844142328459945,30.36514458170572,2.2422071164229975,0.476974575715393,B,669.4523999994999,Correct
11,311,36,A,44.39195416184097,74.97379090109033,2.2195977080920484,1.1776855535332131,A,500.6209000002855,Correct
11,311,37,A,30.361366594998213,59.26637544399157,1.5180683297499107,0.9309540484986921,A,580.3799999994226,Correct
11,311,38,B,65.691697404218,35.377592638489745,3.2845848702109004,0.5557099256738587,B,434.4643999993423,Correct
11,311,39,B,60.63489857568824,34.53127470557464,3.031744928784412,0.5424159946706216,B,745.3800999992382,Correct
11,311,40,B,57.8555104070066,46.824078285482464,2.8927755203503303,0.7355109017639252,B,915.6058000007761,Correct
11,311,41,B,53.67477934725118,35.813402616618035,2.6837389673625593,0.5625556128021034,B,588.9721999992616,Correct
11,311,42,B,80.81095268363848,52.51422449077839,4.040547634181923,0.8248915093459729,B,837.8698999986227,Correct
11,311,43,A,41.064501618851686,53.67734143079419,2.0532250809425845,0.8431617075160703,A,970.263100000011,Correct
11,311,44,B,82.78789800169113,52.5427952935638,4.1393949000845565,0.825340298466662,B,583.0007999993541,Correct
11,311,45,A,62.252006661497674,82.9499052198756,3.1126003330748837,1.3029740642736543,A,683.4268000002339,Correct
11,311,46,A,27.832696497715887,43.670325341614415,1.3916348248857944,0.68597186636546,A,512.6925000004121,Correct
11,311,47,A,58.1646771612934,66.47906749876556,2.90823385806467,1.0442507503581093,A,991.3176000009116,Correct
11,311,48,A,47.899905549697436,55.94382620436133,2.394995277484872,0.8787635670866284,A,725.1296999984334,Correct
11,311,49,A,20.110150382906564,43.2244294495743,1.0055075191453282,0.6789677500719646,A,598.544899999979,Correct
11,311,50,A,49.47611456032059,69.40579163026399,2.4738057280160293,1.0902236255111064,A,799.1077999995468,Correct
11,311,51,A,54.398245392547985,74.25287632295803,2.719912269627399,1.1663614538205822,A,703.3984000008786,Correct
11,311,52,A,18.873684656740945,33.90885238865822,0.9436842328370473,0.5326390077793468,A,586.4607000003161,Correct
11,311,53,A,53.74069415244292,67.97798199831728,2.687034707622146,1.0677956442588639,A,937.9064000004291,Correct
11,311,54,A,42.67068113587138,71.4766797062392,2.133534056793569,1.1227530593405586,A,605.2204000006896,Correct
11,311,55,B,56.506882658889474,40.88750849780076,2.8253441329444735,0.6422594816014054,B,668.9840000017284,Correct
11,311,56,B,39.996889813090874,19.641743083884165,1.9998444906545438,0.30853177888014316,B,511.1918999991758,Correct
11,311,57,B,85.59385086917152,61.199414275568685,4.279692543458577,0.9613181514606244,B,591.7817999998078,Correct
11,311,58,A,21.61358495088427,50.9956732149864,1.0806792475442135,0.8010381616853353,A,598.420399999668,Correct
11,311,59,A,17.00205324599404,41.17712476662981,0.850102662299702,0.6468087633139726,A,560.0888000008126,Correct
11,311,60,A,37.70382819477969,62.82384039310925,1.8851914097389846,0.9868345772464486,A,611.144599999534,Correct
11,311,61,A,23.46691875317753,55.76655285818527,1.1733459376588766,0.8759789638765086,A,461.65149999978894,Correct
11,311,62,B,61.02151246243518,45.48165336344768,3.051075623121759,0.7144241403986237,B,869.3882999996276,Correct
11,311,63,A,38.30085908348212,66.79897109787217,1.915042954174106,1.0492757843421607,A,598.766599998271,Correct
11,311,64,B,62.96999622156945,37.68453538363809,3.1484998110784725,0.5919472975759102,B,509.42870000108087,Correct
11,311,65,B,38.73199608076855,25.80584531912238,1.9365998040384278,0.4053572703711471,B,616.7487999991863,Correct
11,311,66,A,62.0599708314002,77.20524279641128,3.10299854157001,1.21273711793911,A,1139.2484000007244,Correct
11,311,67,A,60.44113138717299,85.00750678301559,3.022056569358649,1.3352947940475315,A,564.9099000002025,Correct
11,311,68,A,53.28553389322815,64.15521124315318,2.6642766946614076,1.0077477016549568,A,1030.0497000007454,Correct
11,311,69,A,52.8883675897319,73.36772185724041,2.644418379486595,1.1524574799866287,A,628.6677999996755,Correct
11,311,70,A,49.601923800739776,73.28437820341853,2.480096190036989,1.151148320933778,A,506.2099999995553,Correct
11,311,71,B,60.20540764009755,52.0628554180718,3.0102703820048773,0.8178014205316096,B,691.9003999992128,Correct
11,311,72,B,82.74703987224208,52.79670027235101,4.137351993612104,0.8293286285470008,B,527.20699999918,Correct
11,311,73,B,54.370459493959956,41.34927383429642,2.718522974697998,0.6495128745454914,B,454.1423999999097,Correct
11,311,74,B,89.63056374575987,65.5642156617296,4.481528187287994,1.029880291306333,B,516.7672999996284,Correct
11,311,75,B,47.34229832139011,30.483665314836216,2.3671149160695055,0.47883629503789726,B,580.7795000000624,Correct
11,311,76,B,47.880953289842225,36.75536284452938,2.3940476644921116,0.5773518894620037,B,626.575899999807,Correct
11,311,77,B,49.549210439426666,36.20689972661091,2.4774605219713335,0.5687366509519156,B,514.3269000000146,Correct
11,311,78,A,41.4473160682041,49.89581124290139,2.072365803410205,0.7837615702280101,A,5169.810899998993,Correct
11,311,79,B,72.14989484235899,42.24301837710201,3.6074947421179497,0.6635517809948115,B,500.3333000004204,Correct
11,311,80,A,47.02958690429178,71.46311943809542,2.3514793452145892,1.1225400551466527,A,620.3217000002041,Correct
11,311,81,A,36.511330593178414,69.01317228336617,1.8255665296589205,1.0840563752317496,A,633.0507000002399,Correct
11,311,82,B,48.06201877403926,18.794832065544032,2.4031009387019626,0.29522853171283503,B,562.9912000003969,Correct
11,311,83,B,46.98263040442352,25.9121961086602,2.3491315202211758,0.40702782466672455,B,408.8278999988688,Correct
11,311,84,B,50.568533177087915,32.67417277962511,2.5284266588543955,0.5132447058329692,B,460.12100000007194,Correct
11,311,85,B,40.11388568169824,20.918052654593012,2.005694284084912,0.3285800027353694,B,457.9338999992615,Correct
11,311,86,A,40.75453807480092,65.68166604602345,2.0377269037400456,1.0317251976286272,A,664.5919000002323,Correct
11,311,87,A,30.4916453633735,52.20854407928255,1.524582268168675,0.8200898926704647,A,463.5065000002214,Correct
11,311,88,B,71.20456403174902,53.91980124774753,3.5602282015874507,0.8469702574147269,B,728.373099998862,Correct
11,311,89,A,33.36893462848525,46.62855378758873,1.6684467314242624,0.7324396101330264,A,610.2860999999393,Correct
11,311,90,B,61.09471865105361,31.8545501227364,3.0547359325526804,0.5003701032449825,B,482.0243999984086,Correct
11,311,91,B,74.6185424454483,54.55455500837303,3.7309271222724147,0.8569409461708248,B,1072.3316000003251,Correct
11,311,92,B,51.7126328382468,34.227604003980204,2.5856316419123395,0.537645946444424,B,580.5611000014324,Correct
11,311,93,A,23.39462846688922,36.61084264332074,1.169731423344461,0.5750817714499417,A,709.1435000002093,Correct
11,311,94,A,13.027897698917279,35.167527245996574,0.6513948849458641,0.5524102262047086,A,492.5674000005529,Correct
11,311,95,A,49.991771940986645,59.40546164282742,2.4995885970493323,0.9331388094010844,A,866.3641000002826,Correct
11,311,96,B,62.341130082218186,49.07513928032842,3.1170565041109093,0.7708704851848782,B,701.1636000006547,Correct
11,311,97,B,75.99132600910882,54.79771909963967,3.799566300455441,0.8607605587845255,B,452.6404999996885,Correct
11,311,98,B,48.43184580930122,33.60924830384881,2.4215922904650613,0.5279328378202331,B,572.9258999999729,Correct
11,311,99,B,64.56677703197101,45.99332683483819,3.2283388515985507,0.7224614884924097,B,569.3681000011566,Correct
11,311,100,B,54.9464134352593,41.05065647036751,2.747320671762965,0.6448222039617244,B,780.1462000006723,Correct
11,311,101,A,32.34628361655509,54.13870094770492,1.6173141808277547,0.8504087258610228,A,692.1571000002587,Correct
11,311,102,B,60.97595128804334,47.92347257276724,3.0487975644021668,0.7527801468455876,B,1015.1931000000332,Correct
11,311,103,B,84.58185062271127,54.78571893185202,4.229092531135564,0.8605720605897078,B,594.2664000012883,Correct
11,311,104,B,86.49847910110552,69.42635248039414,4.324923955055276,1.0905465945897086,B,948.1904000003851,Correct
11,311,105,B,55.619698904295824,27.70160545651597,2.780984945214791,0.4351358009741675,B,609.1558999996778,Correct
11,311,106,A,40.24837016815966,64.44819203678935,2.012418508407983,1.0123498331996084,A,662.4181000006502,Correct
11,311,107,B,60.49486750121609,38.751497809273175,3.0247433750608046,0.6087071041660679,B,612.573300000804,Correct
11,311,108,B,54.155380929313765,26.415431580773173,2.707769046465688,0.4149326289778041,B,501.09879999945406,Correct
11,311,109,A,25.867980064815406,51.00078597367898,1.2933990032407703,0.8011184727110763,A,762.9617000002327,Correct
11,311,110,B,60.344918151285405,35.362460933589986,3.01724590756427,0.5554722374091118,B,563.7679999999818,Correct
11,311,111,B,72.50654991398848,51.09812738293046,3.6253274956994237,0.8026475079920489,B,703.3454000011261,Correct
11,311,112,A,25.10195470169927,51.051105752454944,1.2550977350849635,0.8019088939477406,A,540.0624000012613,Correct
11,311,113,B,56.244674397788685,29.370616732063276,2.8122337198894343,0.4613525687842573,B,478.84399999929883,Correct
11,311,114,B,35.144548210870624,14.81110407820072,1.7572274105435313,0.23265227881814607,B,471.1396999991848,Correct
11,311,115,A,46.79854304153731,70.90510851939729,2.339927152076865,1.1137748401326277,A,722.4640999993426,Correct
11,311,116,A,40.38872463520189,51.2062500780377,2.0194362317600945,0.804345895315225,A,932.4073000007047,Correct
11,311,117,A,39.72131594142857,70.09866797706239,1.9860657970714286,1.1011073017158464,A,541.8124000007083,Correct
11,311,118,B,38.42506533158246,12.201706310251648,1.9212532665791229,0.191663954527734,B,450.77219999984663,Correct
11,311,119,A,27.61091097489915,49.870104292387936,1.3805455487449576,0.7833577663936137,A,543.5190999996848,Correct
11,311,120,A,38.151871739419605,65.64113705674505,1.9075935869709804,1.0310885697537548,A,702.1413000002212,Correct
11,311,121,B,84.86480599410635,64.98525885199453,4.243240299705318,1.0207860590052855,B,1323.667900000146,Correct
11,311,122,A,37.29483671738346,68.22533282729393,1.8647418358691732,1.0716810219947257,A,611.6885999999795,Correct
11,311,123,A,38.34381670215391,46.12602682701444,1.9171908351076954,0.7245459350951713,B,643.439399998897,Incorrect
11,311,124,A,42.51281234433898,70.85129911566224,2.1256406172169493,1.1129296039952876,A,653.7071999991895,Correct
11,311,125,B,35.5069356922652,10.634633156109,1.77534678461326,0.16704842698427236,B,657.5517000001128,Correct
11,311,126,B,73.16902864418465,61.22064956401153,3.6584514322092327,0.9616517145914689,B,1068.333300001541,Correct
11,311,127,B,62.71467492255367,29.530152356355202,3.1357337461276837,0.4638585485105641,B,481.00070000145934,Correct
11,311,128,B,33.153519961934165,13.511751709886031,1.6576759980967082,0.21224209954453643,B,516.6322999994009,Correct
11,311,129,B,46.967708137850934,35.754049882650015,2.3483854068925467,0.5616233022370815,B,1928.5103000001982,Correct
11,311,130,B,72.0676696285343,50.96753033820382,3.6033834814267154,0.8005960944105801,B,758.3123999993404,Correct
11,311,131,B,32.30900202817979,15.379531898915932,1.6154501014089897,0.24158112214642086,B,553.3708000002662,Correct
11,311,132,A,56.03077342843102,80.33618992901891,2.801538671421551,1.2619179204920006,A,635.5907999986812,Correct
11,311,133,A,57.026872221082996,84.13566979824124,2.85134361105415,1.3216000107150565,A,514.4999999993161,Correct
11,311,134,B,47.814345504099585,20.431668325416705,2.3907172752049792,0.32093989555856195,B,621.8360000002576,Correct
11,311,135,B,74.08604738243389,49.462962156990024,3.7043023691216943,0.776962392685949,B,1576.061400000981,Correct
11,311,136,B,44.7002417142962,28.777167505547432,2.2350120857148097,0.4520306901327536,B,469.6144000008644,Correct
11,311,137,A,41.766720317937185,73.77709598299745,2.0883360158968594,1.158887913716869,A,557.0678999993106,Correct
11,311,138,B,40.18700628115428,22.704741565096963,2.009350314057714,0.35664524651281726,B,468.7978000001749,Correct
11,311,139,A,14.105529050417392,42.78613372309981,0.7052764525208696,0.6720830169000043,A,481.77709999981744,Correct
11,311,140,A,62.09724573326191,74.51471403587644,3.1048622866630957,1.1704743909972681,A,589.0901999991911,Correct
11,311,141,A,39.32247709682565,52.48256321327943,1.9661238548412825,0.8243941751620028,A,852.042700000311,Correct
11,311,142,A,34.35797025838178,51.80687782335988,1.7178985129190891,0.8137805338764568,A,462.819500000478,Correct
11,311,143,B,66.1339788375701,47.29183803640783,3.306698941878505,0.7428584547496858,B,2042.68570000022,Correct
11,311,144,A,43.07354105521255,63.11103852867062,2.1536770527606275,0.9913458750104701,A,633.6022000014054,Correct
11,311,145,B,40.64142977623165,26.993743781621482,2.032071488811582,0.424016735786136,B,470.0574999988021,Correct
11,311,146,B,57.714886297747114,48.9614282068527,2.8857443148873556,0.7690843158195626,B,1024.520199998733,Correct
11,311,147,A,44.11445581965252,59.51417281846393,2.205722790982626,0.9348464405547983,A,987.2848000013619,Correct
11,311,148,B,71.92067686656273,51.046607563830214,3.596033843328137,0.8018382365660509,B,558.9192999996158,Correct
11,311,149,A,60.56643182225106,82.52433283078255,3.0283215911125527,1.296289188817927,A,619.8724999994738,Correct
11,311,150,A,27.96754382673234,54.39386727023922,1.398377191336617,0.8544168690826092,A,522.5193000005675,Correct
11,311,151,B,44.990535701450625,26.500703313274215,2.2495267850725313,0.41627207421972473,B,648.6166000013327,Correct
11,311,152,B,53.528330406225045,40.323797992519204,2.676416520311252,0.6334047376906858,B,481.1821000002965,Correct
11,311,153,A,18.72996010986554,41.85675021907775,0.9364980054932771,0.6574842949569881,A,527.81369999866,Correct
11,311,154,A,37.0215302696144,68.54325369701442,1.85107651348072,1.0766749113384098,A,763.4252000007109,Correct
11,311,155,B,80.04486965258985,56.52785036967512,4.002243482629493,0.887937397222972,B,508.53099999949336,Correct
11,311,156,A,21.355486241687508,50.038136260672744,1.0677743120843755,0.7859972063792726,A,592.4274000008154,Correct
11,311,157,A,68.72281271740599,83.30833041845128,3.4361406358702995,1.3086041941271882,B,487.3461999995925,Incorrect
11,311,158,B,50.06558421430911,35.969562592868556,2.503279210715456,0.5650085679729705,B,400.20670000012615,Correct
11,311,159,A,52.186898605465586,64.36708266191468,2.609344930273279,1.0110757701183906,B,932.0871999989322,Incorrect
11,311,160,B,42.5577868421056,27.03398900011811,2.12788934210528,0.42464890619999157,B,498.69550000039453,Correct
11,311,161,B,77.33946649207569,60.646960298737994,3.8669733246037845,0.9526402246853356,B,1361.0776999994414,Correct
11,311,162,B,42.07867873442255,25.71189538450258,2.103933936721128,0.40388150824911306,B,519.1502999987279,Correct
11,311,163,A,35.677408123035,62.36044430228192,1.78387040615175,0.9795555684732218,A,596.4296000001923,Correct
11,311,164,B,63.97646606261326,50.38429893595832,3.1988233031306628,0.7914347169673935,B,1720.0440999986313,Correct
11,311,165,A,54.06845040617847,62.82271159564338,2.7034225203089237,0.9868168461373178,A,835.9055000000808,Correct
11,311,166,B,66.57312455730003,34.449970432895704,3.328656227865002,0.5411388701418537,B,877.0180000010441,Correct
11,311,167,A,46.312598966838884,70.23427588245244,2.3156299483419445,1.1032374257125568,A,640.3504000008979,Correct
11,311,168,A,60.408570621285925,76.53482829444658,3.020428531064296,1.2022062715679482,A,781.0680000002321,Correct
11,311,169,A,59.719679949750436,71.2314119795511,2.9859839974875215,1.1189004028989287,A,666.8681999999535,Correct
11,311,170,A,47.498120593725005,68.19626204084976,2.37490602968625,1.0712243791490903,A,521.2269999992714,Correct
11,311,171,A,45.951556821231335,56.10682523874463,2.297577841061567,0.8813239499314326,A,899.7264999998151,Correct
11,311,172,B,52.61146630153088,27.46502146785909,2.630573315076544,0.43141954837056035,B,510.2578000005451,Correct
11,311,173,A,42.3043058810371,60.612037291878195,2.115215294051855,0.9520916553763756,A,555.4620000002615,Correct
11,311,174,B,42.186000002358014,26.633204746860198,2.1093000001179005,0.418353401871444,B,460.88159999999334,Correct
11,311,175,B,73.62556487778542,47.49678962517165,3.6812782438892713,0.7460778267776957,B,677.4371000010433,Correct
11,311,176,A,33.60651537668598,47.625544929329315,1.680325768834299,0.748100310365958,A,850.7231999992655,Correct
11,311,177,A,25.07087286371655,56.53932091263994,1.2535436431858273,0.888117576090527,A,538.4475000009843,Correct
11,311,178,B,48.854547376777255,41.59836742504374,2.4427273688388627,0.6534256275192318,A,3548.934600001303,Incorrect
11,311,179,B,67.75311879025963,46.334846936222874,3.3876559395129817,0.7278260737002266,B,817.6883000014641,Correct
11,311,180,B,73.62468704403467,60.823179517712376,3.6812343522017335,0.955408269704092,B,1963.3260000009614,Correct
11,311,181,A,49.38491953628325,79.37331409067852,2.4692459768141624,1.2467931021917542,A,671.2413999994169,Correct
11,311,182,B,52.788481971187096,28.312396791739936,2.6394240985593544,0.4447300888322471,B,446.40119999894523,Correct
11,311,183,A,60.632010712124675,76.23618986821296,3.031600535606234,1.1975152701382723,A,734.734199999366,Correct
11,311,184,A,14.11325664827553,37.88972290863604,0.7056628324137765,0.5951703756816193,A,538.0330999996659,Correct
11,311,185,A,27.41931607965658,53.48989640322701,1.370965803982829,0.8402173279082853,A,756.2432999984594,Correct
11,311,186,B,50.27929548824139,18.908009489754814,2.5139647744120692,0.29700631853509907,B,692.2912000009092,Correct
11,311,187,B,42.769490622364195,28.78598511204718,2.13847453111821,0.45216919677176287,B,652.5746999996045,Correct
11,311,188,B,75.49872236947958,56.60203914502448,3.7749361184739794,0.889102751781054,B,813.9781000008952,Correct
11,311,189,A,26.909684882567717,48.4124002741649,1.3454842441283859,0.7604602052198247,A,626.940399999512,Correct
11,311,190,A,50.2389013261667,62.82289415720162,2.5119450663083347,0.9868197138075688,A,1547.508800000287,Correct
11,311,191,B,36.57778499923137,24.46790389102735,1.8288892499615685,0.38434093556396315,B,587.5441999996838,Correct
11,311,192,B,64.03419995849866,35.7887960943132,3.201709997924933,0.5621690944535872,B,574.8567999999068,Correct
11,311,193,B,80.89060444285397,56.17444610647379,4.044530222142698,0.8823861360378689,B,573.7668000001577,Correct
11,311,194,A,49.031188860185964,58.623783790604044,2.451559443009298,0.9208602424109902,A,781.8002000003617,Correct
11,311,195,B,58.212175731377116,34.05753050071304,2.9106087865688557,0.534974438102252,B,573.5469000010198,Correct
11,311,196,B,67.68906303400632,40.549310443200305,3.384453151700316,0.6369470789824498,B,693.8291999995272,Correct
11,311,197,A,32.94077169703816,60.893725563060606,1.6470385848519078,0.9565164043931209,A,680.8959999998478,Correct
11,311,198,A,66.88831022332005,80.88460229107757,3.3444155111660026,1.2705323617309074,A,707.9360000007,Correct
11,311,199,A,38.0505323245898,68.31778936175087,1.90252661622949,1.0731333258418572,A,609.997999999905,Correct
11,311,200,B,67.26617929762243,46.35465349134015,3.3633089648811216,0.7281371943404734,B,1805.3620999999112,Correct
11,311,201,B,40.97024331490109,13.392883168294894,2.0485121657450547,0.21037491685950818,B,542.495499999859,Correct
11,311,202,B,70.4288865597103,37.238707869251904,3.521444327985515,0.584944255356091,B,664.4395999992412,Correct
11,311,203,B,76.8584626404068,64.53070330627651,3.84292313202034,1.0136459171899044,B,1643.761799999993,Correct
11,311,204,A,34.733839565495245,55.92220719198311,1.7366919782747623,0.8784239764343023,A,614.8229999998875,Correct
11,311,205,B,46.72609726239249,39.45336164124666,2.336304863119625,0.6197319554578091,B,612.9043999990245,Correct
11,311,206,A,39.01146316631603,49.733910550944636,1.9505731583158012,0.7812184401056979,B,1225.066800001514,Incorrect
11,311,207,B,31.880256496762854,16.12662846878078,1.5940128248381427,0.2533164876234686,B,517.47990000149,Correct
11,311,208,A,15.332081006029139,32.259414147675656,0.766604050301457,0.5067296924772424,A,563.5877999993681,Correct
11,311,209,B,65.37807948320174,42.88146840142706,3.2689039741600876,0.6735805305253304,B,551.7257999999856,Correct
11,311,210,B,48.67465399343371,34.49414387140949,2.4337326996716855,0.5418327448914472,B,525.523800000883,Correct
11,311,211,A,53.80980245351149,71.79403356702758,2.690490122675574,1.1277380421287642,A,726.3856999998097,Correct
11,311,212,B,75.73657548152455,55.334854314510906,3.7868287740762274,0.8691978590096446,B,847.479399999429,Correct
11,311,213,B,78.4592600750406,49.727026283006474,3.9229630037520304,0.7811103022777983,B,554.8145000011573,Correct
11,311,214,A,28.61147012868988,59.33643996418757,1.4305735064344942,0.9320546194083175,A,612.510700000712,Correct
11,311,215,B,70.80381042368141,45.400479616724866,3.5401905211840705,0.7131490661667799,B,1425.4507000005106,Correct
11,311,216,B,44.10389622899483,24.867022168712182,2.2051948114497413,0.3906102708094036,B,693.3744000016304,Correct
11,311,217,B,56.60786994321633,34.343819874355546,2.8303934971608165,0.5394714610674326,B,541.9637000013608,Correct
11,311,218,A,52.59480317415196,62.94790889292274,2.6297401587075977,0.9887834406842284,A,1254.5420999995258,Correct
11,311,219,B,32.529154637823225,14.022970265118278,1.6264577318911615,0.22027230183201849,B,592.1689000006154,Correct
11,311,220,B,70.86998260068187,60.0799308803946,3.543499130034093,0.943733347410151,A,1420.6131999999343,Incorrect
11,311,221,B,38.817152389414076,23.730451138855404,1.940857619470704,0.3727570548209984,B,590.2956999998423,Correct
11,311,222,A,53.227519340620844,71.87971771699759,2.6613759670310424,1.1290839656091387,A,519.4021999996039,Correct
11,311,223,B,30.595277627012056,15.70809199434039,1.529763881350603,0.24674213205666204,B,1003.5458000002109,Correct
11,311,224,B,51.018232006974934,36.23455669596703,2.5509116003487464,0.5691710856106643,B,1665.3913999998622,Correct
11,311,225,A,52.0622973707558,67.91098062375835,2.60311486853779,1.06674318912839,A,813.8194000002841,Correct
11,311,226,B,51.63486077797243,44.916618169867924,2.581743038898621,0.7055485883327745,B,956.730100000641,Correct
11,311,227,B,65.33223390716067,52.77621669914283,3.2666116953580335,0.8290068733314503,B,1422.9429999995773,Correct
11,311,228,A,34.701944376823356,64.43760145920147,1.7350972188411677,1.0121834767958715,A,645.5972000003385,Correct
11,311,229,A,35.1866236834522,53.43257392682848,1.7593311841726098,0.8393169085545895,A,1155.673499999466,Correct
11,311,230,B,76.67311354211,62.97814996857707,3.8336556771055,0.9892584663897901,B,614.7437999989052,Correct
11,311,231,A,47.31531579619672,73.55514820652463,2.3657657898098363,1.1554015661966313,A,554.0196000001743,Correct
11,311,232,B,88.9599213094365,69.44365933709769,4.447996065471824,1.0908184500590916,B,508.59379999928933,Correct
11,311,233,B,59.52261648087651,51.731268893701895,2.9761308240438256,0.8125928715866603,B,735.863199999585,Correct
11,311,234,A,36.997226143246145,46.14599127584694,1.8498613071623071,0.7248595359240972,A,888.7262000007468,Correct
11,311,235,A,17.06692786254153,44.69897926827488,0.8533463931270765,0.7021299244608742,A,735.65139999846,Correct
11,311,236,A,23.182278533072246,53.76925894126795,1.1591139266536123,0.8446055443942735,A,574.565500000972,Correct
11,311,237,B,83.60766579092635,63.1647516399133,4.1803832895463175,0.9921895985888772,B,795.5394999989949,Correct
11,311,238,A,34.965023679300884,58.853877575558954,1.7482511839650443,0.9244745471332454,A,518.3034000001498,Correct
11,311,239,B,46.984082994331374,18.15687524333106,2.3492041497165688,0.2852075293829762,B,454.32980000077805,Correct
11,311,240,B,58.25936038816255,35.393865490050814,2.9129680194081278,0.5559655390284447,B,916.9602999991184,Correct
11,311,241,A,33.40307052565439,61.51018234900133,1.6701535262827196,0.9661996849429558,A,622.3535999997694,Correct
11,311,242,B,66.061058435964,50.13951592697691,3.3030529217982,0.7875896744536957,B,1061.8221999993693,Correct
11,311,243,B,53.38186999192304,42.32465873566844,2.669093499596152,0.6648341847483552,B,3693.0217999997694,Correct
11,311,244,A,31.7716891290128,54.44973341058602,1.58858445645064,0.8552944123630989,A,890.0187000017468,Correct
11,311,245,A,35.350588153706475,67.74993036402289,1.7675294076853236,1.0642134175641718,A,774.1669999995793,Correct
11,311,246,A,57.07549070893167,65.37090730192118,2.8537745354465835,1.0268438106910747,A,1303.3004999997502,Correct
11,311,247,A,35.79932415653542,63.17913514888325,1.789966207826771,0.9924155342194414,A,1112.704200000735,Correct
11,311,248,B,73.10415283241704,40.21907548449222,3.6552076416208523,0.6317597603812706,B,795.1718999993318,Correct
11,311,249,A,38.18890094819884,49.34406067431487,1.909445047409942,0.775094692563583,A,1302.51330000101,Correct
11,311,250,A,24.032785847631942,47.58736515123703,1.201639292381597,0.747500583814106,A,621.9901000004029,Correct
11,311,251,B,69.97788042529402,49.74468957828839,3.498894021264701,0.7813877566712776,A,842.67809999983,Incorrect
11,311,252,A,68.88152655932323,86.52296288267651,3.4440763279661617,1.3590995227951943,A,639.6970999994664,Correct
11,311,253,A,44.438138548485696,56.29744612885162,2.221906927424285,0.884318215871337,A,746.7489999999088,Correct
11,311,254,A,68.58855772570479,86.28252851506852,3.4294278862852394,1.3553227885804553,A,537.3910000016622,Correct
11,311,255,B,43.353949684156674,14.991448660586883,2.167697484207834,0.2354851248938415,B,731.0476999991806,Correct
11,311,256,B,86.32054705603011,64.99912528136701,4.316027352801505,1.021003872368526,B,1147.9051999995136,Correct
11,311,257,B,51.131631582317844,26.91150060420753,2.556581579115892,0.42272486297627826,B,1404.4509000013932,Correct
11,311,258,B,70.31668033265362,46.8019982592303,3.515834016632681,0.7351640695226012,B,1089.432200000374,Correct
11,311,259,B,42.87119908866589,33.58085441491923,2.1435599544332944,0.5274868276558932,B,755.1297999998496,Correct
11,311,260,B,35.95085414282797,21.188948272210496,1.7975427071413987,0.33283522114635317,B,579.973500000051,Correct
11,311,261,A,39.76607104656253,63.07608801975212,1.9883035523281265,0.9907968737001822,A,691.172100001495,Correct
11,311,262,A,13.30166106887468,33.89910659139195,0.665083053443734,0.5324859211538714,A,775.3009999996721,Correct
11,311,263,A,22.589934210376633,45.099328199861006,1.1294967105188318,0.7084185907725916,A,692.591099999845,Correct
11,311,264,A,39.22715173833991,54.80272739121911,1.9613575869169955,0.8608392288446903,A,556.614900000568,Correct
11,311,265,A,44.81906201404961,72.86356565856887,2.2409531007024803,1.1445382129365873,A,551.3389999996434,Correct
11,311,266,A,39.98440819455901,47.00337680095731,1.9992204097279507,0.7383273162590019,A,518.5364000008121,Correct
11,311,267,B,72.6125688748137,58.95246739281712,3.630628443740685,0.9260231923613305,B,819.8004999994737,Correct
11,311,268,B,65.9485797235799,44.743256883548916,3.2974289861789945,0.7028254356151911,B,675.2381000005698,Correct
11,311,269,B,46.84112982733821,37.60969188858492,2.34205649136691,0.5907716587047701,B,596.9583000005514,Correct
11,311,270,B,60.111594764876195,44.47589776168752,3.0055797382438096,0.6986257683496412,B,622.6172000006045,Correct
11,311,271,B,65.57104404768548,49.464601397329254,3.2785522023842737,0.7769881418129849,B,1208.01930000016,Correct
11,311,272,B,57.40118708213512,45.97801039511077,2.870059354106756,0.7222208984197755,B,637.8216999983124,Correct
11,311,273,A,40.654677062416226,66.18980194669804,2.0327338531208112,1.0397069776915495,A,773.0279000006703,Correct
11,311,274,B,80.18701600580789,62.55283991461852,4.009350800290394,0.9825777116847196,B,601.7222000009497,Correct
11,311,275,A,35.295180249087366,59.295102126922636,1.7647590124543684,0.9314052861789832,A,651.4117000006081,Correct
11,311,276,A,46.92990644410894,70.54491234127232,2.346495322205447,1.1081168917973854,A,726.7238999993424,Correct
11,311,277,A,64.70901796147808,77.3689882158223,3.2354508980739043,1.215309224972513,A,630.725099999836,Correct
11,311,278,A,32.53020185764255,57.901582402019486,1.6265100928821277,0.9095159295270423,A,743.0352999999741,Correct
11,311,279,B,72.4698018627789,60.035609559556534,3.623490093138945,0.9430371497304397,B,799.3569999998726,Correct
11,311,280,A,37.14355632945199,65.97219302208491,1.8571778164725996,1.0362887846969486,A,635.7621999995899,Correct
11,311,281,B,54.26599562858413,41.657241965737036,2.7132997814292064,0.6543504266418595,B,737.0138000005682,Correct
11,311,282,B,50.109522711315726,35.89155774695569,2.5054761355657864,0.5637832707186491,B,451.5210000008665,Correct
11,311,283,B,43.60143867611707,15.864403332840467,2.180071933805854,0.24919746482018518,B,471.39009999955306,Correct
11,311,284,A,35.81209173968428,61.44890962731811,1.7906045869842138,0.9652372152814285,A,686.2932999993063,Correct
11,311,285,A,17.797656308130914,31.901946700773838,0.8898828154065457,0.5011146069518211,A,531.0400999987905,Correct
11,311,286,B,30.53508734053242,12.956595558433769,1.526754367026621,0.20352172710954836,B,618.2177999999112,Correct
11,311,287,B,68.78868353464067,49.7154737376397,3.4394341767320333,0.7809288353195258,B,946.2384999987989,Correct
11,311,288,B,64.34168258531223,48.10617554571391,3.2170841292656114,0.755650038433579,B,516.9798999995692,Correct
11,311,289,A,44.33878796880896,67.07064909436846,2.2169393984404477,1.0535432923318344,A,554.810699999507,Correct
11,311,290,A,26.835652904512372,54.41815040336996,1.3417826452256185,0.8547983076458574,A,601.7260000007809,Correct
11,311,291,B,47.89506882590305,18.232369911272755,2.3947534412951526,0.2863933968539304,B,565.6044999996084,Correct
11,311,292,B,57.67035395105282,47.11905426154543,2.8835176975526404,0.7401443735608498,B,657.4931999984983,Correct
11,311,293,A,31.222850344679216,40.301096809934336,1.5611425172339608,0.6330481483485038,A,679.8514999991312,Correct
11,311,294,B,68.84694296402776,52.23192097439043,3.4423471482013883,0.820457096080138,B,1216.1363000013807,Correct
11,311,295,A,26.48929551120146,47.38377075173776,1.324464775560073,0.7443025304652113,A,831.8870000002789,Correct
11,311,296,B,58.40236955116142,34.01996944936492,2.920118477558071,0.5343844304873702,B,705.5647999986832,Correct
11,311,297,A,35.59920954416794,60.125239995310686,1.779960477208397,0.9444450613229562,A,658.1028000000515,Correct
11,311,298,B,49.241984472169676,18.726232343371255,2.462099223608484,0.2941509697967536,B,528.2092000015837,Correct
11,311,299,A,27.694226201840486,52.648625988507035,1.3847113100920243,0.8270026831354519,A,598.5520999984146,Correct
11,311,300,A,49.9905741482737,77.50074026796754,2.499528707413685,1.2173787813680874,A,742.0388999998977,Correct
11,311,301,B,83.5119510105391,66.95192258692856,4.1755975505269545,1.0516783407140364,B,1088.531299999886,Correct
11,311,302,A,43.81587456144294,56.41757317100284,2.190793728072147,0.8862051670369357,A,1123.591600000509,Correct
11,311,303,A,15.08632171087174,36.61408726520564,0.7543160855435871,0.5751327378513282,A,575.4670999995142,Correct
11,311,304,B,67.95041267869455,55.06670541094136,3.397520633934727,0.8649857858820333,B,709.5633999997517,Correct
11,311,305,A,65.02876792673607,84.29552090273465,3.251438396336803,1.3241109459927802,A,732.1799000001192,Correct
11,311,306,B,60.21414473374593,53.128595572954936,3.010707236687297,0.8345420277376921,B,508.1991000006383,Correct
11,311,307,A,41.39849619285213,70.88755290343967,2.069924809642606,1.1134990771620195,A,462.4381000012363,Correct
11,311,308,B,74.48578753276914,46.375422662539094,3.7242893766384566,0.728463435718772,B,533.8938000004418,Correct
11,311,309,A,12.623211791372679,33.75753721646663,0.631160589568634,0.530262154612678,A,455.843100000493,Correct
11,311,310,A,19.898568984613757,38.32756208214683,0.9949284492306879,0.6020479373363959,A,508.0778999999893,Correct
11,311,311,B,37.99707336491407,23.90997170145957,1.8998536682457035,0.3755769572242261,B,790.227400000731,Correct
11,311,312,B,35.24092812894484,18.053905042130822,1.7620464064472419,0.28359007724482954,B,655.3572999982862,Correct
11,311,313,B,68.33649451794768,35.50276151851737,3.4168247258973845,0.5576760738436228,B,446.53529999959574,Correct
11,311,314,A,56.85079810573748,69.67210419580887,2.842539905286874,1.0944068535084788,A,748.3453999993799,Correct
11,311,315,B,58.95434554556224,34.590184171114345,2.947717277278112,0.5433413423914538,B,622.0181999997294,Correct
11,311,316,A,26.68577259820403,41.470956927253525,1.3342886299102015,0.6514242680999921,A,1341.749899998831,Correct
11,311,317,B,87.85779386758874,63.05700350432954,4.392889693379437,0.9904970948329377,B,687.4447000009241,Correct
11,311,318,B,43.090440417075456,23.19481832341475,2.154522020853773,0.36434335423094855,B,1020.1639000006253,Correct
11,311,319,A,41.12377537488486,71.61748242620368,2.056188768744243,1.124964783293788,A,1584.570099999837,Correct
11,311,320,A,38.85863606048034,66.04879512326096,1.942931803024017,1.03749204768847,A,522.2612999987177,Correct
11,311,321,B,51.42279769448541,43.07754772598328,2.571139884724271,0.6766605373530639,B,2372.2087999994983,Correct
11,311,322,B,83.34062331451943,57.47437712932792,4.167031165725972,0.902805404795729,B,813.0517000008695,Correct
11,311,323,B,51.49505515444274,37.81881037707813,2.574752757722137,0.5940564842406704,B,395.6735000010667,Correct
11,311,324,B,34.00049822919078,15.881010868920189,1.7000249114595392,0.2494583353868966,B,609.4692999995459,Correct
11,311,325,B,62.883547238205544,46.934074498327185,3.144177361910277,0.7372387182349038,B,1187.4466999997821,Correct
11,311,326,B,46.490965432138445,38.643742378247616,2.3245482716069223,0.6070144858135964,B,809.2550000001211,Correct
11,311,327,B,36.66227190683968,26.48335578085415,1.833113595341984,0.41599957981768093,B,665.5699999992066,Correct
11,311,328,A,40.40733492262434,69.99988608259375,2.020366746131217,1.0995556393459947,A,637.9819000012503,Correct
11,311,329,A,35.996903086617024,47.356756178428626,1.7998451543308511,0.7438781865399721,A,1370.4054999998334,Correct
11,311,330,B,53.02915781514333,37.97467125266541,2.6514578907571664,0.5965047411493057,B,997.7385999991384,Correct
11,311,331,B,88.5264404318025,68.16837663303565,4.426322021590125,1.0707863561874347,B,1640.2579999994487,Correct
11,311,332,B,75.15007052899719,53.03021194798701,3.757503526449859,0.8329966213705284,B,527.4554000006901,Correct
11,311,333,A,29.420615203448705,56.776061469830026,1.4710307601724353,0.8918362880669025,A,534.360800000286,Correct
11,311,334,A,50.65972037064189,75.07842681838645,2.5329860185320943,1.1793291706786089,A,519.4812999998248,Correct
11,311,335,B,48.71238428174738,20.8312311026694,2.435619214087369,0.32721621298688697,B,473.1378999986191,Correct
11,311,336,A,40.53514388953682,62.49767958195627,2.0267571944768408,0.9817112552054131,A,602.5609000007535,Correct
11,311,337,B,65.20052328167951,36.239249679927184,3.2600261640839756,0.5692448028303275,B,531.9383999994898,Correct
11,311,338,B,62.579795284602454,40.077991084032035,3.128989764230123,0.6295436118011614,B,474.02660000079777,Correct
11,311,339,A,31.650411864545113,44.440333973046684,1.5825205932272555,0.6980671336640019,A,3615.842799999882,Correct
11,311,340,B,67.39757429132463,44.68322423991891,3.369878714566232,0.701882445054173,B,1420.5495000005612,Correct
11,311,341,B,33.91356503343556,19.53988763616707,1.695678251671778,0.3069318372487625,B,743.0789999998524,Correct
11,311,342,B,68.7246581625845,47.01414000921403,3.436232908129225,0.7384963843389438,B,845.136600000842,Correct
11,311,343,A,28.558756594634875,53.52077393793778,1.4279378297317438,0.8407023510893269,A,679.657299999235,Correct
11,311,344,B,51.02618395282557,35.56112053740367,2.5513091976412783,0.5585927751686425,B,823.1035999997403,Correct
11,311,345,A,46.262988070874684,57.226697441954116,2.313149403543734,0.8989148613642441,A,811.570899999424,Correct
11,311,346,B,40.30182249384008,12.94400007684715,2.015091124692004,0.2033238777474436,B,689.9162999998225,Correct
11,311,347,B,74.83613371028362,63.49583928032306,3.741806685514181,0.9973903110829057,B,977.6501999986067,Correct
11,311,348,B,37.33777874760632,13.581428762968425,1.866888937380316,0.2133365841349736,B,628.6932000002707,Correct
11,311,349,B,85.47743258410341,57.29162750876584,4.273871629205171,0.8999347804687085,B,797.2530999995797,Correct
11,311,350,A,62.17038895756873,83.13623430038169,3.1085194478784364,1.3059009146259941,A,701.2865999986388,Correct
11,311,351,A,37.24782042848703,58.111939162070094,1.8623910214243518,0.912820205787082,A,934.7441999998409,Correct
11,311,352,A,12.77639242413457,37.8921467752082,0.6388196212067285,0.5952084496887012,A,758.4432999992714,Correct
11,311,353,A,26.022724460505458,39.851705141321396,1.301136223025273,0.6259891205250095,A,789.3736000005447,Correct
11,311,354,A,34.47223105224381,47.45848342591241,1.7236115526121905,0.745476114406797,A,753.2164999993256,Correct
11,311,355,A,53.03179514631404,63.48222830784884,2.651589757315702,0.9971765104272396,A,928.3907999997609,Correct
11,311,356,B,81.73279918650412,63.946685399042174,4.086639959325206,1.004472185355243,B,651.9934999996622,Correct
11,311,357,A,64.68174478996701,80.87890738434709,3.2340872394983506,1.2704429063451705,A,599.0840000013122,Correct
11,311,358,B,69.5291565808766,49.47874874611241,3.47645782904383,0.7772103678480098,B,713.546299999507,Correct
11,311,359,A,32.5786255518712,42.56375142532379,1.6289312775935598,0.6685898439350966,B,1192.462399998476,Incorrect
11,311,360,B,84.20950743856707,60.309708447961086,4.210475371928354,0.947342685001284,B,536.2239999994927,Correct
11,311,361,A,54.39290184443145,68.12803770802249,2.7196450922215725,1.0701527138350593,A,1026.1616000007052,Correct
11,311,362,A,36.45638332107451,69.19635551658831,1.8228191660537254,1.0869338107305069,A,607.6962999995885,Correct
11,311,363,B,42.284672625330614,19.207591508312735,2.1142336312665306,0.30171214187834494,B,600.5428000007669,Correct
11,311,364,A,47.53333971209301,69.79230738117573,2.3766669856046505,1.0962950007289118,A,747.3452000012912,Correct
11,311,365,A,64.03013751671716,79.11102333205486,3.2015068758358582,1.2426730485897712,A,662.940799998978,Correct
11,311,366,B,59.268617335826534,37.24491040282685,2.963430866791327,0.5850416845256544,B,591.4890999993077,Correct
11,311,367,A,46.47852649329234,73.33099499817682,2.323926324664617,1.151880575833511,A,610.8349000005546,Correct
11,311,368,A,33.77991146161197,64.63589588232483,1.6889955730805983,1.0152982783105324,A,546.5813999999227,Correct
11,311,369,A,65.7576698447362,85.9715658296902,3.28788349223681,1.3504381981408302,A,680.3945999999996,Correct
11,311,370,A,42.997017180988266,59.64172734328775,2.1498508590494136,0.9368500623453914,A,1250.0543000005564,Correct
11,311,371,A,38.96015961822237,48.764627509370655,1.9480079809111186,0.7659929776924078,A,1431.2996999997267,Correct
11,311,372,A,45.564427550732304,70.41578341512462,2.2782213775366156,1.1060885393686275,A,534.7879999990255,Correct
11,311,373,A,26.278085299690396,41.98224922157394,1.3139042649845196,0.6594556286783625,A,765.4225000005681,Correct
11,311,374,A,23.98740082380963,38.955068297748994,1.1993700411904813,0.6119047819214845,A,641.8599999997241,Correct
11,311,375,B,50.861467662790886,28.762302586258343,2.5430733831395442,0.45179719252657957,B,854.0247000000818,Correct
11,311,376,A,40.89352193807379,49.50036064472897,2.0446760969036895,0.7775498467576292,A,787.5464999997348,Correct
11,311,377,A,34.576740481822505,63.24798866313872,1.728837024091125,0.9934970826922356,A,608.2203999994817,Correct
11,311,378,A,18.300885317590954,33.453721617652576,0.9150442658795477,0.5254898303462769,A,828.3909000001586,Correct
11,311,379,B,49.17166839037786,39.30917015285793,2.4585834195188934,0.6174670008546482,A,620.6975999994029,Incorrect
11,311,380,B,67.67262321664522,56.589086407815536,3.3836311608322607,0.8888992906607565,B,631.473499999629,Correct
11,311,381,A,17.755010674191727,39.25909321788785,0.8877505337095863,0.6166803941995667,A,543.1908999998996,Correct
11,311,382,B,44.77199836080714,33.28062222158524,2.238599918040357,0.5227707913911471,B,568.5896000013599,Correct
11,311,383,B,39.6777257699916,26.264362942807473,1.9838862884995803,0.4125596483616997,B,1429.5793999990565,Correct
11,311,384,A,61.92893271568703,72.75682746703268,3.0964466357843516,1.1428615733446497,A,1793.4733999991295,Correct
11,311,385,A,35.68167379503457,67.77834918942038,1.7840836897517283,1.064659819429634,A,722.857999999178,Correct
11,311,386,B,62.108768248688015,40.04248658612794,3.1054384124344008,0.6289859084522369,B,874.6174000007159,Correct
11,311,387,B,65.18093298935769,53.758487007107576,3.2590466494678845,0.8444363392481575,B,1366.2208999994618,Correct
11,311,388,B,31.575172116171686,17.025073300851354,1.5787586058085845,0.2674292260439117,B,750.2344999993511,Correct
11,311,389,A,53.93151644213868,61.43577607130943,2.6965758221069343,0.9650309138660664,A,767.9092999987915,Correct
11,311,390,B,55.44513589774421,27.587733632791156,2.7722567948872103,0.43334710654984376,B,742.5371999997878,Correct
11,311,391,A,56.25767728660027,85.32047007833569,2.812883864330013,1.3402108099946357,A,558.8688999996521,Correct
11,311,392,B,44.45707942372896,18.22483626115424,2.2228539711864483,0.2862750585545952,B,508.6662999983673,Correct
11,311,393,B,84.10251065963793,57.1366568528068,4.205125532981897,0.8975005070972939,B,612.9242000006343,Correct
11,311,394,A,20.704747729629087,39.61942722460556,1.0352373864814544,0.6223405075412813,A,554.4900999993843,Correct
11,311,395,A,51.22825589357291,76.75381847652983,2.5614127946786454,1.2056461613041531,A,585.4010000002745,Correct
11,311,396,A,30.38176420601662,44.444683042480804,1.519088210300831,0.6981354486869228,A,852.4367000009079,Correct
11,311,397,A,20.02099933674184,44.02464308449518,1.001049966837092,0.6915374764558138,A,510.11519999883603,Correct
11,311,398,B,54.60497984705444,36.32345420839105,2.730248992352722,0.5705674844704328,B,998.9571999994951,Correct
11,311,399,B,55.88428255755473,40.621845945354266,2.7942141278777366,0.6380864639859065,B,546.5784999996686,Correct
11,311,400,A,27.006229400894803,49.43845551689882,1.35031147004474,0.7765774432835755,A,547.6774999988265,Correct
11,311,401,B,74.5385053422635,50.65765308241771,3.7269252671131756,0.795728553859119,B,546.3449000017135,Correct
11,311,402,B,81.96226609957735,63.73237561374968,4.098113304978868,1.0011058151199064,B,975.8589000011852,Correct
11,311,403,A,66.2596498283198,77.3749323460486,3.3129824914159895,1.2154025951517677,A,1089.2532999987452,Correct
11,311,404,B,70.2403550798512,46.505506906398196,3.51201775399256,0.7305067942430499,B,464.1767999983131,Correct
11,311,405,B,44.028845186049104,29.607902239473546,2.201442259302455,0.4650798408186743,B,798.5193999993498,Correct
11,311,406,B,53.21638312901675,40.836501910225316,2.6608191564508377,0.6414582719973471,B,745.3153000005841,Correct
11,311,407,B,65.49565896248983,42.334183133027054,3.274782948124491,0.6649837936322136,B,764.9242999996204,Correct
11,311,408,A,60.965123337496394,77.72360591253043,3.0482561668748196,1.220879546726569,A,596.6496000000916,Correct
11,311,409,A,53.815992749361435,70.66816372138615,2.6907996374680714,1.1100529199489373,A,533.7963000001764,Correct
11,311,410,A,40.41079986907943,52.837296022807,2.0205399934539714,0.8299663051039984,A,693.7924999983807,Correct
11,311,411,B,43.34599110779397,34.97329442656657,2.1672995553896985,0.5493592242116719,B,528.2805000006192,Correct
11,311,412,A,51.083265164347274,64.05230371390957,2.5541632582173635,1.0061312339656026,A,1318.0991999997786,Correct
11,311,413,B,79.40780047467572,54.63387241302566,3.970390023733786,0.8581868610496174,B,497.7281999999832,Correct
11,311,414,A,27.016663346099158,56.79582843508179,1.350833167304958,0.892146786830996,A,1279.7852999992756,Correct
11,311,415,B,41.33236435216979,20.34060065665815,2.0666182176084895,0.3195094079628048,B,539.0967000003002,Correct
11,311,416,B,48.36815003537119,25.482415150958712,2.4184075017685593,0.40027684116988566,B,548.524499999985,Correct
11,311,417,A,34.8336958128766,55.57439366765081,1.74168479064383,0.8729605343699945,A,785.7788999990589,Correct
11,311,418,A,53.55422140491533,75.65728836888134,2.677711070245767,1.1884219066510107,A,554.8944999991363,Correct
11,311,419,B,51.93246860994078,43.15223102174101,2.596623430497039,0.6778336598195556,B,1367.3273000003974,Correct
11,311,420,B,71.09632597211692,54.33024761377951,3.5548162986058456,0.8534175338558205,B,851.2310999994952,Correct
11,311,421,A,51.95295095054687,78.817209419015,2.5976475475273433,1.238057830436129,A,612.5984999998764,Correct
11,311,422,A,35.09312880628233,64.68314260715195,1.7546564403141165,1.0160404281286475,A,877.1980999990774,Correct
11,311,423,A,37.153638952134145,50.42012235709667,1.8576819476067072,0.791997429950767,A,3123.5347999991063,Correct
11,311,424,B,86.69209029323162,68.74658007774305,4.334604514661581,1.0798687546583,B,1284.3975000014325,Correct
11,311,425,A,15.816435996364913,36.336475514752706,0.7908217998182456,0.5707720226724625,A,588.1379000002198,Correct
11,311,426,A,50.76043082655339,59.24518645412623,2.5380215413276694,0.9306212126242024,A,959.1825999996217,Correct
11,311,427,A,33.285760312560456,49.45667723762568,1.6642880156280229,0.7768636694034318,A,1134.9628000007215,Correct
11,311,428,B,48.75617982344778,24.916966076411864,2.437808991172389,0.39139478787700804,B,712.597800000367,Correct
11,311,429,A,49.39202594836157,57.86187419344113,2.4696012974180785,0.9088921944452576,A,1562.2774999992544,Correct
11,311,430,B,35.68053914153567,22.287041469396243,1.7840269570767833,0.35008402875253153,B,1280.9323999990738,Correct
11,311,431,B,55.357220999733386,34.97572395145786,2.7678610499866694,0.549397387099423,B,547.4284000010812,Correct
11,311,432,B,71.51610733583959,38.70582027627843,3.57580536679198,0.6079896031556159,B,1508.5491000008915,Correct
11,311,433,B,50.32071696639305,31.375751315172373,2.5160358483196523,0.49284914916302913,B,537.5390999997762,Correct
11,311,434,B,65.65023291413335,44.98971439109835,3.282511645706668,0.7066967810908878,B,567.8936999993311,Correct
11,311,435,A,42.54626571060982,71.35958788487265,2.1273132855304913,1.1209137853115554,A,628.8788000001659,Correct
11,311,436,B,52.0859617036948,42.062098055453426,2.6042980851847397,0.66070989122793,B,515.512399999352,Correct
11,311,437,A,45.27690071630021,75.19849009360945,2.263845035815011,1.1812151201956413,A,663.668699999107,Correct
11,311,438,B,51.42589607697711,29.59320269109516,2.5712948038488554,0.46484894085269135,B,598.8492999986192,Correct
11,311,439,B,72.60849161330333,44.10725218547265,3.6304245806651663,0.6928350971795663,B,470.33209999972314,Correct
11,311,440,A,40.41361370570769,52.42904910386158,2.0206806852853845,0.8235535774969502,A,1466.9942999989871,Correct
11,311,441,B,63.209392418414446,44.99465564507933,3.1604696209207224,0.7067743981269186,B,492.9931000006036,Correct
11,311,442,B,58.0521157206598,34.91969271023443,2.90260578603299,0.5485172504204276,B,787.904200000412,Correct
11,311,443,A,45.75321881331766,65.8482809716797,2.2876609406658828,1.0343423787607275,A,785.1592999995773,Correct
11,311,444,B,50.94933822621606,20.247606922773997,2.547466911310803,0.31804866580680313,B,515.9275000005437,Correct
11,311,445,B,59.89306568087361,48.06091547810125,2.9946532840436806,0.7549390949540142,B,1903.5235999999713,Correct
11,311,446,A,54.40120202794262,70.89425244811632,2.7200601013971313,1.1136043133637121,A,578.8685999996233,Correct
11,311,447,A,40.52830589156431,67.01918560041288,2.0264152945782157,1.0527349056591397,A,546.5891000003467,Correct
11,311,448,A,47.04771367465525,78.86707195508302,2.3523856837327624,1.238841069321132,A,530.34579999985,Correct
11,311,449,A,37.745337099178535,45.108089171328764,1.8872668549589267,0.7085562077905987,A,1431.3108999995166,Correct
11,311,450,A,39.740529175599356,48.82461255268869,1.987026458779968,0.766935220549474,A,601.0077000009915,Correct
11,311,451,A,42.58614702530907,74.59961197418534,2.1293073512654535,1.1718079646937491,A,610.6787000007898,Correct
11,311,452,A,19.750743802047364,32.524681543933184,0.9875371901023682,0.51089650299384,B,728.2154000004084,Incorrect
11,311,453,B,68.66336013550054,54.32686428403977,3.4331680067750265,0.8533643886365454,B,527.9449000008754,Correct
11,311,454,A,55.81238257357,82.60013566870839,2.7906191286785,1.2974798970116725,A,818.1745999991108,Correct
11,311,455,B,85.33718020584494,63.29541909860515,4.266859010292247,0.994242118230325,B,776.2736000004224,Correct
11,311,456,B,53.90082801839126,27.14290353978454,2.6950414009195627,0.4263597317884176,B,622.62919999921,Correct
11,311,457,A,50.532912560890736,73.08083655378621,2.5266456280445366,1.1479510961778558,A,695.7584000010684,Correct
11,311,458,A,49.003721758546725,55.84378199989307,2.4501860879273365,0.8771920763976698,A,982.0962000012514,Correct
11,311,459,A,24.613446972653726,56.12838397858416,1.2306723486326863,0.8816625938249353,A,638.1108000005042,Correct
11,311,460,A,25.277638269856233,52.677795211091535,1.2638819134928116,0.8274608722123638,A,523.40710000135,Correct
11,311,461,B,73.74537861323188,62.223684964785846,3.687268930661594,0.9774073578232843,B,493.33170000136306,Correct
11,311,462,A,46.44951855134479,74.57457467479199,2.3224759275672393,1.1714146797145497,A,777.7528999995411,Correct
11,311,463,A,17.6839153757023,38.48021680116586,0.884195768785115,0.604445832055426,A,462.18460000091,Correct
11,311,464,A,44.37756570045511,60.11929456659201,2.2188782850227553,0.9443516707470311,A,702.4639000010211,Correct
11,311,465,A,68.24063671907999,86.59408404239568,3.412031835953999,1.360216691359637,A,1508.3045000010316,Correct
11,311,466,B,35.080083963470415,16.645764021677092,1.7540041981735208,0.2614710498194502,B,1026.0926000009931,Correct
11,311,467,B,50.26317760227424,28.82347039499461,2.5131588801137124,0.45275801421938977,B,757.7160000000731,Correct
11,311,468,B,72.27458394141951,50.769693287843225,3.6137291970709753,0.7974884772904764,B,905.3172999992967,Correct
11,311,469,B,60.02972951730983,40.7439371046583,3.0014864758654913,0.6400042674315954,B,718.5687000001053,Correct
11,311,470,B,49.45049107226402,20.5789554253275,2.472524553613201,0.32325347591380343,B,756.3786000009713,Correct
11,311,471,B,34.91331701476477,18.269758084789622,1.7456658507382385,0.286980688910189,B,532.1278999999777,Correct
11,311,472,B,66.13417208009234,45.14348185761622,3.3067086040046174,0.7091121548067563,B,730.2146000001812,Correct
11,311,473,B,75.2737091821445,55.136134310190165,3.763685459107225,0.866076372481168,B,752.8489000014815,Correct
11,311,474,B,73.57631806686739,51.72434902663251,3.678815903343369,0.8124841745689152,B,1781.289899998228,Correct
11,311,475,B,47.8903378289349,38.825679055955604,2.394516891446745,0.609872340464126,B,496.8963999999687,Correct
11,311,476,A,27.136723383664034,44.02399630102482,1.3568361691832018,0.691527316804819,A,1292.833999999857,Correct
11,311,477,B,58.48914029914933,50.37780110463739,2.9244570149574662,0.7913326492716831,B,898.0372000005445,Correct
11,311,478,A,27.99998207253996,38.62689446551481,1.399999103626998,0.6067498394192479,A,715.693400001328,Correct
11,311,479,B,45.3853611995533,25.293131338360347,2.269268059977665,0.39730357799437316,B,575.567999998384,Correct
11,311,480,A,53.35040303597574,64.80680806346598,2.667520151798787,1.0179829605739426,A,1457.8060999992886,Correct
11,311,481,A,45.91133602475833,71.90395324785189,2.2955668012379165,1.1294646564375772,A,509.420800000953,Correct
11,311,482,A,51.24605043984039,70.57323100260041,2.5623025219920192,1.1085617202893243,A,551.1055999995733,Correct
11,311,483,B,62.09066121201395,36.86703053546647,3.1045330606006973,0.5791059614494601,B,531.5076999995654,Correct
11,311,484,A,12.867906030397677,35.68733355117272,0.6433953015198839,0.5605753245528637,A,580.3351000013208,Correct
11,311,485,B,41.527535968298324,20.37455038897496,2.076376798414916,0.3200426891109939,B,520.237000000634,Correct
11,311,486,A,33.74339229458932,51.33994245725559,1.687169614729466,0.8064459302971844,A,686.8991999999707,Correct
11,311,487,B,59.70075817890884,52.2133019365743,2.9850379089454417,0.8201646289180375,B,1308.4089000003587,Correct
11,311,488,A,28.986013855830166,49.48483862180655,1.4493006927915082,0.7773060273917197,A,702.0904000000883,Correct
11,311,489,B,31.07331201782698,16.728851298349014,1.553665600891349,0.26277618170944667,B,1239.1929999994318,Correct
11,311,490,A,19.546406285715438,39.34046876181476,0.9773203142857718,0.6179586382544799,A,706.8000999988726,Correct
11,311,491,B,77.82950949124425,56.53973447630423,3.891475474562213,0.8881240723333745,B,610.5714999994234,Correct
11,311,492,A,33.608197143454994,52.01450360507598,1.6804098571727497,0.8170419120291325,A,1542.7027999994607,Correct
11,311,493,A,21.469513397836835,48.8374720163273,1.0734756698918417,0.7671372165319548,A,519.5624000007228,Correct
11,311,494,B,62.771933657660135,46.03093156322574,3.1385966828830067,0.7230521821846226,B,767.2822999993514,Correct
11,311,495,A,15.196448933025078,39.47303159282821,0.759822446651254,0.6200409303347345,A,474.6203999984573,Correct
11,311,496,B,68.71379706616037,42.03437917556448,3.4356898533080185,0.6602744840808058,B,615.8878000005643,Correct
11,311,497,B,84.23411701293657,64.68989934625598,4.211705850646828,1.0161465627383046,B,792.4503999984154,Correct
11,311,498,A,31.035434152837603,58.34483191003412,1.5517717076418802,0.9164784765174727,A,839.6542000009504,Correct
11,311,499,A,43.27299551009818,60.560129316286165,2.163649775504909,0.9512762868024623,A,724.9014999997598,Correct
11,311,500,A,21.622211066421297,40.26201967510859,1.081110553321065,0.6324343261500442,A,982.8324999998586,Correct
11,311,501,A,40.25322872472278,60.11024283089478,2.0126614362361392,0.9442094864151879,A,659.292700000151,Correct
11,311,502,B,59.72789133345483,44.39847331071369,2.9863945666727414,0.6974095879177031,B,1440.25800000054,Correct
11,311,503,A,34.692516855180905,56.42208379908967,1.7346258427590453,0.8862760198172389,A,1264.835199999652,Correct
11,311,504,A,60.64139150937085,84.26938903268763,3.0320695754685425,1.3237004675379587,A,739.3272000008437,Correct
11,311,505,A,26.237803627304558,54.125397866197574,1.311890181365228,0.8501997615453548,A,984.3383999996149,Correct
11,311,506,B,57.96077294524095,43.26852682445231,2.898038647262047,0.6796604300167614,B,397.86090000052354,Correct
11,311,507,B,68.01766675010137,46.44257243406822,3.4008833375050687,0.7295182218634029,B,630.4110999990371,Correct
11,311,508,A,66.37325278732177,89.01971022287809,3.318662639366089,1.39831833830443,A,1388.2426999989548,Correct
11,311,509,B,49.337792609855754,39.32141113100684,2.4668896304927874,0.617659281689775,B,727.2695999999996,Correct
11,311,510,A,30.20278669242127,52.11736556032422,1.5101393346210636,0.8186576638438413,A,1320.4079999995884,Correct
11,311,511,B,51.85555310475101,22.33662826201242,2.5927776552375508,0.35086293626952186,B,492.0187999996415,Correct
11,311,512,A,20.049318791914207,42.9298075067115,1.0024659395957103,0.674339839415544,A,832.1943999999348,Correct
11,311,513,B,84.74883650441362,61.463016911292826,4.237441825220681,0.9654588119799139,B,683.7875000001077,Correct
11,311,514,B,37.31218810367373,25.478100123950522,1.865609405183687,0.4002090608841407,B,591.0905999990064,Correct
11,311,515,A,34.2504205641347,56.72009556621296,1.712521028206735,0.8909571777086281,A,603.2534999994823,Correct
11,311,516,B,54.714121628795176,23.852554287854563,2.735706081439759,0.3746750466003781,B,475.82490000058897,Correct
11,311,517,B,85.17932798937758,69.38891625459755,4.258966399468879,1.0899585477300051,B,543.1243000002723,Correct
11,311,518,A,52.27962151920538,76.43343642005009,2.6139810759602686,1.2006136117292596,A,724.6882999988884,Correct
11,311,519,A,36.4638971088624,50.2312368775818,1.8231948554431199,0.7890304237766983,A,1484.9984000011318,Correct
11,311,520,B,65.43599410470837,32.155524455046944,3.271799705235418,0.5050977970015121,B,512.0301000006293,Correct
11,311,521,A,46.90675789799566,54.32088243685372,2.345337894899783,0.8532704260006725,B,704.8943999998301,Incorrect
11,311,522,A,13.908220079545526,35.17406398875093,0.6954110039772763,0.552512905119786,A,626.2913999999,Correct
11,311,523,A,38.80353228614633,71.75741022419547,1.9401766143073162,1.1271627640048079,A,604.7681000000011,Correct
11,311,524,B,44.3770745725523,34.896923627598014,2.2188537286276153,0.5481595945067299,B,643.7293999988469,Correct
11,311,525,A,21.42150534528201,44.17161888833091,1.0710752672641006,0.6938461669837426,A,573.895800000173,Correct
11,311,526,A,60.47523575435567,72.47524253965821,3.023761787717784,1.1384384476486435,A,837.689699999828,Correct
11,311,527,B,89.5975524705838,64.96099521515511,4.47987762352919,1.020404926689065,B,799.8617000012018,Correct
11,311,528,A,47.40915998489615,78.24139589517023,2.3704579992448074,1.229012972754387,A,638.8073999987682,Correct
11,311,529,B,61.783022836030526,37.931137354894176,3.0891511418015263,0.5958209122822046,B,1017.8739000002679,Correct
11,311,530,A,59.67915598590193,80.263057746112,2.9839577992950965,1.260769162849194,A,568.1932999996206,Correct
11,311,531,B,34.34724604007654,22.431292306562355,1.717362302003827,0.3523499156041077,B,497.61020000005374,Correct
11,311,532,B,85.0974060267021,57.865604653341606,4.254870301335106,0.9089507923723465,B,536.2466000005952,Correct
11,311,533,A,36.69936566377219,59.17585672720094,1.8349682831886096,0.929532183820283,A,717.2276999990572,Correct
11,311,534,B,52.11004577099259,39.27397905790299,2.6055022885496295,0.6169142204277371,B,747.0396000007895,Correct
11,311,535,A,24.632315469677152,40.562442054215595,1.2316157734838575,0.637153349845927,A,1066.2220000012894,Correct
11,311,536,A,34.999435025504695,48.11412550011726,1.7499717512752346,0.7557749160253285,A,646.3837999999669,Correct
11,311,537,B,77.81317848153029,55.74255638460842,3.890658924076514,0.8756020281510033,B,630.1363999991736,Correct
11,311,538,B,74.76014281877275,52.14888343643695,3.7380071409386373,0.8191527454841037,B,481.7196000003605,Correct
11,311,539,A,54.502762120318344,64.4130726768643,2.725138106015917,1.0117981795839115,A,1719.8213000010583,Correct
11,311,540,B,71.49348599293778,47.02047409069125,3.574674299646889,0.7385958798581241,B,539.155500000561,Correct
11,311,541,B,57.59027362141691,44.69593461788523,2.8795136810708457,0.7020820992043898,B,524.5584999993298,Correct
11,311,542,A,51.22945830798178,73.64391257719664,2.561472915399089,1.1567958736706498,A,585.7921000006172,Correct
11,311,543,B,73.47909707373343,59.403914770969564,3.6739548536866717,0.933114511194761,B,1181.1273999992409,Correct
11,311,544,A,62.06438297629912,79.99157453727848,3.103219148814956,1.256504714576972,A,692.5969999992958,Correct
11,311,545,A,31.598167315910743,57.60545287148499,1.5799083657955373,0.9048643377388516,A,700.8853999996063,Correct
11,311,546,A,53.05921937137913,63.14934651970338,2.6529609685689564,0.9919476155264816,A,736.4951000017754,Correct
11,311,547,B,76.37009475440294,57.32060517910158,3.818504737720147,0.9003899606499328,B,642.9750999996031,Correct
11,311,548,A,65.23045052123229,89.22713745260492,3.261522526061614,1.4015765976097516,A,620.3920000007201,Correct
11,311,549,A,22.147277655136183,45.77111622375174,1.107363882756809,0.7189710123757151,A,742.326999999932,Correct
