subject,day,trial,cat,x,y,xt,yt,resp,rt,fb
9,309,0,B,61.33298045732785,46.822332756695054,3.0666490228663923,0.7354834830618494,B,3854.065899999796,Correct
9,309,1,B,76.42141462065602,49.7944999285585,3.821070731032801,0.7821701758236843,B,690.2869000000464,Correct
9,309,2,B,37.92621788839817,14.694578647437666,1.8963108944199087,0.23082190163193803,B,612.2510999998667,Correct
9,309,3,B,64.91330137648922,43.55142301480169,3.245665068824461,0.6841041529834121,B,738.0392000000029,Correct
9,309,4,B,60.728657526771,39.115263689320344,3.03643287633855,0.6144211252479818,B,424.6680999999626,Correct
9,309,5,A,39.214195260260915,65.30764496630471,1.9607097630130457,1.0258500882469666,A,398.84860000006483,Correct
9,309,6,A,61.24651000500076,82.19157342961994,3.062325500250038,1.2910622163674002,A,517.6883999999973,Correct
9,309,7,A,16.021014849069815,37.2948387198565,0.8010507424534907,0.5858259566955867,A,517.7090000001954,Correct
9,309,8,A,14.378202262601235,42.766563519471255,0.7189101131300617,0.6717756088602608,A,441.04619999984607,Correct
9,309,9,B,34.330038885530854,18.062204873399985,1.7165019442765428,0.2837204506895358,B,469.46470000011686,Correct
9,309,10,B,56.36271154768171,38.939898327303204,2.8181355773840857,0.6116664925829461,B,657.0327000001726,Correct
9,309,11,A,14.487231243507974,36.76593831999335,0.7243615621753987,0.577518008642133,A,438.6073000000579,Correct
9,309,12,B,65.9554334293774,44.18697765320943,3.29777167146887,0.6940874218982955,B,465.63960000003135,Correct
9,309,13,B,69.34716528008698,60.44870175016979,3.467358264004349,0.9495259866868693,B,1627.60389999994,Correct
9,309,14,A,19.642459810047836,35.20710082886063,0.9821229905023918,0.5530318465907184,A,375.434499999983,Correct
9,309,15,B,82.23999242434425,62.488059819141725,4.111999621217212,0.9815601483244759,B,540.9744999999475,Correct
9,309,16,B,51.95607261454401,25.964394654216797,2.597803630727201,0.4078477575029679,B,472.35269999987395,Correct
9,309,17,A,28.317979324273047,38.39377269123747,1.4158989662136523,0.6030879711519403,A,389.02630000006866,Correct
9,309,18,B,47.27239208757534,28.39573387215419,2.363619604378767,0.44603914463025224,B,677.0576999999776,Correct
9,309,19,A,63.98139255385727,80.47313109877734,3.199069627692863,1.2640689873564361,A,394.6386000000075,Correct
9,309,20,B,63.64823889073736,31.38669533873763,3.1824119445368684,0.49302105748319575,B,446.75740000002406,Correct
9,309,21,A,44.469365757685836,67.14305828359242,2.223468287884292,1.0546806932164263,A,419.4497999999385,Correct
9,309,22,B,56.81317352959783,47.559986809740195,2.840658676479892,0.7470705258315364,B,3416.17210000004,Correct
9,309,23,B,73.96105142861933,46.63886787898345,3.698052571430966,0.7326016235017968,B,495.3597000001082,Correct
9,309,24,A,46.27487483590143,68.01946664659621,2.3137437417950713,1.068447283590213,A,354.13020000009965,Correct
9,309,25,B,44.71037743591882,31.182752811119357,2.235518871795941,0.48981753575059517,B,448.78399999993235,Correct
9,309,26,B,55.7764938334157,38.873850622299486,2.788824691670785,0.6106290176588154,B,1064.781499999981,Correct
9,309,27,A,65.51383005702522,84.04026969477653,3.2756915028512608,1.3201014693940742,A,378.7077000001773,Correct
9,309,28,B,84.63198626217078,61.12441785485405,4.231599313108539,0.9601401104388114,B,687.4348999999711,Correct
9,309,29,B,57.41162562710283,49.76576599518709,2.8705812813551415,0.7817188242537425,B,1001.0801000000811,Correct
9,309,30,B,82.45776518373292,57.46878082135389,4.122888259186646,0.902717498195637,B,438.3561000001919,Correct
9,309,31,B,40.255248901092756,27.01743086227914,2.012762445054638,0.42438881157903147,A,450.7733000000371,Incorrect
9,309,32,B,66.69185929228368,44.48239882017428,3.334592964614184,0.6987278867375539,B,1349.5636000000104,Correct
9,309,33,B,73.97539094489798,49.89062475736657,3.698769547244899,0.7836801011037394,B,439.8246000000654,Correct
9,309,34,B,84.3750160014764,66.40176921447927,4.21875080007382,1.0430365517478648,B,470.7448999999997,Correct
9,309,35,B,63.14813243492795,41.931646572317526,3.1574066217463974,0.6586607641225818,B,714.8784000000887,Correct
9,309,36,A,53.03758939524058,74.1674160533571,2.651879469762029,1.1650190470448216,A,399.29579999989073,Correct
9,309,37,B,67.73006006679087,57.33850930444714,3.3865030033395436,0.9006711979932057,A,899.203899999975,Incorrect
9,309,38,B,55.15275241041224,27.584343146084407,2.757637620520612,0.4332938489091937,B,585.7827999998335,Correct
9,309,39,A,47.04505511338106,57.543783958849524,2.352252755669053,0.9038956447243993,A,588.0119000000832,Correct
9,309,40,B,72.50265078055739,54.094525949735704,3.6251325390278692,0.8497148266155605,B,795.2327999998943,Correct
9,309,41,A,27.94737156649336,56.90552656701154,1.3973685783246679,0.8938699210579113,A,465.3056000001925,Correct
9,309,42,B,71.3622202182876,57.43138839614035,3.56811101091438,0.9021301393538832,B,453.48089999993135,Correct
9,309,43,A,53.55442258445389,78.08964033091128,2.677721129222695,1.2266292019253004,A,419.2059999998037,Correct
9,309,44,B,62.19997651400518,41.97350137979553,3.109998825700259,0.6593182179010335,B,444.92300000001705,Correct
9,309,45,B,83.14418067482562,66.34224756041029,4.157209033741281,1.0421015877921016,B,430.62880000002224,Correct
9,309,46,A,27.8767481930827,47.46751641582853,1.393837409654135,0.7456180042805991,A,453.5338999999112,Correct
9,309,47,B,58.20751114135997,39.55019565708377,2.910375557067999,0.6212530206216665,B,390.65489999984493,Correct
9,309,48,A,50.544619224896664,66.07273447420889,2.5272309612448334,1.0378680861338185,A,421.56520000003184,Correct
9,309,49,A,64.17091393502064,77.31845101172186,3.2085456967510315,1.2145153884268387,A,555.9488999999758,Correct
9,309,50,B,58.2063674639027,33.41218331764893,2.910318373195135,0.5248373482556067,B,410.28579999988324,Correct
9,309,51,A,55.74256313645443,66.63666005696561,2.7871281568227215,1.046726208473618,A,419.4012999998904,Correct
9,309,52,B,45.10322826233745,25.95634208530941,2.2551614131168725,0.4077212680463581,B,425.7673999998133,Correct
9,309,53,B,36.869923985581174,24.89249287323821,1.8434961992790588,0.39101036370050724,B,462.7378000000135,Correct
9,309,54,B,67.324647742935,41.394503377825885,3.36623238714675,0.6502233385538783,B,673.5278999999537,Correct
9,309,55,B,77.12421113042751,58.55626420041489,3.8562105565213756,0.919799647168432,B,533.9206000001013,Correct
9,309,56,B,88.38343670765137,61.5871471605259,4.419171835382568,0.9674086453753084,B,442.93469999979607,Correct
9,309,57,A,36.20335782220555,55.996469696452195,1.8101678911102772,0.8795904891266885,A,531.7955000000438,Correct
9,309,58,B,42.02326206626199,27.240030933203187,2.1011631033130995,0.42788540531654917,B,419.26360000002205,Correct
9,309,59,B,60.76011104810835,32.00449976633485,3.0380055524054175,0.5027255067386691,B,393.3452000001125,Correct
9,309,60,A,13.294505109322742,41.49510966446229,0.6647252554661371,0.6518036584088878,A,452.37199999996847,Correct
9,309,61,A,32.24796245042382,44.026335631955945,1.612398122521191,0.6915640629291567,A,669.4867999999587,Correct
9,309,62,B,57.18592440646641,29.30383098850652,2.859296220323321,0.46030350077764504,B,406.8843999998535,Correct
9,309,63,A,40.09090882976069,64.16568818694628,2.0045454414880344,1.007912273103219,A,420.71179999993547,Correct
9,309,64,B,58.189965986150646,33.16765498837306,2.9094982993075327,0.5209963062413683,B,387.5935999999456,Correct
9,309,65,A,63.6605768700442,73.99778953261335,3.18302884350221,1.1623545598877092,A,431.50519999994685,Correct
9,309,66,A,34.78399320960647,62.72066995128876,1.7391996604803237,0.9852139797359942,A,431.2479999998686,Correct
9,309,67,B,40.75076003337482,24.653627368839356,2.037538001668741,0.3872582731314299,B,394.5831000000908,Correct
9,309,68,B,74.96767976480031,54.505689439775715,3.7483839882400156,0.8561733676142309,B,502.15239999988626,Correct
9,309,69,B,63.4893295760505,51.03391824827878,3.174466478802525,0.8016389132634735,B,863.5887000000366,Correct
9,309,70,B,35.00800997411477,15.071454069257392,1.7504004987057384,0.2367418469144751,B,571.171399999912,Correct
9,309,71,B,36.55023565094976,11.680335532010826,1.827511782547488,0.1834742814941452,B,468.82720000007794,Correct
9,309,72,A,65.21045928716565,77.95547111788379,3.260522964358282,1.224521676855375,A,500.5939000000126,Correct
9,309,73,B,87.64719076202587,68.25894638583412,4.382359538101293,1.0722090225375802,B,671.3577999998961,Correct
9,309,74,B,62.367230337171854,43.662126205904535,3.1183615168585925,0.6858430746429004,B,514.1684000000168,Correct
9,309,75,A,28.227791006174265,59.655590811210736,1.4113895503087133,0.937067829190292,A,472.21239999998943,Correct
9,309,76,B,80.56867272667064,51.64229164761863,4.028433636333532,0.811195220273501,B,429.4913999999608,Correct
9,309,77,A,25.49442438580273,50.339367930544476,1.2747212192901365,0.7907289423847609,A,444.120600000133,Correct
9,309,78,B,69.18176079358047,53.48997790269745,3.459088039679023,0.8402186080989734,B,397.23960000014813,Correct
9,309,79,B,61.669870102550874,38.0854473878816,3.0834935051275436,0.5982448086122472,B,439.462100000128,Correct
9,309,80,A,37.11456085314568,44.83652111315689,1.8557280426572842,0.7042904267080866,A,708.4307000000081,Correct
9,309,81,B,33.48375937512317,12.179867655028048,1.6741879687561585,0.19132091373366028,B,436.46579999995083,Correct
9,309,82,A,23.683311736782343,52.280240996714646,1.1841655868391172,0.8212161052159133,A,463.7769000000844,Correct
9,309,83,A,42.91553112748345,68.8015549331316,2.1457765563741726,1.0807322976674043,A,562.5503999999637,Correct
9,309,84,B,73.23272592082454,49.79086893823675,3.6616362960412268,0.7821131403610841,B,434.31220000002213,Correct
9,309,85,A,50.902134937512486,65.93334406044917,2.545106746875624,1.0356785466345766,A,486.1647999998695,Correct
9,309,86,B,76.48990157740617,63.46297293820217,3.8244950788703083,0.996874047788119,B,449.52009999997244,Correct
9,309,87,A,31.904094538522912,58.62391068058581,1.5952047269261456,0.9208622355941628,A,449.50390000008156,Correct
9,309,88,A,48.50710668653671,79.93672669798482,2.4253553343268353,1.255643166732021,A,509.943499999963,Correct
9,309,89,A,14.861261727792876,31.789601262760225,0.7430630863896438,0.4993498889381816,A,431.06600000010076,Correct
9,309,90,A,23.445667458772256,45.90255950851959,1.1722833729386126,0.7210357186646672,A,495.3542999999172,Correct
9,309,91,A,61.59026924101004,79.9712279069606,3.079513462050502,1.2561851104553123,A,1908.359799999971,Correct
9,309,92,A,62.09629278618848,86.36666081329645,3.104814639309424,1.3566443356306679,A,396.6342999999597,Correct
9,309,93,B,79.59535340516858,57.526897536028684,3.979767670258429,0.9036303934150025,B,392.8040000000692,Correct
9,309,94,B,72.21303660049996,49.20083478836668,3.610651830024998,0.7728449056080892,B,538.4606999998596,Correct
9,309,95,A,30.9717326498147,60.65654868386566,1.5485866324907351,0.9527908386867199,A,466.179000000011,Correct
9,309,96,A,54.1937419312449,67.52132458169949,2.709687096562245,1.060622486332595,A,514.2344999999295,Correct
9,309,97,A,14.63692110786858,34.42585997559784,0.731846055393429,0.5407601439642454,A,432.57710000011684,Correct
9,309,98,A,43.73647637642262,75.93894104971068,2.186823818821131,1.192846096615797,A,494.66929999994136,Correct
9,309,99,B,54.71366162824861,46.64852689344799,2.7356830814124304,0.7327533469462104,B,414.38430000016524,Correct
9,309,100,B,51.452426618960416,22.12397002321973,2.572621330948021,0.3475225084659395,B,447.2471999999925,Correct
9,309,101,A,18.30437740938459,46.02399042865389,0.9152188704692295,0.72294315109773,A,431.00490000006175,Correct
9,309,102,B,68.68041496962883,60.06446247915036,3.4340207484814416,0.9434903703315927,B,429.06680000010056,Correct
9,309,103,B,72.26740687385995,55.043916264570186,3.613370343692998,0.8646278148079273,B,450.3222000000733,Correct
9,309,104,B,52.134706007016625,40.853577166607444,2.606735300350831,0.6417264894973883,B,431.32599999989907,Correct
9,309,105,B,40.17601174935126,19.864556818979263,2.008800587467563,0.3120317288466114,B,478.5095999998248,Correct
9,309,106,B,54.91733144180592,25.66364312463798,2.7458665720902964,0.4031235635235644,B,433.00539999995635,Correct
9,309,107,A,53.37980743000946,68.91503635947188,2.6689903715004726,1.0825148597439518,A,1199.0691999999399,Correct
9,309,108,B,69.17300508270581,46.90681016812592,3.4586502541352906,0.736810451137577,B,416.747100000066,Correct
9,309,109,A,18.54727265253774,36.75686930079887,0.927363632626887,0.5773755528217496,B,395.52770000000237,Incorrect
9,309,110,A,56.176505872700965,76.78496632896052,2.8088252936350484,1.20613543062601,A,670.3037999998287,Correct
9,309,111,A,24.062976587822916,53.49889634455151,1.2031488293911459,0.8403586986560244,A,436.95189999994,Correct
9,309,112,B,47.810417227059155,23.87190525934657,2.390520861352958,0.37497901094977354,B,450.77900000001137,Correct
9,309,113,B,71.8051648992072,41.67738180633785,3.5902582449603595,0.6546667825182395,B,510.08980000005977,Correct
9,309,114,B,54.88063441966024,23.586564480433122,2.7440317209830116,0.37049688847575324,B,501.28139999992527,Correct
9,309,115,A,15.919757238307106,44.51351782439884,0.7959878619153554,0.6992167029128485,A,410.8177999999043,Correct
9,309,116,B,54.438632911333976,34.149214528763196,2.721931645566699,0.5364146074471214,B,656.3341999999466,Correct
9,309,117,A,33.15569654646322,43.12956611433688,1.657784827323161,0.6774776402865801,A,693.8776999998026,Correct
9,309,118,A,16.65365479924357,46.256607641432865,0.8326827399621785,0.726597093731555,A,432.67900000000736,Correct
9,309,119,B,31.616737914105574,15.367072639943633,1.5808368957052787,0.24138541256413815,B,427.4345000001176,Correct
9,309,120,B,39.88127874413536,19.92786026397652,1.994063937206768,0.31302609703536294,B,485.3808999998819,Correct
9,309,121,A,19.37565630317848,49.067243686102756,0.9687828151589241,0.7707464614808028,A,481.52200000004086,Correct
9,309,122,B,72.38486738338305,50.66989847169549,3.6192433691691526,0.7959209039840963,B,425.03080000005866,Correct
9,309,123,B,57.75137583171471,28.483823754121573,2.8875687915857355,0.44742285726047387,B,445.96900000010464,Correct
9,309,124,A,53.7786440533469,74.55525989174993,2.688932202667345,1.1711112838119968,A,412.62170000004517,Correct
9,309,125,A,24.79113600108259,39.03184532197035,1.2395568000541295,0.6131107925977759,A,446.2866999999733,Correct
9,309,126,B,82.35276481082394,52.48387846848991,4.117638240541197,0.8244148351425371,B,355.54709999996703,Correct
9,309,127,A,58.94460104986828,82.74086215894826,2.9472300524934143,1.299690423551188,A,579.2615000000296,Correct
9,309,128,A,39.404062890750964,68.0791320277791,1.9702031445375483,1.0693845052062019,A,398.33969999995134,Correct
9,309,129,A,20.944524031635527,39.828085736036314,1.0472262015817764,0.6256181077743806,A,496.55269999993834,Correct
9,309,130,A,36.62135745208153,50.69394762404849,1.8310678726040766,0.7962986671858824,A,378.7413000000015,Correct
9,309,131,A,20.477096898443047,41.299218011890616,1.0238548449221525,0.6487265995257941,A,421.00810000010824,Correct
9,309,132,A,35.15230110055551,55.09406128539205,1.7576150550277756,0.8654154909530675,A,504.082599999947,Correct
9,309,133,A,59.05932407781698,81.3220237208556,2.952966203890849,1.2774033614824742,A,439.7466999998869,Correct
9,309,134,A,55.57797586984013,72.08874958853805,2.7788987934920066,1.132367430569127,A,441.19480000017575,Correct
9,309,135,B,38.61752614457011,14.190414061008592,1.9308763072285051,0.2229025028273095,B,470.74930000007953,Correct
9,309,136,B,36.911341919034825,23.578151547465037,1.8455670959517414,0.37036473843371487,B,1006.7556999999852,Correct
9,309,137,A,25.03776962606295,40.07909089280791,1.2518884813031474,0.6295608875570146,A,537.2660000000451,Correct
9,309,138,A,23.139897128856543,55.55905157761589,1.1569948564428272,0.8727195413832726,A,452.8535000001739,Correct
9,309,139,B,34.90657033964286,15.610942007422182,1.745328516982143,0.24521610363066912,B,447.88900000003196,Correct
9,309,140,B,45.937248901423374,33.97758905626107,2.2968624450711688,0.5337187208292137,B,1062.3158999999305,Correct
9,309,141,B,66.84906503592316,39.03366848240324,3.342453251796158,0.6131394307348874,B,457.8827000000274,Correct
9,309,142,B,30.21530159247991,14.432016950633546,1.5107650796239955,0.22669759214296858,B,601.3430000000426,Correct
9,309,143,B,75.48819614317125,48.49563329638251,3.7744098071585626,0.7617676264754991,B,482.17580000005,Correct
9,309,144,A,53.04775026211012,59.97758085160451,2.6523875131055057,0.9421256369174429,A,2659.5952000000125,Correct
9,309,145,A,18.106340030441565,35.98101398175415,0.9053170015220783,0.5651884459689523,A,385.6642999999167,Correct
9,309,146,A,25.00228590306977,41.26329452799531,1.2501142951534885,0.6481623147603099,A,459.0549999998075,Correct
9,309,147,A,31.999714041517603,54.842397510369366,1.59998570207588,0.8614623656191378,A,363.6443999998846,Correct
9,309,148,B,35.210075300821,22.178603659801123,1.7605037650410502,0.34838069162255453,B,446.38759999998,Correct
9,309,149,A,32.10779814431242,45.93591090773434,1.605389907215621,0.7215596012184673,A,704.3747000000167,Correct
9,309,150,A,14.247497964584309,36.45796618934207,0.7123748982292155,0.5726803937263106,A,381.89040000020213,Correct
9,309,151,B,44.585583018923224,21.949257433777966,2.229279150946161,0.3447781295285401,B,410.29070000013235,Correct
9,309,152,A,58.3404710248615,78.64710098835856,2.9170235512430747,1.2353857734558091,A,424.97260000004644,Correct
9,309,153,A,18.656229496032086,40.95027008424553,0.9328114748016043,0.6432453382959182,A,434.3517000002066,Correct
9,309,154,A,24.804293368487485,37.28588452264507,1.2402146684243744,0.5856853044946955,A,672.7223000000322,Correct
9,309,155,B,75.49782039617642,49.722635227835205,3.774891019808821,0.7810413277444607,B,418.91339999983757,Correct
9,309,156,A,40.374089972333,60.69147889509578,2.0187044986166502,0.9533395211616644,A,410.1247000000967,Correct
9,309,157,B,54.62698964190186,23.967786536953927,2.7313494820950925,0.37648511053651407,B,407.0726999998442,Correct
9,309,158,A,63.08629962027652,81.52841705337744,3.154314981013826,1.2806453803684767,A,381.73669999991944,Correct
9,309,159,B,83.72960724437608,67.75128068167834,4.186480362218805,1.0642346283043036,B,467.5495999999839,Correct
9,309,160,A,29.823135793153266,39.23713971330993,1.4911567896576634,0.616335549356054,A,372.1258000000489,Correct
9,309,161,A,12.940456589389331,30.714263904773492,0.6470228294694665,0.4824585292182728,A,382.6288000000204,Correct
9,309,162,B,70.31574820190566,43.758377264101576,3.515787410095283,0.6873549827295607,B,354.7272000000703,Correct
9,309,163,A,31.347459970394958,53.57198953312428,1.567372998519748,0.8415068437772627,A,622.6576999999907,Correct
9,309,164,B,52.655149464020006,24.167623740216392,2.6327574732010004,0.37962414598493055,B,385.99730000009913,Correct
9,309,165,A,59.61405478002201,74.0949218713815,2.9807027390011007,1.1638803110972091,A,403.92670000005637,Correct
9,309,166,A,26.737469648408165,50.770822777712645,1.3368734824204083,0.7975062192758569,A,422.9706000000988,Correct
9,309,167,A,61.33096252477797,83.15402658036112,3.066548126238899,1.3061803951063642,B,524.193200000127,Incorrect
9,309,168,B,60.88448628108271,39.72975563178752,3.0442243140541354,0.6240735421087069,B,409.751500000084,Correct
9,309,169,B,82.9521245433795,58.11741174156391,4.147606227168975,0.9129061688647518,B,496.1620999999923,Correct
9,309,170,B,75.67017476800052,64.29014576442496,3.783508738400026,1.0098672481586721,B,596.8439000000672,Correct
9,309,171,B,39.2349155193203,26.78502453203746,1.9617457759660153,0.42073818148035635,B,610.9243999999308,Correct
9,309,172,B,48.93864023308683,31.579207607638686,2.4469320116543414,0.496045033131723,B,463.0624999999782,Correct
9,309,173,A,45.12370893905992,59.80252944213624,2.256185446952996,0.9393759358075127,A,455.92280000005303,Correct
9,309,174,B,37.062609027465896,18.58985083965318,1.853130451373295,0.2920086941459224,B,402.6827999998659,Correct
9,309,175,A,48.797279724399495,78.67369954505364,2.4398639862199745,1.2358035826073557,A,363.8191000000006,Correct
9,309,176,A,45.51657448780365,58.368543294530056,2.2758287243901827,0.916850934074167,A,528.2261999998354,Correct
9,309,177,A,29.11357791517395,48.18539763701065,1.4556788957586975,0.7568944561336782,A,452.15140000004794,Correct
9,309,178,B,40.48427419542651,23.07657255870068,2.0242137097713253,0.3624859541022293,B,508.68850000006205,Correct
9,309,179,B,57.62674607339548,31.074550648458413,2.8813373036697736,0.48811790015400447,B,624.2869999998675,Correct
9,309,180,A,25.188675318208652,49.51177572862988,1.2594337659104327,0.7777291544762454,A,377.9845000001387,Correct
9,309,181,B,70.54520203091698,50.592644522525525,3.527260101545849,0.7947074017882304,A,746.7865000000984,Incorrect
9,309,182,B,46.87865437689766,23.7308731732859,2.343932718844883,0.3727636841223304,B,558.1158999998479,Correct
9,309,183,A,56.09258929810038,85.06323493662073,2.804629464905019,1.3361701698373514,A,475.39800000004107,Correct
9,309,184,B,43.21163032216612,21.30817145340493,2.160581516108306,0.3347079744972434,B,429.8840999999811,Correct
9,309,185,A,20.128867694836455,37.72868174240598,1.0064433847418228,0.5926407469578499,A,441.23549999994793,Correct
9,309,186,A,28.741438008718372,49.881126987331385,1.4370719004359185,0.7835309104808992,A,394.29680000012013,Correct
9,309,187,B,51.50146609577496,25.639043079146056,2.5750733047887477,0.4027371469125874,B,430.2089000000251,Correct
9,309,188,B,44.77376587701637,36.00642658423488,2.238688293850819,0.5655876261952626,B,1041.8276000000333,Correct
9,309,189,A,45.900751665439714,67.04397163902743,2.2950375832719856,1.053124243843255,A,411.49059999997917,Correct
9,309,190,B,70.25937999126016,49.987450072598236,3.5129689995630082,0.7852010295988058,B,430.2666000000954,Correct
9,309,191,A,51.83727542190189,59.45144767474321,2.5918637710950945,0.9338611563012561,A,624.4950000000244,Correct
9,309,192,B,83.13560210548039,64.3622038155233,4.15678010527402,1.0109991333784847,B,417.3419000001104,Correct
9,309,193,A,32.46854035589409,58.354752426435155,1.6234270177947048,0.9166343076246992,A,414.84920000016245,Correct
9,309,194,B,69.7232170301029,40.86950573461071,3.486160851505145,0.6419766948584946,B,471.1571999998796,Correct
9,309,195,A,12.205834815915395,37.18785209492445,0.6102917407957698,0.5841454147209924,A,457.668300000023,Correct
9,309,196,B,50.753437498524306,24.873506393144293,2.5376718749262155,0.39071212476860423,B,415.20199999990837,Correct
9,309,197,A,57.299425490581044,70.53638747662278,2.864971274529052,1.107982983536606,A,561.9750000000749,Correct
9,309,198,B,56.49804928924074,47.16381000526373,2.8249024644620366,0.7408473951392065,B,1746.8436999999994,Correct
9,309,199,B,80.89437983593453,54.31726053194502,4.044718991796726,0.8532135332514064,B,437.57770000001983,Correct
9,309,200,B,58.66516703854303,39.14187093000282,2.9332583519271513,0.6148390708072837,B,790.1682000001529,Correct
9,309,201,A,63.38376308987675,84.42365940296956,3.169188154493838,1.32612374084768,A,565.0980999998865,Correct
9,309,202,A,42.280622457952646,73.20452190477488,2.1140311228976323,1.1498939411279694,A,417.5250999999207,Correct
9,309,203,A,35.9656541884235,61.54114773899892,1.798282709421175,0.9666860881516156,A,503.8892999998552,Correct
9,309,204,B,54.484588150525624,22.91844171922464,2.724229407526281,0.36000204068420977,B,454.21360000000277,Correct
9,309,205,A,48.10715669330082,62.45093851819339,2.405357834665041,0.9809770482927209,A,380.63929999998436,Correct
9,309,206,B,66.271623682208,51.82137065006715,3.3135811841104,0.8140081866660235,B,780.3561000000627,Correct
9,309,207,A,55.900213598042804,67.51808446496328,2.7950106799021404,1.060571590697919,A,596.0602000000108,Correct
9,309,208,B,57.47210730736358,48.33734094490534,2.8736053653681792,0.7592811760328987,B,3111.3995999999133,Correct
9,309,209,A,55.820568294442836,67.48164623614768,2.7910284147221422,1.0599992203381343,A,417.1274000000267,Correct
9,309,210,B,62.96831206464134,41.70373907386257,3.148415603232067,0.6550808015083613,B,682.7514999999948,Correct
9,309,211,B,52.4704091888663,27.445010764201243,2.623520459443315,0.4311052209725371,B,454.08629999997174,Correct
9,309,212,A,37.17542709928584,67.49795393663805,1.8587713549642921,1.0602553810984219,A,477.0184999999856,Correct
9,309,213,B,61.153987362196794,41.10105189449208,3.0576993681098394,0.6456138134327459,B,424.31310000006306,Correct
9,309,214,B,78.59903477406209,63.91585879344564,3.9299517387031044,1.003987962166857,B,530.5279999997765,Correct
9,309,215,B,83.44271519308887,61.655234661898675,4.172135759654443,0.9684781613458782,B,416.89210000004095,Correct
9,309,216,A,30.682073060829048,57.6472977931253,1.5341036530414525,0.9055216362309277,A,416.9490000001588,Correct
9,309,217,B,48.957253440330845,22.78906853662168,2.447862672016542,0.35796985148402477,B,455.00769999989643,Correct
9,309,218,B,69.34409675064951,58.213819872193184,3.4672048375324755,0.9144205442394082,B,681.2325000000783,Correct
9,309,219,A,22.84238329478988,37.21436289062217,1.142119164739494,0.5845618453260161,A,433.8127999999415,Correct
9,309,220,A,57.73411011061073,66.1033749424856,2.8867055055305366,1.0383493854840218,A,624.9898999999459,Correct
9,309,221,B,50.45792087492034,26.18800823923823,2.5228960437460173,0.411360271482699,B,424.4803999999931,Correct
9,309,222,A,43.54499926929667,67.36707691993149,2.1772499634648335,1.0581995697273765,A,392.49709999990046,Correct
9,309,223,A,23.71174944511048,44.19745105607514,1.1855874722555242,0.6942519377258005,A,624.7651999999562,Correct
9,309,224,A,17.517452289674036,34.970797442455066,0.8758726144837019,0.5493200016769678,A,433.62930000012057,Correct
9,309,225,A,43.600653459652435,64.69287220775438,2.180032672982622,1.0161932603375223,A,883.5500999998658,Correct
9,309,226,B,36.659419252341934,27.103985693669177,1.8329709626170967,0.4257484116911696,B,515.0441000000683,Correct
9,309,227,A,43.570511721168984,50.61864679387544,2.1785255860584494,0.7951158445114781,A,644.9772999999368,Correct
9,309,228,A,37.81471719297353,49.400387216011794,1.8907358596486767,0.775979467811569,A,409.96770000015204,Correct
9,309,229,A,18.288590046051013,43.473536175617056,0.9144295023025506,0.6828807093744433,A,417.9579999999987,Correct
9,309,230,B,53.85220360727632,29.493013220857087,2.6926101803638165,0.4632751683343564,B,379.1066999999657,Correct
9,309,231,A,47.68251026772863,61.488108794508044,2.384125513386431,0.9658529543597822,A,478.98929999996653,Correct
9,309,232,A,40.32876452152834,59.75437256268314,2.016438226076417,0.9386194893139642,A,428.7716999999702,Correct
9,309,233,B,54.029100792309706,38.06901623340716,2.7014550396154853,0.5979867086413126,B,881.2060000000201,Correct
9,309,234,B,67.92330110925275,45.82989470366761,3.3961650554626375,0.7198943025791796,B,475.7242000000588,Correct
9,309,235,B,87.4017414308269,61.1158707776262,4.370087071541345,0.9600058532636678,B,453.09180000003835,Correct
9,309,236,A,46.96390276687568,70.8893306600983,2.3481951383437836,1.1135270020983123,A,412.8625999999258,Correct
9,309,237,B,59.85843410391335,44.46864442606882,2.9929217051956676,0.6985118332201726,B,479.3455999999878,Correct
9,309,238,A,36.414554355930896,66.35743980561004,1.8207277177965449,1.0423402270216573,A,358.8190000000395,Correct
9,309,239,B,59.70597526558953,30.086161103948484,2.9852987632794763,0.4725923134944177,B,375.9399000000485,Correct
9,309,240,A,44.444943979220405,70.38830025550435,2.22224719896102,1.1056568349068252,A,362.6601999999366,Correct
9,309,241,B,64.0178206054089,43.96201259693517,3.200891030270445,0.6905536790577673,B,412.3991000001297,Correct
9,309,242,A,51.60905787815487,79.62144966377687,2.5804528939077436,1.2506908066594544,A,386.4644000000226,Correct
9,309,243,A,46.79736416898283,58.59319275623767,2.3398682084491416,0.9203797195668346,A,427.8765999999905,Correct
9,309,244,A,61.029046187760315,71.49148946185154,3.0514523093880155,1.1229856904377247,A,435.8647999999903,Correct
9,309,245,B,81.6144799098184,52.416389770579386,4.08072399549092,0.8233547251547567,B,479.7415999998975,Correct
9,309,246,B,76.17815798689173,63.37372150698745,3.808907899344587,0.9954720895849861,B,447.2049999999399,Correct
9,309,247,B,53.98490308094065,37.286809131934916,2.6992451540470324,0.5856998282234577,B,498.2420999999704,Correct
9,309,248,A,59.02344903155495,69.7402073958994,2.9511724515777473,1.0954766160739307,A,435.3906999999708,Correct
9,309,249,B,56.256423857275884,28.280932209039765,2.8128211928637943,0.4442358443229515,B,378.03389999999126,Correct
9,309,250,B,68.42585482387094,37.70239179296777,3.421292741193547,0.5922277853977583,B,399.2782000000261,Correct
9,309,251,A,53.27480299217773,62.08718182368018,2.6637401496088864,0.9752631714968371,A,503.8503999999193,Correct
9,309,252,B,40.55005415156218,24.270325980084564,2.0275027075781087,0.38123738899631576,B,435.7162999999673,Correct
9,309,253,A,62.184523571012434,86.90813944953861,3.109226178550622,1.365149862159139,A,507.2080000002188,Correct
9,309,254,A,28.29504752519038,55.79493354569222,1.414752376259519,0.876424766673387,A,678.765999999996,Correct
9,309,255,B,81.97674778171749,56.7013102100576,4.098837389085875,0.8906620980241643,B,390.5531999998857,Correct
9,309,256,A,19.13598759801596,42.632124508496084,0.9567993799007979,0.6696638458140833,A,369.59249999995336,Correct
9,309,257,A,26.729830187710753,57.59541791945134,1.3364915093855376,0.9047067090809114,A,368.2330000001457,Correct
9,309,258,B,48.07835468711778,26.407662705227203,2.403917734355889,0.4148105957660947,B,352.5271999999404,Correct
9,309,259,B,71.42191632833035,49.18661395267749,3.5710958164165176,0.7726215252434442,B,393.3610999999928,Correct
9,309,260,A,54.50287512793157,84.12078288397825,2.7251437563965784,1.3213661676126405,A,376.8347000000176,Correct
9,309,261,B,50.612081945615,43.779354463621345,2.53060409728075,0.6876844918090816,B,388.98489999996855,Correct
9,309,262,B,43.30525758899893,31.78643187070316,2.1652628794499464,0.49930010424416754,B,438.6580000000322,Correct
9,309,263,B,55.87311209595628,36.32359652734503,2.793655604797814,0.5705697200113343,B,483.65979999994124,Correct
9,309,264,A,48.27096032742108,71.04170430950538,2.413548016371054,1.1159204817862023,A,1577.1719999997913,Correct
9,309,265,A,54.96826298233382,81.28284412798516,2.7484131491166908,1.276787929876812,A,511.5411000001586,Correct
9,309,266,B,53.49348756769019,26.73097917961416,2.6746743783845095,0.4198892390696878,B,415.8259000000726,Correct
9,309,267,B,69.4894131983543,53.32682031255908,3.4744706599177153,0.8376557346661927,B,644.7977000000265,Correct
9,309,268,A,53.958896925067414,63.356674988251044,2.6979448462533706,0.9952043234948283,A,4524.003300000004,Correct
9,309,269,A,53.096361400851265,66.16213964527705,2.6548180700425634,1.0392724592769218,A,473.8264000000072,Correct
9,309,270,B,42.542385981024466,18.869360318735236,2.1271192990512233,0.29639921877638686,B,380.33080000013797,Correct
9,309,271,B,49.65997991856967,26.2255102936276,2.4829989959284835,0.41194935237551983,B,425.04669999971156,Correct
9,309,272,A,59.23015049217295,70.38370368760366,2.9615075246086473,1.1055846321870826,A,422.028599999976,Correct
9,309,273,B,39.610072270868116,22.804330121909384,1.9805036135434058,0.3582095799051348,B,549.1892000000007,Correct
9,309,274,A,29.900332518892263,48.78653681008316,1.4950166259446132,0.7663371281832264,A,654.0135999998711,Correct
9,309,275,B,30.894818306053143,14.069423935506467,1.5447409153026572,0.2210019943801376,B,465.64470000021174,Correct
9,309,276,A,51.57182052007217,79.3249527728491,2.578591026003609,1.2460334443877004,A,373.79969999983587,Correct
9,309,277,A,62.842171232021045,78.98839671196848,3.1421085616010522,1.2407468341457817,A,592.2818000003645,Correct
9,309,278,A,57.40307509951579,79.18799679599545,2.870153754975789,1.2438821449339568,A,448.59879999967234,Correct
9,309,279,A,34.77884433483405,63.0581294000393,1.7389422167417024,0.9905147803613902,A,474.0105000000767,Correct
9,309,280,B,63.588934816224665,54.91167102990736,3.1794467408112332,0.8625505115194821,A,2794.558099999904,Incorrect
9,309,281,A,55.463667535645975,71.15760308028523,2.7731833767822986,1.1177410154204126,A,501.053000000411,Correct
9,309,282,B,78.6916933179416,51.90352252216958,3.93458466589708,0.8152986252554016,B,437.0907999996234,Correct
9,309,283,B,44.31361725404547,30.400586141950175,2.2156808627022735,0.47753129044187165,B,584.9702999998954,Correct
9,309,284,A,27.950498158943784,48.48268751508601,1.3975249079471892,0.7615642746184191,A,527.3464000001695,Correct
9,309,285,B,51.014911827682084,22.38048074834773,2.5507455913841044,0.3515517695140851,B,388.0227999998169,Correct
9,309,286,A,33.91904630781479,47.96771008516789,1.6959523153907394,0.7534750280654424,A,387.22740000002887,Correct
9,309,287,A,44.09892515572805,65.05367775916697,2.204946257786402,1.0218607806859834,A,499.5054999999411,Correct
9,309,288,B,65.93214005674197,53.41253151941992,3.2966070028370984,0.8390020831552143,A,3370.148599999993,Incorrect
9,309,289,A,52.346278322611894,62.68919350650654,2.6173139161305947,0.9847195488975495,A,529.3547000001126,Correct
9,309,290,A,13.25686908862226,39.789516251884,0.662843454431113,0.6250122597340523,A,435.83669999998165,Correct
9,309,291,A,37.09724787490746,57.59309058624694,1.854862393745373,0.9046701514164243,A,417.16619999988325,Correct
9,309,292,A,39.86305629276213,71.65361407671881,1.9931528146381066,1.1255323379328899,A,382.6489000002766,Correct
9,309,293,A,34.15342042772993,56.87188672160986,1.7076710213864965,0.8933415076020025,A,377.13669999993726,Correct
9,309,294,A,19.10078894861745,40.93437752860316,0.9550394474308724,0.642995698615654,A,367.49890000010055,Correct
9,309,295,B,61.42001989687925,29.935957886072302,3.0710009948439625,0.4702329268652909,B,383.54919999983395,Correct
9,309,296,B,81.73088965682756,60.18731354099171,4.086544482841378,0.9454201102984251,B,402.81169999980193,Correct
9,309,297,B,58.2385878112893,26.74488457564501,2.911929390564465,0.42010766451976667,B,384.11450000012337,Correct
9,309,298,A,45.609496178393286,52.92171752132068,2.280474808919664,0.8312923949016764,A,471.8713999995998,Correct
9,309,299,B,48.981729539631,37.81644313916127,2.44908647698155,0.5940192997544258,B,467.47259999983726,Correct
9,309,300,B,56.31371542124171,25.389622514522074,2.815685771062085,0.3988192578452028,B,409.0006000001267,Correct
9,309,301,B,46.48267688957863,35.57458637779478,2.324133844478931,0.5588042960948781,B,371.49589999989985,Correct
9,309,302,A,47.600417673946374,75.62196631706917,2.3800208836973185,1.1878670691585964,A,380.8865999999398,Correct
9,309,303,B,71.77771501746143,57.39277907131858,3.5888857508730716,0.9015236654977823,B,432.49950000017634,Correct
9,309,304,B,67.42914052094821,47.4051483222048,3.3714570260474104,0.7446383285568656,B,462.0375999998032,Correct
9,309,305,A,41.2317524825655,68.12769534423289,2.0615876241282747,1.070147335997228,A,476.6399000000092,Correct
9,309,306,B,39.54146773899298,23.736289754314125,1.977073386949649,0.37284876757815966,B,392.80090000011114,Correct
9,309,307,B,89.25749199531202,65.51968207496651,4.462874599765601,1.029180759361268,B,416.79629999998724,Correct
9,309,308,A,37.87511487316267,52.006932577367095,1.8937557436581336,0.8169229866039808,A,415.4791999999361,Correct
9,309,309,A,13.401705860505036,41.968054602881125,0.6700852930252518,0.6592326601293332,A,420.69549999996525,Correct
9,309,310,A,21.166631736607222,38.996291785008395,1.058331586830361,0.612552318945132,A,408.5814999998547,Correct
9,309,311,A,66.83741771505645,84.08045853906624,3.3418708857528223,1.3207327542839584,B,364.7443999998359,Incorrect
9,309,312,A,49.21932688928064,75.47641331797234,2.460966344464032,1.1855807279952435,A,386.0150000000431,Correct
9,309,313,B,36.921653682781724,27.3715564303979,1.846082684139086,0.42995140299528245,B,418.9056999998684,Correct
9,309,314,A,35.00057270927435,52.98973242170311,1.7500286354637178,0.8323607704585568,A,451.2039999999615,Correct
9,309,315,A,58.58190372424726,72.7654493035439,2.929095186212363,1.1429970048358702,A,464.6715000003496,Correct
9,309,316,A,51.42092885701668,78.65582205417178,2.571046442850834,1.2355227636372603,A,413.1090000000768,Correct
9,309,317,B,31.03162301843619,16.055532069434935,1.5515811509218094,0.2521997079940606,B,478.77599999992526,Correct
9,309,318,B,71.53319302651617,59.07974378183251,3.5766596513258087,0.9280224452048614,A,4983.91219999985,Incorrect
9,309,319,A,29.65051166415932,50.65277176913195,1.482525583207966,0.7956518783693269,A,402.9723000003287,Correct
9,309,320,B,58.11091626533727,32.22594361444227,2.9055458132668637,0.5062039385706538,B,382.0330999997168,Correct
9,309,321,B,51.1872279808346,34.90629866912738,2.55936139904173,0.5483068573147087,B,505.3664000001845,Correct
9,309,322,B,69.2031316003827,38.29837647999817,3.460156580019135,0.6015894909698919,B,443.27209999983097,Correct
9,309,323,B,33.67932875036303,10.096409020016342,1.6839664375181513,0.15859402202460532,B,493.5030999999981,Correct
9,309,324,A,58.837617429330095,70.43364052447885,2.9418808714665046,1.1063690381864353,A,461.28429999998843,Correct
9,309,325,B,60.000743883723416,30.820536772390067,3.000037194186171,0.48412785951917353,B,378.51590000036595,Correct
9,309,326,B,33.09603106714391,16.79636915968436,1.6548015533571956,0.26383674979523275,B,601.9774000001235,Correct
9,309,327,A,31.62772287202263,60.77871938331507,1.5813861436011314,0.954709891546091,A,457.17080000031274,Correct
9,309,328,B,61.945818558854185,44.09560025055006,3.097290927942709,0.6926520690138016,B,396.50080000001253,Correct
9,309,329,A,47.48335982213007,69.34643759934488,2.3741679911065035,1.0892912945736244,A,421.93029999998544,Correct
9,309,330,A,20.32946187660788,36.99401007486058,1.016473093830394,0.5811005513900439,A,421.58569999992324,Correct
9,309,331,A,48.358200678521584,61.91075292589483,2.4179100339260793,0.9724918328510199,A,420.8350999997492,Correct
9,309,332,B,39.19336788494836,19.333079780200837,1.959668394247418,0.30368330704372154,B,432.4359000002005,Correct
9,309,333,A,57.98553838235566,82.51535629039321,2.899276919117783,1.296148185651218,A,455.89709999967454,Correct
9,309,334,A,68.3622477143117,85.555972098827,3.4181123857155855,1.343910067082041,A,506.1054999996486,Correct
9,309,335,B,56.12678521757893,33.37781122752614,2.8063392608789464,0.5242974327265151,B,430.82810000032623,Correct
9,309,336,B,65.04425853866479,56.470921511185495,3.2522129269332396,0.8870431608049307,B,1667.7803999996286,Correct
9,309,337,B,45.58043533768983,35.31866211897359,2.2790217668844917,0.5547842472379378,B,581.7620000002535,Correct
9,309,338,B,42.602571121688555,19.21366208236528,2.130128556084428,0.30180749823257763,B,449.91810000010446,Correct
9,309,339,A,49.68426109413808,58.739776044609606,2.4842130547069043,0.9226822444762762,A,739.5721000002595,Correct
9,309,340,A,35.547359530972884,61.49997226868004,1.777367976548644,0.966039305376306,A,436.4420000001701,Correct
9,309,341,A,11.308869019917807,35.29420757225501,0.5654434509958903,0.554400116116348,A,415.2012999998078,Correct
9,309,342,B,51.54737434178957,23.454614311467896,2.5773687170894783,0.3684242200684478,B,401.99269999993703,Correct
9,309,343,B,63.281983795062324,47.728996566502076,3.164099189753116,0.749725324882677,B,953.9890999999443,Correct
9,309,344,B,43.24100165277444,30.304777422978603,2.1620500826387223,0.476026330603517,B,490.2732999998989,Correct
9,309,345,B,74.6931750508154,62.47382522040115,3.7346587525407697,0.981336551770325,B,612.7957999997307,Correct
9,309,346,A,18.98414205159781,45.073267596097075,0.9492071025798906,0.7080092317659272,A,455.3171000002294,Correct
9,309,347,A,25.011609654640324,44.798080276254304,1.2505804827320162,0.7036865994540317,A,386.04650000024776,Correct
9,309,348,B,62.66778628251094,39.01394871096633,3.133389314125547,0.612829673289504,B,404.5353999999861,Correct
9,309,349,B,71.47758934133371,53.84380843988252,3.5738794670666856,0.8457765651801552,B,381.3953999997466,Correct
9,309,350,A,24.63105111688221,43.10019583949368,1.2315525558441107,0.6770162930881735,A,479.6368000002076,Correct
9,309,351,B,57.85579556802491,35.91099682862403,2.8927897784012453,0.564088619099458,B,468.5924000000341,Correct
9,309,352,B,35.29955376906241,24.540832710591687,1.7649776884531208,0.3854864987828546,B,713.2861999998568,Correct
9,309,353,A,42.226325288486905,71.04897972484052,2.1113162644243455,1.1160347637430457,A,515.5455999997685,Correct
9,309,354,B,58.06181083518187,25.830106468633165,2.9030905417590933,0.40573836361650073,B,427.82790000001114,Correct
9,309,355,A,29.774541513479114,49.45785359461877,1.4887270756739557,0.7768821475758695,A,686.3312999998925,Correct
9,309,356,B,55.990585742157954,48.76051118823318,2.7995292871078976,0.7659283186711813,A,887.4366999998529,Incorrect
9,309,357,A,58.48234468490023,77.81777697901748,2.9241172342450112,1.222358782379851,A,515.3450999996494,Correct
9,309,358,A,31.748643841598792,53.22749805168924,1.5874321920799395,0.8360955842407596,A,437.285299999985,Correct
9,309,359,B,57.54612939544693,38.37810171651463,2.8773064697723463,0.6028418120566209,B,575.7949999997436,Correct
9,309,360,A,49.6943810315549,77.05772554452803,2.484719051577745,1.2104199223651388,A,571.3877999996839,Correct
9,309,361,A,48.7604834721222,70.6215031441787,2.43802417360611,1.1093199773161015,A,432.36609999985376,Correct
9,309,362,A,45.402473559148625,71.13842837137346,2.2701236779574314,1.1174398197971531,A,384.64939999994385,Correct
9,309,363,A,31.69224315516846,57.20358667610793,1.5846121577584231,0.8985518383032383,A,416.11950000014986,Correct
9,309,364,A,42.70915533955763,74.69733076907858,2.135457766977882,1.1733429279345204,A,380.2807000001849,Correct
9,309,365,A,41.47821044487707,63.77498308892465,2.0739105222438536,1.0017750917748947,A,420.86869999957344,Correct
9,309,366,A,59.71999088418292,81.63740058022896,2.9859995442091463,1.2823572896050721,A,508.3409000003485,Correct
9,309,367,B,88.29856918374418,69.43382156918427,4.414928459187209,1.0906639187620693,B,463.3688999997503,Correct
9,309,368,A,33.224946113589546,44.97727779024967,1.6612473056794772,0.7065014274215786,A,510.84480000008625,Correct
9,309,369,A,60.96290787712965,79.84104356283488,3.0481453938564824,1.2541401795597236,A,528.2424000001811,Correct
9,309,370,B,48.974533029770036,19.476582401292198,2.448726651488502,0.3059374409446791,B,453.4715999998298,Correct
9,309,371,B,64.59846471426384,49.30547548152833,3.2299232357131924,0.7744885977726055,B,1193.0968000001485,Correct
9,309,372,A,49.642547780039415,78.83369496685232,2.482127389001971,1.2383167848160095,A,435.60930000012377,Correct
9,309,373,B,41.587281121574094,24.22333235810108,2.079364056078705,0.3804992149083714,B,378.25080000038724,Correct
9,309,374,B,36.29095439117589,21.62865173749123,1.8145477195587945,0.3397420670277728,B,490.5105999996522,Correct
9,309,375,B,55.93535241121568,45.99034032473674,2.796767620560784,0.7224145765014368,B,479.7748999999385,Correct
9,309,376,A,46.85154603915626,72.96157840357948,2.342577301957813,1.146077793535005,A,515.9789999997884,Correct
9,309,377,A,51.89530002974254,70.87286196969896,2.594765001487127,1.1132683125144482,A,450.83959999965373,Correct
9,309,378,B,71.44076118427475,53.60337926425425,3.572038059213737,0.8419999125208429,B,498.06219999982204,Correct
9,309,379,B,65.13707384153211,43.57580423745507,3.256853692076606,0.6844871323332791,B,441.2312999997994,Correct
9,309,380,B,57.186051369783684,36.16577970111288,2.859302568489184,0.5680907391018155,B,471.30429999970147,Correct
9,309,381,A,55.31904808332045,71.1092158346895,2.765952404166023,1.1169809503439574,A,493.6483000001317,Correct
9,309,382,A,51.03802805633849,60.63307002390861,2.5519014028169242,0.9524220367585339,A,607.3744000000261,Correct
9,309,383,B,59.09880333012552,46.11687272187471,2.954940166506276,0.7244021427478854,B,544.1925000000083,Correct
9,309,384,B,75.76342551818904,52.085044376113274,3.788171275909452,0.8181499638694791,B,499.24509999982547,Correct
9,309,385,B,49.80903161407686,24.601954293674815,2.4904515807038425,0.3864465943648034,B,571.785600000112,Correct
9,309,386,A,34.61091273342469,66.66319107392091,1.7305456366712346,1.0471429567134132,A,522.1828999997342,Correct
9,309,387,B,55.63952139416068,28.575318786966584,2.7819760697080342,0.4488600578756032,B,414.5998999997573,Correct
9,309,388,A,31.223456835632987,44.317442519315655,1.5611728417816493,0.6961367592228501,A,750.6220999998732,Correct
9,309,389,A,49.93691374950565,66.61401350022632,2.4968456874752825,1.0463704771922115,A,454.89839999981996,Correct
9,309,390,A,61.75586500702586,76.67771677454166,3.087793250351293,1.2044507585646946,A,457.40109999997003,Correct
9,309,391,B,58.40017550666115,48.17976197612994,2.9200087753330575,0.7568059313795732,B,962.5087999997959,Correct
9,309,392,B,65.22703356060148,45.59454917611106,3.2613516780300746,0.7161975036770454,B,539.3828000001122,Correct
9,309,393,B,49.30327572196379,28.683457352627514,2.4651637860981896,0.4505586944928537,B,534.9633999999241,Correct
9,309,394,B,50.98319491025519,27.3515017673744,2.5491597455127595,0.4296363850851583,B,468.2373999999072,Correct
9,309,395,A,48.48985507848485,55.781821765243095,2.4244927539242425,0.8762188073077147,A,3892.2262999999475,Correct
9,309,396,A,16.302950468266857,41.386383625853924,0.8151475234133428,0.6500957937881578,A,467.17009999974834,Correct
9,309,397,A,56.62248308078706,76.8763568937747,2.831124154039353,1.2075709902611482,A,517.9683999999725,Correct
9,309,398,A,26.43282408808442,48.13378509974787,1.321641204404221,0.7560837282941888,A,450.67680000011023,Correct
9,309,399,B,65.33841847141983,54.663894143458904,3.266920923570991,0.8586584412885031,B,507.2384999998576,Correct
9,309,400,B,71.23047210626558,49.59226171534405,3.561523605313279,0.7789934253991362,B,521.5978000001087,Correct
9,309,401,A,47.547691177816674,62.09748827616878,2.3773845588908333,0.9754250648739509,A,434.43170000000464,Correct
9,309,402,B,47.078446387125666,30.45462389386496,2.3539223193562835,0.47838011346403164,B,511.9910000003074,Correct
9,309,403,A,59.10608540464723,78.49659825749323,2.9553042702323613,1.2330216820876505,A,539.3013000002611,Correct
9,309,404,A,65.6252368982994,79.71683301311727,3.2812618449149706,1.2521890848072674,A,717.8163999997196,Correct
9,309,405,A,34.606954103159865,67.61743494522361,1.7303477051579932,1.0621321843925011,A,474.232199999733,Correct
9,309,406,A,32.69755116510693,43.69701417130145,1.6348775582553463,0.6863910935218486,A,474.81110000035187,Correct
9,309,407,A,64.36025457169555,83.57929484501102,3.2180127285847777,1.3128604933865093,A,798.6740000001191,Correct
9,309,408,A,40.54479786475676,58.10680499050372,2.027239893237838,0.912739558408706,A,828.5025000000132,Correct
9,309,409,B,56.64556499811965,38.95789743736423,2.8322782499059826,0.6119492219426406,B,522.0584000003328,Correct
9,309,410,A,49.690262465717815,65.13049108510349,2.4845131232858906,1.023067361588283,A,586.0453000000234,Correct
9,309,411,B,68.48025009475937,35.63921188647741,3.424012504737968,0.5598194312114374,B,388.514799999939,Correct
9,309,412,B,73.01648758381491,42.0440328760235,3.6508243791907455,0.6604261240530158,B,452.2753000001103,Correct
9,309,413,A,27.889725770647487,47.70195186431355,1.3944862885323743,0.7493005076941069,A,466.9061999998121,Correct
9,309,414,A,43.08661492205273,59.445836101138426,2.1543307461026364,0.9337730099091969,A,427.47719999988476,Correct
9,309,415,B,46.28176138770296,30.807554616003856,2.3140880693851478,0.4839239362835202,B,544.1687000002275,Correct
9,309,416,A,66.31205340021876,80.24836359931471,3.315602670010938,1.2605383477310483,A,646.2752000002183,Correct
9,309,417,A,45.40995923030612,71.21076219373028,2.2704979615153063,1.1185760368217639,A,504.80489999972633,Correct
9,309,418,A,55.91100322263622,77.9638253630031,2.7955501611318105,1.2246529050308408,A,555.577699999958,Correct
9,309,419,A,22.569747642810047,42.61657451308572,1.1284873821405024,0.6694195870573606,A,456.530500000099,Correct
9,309,420,B,66.70660995814936,55.72061030435855,3.3353304979074676,0.8752572999285628,B,1878.9044000000104,Correct
9,309,421,B,58.91372376713156,32.333029646763755,2.9456861883565777,0.50788604203287,B,482.77909999978874,Correct
9,309,422,B,74.0747229225502,41.494658155966114,3.70373614612751,0.6517965661300147,B,451.8903000002865,Correct
9,309,423,A,47.423801229916066,56.6040727586269,2.3711900614958035,0.889134695708822,A,1324.4465000002492,Correct
9,309,424,B,82.7531182436853,67.46826460180311,4.137655912184265,1.0597890221173847,B,456.91100000021834,Correct
9,309,425,B,86.58665826387971,63.10554233011551,4.329332913193985,0.9912595409254531,B,398.9864000000125,Correct
9,309,426,A,38.415055634586196,66.00915964399437,1.9207527817293097,1.0368694550360427,A,752.6837999998861,Correct
9,309,427,A,47.98523502623485,76.11881468409399,2.3992617513117422,1.195671545057563,A,532.8157000003557,Correct
9,309,428,B,44.20305312883134,26.79024069883631,2.210152656441567,0.4208201168368321,B,401.2502999999015,Correct
9,309,429,A,16.71314720871324,30.894787205905363,0.8356573604356621,0.48529418260146107,A,478.76750000023094,Correct
9,309,430,A,60.20392192401529,69.79276718481893,3.0101960962007643,1.0963022233076496,A,576.9937000000027,Correct
9,309,431,B,55.84579528841797,36.45993619169703,2.7922897644208984,0.5727113384509401,B,441.0167000000911,Correct
9,309,432,A,38.539834999258474,45.636892857052885,1.9269917499629237,0.7168626366619091,A,582.5806000002558,Correct
9,309,433,B,77.95181888214015,49.23881956102848,3.8975909441070073,0.7734415690218023,B,478.84890000023006,Correct
9,309,434,B,81.04712180962024,53.82746976498809,4.052356090481012,0.8455199178750664,B,477.2245999997722,Correct
9,309,435,A,12.94473053990373,35.58676537549328,0.6472365269951865,0.5589956033433665,A,468.13539999993736,Correct
9,309,436,A,24.549387998295792,55.35074824592223,1.2274693999147896,0.8694475203004371,A,441.9322999997348,Correct
9,309,437,B,66.01092386160657,55.53323396657364,3.3005461930803284,0.8723139992973544,B,465.65559999999095,Correct
9,309,438,B,58.86916970267667,40.61616619318118,2.9434584851338337,0.6379972466474004,B,2094.9107000001277,Correct
9,309,439,A,45.69266292849358,62.307801204930335,2.284633146424679,0.9787286526337119,A,450.2434999999423,Correct
9,309,440,B,40.8982920000404,15.360128345833843,2.04491460000202,0.2412763318473397,B,446.13289999961125,Correct
9,309,441,A,34.34515788852738,54.20009488005132,1.717257894426369,0.8513730994951948,A,419.3986999998742,Correct
9,309,442,A,34.62807414086099,48.063472216016905,1.7314037070430492,0.7549792560992793,A,910.150899999735,Correct
9,309,443,A,46.11968824445718,73.41445439494787,2.305984412222859,1.1531915529723555,A,473.2137999999395,Correct
9,309,444,B,62.15874677000807,30.375382517273888,3.107937338500404,0.47713539283123746,B,457.23450000014054,Correct
9,309,445,A,44.308631450372815,66.40214523658398,2.2154315725186406,1.0430424582892734,A,508.04070000003776,Correct
9,309,446,B,49.68087914563009,33.279417934275465,2.4840439572815045,0.522751874490321,B,456.4479000000574,Correct
9,309,447,B,37.64554364843032,19.794547875827536,1.8822771824215159,0.31093203093915617,B,487.3720999999023,Correct
9,309,448,B,62.73149176434926,49.09998826224294,3.1365745882174627,0.7712608120800375,B,2772.876399999859,Correct
9,309,449,B,56.340876977270895,37.25603120786344,2.8170438488635448,0.5852163697226792,B,407.68649999972695,Correct
9,309,450,A,44.67490836945984,68.52640333608232,2.233745418472992,1.0764102264878366,A,457.92660000006435,Correct
9,309,451,B,77.99667585372767,66.192524288294,3.8998337926863833,1.0397497401333418,B,551.1885999999322,Correct
9,309,452,A,55.651261390675224,69.13175399543785,2.782563069533761,1.0859190524092217,A,531.2877000001208,Correct
9,309,453,B,56.50222940255303,35.00836278269191,2.8251114701276516,0.5499100766615561,B,474.48279999980514,Correct
9,309,454,B,66.92976090329483,36.72791490545449,3.3464880451647416,0.5769207382432344,B,413.8499000000593,Correct
9,309,455,A,38.42559286948028,63.08227328570742,1.9212796434740143,0.9908940316306104,A,398.1266000000687,Correct
9,309,456,B,56.06985932652481,48.291746806974764,2.8034929663262407,0.7585649849890513,A,815.790300000117,Incorrect
9,309,457,B,54.755741345467236,47.532765716768246,2.7377870672733615,0.7466429379030195,A,676.2220000000525,Incorrect
9,309,458,B,55.01064637843458,36.40276817947343,2.7505323189217292,0.5718133454148301,B,738.6056000000281,Correct
9,309,459,A,38.55622105441184,62.7589112918575,1.9278110527205923,0.9858146733089653,A,433.53620000016235,Correct
9,309,460,B,47.70656872141588,39.16785178891159,2.3853284360707936,0.6152471771846925,B,756.3030000001163,Correct
9,309,461,A,18.35087712472764,31.76359168329129,0.917543856236382,0.4989413314192688,A,480.44209999989107,Correct
9,309,462,B,35.52325295640608,17.249874583397855,1.776162647820304,0.27096039633273994,B,434.3822999999247,Correct
9,309,463,A,25.866124717498213,43.09660016136668,1.2933062358749106,0.6769598123082313,A,433.3070000002408,Correct
9,309,464,A,44.85107284145135,58.530366578819226,2.2425536420725676,0.91939284827968,A,610.4211000001669,Correct
9,309,465,B,77.12112608822034,59.70043867963512,3.8560563044110165,0.9377722978601479,B,457.35689999992246,Correct
9,309,466,B,75.67510345262615,53.38287481543202,3.7837551726313077,0.838536236738324,B,384.2707000003429,Correct
9,309,467,A,30.56508139665995,55.866706869667986,1.5282540698329974,0.8775521794100168,A,395.83840000022974,Correct
9,309,468,A,45.84773440267648,67.00369563165413,2.292386720133824,1.0524915897988556,A,399.19640000016443,Correct
9,309,469,B,58.02267711579261,47.00832002780157,2.9011338557896305,0.7384049642846967,B,428.7046999997983,Correct
9,309,470,B,59.08517506902484,32.90653006664728,2.954258753451242,0.5168945655625536,B,445.8205999999336,Correct
9,309,471,B,60.84644170275925,45.47207074918131,3.0423220851379624,0.7142736170457168,B,398.6406999997598,Correct
9,309,472,B,34.03683606538942,11.938724604508298,1.701841803269471,0.1875330475537749,B,527.254499999799,Correct
9,309,473,B,72.89075075412438,39.947796216515584,3.6445375377062192,0.6274985156045374,B,420.49720000022717,Correct
9,309,474,A,53.248781369209254,62.07855953144462,2.662439068460463,0.9751277328471152,A,1442.317600000024,Correct
9,309,475,A,47.66462908234125,55.664245571908964,2.3832314541170625,0.8743719247816367,A,482.34050000019124,Correct
9,309,476,A,58.87481614810906,86.18932693797692,2.943740807405453,1.3538587816309857,A,666.0745000003772,Correct
9,309,477,A,57.140572105697544,73.48058100663773,2.857028605284877,1.1542302673598142,A,436.00470000001224,Correct
9,309,478,B,70.02588359919157,47.674990984113734,3.5012941799595785,0.7488770071782564,B,499.7316000003593,Correct
9,309,479,B,55.37271862713088,37.52256073321865,2.768635931356544,0.5894030057167826,B,582.5246999997944,Correct
9,309,480,B,80.9639153266602,59.36645099889219,4.04819576633301,0.9325260316390905,B,545.0251000002027,Correct
9,309,481,A,35.612154674652125,52.06266367686011,1.780607733732606,0.8177984086676994,A,584.7739000000729,Correct
9,309,482,A,60.714930939298284,76.05603020890797,3.035746546964914,1.1946853288275432,A,488.80559999997786,Correct
9,309,483,B,59.6683287954016,39.39750817842262,2.98341643977008,0.6188546113153816,B,503.9902000003167,Correct
9,309,484,B,49.911497571451456,23.379962095409468,2.495574878572573,0.3672515858007311,B,467.0051999996758,Correct
9,309,485,A,45.75518893280671,56.04957214593913,2.2877594466403353,0.8804246204526672,A,431.72550000008414,Correct
9,309,486,A,22.189343790775176,44.71800963105744,1.109467189538759,0.7024288527004384,A,480.0294000001486,Correct
9,309,487,A,37.21702949223099,49.48811111170119,1.8608514746115496,0.7773574315427793,A,403.3515000000989,Correct
9,309,488,B,55.60971571157175,47.45069226062099,2.7804857855785876,0.7453537310685849,A,918.1394000002001,Incorrect
9,309,489,A,55.69723175801059,80.91819227571484,2.78486158790053,1.2710599919757604,A,549.8620000003029,Correct
9,309,490,A,27.82509417292853,39.98406823458992,1.3912547086464264,0.6280682751321035,A,511.2733999999364,Correct
9,309,491,A,47.85578810329575,56.178330556866705,2.3927894051647876,0.8824471528419573,A,426.0389999999461,Correct
9,309,492,A,47.81709796669283,70.15495067302814,2.3908548983346414,1.1019913882366976,A,407.8327000001991,Correct
9,309,493,B,45.903752932974506,38.17440289863165,2.295187646648725,0.5996421185075904,B,636.2800000001698,Correct
9,309,494,A,41.36309437866008,55.81187737740796,2.068154718933004,0.876690919759596,A,406.21969999983776,Correct
9,309,495,A,60.14692228386835,75.30011697264734,3.007346114193417,1.1828114714786049,A,1865.010600000005,Correct
9,309,496,A,58.32372036908389,78.04740877255517,2.9161860184541943,1.2259658301578946,A,370.955800000047,Correct
9,309,497,A,65.97198906587236,78.09410787754715,3.2985994532936185,1.2266993779837545,A,370.4305999999633,Correct
9,309,498,A,32.19720742436476,63.20494911401966,1.6098603712182382,0.9928210190356044,A,689.9035000001277,Correct
9,309,499,A,55.06603378406254,72.7373301736313,2.753301689203127,1.1425553105760764,A,587.569700000131,Correct
9,309,500,B,64.10804370853617,33.4556072734011,3.2054021854268084,0.5255194501575107,B,451.8534000003456,Correct
9,309,501,A,33.29451862573067,64.5106807107059,1.6647259312865332,1.013331402994152,A,483.3509000000049,Correct
9,309,502,A,35.781270015686545,59.3509265045125,1.7890635007843272,0.9322821734516211,A,509.28129999965677,Correct
9,309,503,A,44.841811007109115,61.06858123741065,2.242090550355456,0.9592630309030039,A,396.456500000113,Correct
9,309,504,B,74.2627957973684,53.239861623355495,3.71313978986842,0.8362897907703539,B,513.4579000000485,Correct
9,309,505,B,48.93162873629727,19.71414139736803,2.4465814368148635,0.30966900892900917,B,586.8171000001894,Correct
9,309,506,A,51.485244380246804,82.28386384615422,2.5742622190123403,1.2925119108403045,A,442.01109999994515,Correct
9,309,507,B,83.94849170755202,65.99248514941999,4.197424585377601,1.0366075326877566,B,450.3098999998656,Correct
9,309,508,B,87.80318274170405,63.166164302615364,4.3901591370852024,0.9922117886427112,B,457.7838000000156,Correct
9,309,509,B,62.71144119826011,45.82126623658257,3.135572059913006,0.7197587669351492,B,513.5371000001214,Correct
9,309,510,A,56.323628256139955,72.64731477891449,2.8161814128069977,1.1411413520623148,A,1877.6899999998022,Correct
9,309,511,B,74.23867266034469,42.452420795891264,3.711933633017235,0.6668410664973728,B,427.748199999769,Correct
9,309,512,A,17.24569181014791,46.59380078487033,0.8622845905073956,0.7318937112428748,A,499.52239999993253,Correct
9,309,513,A,21.50362014275561,38.282768439047146,1.0751810071377805,0.6013443204359485,A,452.88220000020374,Correct
9,309,514,B,86.98806462281057,58.9092498536703,4.349403231140529,0.9253443328438811,B,412.6565000001392,Correct
9,309,515,B,53.48782388920092,22.15587934198917,2.6743911944600463,0.34802373887307514,B,506.18389999999636,Correct
9,309,516,B,67.97637912033163,53.039430800584924,3.3988189560165813,0.8331414307685091,B,499.85800000013114,Correct
9,309,517,A,43.45746823864039,73.85197119415739,2.172873411932019,1.1600640507834492,A,438.10190000021976,Correct
9,309,518,B,66.41340343953411,41.41243183478269,3.3206701719767056,0.6505049580972069,B,401.4102000001003,Correct
9,309,519,B,51.08053237957431,32.74511615196179,2.5540266189787157,0.5143590817197382,B,472.30939999963084,Correct
9,309,520,B,67.41284773099872,36.35531224042871,3.3706423865499358,0.5710679092674695,B,471.50620000002164,Correct
9,309,521,B,69.32968965757749,52.889611665917286,3.4664844828788746,0.8307880773043138,B,384.8941000001105,Correct
9,309,522,B,73.39767427554209,44.49108915832235,3.6698837137771045,0.69886439424997,B,478.40020000012373,Correct
9,309,523,B,46.835113402663595,33.65797626682999,2.3417556701331796,0.5286982548728635,B,507.98359999998866,Correct
9,309,524,A,42.6414827266612,59.89338108278996,2.13207413633306,0.940803030041734,A,501.9194999999854,Correct
9,309,525,A,27.826262224924687,50.372063140750925,1.3913131112462345,0.7912425175457216,A,375.844799999868,Correct
9,309,526,B,62.83334205108777,33.464423507859316,3.141667102554388,0.525657935244542,B,413.12740000012127,Correct
9,309,527,A,46.15916001424927,57.61070247409163,2.307958000712463,0.904946798303768,A,512.7511000000595,Correct
9,309,528,A,36.21883714914065,63.80547144059684,1.8109418574570324,1.002254001683062,A,446.7805999997836,Correct
9,309,529,B,74.01853002416023,54.905547735777944,3.700926501208011,0.8624543270402185,B,497.57450000015524,Correct
9,309,530,A,49.027995038517574,68.83052700659248,2.451399751925879,1.081187389933124,A,495.94569999999294,Correct
9,309,531,A,22.070267083418376,37.358555675625254,1.1035133541709188,0.5868268202963478,A,500.3687000003083,Correct
9,309,532,A,45.96931734678444,71.69959941301327,2.298465867339222,1.1262546739062678,A,393.0638000001636,Correct
9,309,533,A,28.350598695970064,60.89738315957855,1.417529934798503,0.9565738577848738,A,435.01089999972464,Correct
9,309,534,B,56.53810410861528,39.97384839607814,2.826905205430764,0.6279077422841561,B,487.7234000000499,Correct
9,309,535,B,77.52531665052823,52.17381762265271,3.8762658325264114,0.8195444107652973,B,459.35229999986404,Correct
9,309,536,A,35.4766914464374,49.22729299747325,1.77383457232187,0.7732605101848711,A,453.57030000013765,Correct
9,309,537,A,36.009579085884766,64.78179012845885,1.800478954294238,1.0175899797698105,A,428.1998999999814,Correct
9,309,538,B,88.27999665629494,63.952990670945574,4.413999832814747,1.004571228334696,B,462.9577999999128,Correct
9,309,539,A,39.47480670298685,52.44527732398349,1.9737403351493423,0.8238084897825295,A,429.34969999987516,Correct
9,309,540,B,62.97706604382212,54.89043065043477,3.148853302191106,0.8622168684189293,B,1718.7147000004188,Correct
9,309,541,B,63.19665094693313,50.38782313817546,3.1598325473466566,0.7914900750063691,B,512.6912999999149,Correct
9,309,542,B,52.0471749103145,42.514738504065654,2.6023587455157253,0.6678199507683189,B,1480.9983999998622,Correct
9,309,543,A,53.99382928571482,62.37495978799791,2.699691464285741,0.979783577189665,A,416.4654999999584,Correct
9,309,544,A,67.6440668585741,83.20283744765207,3.382203342928705,1.3069471144168474,A,582.2210999999697,Correct
9,309,545,A,11.342485203947309,35.73838954443411,0.5671242601973654,0.5613773102196224,A,492.02939999986484,Correct
9,309,546,A,21.41230290223539,45.67506594225724,1.0706151451117694,0.7174622580821236,A,376.22800000008283,Correct
9,309,547,B,42.58293668501098,28.022870612963054,2.1291468342505486,0.4401822222509102,B,424.24179999989065,Correct
9,309,548,A,33.82863233162897,46.264620658399664,1.6914316165814482,0.7267229619077347,A,424.2618000002949,Correct
9,309,549,B,65.60824222100871,32.67675242572864,3.2804121110504356,0.5132852268192077,B,440.51790000003166,Correct
