subject,day,trial,cat,x,y,xt,yt,resp,rt,fb
12,412,0,A,20.443645320715554,37.768992503863956,1.0221822660357776,0.5932739469181348,A,609.435499999563,Correct
12,412,1,A,14.15095095657567,39.127745098365,0.7075475478287835,0.6146171827627877,A,413.05800000009185,Correct
12,412,2,A,59.97600892955524,73.36739014029999,2.9988004464777624,1.1524522693891133,A,2271.8261999998504,Correct
12,412,3,B,37.32162306123445,27.934687372198233,1.8660811530617223,0.43879704314412765,B,551.8681999992623,Correct
12,412,4,B,67.80817850432861,34.77795808493437,3.3904089252164304,0.5462908881324178,B,651.7605999997613,Correct
12,412,5,A,39.34056752686051,47.945226224543646,1.9670283763430256,0.753121852408635,A,653.1513999998424,Correct
12,412,6,A,34.951506210735644,57.33018754196186,1.7475753105367824,0.9005404800537623,A,520.2341999993223,Correct
12,412,7,A,37.92771336369732,48.69794716141086,1.8963856681848659,0.7649455652359614,A,945.589399999335,Correct
12,412,8,A,39.40068136861309,69.14701474200838,1.9700340684306548,1.0861587676557931,A,2782.561099999839,Correct
12,412,9,A,28.9583284715861,60.170335056877114,1.447916423579305,0.9451534128936078,A,2654.8806000000695,Correct
12,412,10,A,68.06253508059281,82.60653329128093,3.4031267540296404,1.2975803906320442,A,19003.046699999686,Correct
12,412,11,B,61.332007695983194,34.35798868272691,3.0666003847991594,0.5396940241888807,B,568.9657000002626,Correct
12,412,12,B,48.075051134032556,21.783441583395486,2.403752556701628,0.34217350024148835,B,458.07500000046275,Correct
12,412,13,A,22.31475454079561,53.156493853324754,1.1157377270397806,0.8349802529009802,A,462.51200000006065,Correct
12,412,14,B,43.462043443871295,27.22786309261724,2.173102172193565,0.42769427332357496,B,542.7883000002112,Correct
12,412,15,A,43.90178442466855,64.93406752455243,2.1950892212334274,1.0199819475141874,A,556.0695000003761,Correct
12,412,16,A,49.30113029990338,80.05380174818237,2.465056514995169,1.2574821773201172,A,503.9554999993925,Correct
12,412,17,A,49.84523373339178,56.72457676772529,2.492261686669589,0.89102756825738,A,1077.4873999998817,Correct
12,412,18,A,52.62365395572552,71.2564724612453,2.6311826977862762,1.119294052024858,A,797.7840000003198,Correct
12,412,19,A,49.83613544266374,59.87172815360831,2.4918067721331867,0.9404629066255054,A,858.774799999992,Correct
12,412,20,A,44.48742866477249,65.0233577139875,2.2243714332386246,1.0213845145300215,A,480.0233999994816,Correct
12,412,21,A,26.544531818485225,41.15032163630043,1.327226590924261,0.6463877407272928,A,423.7700000003315,Correct
12,412,22,B,49.05230199309039,32.17042806882102,2.4526150996545195,0.505331902419235,B,933.5670999998911,Correct
12,412,23,B,56.56968314543767,47.310213583176754,2.8284841572718835,0.7431470971633606,B,7136.076699999649,Correct
12,412,24,B,67.01307159990948,52.91317036739037,3.350653579995474,0.8311581365216938,B,1315.989200000331,Correct
12,412,25,B,59.151363723740985,39.69392416478057,2.957568186187049,0.623510702741125,B,557.9280000001745,Correct
12,412,26,B,65.52668860086055,54.498214627169176,3.2763344300430277,0.8560559535323724,B,600.7178999998359,Correct
12,412,27,A,35.25890726993127,46.419499427927065,1.7629453634965637,0.7291557919304564,A,1189.9827999995978,Correct
12,412,28,A,61.09700370646755,82.49979432611786,3.054850185323377,1.2959037388880041,A,578.6837000005107,Correct
12,412,29,B,59.60480278256253,31.28008497002537,2.980240139128126,0.49134642572748105,B,489.5935999993526,Correct
12,412,30,A,37.97894036912564,57.6247095712564,1.898947018456282,0.9051668212715228,A,1699.0084999997634,Correct
12,412,31,B,76.25745826864188,49.55850612540006,3.812872913432094,0.7784631938322079,B,437.7906999998231,Correct
12,412,32,A,44.12900842054914,56.15438215637257,2.206450421027457,0.8820709722466691,A,597.785599999952,Correct
12,412,33,A,10.117609874030443,33.478862647301035,0.5058804937015221,0.5258847447165133,A,512.0084999998653,Correct
12,412,34,A,36.994073536708584,65.69959869675856,1.8497036768354291,1.0320068830476712,A,584.3282000005274,Correct
12,412,35,B,82.49121679595581,62.81927725639305,4.12456083979779,0.986762899662524,B,659.8916000002646,Correct
12,412,36,B,65.37946046269248,45.6937618824801,3.268973023134624,0.7177559332244041,B,417.9967999998553,Correct
12,412,37,B,65.84493840661301,54.843278088825336,3.2922469203306504,0.8614761977131787,B,556.2159999999494,Correct
12,412,38,B,42.89746871874806,34.90602916825882,2.144873435937403,0.5483026240049648,B,484.2523999996047,Correct
12,412,39,B,85.45857445645922,68.07988718289448,4.272928722822961,1.0693963671550162,B,1264.9639000001116,Correct
12,412,40,A,41.459552888252034,62.683272407852364,2.072977644412602,0.9846265404973837,A,587.1527000008427,Correct
12,412,41,B,48.44199603548722,39.177489404647616,2.422099801774361,0.6153985644986645,B,624.6856000007028,Correct
12,412,42,B,47.86674812111297,32.625657401466434,2.3933374060556485,0.5124826280549221,B,431.63840000033815,Correct
12,412,43,A,32.646262307262745,65.73561080022547,1.6323131153631374,1.032572559846131,A,631.6436000006433,Correct
12,412,44,B,70.83512457176052,52.0349841578293,3.5417562285880257,0.8173636197994889,B,550.5788000000393,Correct
12,412,45,A,23.47671006483864,41.62049811111146,1.173835503241932,0.6537732555230781,A,458.45569999983127,Correct
12,412,46,A,52.30070776644979,61.927276868722245,2.61503538832249,0.9727513903379948,A,769.0716999995857,Correct
12,412,47,A,56.24161570381797,80.1793654344369,2.8120807851908984,1.2594545270915918,A,635.0022999995417,Correct
12,412,48,A,18.103992304652966,39.4073694800266,0.9051996152326482,0.619009512278751,A,488.29010000008566,Correct
12,412,49,B,48.15197788688418,39.61124364646463,2.4075988943442095,0.6222119601964432,B,461.5407999999661,Correct
12,412,50,A,37.64733802633157,64.46824893286684,1.8823669013165785,1.0126648861864624,A,604.747800000041,Correct
12,412,51,A,13.762866570159808,38.547031399776415,0.6881433285079904,0.6054953533161633,A,491.084299999784,Correct
12,412,52,B,73.53435055465309,52.30781033821162,3.6767175277326545,0.8216491634194691,B,470.41820000049483,Correct
12,412,53,A,38.969217908065005,72.07593243796589,1.94846089540325,1.1321660992387397,A,463.8155000002371,Correct
12,412,54,B,59.19568085612694,45.35436123966271,2.9597840428063473,0.7124246403939102,B,528.6597000003894,Correct
12,412,55,B,87.31675974171743,61.51084158133468,4.365837987085872,0.966210040140233,B,546.3330000002316,Correct
12,412,56,A,62.36921434166857,85.39427351902454,3.1184607170834284,1.3413701117300245,A,494.7632000003068,Correct
12,412,57,A,23.308911101521396,40.398047709855085,1.1654455550760698,0.6345710495232534,A,439.8896999991848,Correct
12,412,58,B,48.10650593121224,22.63633496269562,2.405325296560612,0.35557071811501173,B,445.95010000011825,Correct
12,412,59,B,53.17230336227829,32.45657935423482,2.658615168113915,0.5098267562995912,B,381.4283000001524,Correct
12,412,60,B,42.46285788750565,18.146072247373368,2.123142894375283,0.285037836319289,B,470.5533000005744,Correct
12,412,61,A,62.10156062283471,78.44296924050994,3.1050780311417356,1.2321792794587807,A,549.1920000004029,Correct
12,412,62,A,49.097733416382056,59.69920493359702,2.4548866708191026,0.9377529182226997,A,1509.1868999998042,Correct
12,412,63,A,54.006684958877415,68.26664816036023,2.700334247943871,1.0723300017289343,A,582.0488999997906,Correct
12,412,64,B,40.67281208741823,32.292713382985724,2.0336406043709117,0.5072527556423438,B,428.67070000011154,Correct
12,412,65,B,72.94401784746798,41.2073005690007,3.647200892373399,0.6472827637091955,B,769.396699999561,Correct
12,412,66,A,21.708053298695887,53.837222445179975,1.0854026649347943,0.8456731126172847,A,527.4919000003138,Correct
12,412,67,A,48.738181667213745,67.29214670255791,2.4369090833606872,1.0570225686252128,A,823.2312000000093,Correct
12,412,68,B,81.34874576370157,66.45952723694204,4.067437288185078,1.0439438126431393,B,599.2384000001039,Correct
12,412,69,B,79.53554733216748,62.729619835083156,3.976777366608374,0.985354564181889,B,515.3895000003104,Correct
12,412,70,A,38.024112644991675,55.32269225527296,1.9012056322495838,0.8690068178298722,A,1091.9590000003154,Correct
12,412,71,A,38.19874785904221,61.41291751785728,1.9099373929521104,0.9646718525480819,A,3160.6762000001254,Correct
12,412,72,B,63.02978745395936,43.73865860954052,3.151489372697968,0.6870452428280223,B,455.89860000018234,Correct
12,412,73,A,69.35559209183376,88.11979399783881,3.4677796045916875,1.3841824872972819,A,1341.6641000003438,Correct
12,412,74,A,17.268475769463745,36.127976291965595,0.8634237884731872,0.5674969245395267,A,687.0886999995491,Correct
12,412,75,B,77.70861721504164,63.21925490216725,3.885430860752082,0.9930457338303457,B,1255.9408999995867,Correct
12,412,76,A,25.330254128961283,55.00596534601021,1.2665127064480641,0.8640316831732021,A,596.9251999995322,Correct
12,412,77,A,58.44764683400653,76.17796106607871,2.922382341700326,1.1966006142532106,A,595.5262999996194,Correct
12,412,78,A,54.540474664569096,65.04046030570497,2.727023733228455,1.0216531614125064,A,1135.432199999741,Correct
12,412,79,A,32.62518368673009,65.16237899168345,1.6312591843365043,1.023568255653533,A,516.7080999999598,Correct
12,412,80,B,33.414313844256206,20.796177456093872,1.6707156922128104,0.32666559159407094,B,553.0979000004663,Correct
12,412,81,B,66.0180705414013,48.793947405856386,3.300903527070065,0.7664535335494258,B,1104.841000000306,Correct
12,412,82,B,66.0999512104073,45.61123715758701,3.304997560520365,0.7164596378770857,B,489.43599999984144,Correct
12,412,83,A,14.949548065191205,44.084064608910865,0.7474774032595604,0.6924708675786608,A,461.87900000040827,Correct
12,412,84,B,56.13914265972171,33.65407621010742,2.8069571329860854,0.5286369929251225,B,504.09990000025573,Correct
12,412,85,A,53.47466716980384,65.1538994851966,2.673733358490192,1.0234350598771074,A,2531.6757000000507,Correct
12,412,86,A,26.58638016633048,40.88547090953986,1.329319008316524,0.6422274752398481,A,919.8661000000357,Correct
12,412,87,B,44.12315601278216,26.257001861107927,2.206157800639108,0.41244402076075104,B,652.8370999994877,Correct
12,412,88,B,64.7118388878,43.578063467241655,3.2355919443900003,0.6845226202317806,B,4191.34910000048,Correct
12,412,89,B,47.539416450168495,36.99929450910588,2.3769708225084245,0.581183559089061,B,927.6352000006227,Correct
12,412,90,A,15.869085664058481,45.331824033698744,0.793454283202924,0.7120706267904661,A,562.4261000002662,Correct
12,412,91,A,13.037248824008401,37.135022013415146,0.65186244120042,0.5833155617412012,A,452.109400000154,Correct
12,412,92,A,46.2812035506413,69.39245934139491,2.314060177532065,1.0900142024072732,A,943.1306000005861,Correct
12,412,93,A,23.737245518034925,46.471768225145254,1.1868622759017462,0.7299768282772197,A,538.4874000001219,Correct
12,412,94,A,31.99692348265421,47.39321393483189,1.5998461741327106,0.7444508636383864,A,515.0444000000789,Correct
12,412,95,B,64.08625352755021,36.98893656876308,3.2043126763775103,0.5810208569426247,B,1123.6211999994339,Correct
12,412,96,B,80.24976238976436,62.992828851287356,4.012488119488218,0.9894890417402176,B,1125.2979999999297,Correct
12,412,97,B,70.58175878540084,52.57362637576508,3.529087939270042,0.8258245919733908,B,390.9911999999167,Correct
12,412,98,A,19.254307639739007,49.87417699267512,0.9627153819869504,0.7834217402201261,A,530.8590000004187,Correct
12,412,99,A,30.5040946178582,55.944835130617825,1.52520473089291,0.8787794152632057,A,576.1165999992954,Correct
12,412,100,B,45.57912390811825,21.661496199986665,2.2789561954059123,0.3402579866382066,B,500.53200000002107,Correct
12,412,101,A,42.84240755009134,50.83948164786293,2.142120377504567,0.7985847102861965,B,1190.7690999996703,Incorrect
12,412,102,A,58.54031846973818,72.66288930601138,2.927015923486909,1.1413859961618686,A,829.9240999995163,Correct
12,412,103,A,38.08064096114568,51.44375594366935,1.9040320480572843,0.8080766287284894,A,534.2415000004621,Correct
12,412,104,B,37.577433339074716,22.67337499600924,1.878871666953736,0.3561525415977457,B,604.0603000001283,Correct
12,412,105,A,40.99114384786205,69.82117538819715,2.0495571923931024,1.0967484583228233,A,671.9319000003452,Correct
12,412,106,B,45.5773617531256,36.72973332159429,2.27886808765628,0.5769493018571642,B,799.3759000000864,Correct
12,412,107,B,68.98025145654097,55.201668275737454,3.449012572827048,0.8671057776047876,B,973.4719999996742,Correct
12,412,108,A,44.24113736932861,72.87307368333721,2.212056868466431,1.1446875646403993,A,2085.2316999998948,Correct
12,412,109,A,42.70226449286912,69.37579952072355,2.135113224643456,1.089752510556117,A,1595.0616000000082,Correct
12,412,110,A,27.92864418447082,51.5886535002193,1.3964322092235408,0.8103526742243916,A,1497.7010000002338,Correct
12,412,111,A,18.65925251997261,32.508575077833804,0.9329626259986306,0.5106435032159745,A,763.3768000005148,Correct
12,412,112,A,40.60322548974565,60.782820098809054,2.0301612744872823,0.9547743054344427,A,871.5053000005355,Correct
12,412,113,B,64.38119903585788,48.90040615045129,3.219059951792894,0.7681257835990746,A,449.4899000001169,Incorrect
12,412,114,A,42.259441700882,53.63865763444822,2.1129720850441003,0.8425540638640031,B,604.2403999999806,Incorrect
12,412,115,B,48.77157876894166,42.01926141099606,2.438578938447083,0.6600370147902714,A,616.9607000001633,Incorrect
12,412,116,B,47.80723103325099,38.02108091199962,2.3903615516625494,0.5972337423734057,B,1312.9593999992721,Correct
12,412,117,B,54.479175465628124,22.565261136768967,2.723958773281406,0.3544542930680432,B,489.54129999947327,Correct
12,412,118,B,43.02913786150229,22.366782030367986,2.151456893075115,0.3513365905552413,B,450.1211000006151,Correct
12,412,119,B,72.54349954812908,60.01646425613767,3.627174977406454,0.9427364160075824,A,1354.6917000003305,Incorrect
12,412,120,A,26.081165332076985,40.341903124153006,1.3040582666038492,0.6336891324333511,A,634.7051000002466,Correct
12,412,121,B,87.29206594663606,60.60270677107908,4.3646032973318025,0.9519450918983923,A,1165.46229999949,Incorrect
12,412,122,A,39.28157054311287,69.48201601213665,1.9640785271556436,1.0914209553016845,A,593.0702000005112,Correct
12,412,123,B,56.93908323520628,47.0209096341277,2.8469541617603142,0.7386027213584255,B,1382.3487999998179,Correct
12,412,124,A,41.0706701395345,52.06497542464396,2.0535335069767253,0.817834721516973,A,2998.638499999288,Correct
12,412,125,B,34.45311226100131,20.210208874992293,1.7226556130500654,0.3174612186459551,B,1198.9346000000296,Correct
12,412,126,A,27.182123827034125,39.01849487681236,1.3591061913517064,0.6129010842956235,A,751.5202000004138,Correct
12,412,127,B,44.895409148371876,30.17686820029592,2.2447704574185936,0.4740171372319855,B,531.3728999999512,Correct
12,412,128,B,40.92748540094908,20.85682909350734,2.046374270047454,0.32761830528670266,B,492.23429999983637,Correct
12,412,129,B,87.55271783257434,61.97816020245564,4.377635891628717,0.9735506638752295,B,693.6345000003712,Correct
12,412,130,A,26.777665136344286,39.1343428803186,1.3388832568172142,0.6147208204793647,A,704.959300000155,Correct
12,412,131,B,86.32400779479156,68.4772552004749,4.316200389739578,1.0756382093790269,B,1278.2007999994676,Correct
12,412,132,B,64.7116178009915,49.25800783966014,3.2355808900495755,0.7737429777977237,B,666.3768999997046,Correct
12,412,133,A,47.3709026430603,61.949455998289274,2.368545132153015,0.9730997792905486,A,815.6197999996948,Correct
12,412,134,B,64.51304319345857,45.92059484294332,3.2256521596729284,0.7213190170353202,B,481.8457999999737,Correct
12,412,135,B,75.2643558766101,58.22689534325966,3.763217793830505,0.9146259332586314,B,427.81139999988227,Correct
12,412,136,A,37.15200792664898,64.6249535643804,1.857600396332449,1.015126396782195,A,729.8937000005026,Correct
12,412,137,B,45.8169044432011,18.6998709468729,2.2908452221600553,0.29373688594886554,B,1223.7120999998297,Correct
12,412,138,B,86.63753492405448,62.91025508823544,4.331876746202724,0.9881919761033018,B,678.6112999998295,Correct
12,412,139,B,76.44807195780055,64.95960705368228,3.8224035978900277,1.0203831214996397,B,558.9287000002514,Correct
12,412,140,A,51.259228062265144,75.5019736262202,2.562961403113257,1.1859822283783186,A,550.0862000008055,Correct
12,412,141,B,46.194024548293235,25.90544587179034,2.3097012274146618,0.4069217921939228,B,483.6468000003151,Correct
12,412,142,A,59.87939176626058,76.63229769103788,2.9939695883130293,1.2037373172693535,A,549.602899999627,Correct
12,412,143,B,55.79372455006161,34.64710390005612,2.7896862275030805,0.5442354354028929,B,1153.5025999992286,Correct
12,412,144,A,50.68369772217112,59.05867354437259,2.534184886108556,0.927691474688794,A,955.9666999994079,Correct
12,412,145,B,66.09999342854377,55.859522975581,3.3049996714271885,0.8774393350655776,B,734.7657999998773,Correct
12,412,146,B,74.5218031178128,56.178920693635646,3.7260901558906396,0.8824564226886468,B,1002.0725999993374,Correct
12,412,147,A,24.61698810186312,37.84867214691321,1.230849405093156,0.5945255518243557,A,482.9101000004812,Correct
12,412,148,B,46.78930087970167,35.081789224898586,2.3394650439850837,0.5510634565186349,B,898.1178000003638,Correct
12,412,149,A,46.56433935257655,53.19951277933465,2.3282169676288276,0.8356559926105703,A,1522.396999999728,Correct
12,412,150,B,70.57142646978423,45.72053059996943,3.5285713234892113,0.7181764152554564,B,726.8363000002864,Correct
12,412,151,A,14.782284840637132,41.7298675748073,0.7391142420318566,0.6554912270414477,A,499.27649999972346,Correct
12,412,152,B,72.70001559475216,51.24750657433927,3.6350007797376076,0.8049939508436943,B,409.3794999998863,Correct
12,412,153,B,65.83429476075221,32.56661879039274,3.2917147380376104,0.5115552517207858,B,352.0147999997789,Correct
12,412,154,A,17.23679794221195,46.13504313004949,0.8618398971105975,0.7246875628520586,A,508.9605000002848,Correct
12,412,155,A,36.68645370296763,53.812708609273145,1.8343226851483818,0.8452880501833038,A,664.2984999998589,Correct
12,412,156,B,67.2420546419275,46.822103198850435,3.362102732096375,0.7354798771756583,B,424.0529999997307,Correct
12,412,157,B,56.441284478453944,47.84232909257848,2.822064223922697,0.7515055480393489,A,1692.7381999994395,Incorrect
12,412,158,A,37.10669122722861,48.38868687225025,1.8553345613614305,0.7600877159735913,B,737.7292000001034,Incorrect
12,412,159,B,54.863311680740644,39.784700175819715,2.743165584037032,0.6249366089881389,B,1014.7117999995316,Correct
12,412,160,B,33.54838207834679,16.226368223472125,1.6774191039173394,0.25488319602651444,B,572.5422999994407,Correct
12,412,161,B,62.77504476699615,46.924036997916964,3.1387522383498077,0.737081049547158,B,383.5748000001331,Correct
12,412,162,A,63.72175404037844,79.77614020648163,3.1860877020189218,1.25312068002216,A,747.701500000403,Correct
12,412,163,B,42.422251738590305,29.621216705610777,2.1211125869295153,0.46528898396369034,B,437.67920000027516,Correct
12,412,164,A,48.1569815685738,54.986691807230464,2.40784907842869,0.8637289351340065,A,754.9317000002702,Correct
12,412,165,A,43.083214988290834,60.10823435552821,2.1541607494145416,0.9441779373579052,A,538.7042000002111,Correct
12,412,166,B,81.46397493001949,62.18145164504879,4.0731987465009745,0.9767439583881711,B,497.867000000042,Correct
12,412,167,B,73.4498434118364,57.65262639814915,3.67249217059182,0.9056053377629119,B,878.5455999995975,Correct
12,412,168,A,28.808169602191256,54.09079945421067,1.4404084801095627,0.849656290960735,A,610.7386000003316,Correct
12,412,169,B,39.594024099373456,24.93761739081735,1.9797012049686729,0.3917191779651243,B,597.2154000000955,Correct
12,412,170,B,55.63784334982856,28.849488356165896,2.7818921674914283,0.4531667033977753,B,439.467400000467,Correct
12,412,171,B,78.5560162213163,54.939246858636295,3.9278008110658154,0.8629836716242396,B,411.34859999965556,Correct
12,412,172,B,73.51202203030958,50.7264282573694,3.675601101515479,0.796808871781007,B,458.77679999921384,Correct
12,412,173,A,30.6084842205752,50.71085873524222,1.53042421102876,0.7965643062993337,A,753.9780999995855,Correct
12,412,174,B,45.7591119442919,32.61374306812043,2.2879555972145953,0.5122954781443608,B,579.3679999997039,Correct
12,412,175,B,75.46542468838574,50.59489422420106,3.773271234419287,0.7947427400195137,B,952.0516000002317,Correct
12,412,176,A,25.29183172830573,42.28297194382983,1.2645915864152866,0.6641793701533956,A,469.34260000034556,Correct
12,412,177,B,58.30383891064738,34.32737219627467,2.915191945532369,0.5392131015442952,B,480.11899999983143,Correct
12,412,178,A,28.676954666100197,56.42388655675207,1.43384773330501,0.8863043374683809,A,725.8859000003213,Correct
12,412,179,A,13.928512426517543,39.5410037421166,0.6964256213258772,0.6211086343590002,A,421.9388000001345,Correct
12,412,180,A,13.21617019463958,37.630610688190906,0.660808509731979,0.5911002504405904,A,427.99639999975625,Correct
12,412,181,B,43.50178037098033,17.544333555534504,2.1750890185490164,0.27558574705098043,B,1076.3256999998703,Correct
12,412,182,B,73.55992168470657,49.360560576639365,3.6779960842353283,0.775353872423221,B,2268.595099999402,Correct
12,412,183,A,66.76603054527303,89.30597657009403,3.338301527263651,1.402814999571348,A,851.266200000282,Correct
12,412,184,B,74.7630874310237,45.062875332446936,3.738154371551185,0.70784599047024,B,473.0622000006406,Correct
12,412,185,B,60.77400041214362,48.47244011399502,3.038700020607181,0.7614033088184897,B,544.56349999964,Correct
12,412,186,A,50.678798440645465,66.31068345177847,2.5339399220322734,1.0416057799331275,A,938.2026000002952,Correct
12,412,187,A,47.41717717369072,61.46837016071578,2.370858858684536,0.9655429006252136,B,739.0536000002612,Incorrect
12,412,188,A,35.7749787097054,50.1452062643049,1.7887489354852701,0.7876790580634258,A,562.8287999998065,Correct
12,412,189,B,77.44277597235676,50.54205103335731,3.8721387986178377,0.7939126811187786,B,493.285300000025,Correct
12,412,190,A,15.511706064861421,32.70915664153856,0.775585303243071,0.5137942310508767,A,473.9901999992071,Correct
12,412,191,A,29.9112218322722,53.760556105492505,1.4955610916136102,0.8444688405695858,A,1877.0455000003494,Correct
12,412,192,A,22.136026632501114,33.72597307011115,1.1068013316250558,0.529766346161142,A,530.0227999996423,Correct
12,412,193,B,78.4208147525998,47.920191891366386,3.9210407376299896,0.752728614022649,B,776.1555999995835,Correct
12,412,194,B,45.56886603730385,32.81291307816707,2.2784433018651926,0.5154240333462506,B,632.6949000003879,Correct
12,412,195,A,18.92400781248402,41.64474010051851,0.946200390624201,0.6541540478022262,A,551.34309999994,Correct
12,412,196,A,48.14573731047078,75.89429618119897,2.407286865523539,1.1921448166611128,A,901.7005999994581,Correct
12,412,197,A,45.93101052832155,54.67037465178565,2.2965505264160777,0.8587602368752572,A,857.8322000003027,Correct
12,412,198,B,43.66714208809768,33.670692753052215,2.183357104404884,0.5288980049713397,B,457.87319999999454,Correct
12,412,199,B,67.19099029614706,36.70787335367377,3.359549514807353,0.5766059262840301,B,405.7553000002372,Correct
12,412,200,A,25.184818589516038,42.77620780311689,1.259240929475802,0.6719271009135119,A,791.692900000271,Correct
12,412,201,A,55.229073686918774,80.22848998901625,2.761453684345939,1.2602261737904785,A,905.3962999996656,Correct
12,412,202,B,83.78722283366115,56.15469928670113,4.189361141683057,0.8820759537182212,B,756.95369999994,Correct
12,412,203,B,59.753423863917135,50.878143922275925,2.987671193195857,0.7991920158725312,B,1086.6487000002962,Correct
12,412,204,B,82.63813859372549,60.870748369615434,4.1319069296862745,0.9561554794824837,B,886.9503000005352,Correct
12,412,205,A,33.81760912852009,49.42394485855489,1.6908804564260043,0.7763495103953153,A,558.1166000001758,Correct
12,412,206,B,81.44474086534422,60.18927668808985,4.072237043267211,0.9454509473409323,B,645.8793000001606,Correct
12,412,207,A,63.56245598899008,76.32346047889907,3.1781227994495045,1.198886113685301,A,689.4547000001694,Correct
12,412,208,A,22.736019349189963,48.83809178352938,1.136800967459498,0.7671469518123996,A,831.2675000006493,Correct
12,412,209,A,57.54712525067115,78.11501424411259,2.8773562625335574,1.2270277744218308,A,932.5456999995367,Correct
12,412,210,A,19.76346661821421,40.32169650385586,0.9881733309107105,0.6333717275839541,A,866.638000000421,Correct
12,412,211,B,56.30233060099558,42.2386642563047,2.8151165300497794,0.6634833866252632,B,1061.9515000007596,Correct
12,412,212,A,30.306933440607327,62.59913546049416,1.5153466720303663,0.9833049204188039,A,704.4580000001588,Correct
12,412,213,A,25.176772994664915,46.437231196313675,1.2588386497332458,0.729434321896949,A,637.4386999996204,Correct
12,412,214,A,57.03385119314308,70.77744683846414,2.851692559657154,1.1117695351378054,A,702.2766000000047,Correct
12,412,215,B,56.94074814276741,28.240780397110946,2.847037407138371,0.4436051411360319,B,803.2777000007627,Correct
12,412,216,A,39.807418101097745,60.1600446878513,1.9903709050548872,0.9449917721549365,A,1757.7750999998898,Correct
12,412,217,B,72.92500879477383,62.14114584163508,3.6462504397386915,0.9761108363086635,B,537.1065999997882,Correct
12,412,218,A,38.84615894243484,62.4235876481277,1.942307947121742,0.9805474218303829,A,2242.4964000001637,Correct
12,412,219,B,59.08872857531817,47.29024205065392,2.9544364287659084,0.7428333850640875,B,727.2009999996953,Correct
12,412,220,B,65.12151902824301,53.10787235029265,3.256075951412151,0.8342165081173195,B,533.3023000002868,Correct
12,412,221,A,12.366820629423735,36.457748029766506,0.6183410314711868,0.572676966883711,A,470.14970000054745,Correct
12,412,222,B,68.41685493435207,43.88347103916754,3.4208427467176032,0.689319951153346,B,374.11749999955646,Correct
12,412,223,B,82.08140510941587,56.55670226069054,4.104070255470793,0.8883906016672533,B,469.8780999997325,Correct
12,412,224,A,65.78594861181634,76.60707162172409,3.289297430590817,1.2033410670991775,B,749.917799999821,Incorrect
12,412,225,A,20.76674604610332,33.0416372788112,1.038337302305166,0.5190168246884596,A,1169.796199999837,Correct
12,412,226,A,57.55939453345805,65.57500644061993,2.877969726672902,1.0300497924647747,A,1079.5987999999852,Correct
12,412,227,A,28.428498668445073,54.18457911954604,1.4214249334222535,0.8511293784991036,A,771.2126999995235,Correct
12,412,228,B,70.65785425515311,53.74556324001923,3.5328927127576555,0.8442333331894503,B,605.9777000000395,Correct
12,412,229,B,74.82407781342856,47.89609280392875,3.7412038906714282,0.7523500664423877,B,517.1766000003117,Correct
12,412,230,B,54.93067583325121,47.7151484763748,2.7465337916625607,0.7495077995916263,B,589.4595999998273,Correct
12,412,231,B,85.3704982469543,66.02834499852338,4.268524912347715,1.0371708178802672,B,504.75679999999556,Correct
12,412,232,B,65.03117391909517,46.01174763225961,3.2515586959547584,0.7227508417016717,B,422.8664000002027,Correct
12,412,233,A,26.408165280261542,45.12627045675543,1.320408264013077,0.7088417987542448,A,485.50280000017665,Correct
12,412,234,B,74.50338314663729,44.88720781021995,3.7251691573318646,0.7050866114837269,B,524.1293999997652,Correct
12,412,235,B,52.69404627549885,40.86960710638713,2.634702313774943,0.641978287202635,B,497.7483000002394,Correct
12,412,236,A,19.161142938452134,32.19258063668032,0.9580571469226067,0.5056798741414595,A,487.4912999994194,Correct
12,412,237,A,18.82230673675348,32.82723240346495,0.9411153368376739,0.5156489607820514,A,1091.1274000000049,Correct
12,412,238,A,20.796350191544825,51.296228659381285,1.0398175095772413,0.8057592755658723,A,463.5459000000992,Correct
12,412,239,B,39.730320020486474,25.654528653144254,1.986516001024324,0.40298039374013417,B,2720.377399999961,Correct
12,412,240,A,21.121733518595224,45.595712330278666,1.0560866759297611,0.7162157744599851,A,1509.4325999998546,Correct
12,412,241,B,72.01393661818017,57.86002671575652,3.600696830909009,0.9088631743336493,B,1317.419100000734,Correct
12,412,242,A,28.605783172622274,47.11946556906628,1.4302891586311137,0.740150834364279,A,1055.9053000006315,Correct
12,412,243,A,47.67283858419688,65.34482031142608,2.383641929209844,1.0264340372026064,A,2219.5197999999436,Correct
12,412,244,A,31.890397851999094,47.102882755563435,1.5945198925999546,0.7398903521388972,A,2320.7500999997137,Correct
12,412,245,A,12.623218711142254,31.3896776924969,0.6311609355571127,0.4930679041864984,A,502.5636000000304,Correct
12,412,246,B,70.98370209183138,62.01962192451644,3.5491851045915688,0.9742019430823865,B,744.252200000119,Correct
12,412,247,A,29.381898648212676,48.06762140453219,1.469094932410634,0.7550444314000692,A,623.6933000000136,Correct
12,412,248,B,41.29961454699189,29.689653358571018,2.0649807273495946,0.4663639843945712,B,1846.0805000004257,Correct
12,412,249,B,63.190557948217,33.45830544581383,3.15952789741085,0.5255618329506604,B,889.1590000002907,Correct
12,412,250,A,43.26146204146319,71.25859057997235,2.1630731020731595,1.11932732335602,A,904.8853000003874,Correct
12,412,251,B,63.26999345369655,53.84892000770407,3.1634996726848277,0.8458568574997377,B,488.8906999995015,Correct
12,412,252,A,28.106379485282012,41.74843304154146,1.4053189742641008,0.6557828527109602,A,803.6463999997068,Correct
12,412,253,B,73.2510713489726,54.3433270166421,3.66255356744863,0.8536229846355528,B,471.01349999957165,Correct
12,412,254,A,16.346063832097567,43.92486251897087,0.8173031916048784,0.6899701269977027,A,423.8322999999582,Correct
12,412,255,A,35.11121226756006,46.31699857443115,1.755560613378003,0.7275457122888092,A,473.7943999998606,Correct
12,412,256,A,21.702818419360074,46.66833034223361,1.0851409209680036,0.7330644187923139,A,436.56129999999393,Correct
12,412,257,B,84.94347981372627,66.66411087299748,4.2471739906863135,1.0471574048835217,B,563.7664000005316,Correct
12,412,258,B,59.72112933346763,48.891696620704884,2.9860564666733813,0.7679889746257369,B,423.3707000003051,Correct
12,412,259,B,59.46595858989402,31.76831933034815,2.9732979294947013,0.4990155931255818,B,361.0164000001532,Correct
12,412,260,A,53.303565187671744,65.15532680220691,2.665178259383587,1.023457480120277,A,1229.4590999999855,Correct
12,412,261,A,14.04611776047981,37.01831669159361,0.7023058880239904,0.5814823588328545,A,703.6654000003182,Correct
12,412,262,A,16.66941202793283,39.861831494003965,0.8334706013966414,0.6261481849009856,A,395.5891999994492,Correct
12,412,263,B,35.09210996857662,12.110442542990828,1.754605498428831,0.1902303866239064,B,854.8908000002484,Correct
12,412,264,B,76.05128791464007,61.497589732881316,3.8025643957320034,0.966001880591495,B,831.7281999998158,Correct
12,412,265,A,41.06394613720424,58.900517163748304,2.0531973068602123,0.9252071600713558,B,1987.3415000001842,Incorrect
12,412,266,A,32.62347299317621,43.987494988792896,1.6311736496588105,0.6909539555330481,A,825.149400000555,Correct
12,412,267,B,48.95642452470725,28.365682250032414,2.4478212262353627,0.44556709485382107,B,812.7382000002399,Correct
12,412,268,B,47.21340934797837,36.31977531007707,2.3606704673989185,0.5705096964708504,B,572.2372999998697,Correct
12,412,269,A,54.051265716857586,64.51338283318677,2.702563285842879,1.013373847834827,A,864.940999999817,Correct
12,412,270,A,26.518716044804446,51.590160532043186,1.3259358022402221,0.8103763466249247,A,585.5240000000776,Correct
12,412,271,B,67.75844694245326,36.64860043092048,3.3879223471226627,0.5756748693906376,B,717.4150999999256,Correct
12,412,272,A,25.900699668601668,52.19316191006312,1.2950349834300834,0.8198482701213846,A,723.4835999997813,Correct
12,412,273,B,54.8269198609939,37.63838999231122,2.741345993049695,0.5912224474639626,B,982.7865999995993,Correct
12,412,274,A,41.80432870217335,66.4338958314279,2.090216435108667,1.0435411954668175,A,828.0775000002905,Correct
12,412,275,B,69.53618438361471,58.01412839983084,3.476809219180735,0.9112837979266177,B,576.7931999998837,Correct
12,412,276,B,76.595337285948,53.200982845693204,3.8297668642974,0.835679084358932,B,549.4704000002457,Correct
12,412,277,A,35.18156770940888,67.37887413145259,1.7590783854704442,1.058384879892614,A,636.1127999998644,Correct
12,412,278,A,50.96928336550662,71.53204879366831,2.548464168275331,1.123622794932075,A,502.3621999998795,Correct
12,412,279,B,45.931826149664744,29.54306297268912,2.2965913074832374,0.4640613479977039,B,474.7628999994049,Correct
12,412,280,A,29.366730712212153,44.155974546425,1.4683365356106077,0.6936004262357335,A,733.5474000001341,Correct
12,412,281,B,65.8919808777212,51.33400593039448,3.29459904388606,0.806352679551311,B,1700.7125000000087,Correct
12,412,282,A,41.02826162616552,73.74853071600249,2.0514130813082763,1.158439211552173,A,501.29519999973127,Correct
12,412,283,A,22.46112043174023,35.85323871489818,1.1230560215870116,0.5631813567706264,A,718.432099999518,Correct
12,412,284,B,87.79579886642438,64.90800994607713,4.389789943321219,1.0195726360286457,B,626.58779999947,Correct
12,412,285,B,69.84622599729924,45.43752711665141,3.492311299864962,0.7137310069347953,B,517.0705999998972,Correct
12,412,286,B,42.06482503321037,20.546681652963176,2.1032412516605183,0.32274652068298654,B,540.53230000045,Correct
12,412,287,A,37.89082338865158,53.67552513680374,1.8945411694325793,0.8431331772367846,A,397.10009999998874,Correct
12,412,288,A,58.4435186295603,72.5113610243427,2.922175931478015,1.1390057954793613,A,526.7672999998467,Correct
12,412,289,A,43.99217218161542,59.080544865162366,2.199608609080771,0.9280350285923812,A,487.648999999692,Correct
12,412,290,A,55.72612287683857,74.17651828775382,2.7863061438419288,1.1651620246083816,A,698.1346000002304,Correct
12,412,291,A,39.370267743611585,68.82173128606597,1.968513387180579,1.0810492270781782,A,437.17910000032134,Correct
12,412,292,B,59.65324899835929,34.44272210706026,2.9826624499179646,0.5410250137058764,B,733.7482000002638,Correct
12,412,293,A,48.82109137823467,56.198056491392414,2.441054568911733,0.8827570070969131,A,1262.5773999998273,Correct
12,412,294,A,20.30000381708578,40.606023649400676,1.015000190854289,0.6378379279422528,A,502.87350000053266,Correct
12,412,295,B,71.84155466973095,39.361037899435786,3.5920777334865477,0.6182817375126844,B,576.0179000008065,Correct
12,412,296,B,49.02207940404573,18.54722490990484,2.4511039702022868,0.29133912760717334,B,549.2494000000079,Correct
12,412,297,B,32.643679367861175,14.863204319050524,1.6321839683930588,0.2334706674876661,B,601.3921000003393,Correct
12,412,298,B,63.900268555298275,51.09542710570847,3.1950134277649136,0.8026050921366324,B,2299.096599999757,Correct
12,412,299,B,70.54882010208628,53.54268471016587,3.527441005104314,0.8410465246946581,B,513.7356000004729,Correct
12,412,300,A,31.874149260629853,50.38566654151765,1.5937074630314927,0.7914561992652845,A,662.1897999993962,Correct
12,412,301,A,35.39560071473649,62.51112746656079,1.7697800357368243,0.9819224940828126,A,468.5317000003124,Correct
12,412,302,A,55.729085349885736,68.52594207731121,2.7864542674942867,1.076402981052003,A,548.5160999996879,Correct
12,412,303,B,65.14695518369552,34.05377679911271,3.257347759184776,0.5349154750953952,B,682.082100000116,Correct
12,412,304,A,34.03676586271674,44.66954666418789,1.7018382931358371,0.7016675981969956,A,519.3294000000606,Correct
12,412,305,A,58.63109745315837,70.34575472280527,2.9315548726579186,1.1049885312419727,A,506.6403000000719,Correct
12,412,306,A,45.591915787640566,63.69277712828378,2.2795957893820282,1.0004838035647416,A,580.3452000000107,Correct
12,412,307,B,69.18562825752028,53.32277924511859,3.459281412876014,0.8375922577272742,A,504.4727000004059,Incorrect
12,412,308,B,83.21566617544265,67.31760485430272,4.160783308772133,1.05742246433769,B,637.1889000001829,Correct
12,412,309,A,39.84805436496542,70.62578075359991,1.992402718248271,1.1093871698477644,A,484.9299000006795,Correct
12,412,310,A,35.841442525596115,67.81977095899735,1.7920721262798056,1.0653104710646424,A,528.540499999508,Correct
12,412,311,B,69.68873011814243,40.177540770024954,3.484436505907121,0.631107334612074,B,576.2747999997373,Correct
12,412,312,A,33.1085152099602,64.17927556346336,1.6554257604980103,1.0081257031144573,A,508.15400000010413,Correct
12,412,313,B,85.97041853352908,68.25930681827637,4.298520926676455,1.0722146841971436,B,1127.4750000002314,Correct
12,412,314,A,43.33911488415923,73.3475583767111,2.1669557442079617,1.1521407527751204,A,505.7091999997283,Correct
12,412,315,B,45.91065925246218,22.21903774122315,2.295532962623109,0.349015828688305,B,606.9819000003918,Correct
12,412,316,A,68.287312102156,84.3009256150911,3.4143656051077995,1.324195843015949,A,670.9922999998525,Correct
12,412,317,B,54.836132545851854,42.26032853062296,2.7418066272925925,0.6638236882504812,B,545.7796999999118,Correct
12,412,318,B,68.94587581765222,36.657837473950806,3.447293790882611,0.5758199645232623,B,533.9254999998957,Correct
12,412,319,A,56.03638580246514,78.15322152268651,2.801819290123257,1.2276279329502382,A,563.995900000009,Correct
12,412,320,A,38.20488981775581,50.918689624222274,1.9102444908877907,0.7998289062693776,A,624.1555999995398,Correct
12,412,321,A,42.085699539551776,57.98845918772033,2.104284976977589,0.9108805868856688,A,715.4817000000548,Correct
12,412,322,B,38.12844058958406,17.396446336268827,1.906422029479203,0.2732627400429561,B,479.3950999992376,Correct
12,412,323,A,64.79845683379503,80.27164222504919,3.2399228416897516,1.2609040075290139,A,2703.922600000624,Correct
12,412,324,A,35.89964889268598,52.85871363200869,1.794982444634299,0.8303027321226257,A,599.3963000000804,Correct
12,412,325,A,49.70353864402966,79.4569253526091,2.485176932201483,1.2481064648229465,A,439.68779999977414,Correct
12,412,326,A,14.70527699369029,38.998011095334434,0.7352638496845145,0.6125793258085795,A,510.86279999981343,Correct
12,412,327,A,56.625992904315105,72.53129421949039,2.831299645215755,1.1393189053765542,A,766.0629000001791,Correct
12,412,328,B,77.31794990000051,58.05281026285193,3.8658974950000253,0.9118914112100888,B,1049.1234999999506,Correct
12,412,329,B,86.72954121212867,63.31859144634366,4.336477060606433,0.9946061086174337,B,517.5641000005271,Correct
12,412,330,B,66.85255671788505,50.298850725046705,3.3426278358942523,0.7900924996090819,B,453.0224999998609,Correct
12,412,331,A,44.412401821856605,64.16862289992488,2.2206200910928304,1.007958371466889,A,858.8306999999986,Correct
12,412,332,B,52.15832084345922,37.27127310328449,2.6079160421729615,0.5854557888560871,B,582.4603000000934,Correct
12,412,333,A,58.3033624665534,68.32837600051624,2.9151681233276703,1.0732996203747147,A,843.3867000003374,Correct
12,412,334,B,64.58493512835287,36.66511021728654,3.2292467564176435,0.5759342045084372,B,586.6056000004392,Correct
12,412,335,A,54.19500109375637,63.71093366799506,2.7097500546878184,1.0007690058235994,A,1377.8179999999338,Correct
12,412,336,A,48.710785507925074,60.15263854734449,2.4355392753962537,0.9448754367718982,A,595.7484000000477,Correct
12,412,337,B,74.54847004912081,60.73023527011307,3.7274235024560403,0.9539483048768348,A,1775.3253000000768,Incorrect
12,412,338,B,80.85421705337612,67.64858340017902,4.042710852668806,1.0626214631787945,B,518.5324000003675,Correct
12,412,339,B,39.31002519977185,20.76925997226563,1.9655012599885924,0.3262427727468313,B,1097.02070000003,Correct
12,412,340,B,77.80414924353339,57.18521241484599,3.8902074621766696,0.8982632160822601,B,462.301400000797,Correct
12,412,341,B,73.8362515937261,41.22537815108124,3.6918125796863053,0.6475667257044899,B,376.5247999999701,Correct
12,412,342,A,47.11785075365608,70.80681464487645,2.355892537682804,1.1122308435621902,A,531.5958999999566,Correct
12,412,343,A,21.951295629516306,46.91094432750816,1.0975647814758154,0.7368753903612971,A,505.1069999999527,Correct
12,412,344,A,65.23810829812824,89.37053056656214,3.261905414906412,1.4038290113766685,A,883.0398000000059,Correct
12,412,345,A,34.847990900263554,46.958194979721966,1.7423995450131775,0.7376176018706583,A,836.745399999927,Correct
12,412,346,B,49.19570227824256,41.18175281676085,2.459785113912128,0.6468814605554333,B,1075.9186000004775,Correct
12,412,347,A,27.447796760841634,49.493174288021066,1.3723898380420818,0.777436963730431,A,549.8819000004005,Correct
12,412,348,A,29.580572820732,45.416070551466035,1.4790286410366003,0.713393967997007,A,889.4680000003063,Correct
12,412,349,B,43.82325152692717,30.205752301825804,2.191162576346359,0.47447084763784464,B,919.5677999996406,Correct
12,412,350,A,40.901995444915535,56.50918622508757,2.0450997722457767,0.8876442215253632,A,1243.7109000002238,Correct
12,412,351,B,83.93870502163519,66.00901322800054,4.19693525108176,1.0368671551389899,B,676.0115999995833,Correct
12,412,352,A,41.51968199362085,69.33753207374593,2.0759840996810426,1.0891514069046344,A,458.95330000075774,Correct
12,412,353,A,63.71284193457727,75.49935308645043,3.1856420967288637,1.1859410650358726,A,1487.6409999997122,Correct
12,412,354,B,77.16407005987588,63.28831145116101,3.858203502993794,0.9941304715653511,B,554.127100000187,Correct
12,412,355,A,62.28921177107199,72.03555651882088,3.1144605885536,1.1315318757839001,B,2031.6852999994808,Incorrect
12,412,356,A,41.87960465007117,68.0794722679687,2.093980232503559,1.0693898496866026,A,419.2849999999453,Correct
12,412,357,B,48.40715430895997,19.391498376914793,2.4203577154479983,0.3046009442150696,B,786.4897999997993,Correct
12,412,358,B,56.902611774680665,45.39487247037505,2.8451305887340332,0.7130609893178789,B,527.7486000004501,Correct
12,412,359,B,88.66273618269639,63.587211225847895,4.43313680913482,0.9988255782469307,B,448.3122000001458,Correct
12,412,360,A,19.067212690603387,47.649442492025734,0.9533606345301693,0.7484756924029868,A,456.01759999954083,Correct
12,412,361,A,40.13392661295046,67.45999503434564,2.006696330647523,1.0596591240555209,A,986.5373000002364,Correct
12,412,362,B,32.07618352276023,14.096608407219225,1.6038091761380115,0.22142900706326019,B,639.5134000003964,Correct
12,412,363,B,33.09801096266624,11.652570696395504,1.6549005481333119,0.18303815247615907,B,550.9751000008691,Correct
12,412,364,B,56.42266427194911,30.598940477976406,2.8211332135974554,0.48064703306621015,B,515.1389000002382,Correct
12,412,365,A,53.68158270524563,82.8261809503026,2.684079135262282,1.3010306079918477,A,562.869999999748,Correct
12,412,366,A,18.370931914658524,40.27972195638263,0.9185465957329262,0.6327123929340558,A,604.0084000005663,Correct
12,412,367,A,60.837230461395826,83.58846672446705,3.0418615230697914,1.313004564932103,A,744.7119999997085,Correct
12,412,368,B,48.68806169347172,32.80687276058632,2.434403084673586,0.5153291522595654,B,1617.002400000274,Correct
12,412,369,A,25.83827228169391,54.46643323364616,1.2919136140846956,0.8555567325703086,A,500.31310000031226,Correct
12,412,370,B,44.1004578648369,36.17460540260326,2.205022893241845,0.5682293728966403,B,755.5041000005076,Correct
12,412,371,B,65.48442242165514,48.55141435831052,3.274221121082757,0.7626438333473117,B,768.5255999995206,Correct
12,412,372,B,86.16514839774071,64.28623588476184,4.308257419887036,1.0098058319125416,B,496.78010000025097,Correct
12,412,373,A,23.854795491658976,49.093018260627176,1.1927397745829489,0.7711513275506795,A,543.7140000003637,Correct
12,412,374,A,15.646204695145073,35.337274093861815,0.7823102347572537,0.5550766034558259,A,714.2074999992474,Correct
12,412,375,A,33.33373558563943,64.50207511060847,1.6666867792819715,1.0131962265439232,A,903.7278999994669,Correct
12,412,376,A,26.83900052037436,42.8901547811679,1.341950026018718,0.6737169758592311,A,513.4034999991854,Correct
12,412,377,A,59.933603485321804,74.22584544801322,2.9966801742660905,1.1659368538298485,A,1038.402600000154,Correct
12,412,378,B,64.70639141756239,36.52483131541366,3.235319570878119,0.5737307086705499,B,878.419099999519,Correct
12,412,379,B,63.25917577592472,52.57151602444867,3.162958788796236,0.8257914426524301,B,571.4208999997936,Correct
12,412,380,B,81.72535297288547,54.965463556383014,4.086267648644274,0.8633954825494518,B,577.5076999998419,Correct
12,412,381,B,53.870828385580346,37.15552929734597,2.693541419279017,0.5836376894039121,B,549.0611000004719,Correct
12,412,382,B,50.31460392442228,35.389802878195844,2.515730196221114,0.5559017236706549,B,429.6902999994927,Correct
12,412,383,B,60.45060327394129,30.54743282811026,3.0225301636970645,0.4798379527940944,B,1133.9261000002807,Correct
12,412,384,A,22.60756732120343,35.51977736616399,1.1303783660601716,0.5579433581534291,A,797.7036000002045,Correct
12,412,385,A,27.14880823106926,51.47080636451235,1.357440411553463,0.8085015357454739,A,513.5706999999456,Correct
12,412,386,B,54.30547030963283,23.79390339926497,2.7152735154816416,0.37375376059678017,B,458.1286000002365,Correct
12,412,387,B,79.07320131438394,47.18705824549689,3.953660065719197,0.7412125776428335,B,502.5892000003296,Correct
12,412,388,B,68.09697740942504,53.75305181503868,3.404848870471252,0.8443509634507852,B,1237.7612999998746,Correct
12,412,389,A,32.6900117322557,41.94985594680688,1.6345005866127849,0.6589467963081929,A,744.2526999993788,Correct
12,412,390,B,81.85601153142869,54.55670933201532,4.092800576571435,0.8569747862074653,B,494.09149999974034,Correct
12,412,391,B,66.48739765658748,53.42238988147199,3.3243698828293735,0.8391569379442104,B,861.2546000003931,Correct
12,412,392,A,31.31692882619165,44.24211292325098,1.5658464413095825,0.6949534846948766,A,1944.8786000002656,Correct
12,412,393,B,64.72284362244618,54.012668654573,3.2361421811223092,0.8484290152299311,B,1046.6749999995955,Correct
12,412,394,A,31.262479220820342,57.35558017051374,1.563123961041017,0.900939346530332,A,613.3286000003864,Correct
12,412,395,B,53.867410295249925,35.700766080139516,2.693370514762496,0.56078632222447,B,569.1877999997814,Correct
12,412,396,A,26.95619928169262,54.83854485252377,1.347809964084631,0.8614018482112151,A,517.3592999999528,Correct
12,412,397,A,44.32470873937669,59.53629711918214,2.2162354369688346,0.9351939682578089,A,726.7314999999144,Correct
12,412,398,A,37.20118501539988,55.477887458493875,1.860059250769994,0.8714446183814284,A,646.4999999998327,Correct
12,412,399,B,51.21776526945694,30.855509830124106,2.560888263472847,0.4846772150254276,B,735.8667999997124,Correct
12,412,400,A,51.58878981347296,61.32721989013612,2.5794394906736478,0.9633257173596873,A,927.890999999363,Correct
12,412,401,B,75.9055704482155,63.71079545985471,3.795278522410775,1.0007668348552075,B,1252.8744999999617,Correct
12,412,402,A,57.61664437845299,70.23681018594121,2.880832218922649,1.1032772344586683,B,1085.7236000001649,Incorrect
12,412,403,A,32.52868631547834,53.98859987936719,1.6264343157739172,0.8480509437930936,A,527.6744999991934,Correct
12,412,404,B,36.13888071081644,21.99350732172477,1.806944035540822,0.3454732051430194,B,831.1517999991338,Correct
12,412,405,B,85.17196622150638,67.00905758173528,4.258598311075319,1.052575815113775,B,902.0488000005571,Correct
12,412,406,A,58.112066188909175,83.87891692029187,2.9056033094454587,1.3175669459392876,A,854.0926000005129,Correct
12,412,407,B,70.43266094678938,56.2014582960368,3.5216330473394692,0.8828104425193116,B,863.2207999999082,Correct
12,412,408,B,52.00739441796341,41.90745999350702,2.60036972089817,0.658280842231049,B,612.4782999995659,Correct
12,412,409,B,36.68390741618914,20.928342560485802,1.834195370809457,0.328741636199164,B,452.20549999976356,Correct
12,412,410,A,30.63885818461051,44.72281475122655,1.5319429092305255,0.7025043313515528,A,3665.7308999992892,Correct
12,412,411,B,85.55014056273833,68.24093784437395,4.277507028136917,1.0719261450298143,B,467.7283000000898,Correct
12,412,412,A,15.97207695247885,36.64737348210112,0.7986038476239427,0.5756555965236514,A,482.06260000006296,Correct
12,412,413,B,70.64997760653742,57.40522395217644,3.532498880326871,0.9017191492291717,B,922.9051000002073,Correct
12,412,414,A,60.71344179735121,70.52316285338026,3.0356720898675604,1.10777525164048,A,1201.006100000086,Correct
12,412,415,A,67.95558644376867,81.08484765327806,3.397779322188433,1.2736778085249296,A,1087.910500000362,Correct
12,412,416,B,68.95937534577466,54.855131649668714,3.4479687672887334,0.8616623930115008,B,1058.699300000626,Correct
12,412,417,B,51.440649692371444,37.458685951057085,2.5720324846185725,0.5883996629848406,B,462.01600000040344,Correct
12,412,418,A,58.17538796114272,85.68793618012764,2.908769398057136,1.3459829540238002,A,711.1366999997699,Correct
12,412,419,B,63.39971677479945,48.08865346597711,3.169985838739972,0.755374802248695,B,491.5614999999889,Correct
12,412,420,A,42.84906377611445,53.30820793689662,2.1424531888057228,0.8373633721529576,A,1637.2400000000198,Correct
12,412,421,A,61.407190794487896,78.2997634061004,3.070359539724395,1.2299298074721194,A,635.8903000000282,Correct
12,412,422,A,36.57790628367044,63.15879253723196,1.828895314183522,0.9920959932228488,A,648.0344999999943,Correct
12,412,423,B,85.54044503932339,57.66259790526728,4.277022251966169,0.9057619698304495,B,642.8207000008115,Correct
12,412,424,B,82.74486476316318,59.16875871554417,4.137243238158159,0.929420688513903,B,408.8989000001675,Correct
12,412,425,B,64.15895142888218,33.037698969131036,3.207947571444109,0.5189549618646657,B,695.5274000001737,Correct
12,412,426,B,86.83415599197225,64.19894402402485,4.341707799598613,1.008434654570494,B,334.7134999994523,Correct
12,412,427,B,69.79815289379266,46.298235479203974,3.4899076446896333,0.7272509822781876,B,401.5039000005345,Correct
12,412,428,A,33.14688474130688,59.258161265137836,1.657344237065344,0.9308250204789813,A,420.82459999983257,Correct
12,412,429,A,60.0020083281803,76.3425647435986,3.0001004164090155,1.1991862027734626,A,548.8052999999127,Correct
12,412,430,B,78.5440682219424,53.25234959058132,3.9272034110971195,0.8364859513008284,B,594.3685000002006,Correct
12,412,431,A,50.91091200396265,61.13520982148971,2.5455456001981327,0.9603096302543132,A,610.3761999993367,Correct
12,412,432,B,57.69098364997751,46.59865293219862,2.8845491824988754,0.7319699285948783,B,538.6786999997639,Correct
12,412,433,B,77.1249964910244,55.39201917806466,3.85624982455122,0.8700958025865643,B,765.1667000000089,Correct
12,412,434,B,56.1017550876365,47.141329478277584,2.805087754381825,0.7404942718470641,B,501.4612999993915,Correct
12,412,435,B,49.07341764031757,29.58537809378279,2.453670882015879,0.46472603236552207,B,504.26169999991544,Correct
12,412,436,B,71.26110642991462,58.93937887703971,3.563055321495731,0.9258175984362669,B,564.6787000005133,Correct
12,412,437,A,30.28482333394745,55.68411663322544,1.5142411666973725,0.8746840586828912,A,486.0756999996738,Correct
12,412,438,B,39.95763150081697,29.514429062511184,1.9978815750408487,0.4636115675884111,B,454.9255000001722,Correct
12,412,439,B,55.10551013723716,25.02228859285229,2.755275506861858,0.3930491900965422,B,420.72339999958785,Correct
12,412,440,B,70.25884543609173,44.244043641953354,3.5129422718045866,0.6949838123533343,B,397.29499999975815,Correct
12,412,441,B,68.11251350808894,54.26634998728193,3.4056256754044467,0.8524138322858873,B,510.40289999946253,Correct
12,412,442,A,28.01954518534452,48.74010113614956,1.400977259267226,0.7656077183227549,A,513.47480000004,Correct
12,412,443,B,64.79847148049691,38.6286991701099,3.2399235740248455,0.6067781876527369,B,515.9711999995125,Correct
12,412,444,A,33.500180707926255,61.16739648175568,1.6750090353963127,0.9608152171314891,A,518.7386000006882,Correct
12,412,445,A,47.70480839677462,76.82962474493132,2.385240419838731,1.2068369233836842,A,610.9017999997377,Correct
12,412,446,A,44.903524656712385,56.472858212252206,2.2451762328356195,0.8870735824341477,A,1103.0553999999029,Correct
12,412,447,B,42.199578569619206,22.04184129435553,2.1099789284809605,0.3462324334096974,B,519.8781000008239,Correct
12,412,448,B,78.32045820367733,50.52137139298092,3.916022910183867,0.793587846087352,B,436.6211000005933,Correct
12,412,449,B,59.42053970635319,38.549878020774436,2.9710269853176596,0.605540067934238,B,431.64209999940795,Correct
12,412,450,B,53.584707158945896,33.788036959745774,2.679235357947295,0.5307412434597887,B,548.6227000001236,Correct
12,412,451,A,64.82912380026355,84.06653331897559,3.2414561900131775,1.3205140174382763,A,593.0693000000247,Correct
12,412,452,A,42.31625089362178,62.42651825386977,2.1158125446810887,0.9805934556777319,A,519.7100000004866,Correct
12,412,453,A,36.4377480762879,47.68099161839992,1.821887403814395,0.7489712649212085,A,2652.1484999993845,Correct
12,412,454,B,55.9934339409955,28.197252351731137,2.799671697049775,0.44292140419808024,B,473.6844999997629,Correct
12,412,455,B,75.57638753347412,46.48617672570866,3.778819376673706,0.7302031564748158,B,555.89240000063,Correct
12,412,456,B,69.93073262609363,40.68891638997088,3.4965366313046813,0.6391400040663092,B,358.1137999999555,Correct
12,412,457,B,69.21235475254244,45.17643267405522,3.4606177376271217,0.7096297450210288,B,385.46020000012504,Correct
12,412,458,B,36.6648574323747,11.998942039913484,1.8332428716187352,0.18847894081720962,B,533.3420000006299,Correct
12,412,459,B,64.01483982214128,36.112878469552875,3.2007419911070643,0.5672597684996417,B,385.7631999999285,Correct
12,412,460,B,36.11738210357031,15.37759360195463,1.8058691051785154,0.24155067544895034,B,347.98529999989114,Correct
12,412,461,B,50.71645770313589,43.586073391029444,2.5358228851567945,0.6846484398204182,B,378.3247000001211,Correct
12,412,462,A,17.351720615378156,32.371656873358404,0.8675860307689078,0.5084927970893615,A,761.2513000003673,Correct
12,412,463,A,56.46664474746002,64.99024091041241,2.823332237373001,1.0208643169959122,A,691.7625999994925,Correct
12,412,464,B,57.5111271644201,37.40144237563576,2.875556358221005,0.5875004830047964,B,3263.393499999438,Correct
12,412,465,A,34.21369770956544,52.223554767356916,1.710684885478272,0.8203256800073635,A,647.9423999999199,Correct
12,412,466,A,69.36110238082144,83.89297674900243,3.4680551190410718,1.3177877972122267,A,739.2479999998613,Correct
12,412,467,B,64.62735704364168,46.939013876585136,3.2313678521820837,0.7373163058071461,B,1053.7814999997863,Correct
12,412,468,B,71.85569866575369,43.12205267294628,3.592784933287685,0.6773596194252007,B,585.0934999998572,Correct
12,412,469,A,13.596684966311422,31.348085829624402,0.679834248315571,0.49241458073225153,A,484.13390000041545,Correct
12,412,470,A,27.19546336413145,49.948426663204216,1.3597731682065726,0.7845880513174546,A,556.9774000005054,Correct
12,412,471,A,29.175626878808046,53.69525432397427,1.4587813439404023,0.8434430825841656,A,528.3330000002024,Correct
12,412,472,B,46.67337285694977,37.0373297807601,2.3336686428474884,0.581781015739092,B,725.0371000000086,Correct
12,412,473,B,36.23297984416911,20.970958875971096,1.8116489922084553,0.3294110517174223,B,531.3803999997617,Correct
12,412,474,B,65.33846669046443,41.2967822794872,3.2669233345232214,0.6486883391306707,B,506.85169999997015,Correct
12,412,475,B,59.91015174701072,36.82849469623057,2.995507587350536,0.5785006419022432,B,336.38040000005276,Correct
12,412,476,B,60.87725499490202,34.031594244797944,3.043862749745101,0.5345670323470295,B,405.6367000002865,Correct
12,412,477,B,67.75046890481464,52.89079155305574,3.3875234452407317,0.830806610928145,B,1247.5798000004943,Correct
12,412,478,A,43.39501723833435,51.098741208569564,2.169750861916717,0.8026571499426408,A,3122.088899999653,Correct
12,412,479,A,41.43587158621806,65.75188347654087,2.0717935793109032,1.0328281704479645,A,527.9135999999198,Correct
12,412,480,A,64.25202040304059,75.66720119369019,3.2126010201520296,1.1885776169389897,A,1125.420500000473,Correct
12,412,481,B,67.1638750868494,57.8899808878009,3.3581937543424702,0.9093336933678442,B,618.7085999999908,Correct
12,412,482,B,83.37447917683525,65.30341972306228,4.168723958841763,1.0257837182813163,B,447.43259999995644,Correct
12,412,483,A,18.21541523977251,38.416795040941224,0.9107707619886256,0.6034496053754287,A,1560.5297000001883,Correct
12,412,484,A,61.446887544175326,74.67711725683358,3.072344377208766,1.1730254148266597,A,1542.594200000167,Correct
12,412,485,A,24.239976484069263,46.1016803929857,1.2119988242034632,0.7241635022037424,A,460.16619999954855,Correct
12,412,486,A,58.44642454892316,75.26046731647713,2.922321227446158,1.1821886561358965,A,595.5966000001354,Correct
12,412,487,B,83.52231274616769,64.3944116971872,4.176115637308384,1.0115050536005996,B,694.6889999999257,Correct
12,412,488,B,54.590432486629695,39.88890949385053,2.729521624331485,0.6265735251279448,B,505.181999999877,Correct
12,412,489,B,32.640991955904596,12.72832563569581,1.6320495977952298,0.19993607154800297,B,835.4101999993873,Correct
12,412,490,A,44.64220009355203,67.06201851848586,2.2321100046776015,1.0534077235628891,B,349.33710000041174,Incorrect
12,412,491,B,52.841838148907435,35.143503687652036,2.642091907445372,0.5520328650326672,B,492.801800000052,Correct
12,412,492,A,47.57460171596586,67.69222300340628,2.378730085798293,1.0633069524633159,A,1041.7854999996052,Correct
12,412,493,A,40.15830037864067,50.88741694347836,2.0079150189320334,0.7993376761489617,B,597.3958999993556,Incorrect
12,412,494,B,69.27696833187564,45.6260047711387,3.463848416593782,0.7166916070083109,B,411.4940999997998,Correct
12,412,495,A,42.67975158034025,68.78407671958173,2.1339875790170124,1.0804577505309734,A,564.8867999998402,Correct
12,412,496,B,55.58966862591586,37.3100987866561,2.7794834312957932,0.5860656612643412,B,556.056799999169,Correct
12,412,497,A,42.61833716823325,69.16419827057759,2.1309168584116627,1.086428685891372,A,511.4014999999199,Correct
12,412,498,A,18.108941762297334,34.45371917669545,0.9054470881148667,0.541197755271761,A,593.3549000001221,Correct
12,412,499,B,54.600154915525465,39.81206121797168,2.7300077457762733,0.6253663952332348,B,603.3090000000811,Correct
12,412,500,B,36.0927757019772,21.362720971865055,1.80463878509886,0.3355648363294993,B,612.3798999997234,Correct
12,412,501,A,57.65694446124817,77.30844847740094,2.8828472230624085,1.2143582689851393,A,570.533200000682,Correct
12,412,502,A,38.11720068987361,66.7679618598582,1.9058600344936807,1.0487886923704701,A,525.2816000001985,Correct
12,412,503,B,48.434157430527236,30.237453019064446,2.421707871526362,0.4749688013397969,B,561.9899999992413,Correct
12,412,504,A,44.85706390195695,68.59927269650731,2.2428531950978474,1.0775548557247512,A,985.1834999999483,Correct
12,412,505,A,64.2285102548912,81.1065187665469,3.2114255127445603,1.2740182175761319,A,2007.5409000000946,Correct
12,412,506,B,48.32054483717555,29.245826634457963,2.416027241858777,0.4593923705148692,B,958.1772999999885,Correct
12,412,507,B,69.59611910468804,54.3655320677288,3.4798059552344025,0.8539717807623856,B,581.088500000078,Correct
12,412,508,B,66.52943720828466,36.06273763613092,3.326471860414233,0.5664721581300252,B,447.0008999996935,Correct
12,412,509,A,60.20881418455116,81.95296792826178,3.010440709227558,1.2873142099165358,A,536.7146000007779,Correct
12,412,510,B,77.85357758290937,65.15927694581012,3.892678879145468,1.0235195288308994,B,597.3749999993743,Correct
12,412,511,A,39.06576114349091,58.683694620480686,1.9532880571745455,0.9218013195260449,A,970.1069000002462,Correct
12,412,512,A,35.68072439705175,49.83575845638927,1.7840362198525872,0.7828182632633397,A,559.1160000003583,Correct
12,412,513,B,61.04253865606169,38.52405905915021,3.0521269328030844,0.6051345046334281,B,492.3893000004682,Correct
12,412,514,A,15.072715445408761,41.474435958486275,0.7536357722704381,0.6514789165948041,A,486.8556000001263,Correct
12,412,515,A,23.573279950152656,49.80561337598694,1.1786639975076327,0.7823447454476704,A,396.10910000010335,Correct
12,412,516,B,52.40044407462359,42.08764826194666,2.6200222037311796,0.6611112329330143,B,944.8176000005333,Correct
12,412,517,A,51.379759263855526,69.10208086208394,2.568987963192776,1.0854529479204538,A,587.2841000000335,Correct
12,412,518,A,48.692740723050704,57.65884377200393,2.434637036152535,0.9057030000430458,A,639.1873000002306,Correct
12,412,519,A,60.14742977770237,69.02245319603273,3.0073714888851186,1.0842021594670088,A,663.7961000005816,Correct
12,412,520,A,40.38602447535969,61.717047714875676,2.0193012237679846,0.9694491185115207,A,508.71039999947243,Correct
12,412,521,A,30.395775433332272,51.61736412621596,1.5197887716666136,0.8108036596829471,A,416.34390000035637,Correct
12,412,522,B,42.98360895611734,22.382305425846486,2.149180447805867,0.35158043148121143,B,656.6379000005327,Correct
12,412,523,A,20.628371638428785,35.69846025431042,1.0314185819214392,0.5607501023970441,A,563.9548999997714,Correct
12,412,524,A,56.590895375600695,69.71105597129272,2.8295447687800346,1.0950187065670005,A,547.7241999997204,Correct
12,412,525,B,53.97572671425547,23.835007829749834,2.6987863357127737,0.37439942748098637,B,695.8475000001272,Correct
12,412,526,B,73.2170054478357,62.1475017816372,3.6608502723917855,0.97621067518075,A,534.2500999995536,Incorrect
12,412,527,B,48.517344710736346,36.22923352421189,2.4258672355368174,0.5690874694242657,B,425.2710999999181,Correct
12,412,528,A,29.71328404293598,44.90216508066304,1.4856642021467992,0.7053215597384357,B,1014.8195000001579,Incorrect
12,412,529,B,55.62612738434778,29.898424148990316,2.7813063692173894,0.46964334830189824,B,446.28869999996823,Correct
12,412,530,A,48.1112326989877,58.841187121751716,2.4055616349493847,0.9242752059509877,A,868.1041999998342,Correct
12,412,531,A,48.11398343726148,62.09084921478857,2.4056991718630742,0.9753207787416568,A,614.2993999992541,Correct
12,412,532,A,26.581127025429517,55.81452230011685,1.3290563512714757,0.876732466108354,A,592.550399999709,Correct
12,412,533,B,52.87092241121246,42.814069430765464,2.643546120560623,0.6725218299698805,B,544.0108999991935,Correct
12,412,534,A,21.072735734386136,34.640506417175075,1.0536367867193066,0.5441318023841365,A,549.8084999999264,Correct
12,412,535,B,41.08811513403795,29.074185209412263,2.054405756701897,0.4566962333149929,B,555.5914000005941,Correct
12,412,536,B,41.03274007793853,19.063864461022362,2.0516370038969263,0.29945448269889696,B,481.68949999944743,Correct
12,412,537,B,46.972894111707745,20.55121435022671,2.348644705585387,0.32281772012510684,B,439.77839999934076,Correct
12,412,538,A,42.93114850412037,59.5084954954057,2.1465574252060184,0.9347572613727392,A,586.8166000000201,Correct
12,412,539,B,86.53451526169006,64.36353046910168,4.326725763084503,1.011019972404163,B,486.44570000033127,Correct
12,412,540,A,23.62325303615887,46.600378703172474,1.1811626518079437,0.7319970369419445,A,672.6676000007501,Correct
12,412,541,B,69.37419289457837,36.14314656037489,3.4687096447289183,0.5677352185584648,B,562.8765000001295,Correct
12,412,542,B,67.67160780421644,37.487972960614414,3.3835803902108217,0.5888597022551952,B,400.700200000756,Correct
12,412,543,B,87.90238126163756,62.98049399570684,4.395119063081878,0.9892952862818435,B,394.8881000005713,Correct
12,412,544,B,78.87395648381026,48.161070240805486,3.9436978241905134,0.7565123222876825,B,390.8164000004035,Correct
12,412,545,B,50.541532423206476,24.490210214604875,2.527076621160324,0.3846913224753619,B,572.6291000000856,Correct
12,412,546,B,62.80241640825527,35.52655070634989,3.1401208204127635,0.5580497535322704,B,742.5759999996444,Correct
12,412,547,B,51.456591449944916,39.66526473122932,2.5728295724972456,0.6230605214116218,B,590.2901999997994,Correct
12,412,548,A,47.45219697527937,63.44127240235219,2.3726098487639686,0.9965331765680926,A,631.9576000005327,Correct
12,412,549,B,31.264551222997092,16.662208877159465,1.5632275611498545,0.261729365005314,B,471.72630000022764,Correct
