subject,day,trial,cat,x,y,xt,yt,resp,rt,fb
12,512,0,A,22.64552099120851,43.40507851638455,1.1322760495604256,0.6818053789778092,A,553.1983000000764,Correct
12,512,1,A,55.554758887221126,73.30870039010537,2.777737944361056,1.1515303729488513,A,1197.6047000007384,Correct
12,512,2,A,15.477287238160201,30.69452043455415,0.7738643619080101,0.48214839951328553,A,516.8219999995927,Correct
12,512,3,A,45.986968454867615,63.17192598744189,2.299348422743381,0.9923022929763278,A,613.6494000002131,Correct
12,512,4,B,76.9393233441847,55.52148198225465,3.846966167209235,0.8721293995593464,B,726.2308999997913,Correct
12,512,5,B,55.20524439886467,43.74916973601325,2.7602622199432334,0.6872103512165607,A,650.9236000001692,Incorrect
12,512,6,B,47.62659711493747,22.892014386804476,2.3813298557468734,0.35958692111728396,B,526.8144000001485,Correct
12,512,7,A,56.48038927266469,73.63716236167878,2.8240194636332343,1.1566898415332445,A,434.96349999986705,Correct
12,512,8,A,36.95294100704454,58.361028232635576,1.8476470503522266,0.9167328877579722,A,513.0487000005814,Correct
12,512,9,B,84.99530446017596,63.1768864626064,4.249765223008797,0.9923802119380036,B,526.3130000003002,Correct
12,512,10,A,43.850454654947356,62.57339659676545,2.192522732747368,0.9829006152927946,A,467.31350000118255,Correct
12,512,11,B,82.09906023659616,57.47602865161084,4.104953011829808,0.9028313468470854,B,489.12579999887384,Correct
12,512,12,A,52.465597363970915,81.29939023040264,2.6232798681985456,1.2770478354458137,A,458.50719999907597,Correct
12,512,13,A,60.471215012297606,79.38252001298787,3.0235607506148803,1.246937708481237,A,558.4114999983285,Correct
12,512,14,A,59.52750280086866,85.24256031205246,2.976375140043433,1.3389870062476443,A,494.95269999897573,Correct
12,512,15,B,76.07577552523053,53.379247863442565,3.8037887762615266,0.838479264709699,B,556.4864000007219,Correct
12,512,16,B,58.1627889436066,26.168079956103398,2.90813944718033,0.41104723874322374,B,687.2387000003073,Correct
12,512,17,B,35.6315340824787,25.366851946417817,1.7815767041239352,0.3984615785978309,B,722.8412999993452,Correct
12,512,18,A,49.754063348443125,77.72142398738818,2.4877031674221564,1.2208452731265813,A,580.2618999987317,Correct
12,512,19,A,53.27287222827932,69.73599166399734,2.663643611413966,1.0954103955120655,A,606.1957000001712,Correct
12,512,20,B,67.08044202596257,34.58446198823582,3.354022101298128,0.5432514585529855,B,612.8613000000769,Correct
12,512,21,A,23.734576214743555,36.81489790103467,1.1867288107371778,0.5782870639427441,A,944.4869999988441,Correct
12,512,22,B,51.76324808790429,27.537180593437853,2.5881624043952143,0.4325530212645989,B,577.3048000010021,Correct
12,512,23,B,67.7634942609967,43.79263117333881,3.388174713049835,0.6878930418776428,B,636.1023999997997,Correct
12,512,24,A,32.43774059921915,56.84849659245218,1.6218870299609573,0.8929740963123608,A,516.6527000001224,Correct
12,512,25,A,43.21162949899322,73.91179651812337,2.1605814749496606,1.1610037847748,A,615.1634999987436,Correct
12,512,26,A,30.581663552392783,55.53498115639205,1.5290831776196392,0.8723414440908444,A,541.5108999986842,Correct
12,512,27,B,86.73047089521907,61.31653041093459,4.336523544760953,0.9631578074130362,B,482.76889999942796,Correct
12,512,28,B,47.7678007454322,36.34989593353363,2.38839003727161,0.5709828301177138,B,1443.5990000001766,Correct
12,512,29,B,60.10298850821388,49.185015469061604,3.0051494254106945,0.7725964163215214,B,756.4872999992076,Correct
12,512,30,B,34.79875462074317,14.516757161462905,1.7399377310371584,0.2280286882619944,B,566.401300000507,Correct
12,512,31,A,26.674828371252374,40.2281254045406,1.3337414185626186,0.6319019161929684,A,940.5219000000216,Correct
12,512,32,B,49.57132037279921,34.37422986199984,2.4785660186399605,0.5399491400363279,B,602.2966000000451,Correct
12,512,33,A,45.67697824332336,73.86857815753949,2.2838489121661683,1.1603249123542476,A,632.6728999993065,Correct
12,512,34,B,46.96423155501738,37.32172911967825,2.3482115777508685,0.5862483501082474,B,509.12310000057914,Correct
12,512,35,B,33.78581065148956,11.465806286249396,1.689290532574478,0.18010446398182384,B,417.05759999967995,Correct
12,512,36,A,17.38980202385214,31.97896192567822,0.8694901011926071,0.502324359275692,A,670.2186000002257,Correct
12,512,37,B,55.90293006527826,45.01781755360792,2.795146503263913,0.7071382245353013,B,486.25840000022436,Correct
12,512,38,B,55.210447699529105,22.81570502718225,2.7605223849764555,0.35838825649933737,B,424.50079999980517,Correct
12,512,39,B,82.62307162720512,53.60394217524068,4.131153581360256,0.8420087547059408,B,734.5582999987528,Correct
12,512,40,B,32.040980626840195,18.42387597612643,1.6020490313420097,0.2894015670862414,B,620.6548999998631,Correct
12,512,41,B,43.73302605550538,15.346320078983776,2.1866513027752688,0.2410594320988648,B,545.1069000009738,Correct
12,512,42,A,24.22032917546722,47.78691433571282,1.211016458773361,0.7506350950740008,A,595.0525000007474,Correct
12,512,43,B,34.83412175109455,11.77036834831501,1.7417060875547277,0.18488851366556133,B,399.7306999990542,Correct
12,512,44,B,48.66961820908243,25.636422920295093,2.4334809104541217,0.40269598955360025,B,421.2709999992512,Correct
12,512,45,A,52.11828112744186,69.3759404265362,2.6059140563720926,1.0897547238994463,A,503.79289999909815,Correct
12,512,46,B,48.967767418178894,42.08444190031143,2.4483883709089445,0.6610608675222243,B,577.169899999717,Correct
12,512,47,A,22.010780098590512,36.359660304638666,1.1005390049295256,0.5711362085003663,A,529.4444999999541,Correct
12,512,48,A,62.77892790689191,84.49390251148829,3.1389463953445955,1.3272271170161187,A,797.3210999989533,Correct
12,512,49,A,40.60283621653124,56.21684631365652,2.030141810826562,0.8830521569348488,A,930.0312999985181,Correct
12,512,50,A,15.960792588285884,37.7553116541675,0.7980396294142942,0.5930590486336286,A,562.0421000003262,Correct
12,512,51,A,29.29760204407316,43.00195759475008,1.464880102203658,0.6754731703482333,A,548.5571000008349,Correct
12,512,52,B,50.171305331261735,39.178052827356126,2.508565266563087,0.6154074147218741,B,530.9271000005538,Correct
12,512,53,B,74.65864532289038,62.57509639909368,3.732932266144519,0.9829273157253292,A,1386.6589999997814,Incorrect
12,512,54,A,42.91917639028877,55.633524903981005,2.145958819514439,0.8738893656582576,A,850.9456000010687,Correct
12,512,55,B,44.018259724967805,35.46567198869167,2.2009129862483903,0.5570934728714951,B,1334.5964000000095,Correct
12,512,56,B,56.64209782943248,37.68742997615917,2.832104891471624,0.5919927657289071,B,439.9907999995776,Correct
12,512,57,B,43.85180236783445,28.202174093984357,2.1925901183917227,0.4429987147446081,B,525.7763999998133,Correct
12,512,58,A,10.983462683762895,30.644429169651445,0.5491731341881447,0.48136156776414873,A,572.7058000011311,Correct
12,512,59,A,48.48709262227027,65.75701903356764,2.4243546311135136,1.0329088395891017,A,576.8447999998898,Correct
12,512,60,A,44.46693333650061,58.37345068808341,2.2233466668250306,0.9169280192318445,A,1575.764999999592,Correct
12,512,61,B,84.70307551026053,62.72180972586026,4.235153775513027,0.9852318832730973,B,603.3369000015227,Correct
12,512,62,B,41.790697088874595,21.99209582071665,2.0895348544437296,0.3454510333370311,B,648.0811000001268,Correct
12,512,63,B,64.82127494347118,36.849500563759435,3.241063747173559,0.578830601297798,B,509.3428000000131,Correct
12,512,64,B,69.95821965829394,53.44593176921892,3.4979109829146973,0.8395267330521976,B,728.6712999994052,Correct
12,512,65,A,50.86898450473141,67.74831325457004,2.54344922523657,1.0641880160682862,A,660.2607999993779,Correct
12,512,66,A,59.27931048368626,75.73161000200768,2.963965524184313,1.1895893481341733,A,590.5020999998669,Correct
12,512,67,B,70.40516954013515,39.76663785294008,3.5202584770067573,0.6246528866838117,B,583.087399998476,Correct
12,512,68,B,37.129880674048906,11.743057842155068,1.8564940337024454,0.18445952123797188,B,448.46030000007886,Correct
12,512,69,B,80.7314264643429,56.91677883424612,4.036571323217145,0.894046671258313,B,879.927800000587,Correct
12,512,70,B,71.05448880649585,61.88940151874348,3.5527244403247926,0.9721564457317674,A,1808.507899999313,Incorrect
12,512,71,B,67.42022725680089,45.93399356631208,3.3710113628400444,0.7215294836898342,B,915.5697999995027,Correct
12,512,72,A,22.03532673081878,53.16027131483939,1.1017663365409391,0.835039589127698,A,444.13840000015625,Correct
12,512,73,B,57.44457948272835,34.36954870272791,2.8722289741364175,0.5398756085584331,B,523.5754999994242,Correct
12,512,74,B,37.69387632690369,18.86010767198186,1.8846938163451847,0.29625387854105356,B,833.4020000002056,Correct
12,512,75,B,67.92836592179901,50.8693679045786,3.3964182960899505,0.7990541625089027,B,484.43030000089493,Correct
12,512,76,A,39.10999102447167,54.66992379251354,1.9554995512235833,0.8587531547943719,A,541.2694000006013,Correct
12,512,77,A,27.019964554719763,51.07582673598506,1.3509982277359882,0.8022972102489792,A,463.7860999991972,Correct
12,512,78,A,30.486080824463897,45.56064997396149,1.524304041223195,0.7156650162548671,A,505.2183000007062,Correct
12,512,79,A,25.552456524046093,55.593621841003824,1.2776228262023046,0.8732625698107335,A,441.4876999999251,Correct
12,512,80,A,46.430723725460865,66.4971533910381,2.3215361862730433,1.0445348428895944,A,507.1629000012763,Correct
12,512,81,A,15.373839287840624,44.57405797143766,0.7686919643920312,0.7001676653187706,A,486.1931999985245,Correct
12,512,82,B,73.98691757764296,49.92266856909221,3.6993458788821476,0.7841834441212908,B,581.1419000001479,Correct
12,512,83,B,62.62273039154243,38.596218945639734,3.1311365195771215,0.606267989479825,B,510.2607999997417,Correct
12,512,84,A,59.82669491409682,86.06186467909775,2.991334745704841,1.351856609150462,A,540.3224000001501,Correct
12,512,85,B,76.77082485345807,47.378318760723744,3.8385412426729033,0.744216890790626,B,404.33520000078715,Correct
12,512,86,A,21.509257503396753,34.72985432965857,1.0754628751698376,0.5455352761114951,A,438.2815999997547,Correct
12,512,87,B,37.01631579444823,24.877343828482594,1.8508157897224118,0.39077240306194144,B,633.3457000000635,Correct
12,512,88,B,60.20980083647869,30.810396627513757,3.0104900418239344,0.4839685784959248,B,348.96350000053644,Correct
12,512,89,A,18.001295422211232,44.51661603462382,0.9000647711105616,0.6992653694852589,A,384.2947999983153,Correct
12,512,90,B,67.5643208069354,53.49440623872035,3.3782160403467696,0.8402881682385593,B,740.1690000006056,Correct
12,512,91,A,38.37626494057063,59.53686020465518,1.9188132470285313,0.9352028131837361,A,427.36580000018876,Correct
12,512,92,B,38.63106561797913,20.28353772726484,1.9315532808989564,0.31861306556393315,B,468.45240000038757,Correct
12,512,93,B,58.07383485696168,44.64608684987936,2.903691742848084,0.7012990922955643,B,467.40700000009383,Correct
12,512,94,B,53.026852140464456,34.54218321904436,2.651342607023223,0.5425873451995119,B,445.0890999996773,Correct
12,512,95,B,45.624929474556666,31.522809401868155,2.2812464737278333,0.4951591321871012,B,535.8454999986861,Correct
12,512,96,B,66.89752615846064,57.399790547337176,3.344876307923032,0.9016338015055366,B,565.344599999662,Correct
12,512,97,B,76.95663123779325,47.959630326271885,3.8478315618896626,0.7533481115094899,B,410.35609999926237,Correct
12,512,98,A,43.81251383711316,63.608625967521824,2.190625691855658,0.9991619602225377,A,727.8810999996495,Correct
12,512,99,B,44.987114832358586,35.83344523827335,2.2493557416179293,0.5628704415668585,B,1059.194800000114,Correct
12,512,100,A,54.24176393373036,70.86356069743928,2.7120881966865182,1.1131222084714483,A,972.899000000325,Correct
12,512,101,A,49.87587402433652,73.97564224338512,2.493793701216826,1.1620066710820274,A,773.1706000013219,Correct
12,512,102,B,86.13490103411753,63.41782084817933,4.306745051705877,0.9961648004165691,B,575.4163000001427,Correct
12,512,103,A,38.73343838641982,47.19248494136346,1.9366719193209911,0.7412978199821719,A,942.8791999998793,Correct
12,512,104,A,22.12964119645209,53.30009812971041,1.1064820598226046,0.8372359835995666,A,579.0228999994724,Correct
12,512,105,A,53.66654940536017,69.04980388804157,2.6833274702680088,1.0846317831324366,A,1116.422600000078,Correct
12,512,106,B,42.141703663038335,29.407879817225197,2.107085183151917,0.4619378959572311,B,819.047099999807,Correct
12,512,107,B,68.22537458832542,39.84800957359182,3.4112687294162707,0.625931070682859,B,555.6240000005346,Correct
12,512,108,B,34.67417643937352,10.944594955707338,1.733708821968676,0.17191729554683038,B,484.72919999949227,Correct
12,512,109,B,67.71744268422117,41.67007838041483,3.3858721342110583,0.6545520605721106,B,896.059000000605,Correct
12,512,110,A,47.000197744484325,75.28517065376353,2.3500098872242163,1.182576695250587,A,557.6021000015317,Correct
12,512,111,B,51.23300996889944,24.181561814896078,2.5616504984449717,0.3798430847500249,B,539.4150000010995,Correct
12,512,112,A,26.034025579937513,39.993384569137206,1.3017012789968758,0.6282146157729642,A,585.5210999998235,Correct
12,512,113,A,23.67757753392401,53.42930444038375,1.1838788766962005,0.8392655515816105,A,548.3115999995789,Correct
12,512,114,A,30.12704814838129,58.87278692746192,1.5063524074190644,0.9247715745383578,A,507.76890000088315,Correct
12,512,115,A,18.658685882166793,38.37912280854668,0.9329342941083396,0.6028578513327537,A,418.6608999989403,Correct
12,512,116,A,28.904120519605428,51.22362778589133,1.4452060259802715,0.8046188637118712,A,491.76010000155657,Correct
12,512,117,A,55.88735311732998,72.57751214537734,2.794367655866499,1.1400448948587072,A,1108.3438999994542,Correct
12,512,118,A,39.27326655268357,55.15551854838069,1.9636633276341786,0.8663808593826416,A,819.2605000003823,Correct
12,512,119,A,51.7653078999827,75.32656342513623,2.588265394999135,1.183226891382868,A,914.208600001075,Correct
12,512,120,B,78.33891271308107,54.42205429811038,3.9169456356540535,0.854859629881042,B,464.53610000025947,Correct
12,512,121,B,59.54407343989819,31.681788190058967,2.9772036719949098,0.49765636515238565,B,436.99910000032105,Correct
12,512,122,B,41.51504329007163,18.290107821417287,2.0757521645035815,0.28730034182564884,B,481.98819999925036,Correct
12,512,123,B,42.08316172489947,28.66005648035724,2.1041580862449734,0.45019111445079424,B,454.65040000090085,Correct
12,512,124,B,51.53875056540911,21.84235901329763,2.5769375282704554,0.3430989730662332,B,381.6275000008318,Correct
12,512,125,B,36.37606603488028,12.364167524685985,1.8188033017440142,0.19421588931653497,B,530.023400000573,Correct
12,512,126,B,70.00329251527599,58.04685243538549,3.5001646257637993,0.9117978258750892,B,595.9763999999268,Correct
12,512,127,B,78.77846619335357,50.69694319321841,3.938923309667678,0.7963457214763701,B,583.8276000013138,Correct
12,512,128,B,66.67150249172052,54.65062295017852,3.3335751245860257,0.858449977871933,B,477.38570000001346,Correct
12,512,129,B,50.64423490553763,25.381597367719394,2.5322117452768818,0.39869319913400647,B,434.88500000057684,Correct
12,512,130,B,59.24922201648473,35.06943800377765,2.9624611008242363,0.5508694439909527,B,363.19850000109,Correct
12,512,131,B,37.9057203790901,25.6311974071185,1.8952860189545049,0.4026139073845661,B,545.2502999996796,Correct
12,512,132,A,55.434215176664544,70.66220153726451,2.771710758833227,1.1099592661797577,A,867.7592999993067,Correct
12,512,133,A,42.58118591958971,66.71162822807105,2.129059295979485,1.0479038057516075,A,656.2155999999959,Correct
12,512,134,A,27.781577520312382,38.6290354438767,1.3890788760156192,0.6067834698287139,A,1496.5124999998807,Correct
12,512,135,B,35.93079149049659,12.815604653826554,1.7965395745248294,0.20130704715886336,B,545.0923000007606,Correct
12,512,136,A,26.621185257202388,37.92602441645643,1.3310592628601194,0.5957405984330332,A,745.1008999996702,Correct
12,512,137,A,41.93355895119214,55.22964934592592,2.096677947559607,0.867545303227506,A,779.8576999994111,Correct
12,512,138,A,21.013772392523222,42.7808885636335,1.0506886196261611,0.672000626127773,A,602.8119999991759,Correct
12,512,139,B,60.94009724329222,34.318004112857665,3.047004862164611,0.5390659480340897,B,859.8870000005263,Correct
12,512,140,A,49.11851027312787,77.9739633846525,2.4559255136563936,1.2248121527025193,A,516.1834000009549,Correct
12,512,141,B,52.9867311305193,45.46520731369373,2.649336556525965,0.7141658064531858,B,1478.1528999992588,Correct
12,512,142,B,67.72031833752526,58.87466536778652,3.386015916876263,0.9248010810099777,B,513.751599999523,Correct
12,512,143,B,37.981264729561005,13.373226018229506,1.8990632364780504,0.21006614306832846,B,472.9719999995723,Correct
12,512,144,A,36.68484395552173,47.548851222700165,1.8342421977760863,0.7468956084393444,B,696.4215000007243,Incorrect
12,512,145,B,47.54404073304567,35.77752715089419,2.3772020366522835,0.5619920823042928,A,1027.1740999996837,Incorrect
12,512,146,A,36.21085619310509,61.07363223898269,1.8105428096552543,0.9593423718501637,A,1097.2474000009242,Correct
12,512,147,B,42.563405747818855,23.730911875874007,2.1281702873909425,0.37276429206116274,B,557.708400001502,Correct
12,512,148,A,42.154621419826505,55.83703274643187,2.107731070991325,0.8770860593722154,A,875.512599999638,Correct
12,512,149,A,34.267356902055454,59.1651462099422,1.7133678451027725,0.9293639434086021,A,567.6752999988821,Correct
12,512,150,A,50.35485021597259,63.994399755850104,2.5177425107986293,1.0052216807193357,A,479.94979999930365,Correct
12,512,151,A,34.51014394112319,50.04375856776278,1.7255071970561595,0.7860855213725242,A,371.5468999998848,Correct
12,512,152,A,42.81772087682408,60.20043406650029,2.140886043841204,0.9456262070311701,A,462.3289000010118,Correct
12,512,153,B,58.84980620398125,42.629720357000224,2.9424903101990627,0.6696260814906958,B,704.5632999997906,Correct
12,512,154,A,58.21311731450683,86.00440507582164,2.9106558657253414,1.3509540358128098,A,595.08679999999,Correct
12,512,155,A,34.45765494986082,58.38594146344693,1.722882747493041,0.9171242238724429,A,549.0219999992405,Correct
12,512,156,B,38.21463272941526,27.785739932687576,1.910731636470763,0.43645738223543923,B,618.5503999986395,Correct
12,512,157,A,54.52519868759464,81.25888576368875,2.726259934379732,1.276411592770484,A,555.6548999993538,Correct
12,512,158,A,24.871883626060665,50.51745067582995,1.2435941813030333,0.7935262596063606,A,516.2725000009232,Correct
12,512,159,B,55.49667491599253,40.65671466443853,2.774833745799626,0.6386341805444825,B,695.2450000007957,Correct
12,512,160,B,67.1519752909687,36.15507794215142,3.3575987645484355,0.5679226362651464,B,444.8439000007056,Correct
12,512,161,B,51.84787707478238,27.971494028935744,2.592393853739119,0.4393752007561765,B,425.51260000072944,Correct
12,512,162,A,41.84085888493832,66.9759995837814,2.092042944246916,1.0520565412962035,A,532.3133999991114,Correct
12,512,163,A,20.26493445569862,36.32896347136119,1.0132467227849309,0.5706540237708013,A,503.07099999918137,Correct
12,512,164,B,72.25358615856848,41.73123844923315,3.6126793079284245,0.655512760686574,B,514.1428000006272,Correct
12,512,165,B,34.35679383063228,14.974641333113937,1.7178396915316139,0.23522111601126408,B,470.2584000006027,Correct
12,512,166,A,42.519924793020365,73.05030572625749,2.1259962396510184,1.147471519060495,A,465.60239999962505,Correct
12,512,167,B,54.4540143334439,25.268227429259305,2.722700716672195,0.39691238830498565,B,420.3732999994827,Correct
12,512,168,B,81.93675881831206,54.88319656899173,4.096837940915603,0.8621032357333448,B,446.05460000093444,Correct
12,512,169,B,53.11118260502183,25.94249443509114,2.6555591302510915,0.4075037496653821,B,415.4536999994889,Correct
12,512,170,A,61.02631924882377,82.44132713170794,3.0513159624411883,1.2949853383458327,A,488.5713999992731,Correct
12,512,171,A,64.7109675797299,84.86235197867896,3.2355483789864947,1.3330147077128451,A,604.1972000002716,Correct
12,512,172,B,78.7808632824591,63.20729908403487,3.939043164122955,0.9928579322782841,B,699.6252999997523,Correct
12,512,173,A,27.295942996477926,44.7419658613819,1.3647971498238962,0.7028051562864135,A,460.4991999985941,Correct
12,512,174,A,57.22493583962499,76.70282891048137,2.86124679198125,1.2048452190736154,A,1346.2777999993705,Correct
12,512,175,B,44.699220131807515,34.1514125040163,2.234961006590376,0.536449133161661,B,587.6893999993626,Correct
12,512,176,A,41.15039983614944,49.22159323452556,2.057519991807472,0.7731709785178528,A,1657.5257000004058,Correct
12,512,177,B,55.75811264553997,41.73205071462728,2.7879056322769986,0.6555255197215487,B,900.5634000004648,Correct
12,512,178,A,60.431930465976464,83.8919454534027,3.021596523298823,1.3177715976588278,A,539.2183999992994,Correct
12,512,179,B,81.28887892539197,67.90046532588985,4.0644439462695985,1.0665780152157203,B,549.9822000001586,Correct
12,512,180,B,75.92694572155203,50.22233320071645,3.7963472860776015,0.7888905651475476,B,505.04889999865554,Correct
12,512,181,B,64.40522233930179,43.54831971980323,3.220261116965089,0.6840554065395668,B,407.9123999999865,Correct
12,512,182,A,46.71995748357401,78.2834238716879,2.3359978741787004,1.2296731466657527,A,1085.2037999993627,Correct
12,512,183,A,37.69198100693873,60.84744960080448,1.8845990503469365,0.9557895032778126,A,1318.8721000005899,Correct
12,512,184,A,58.26199667772167,77.31103957454621,2.913099833886083,1.2143989698439208,A,1824.254099999962,Correct
12,512,185,B,62.001406631738476,52.77247751479068,3.100070331586924,0.8289481383609947,A,1976.5573000004224,Incorrect
12,512,186,A,65.52971356597554,88.37830253050083,3.2764856782987772,1.3882431298327884,A,624.6140000002924,Correct
12,512,187,A,48.64831450696019,67.6735401103037,2.4324157253480094,1.0630134822647215,A,1003.0790000000707,Correct
12,512,188,A,44.55953483120643,52.488564620683455,2.2279767415603215,0.8244884450490615,A,686.4185999984329,Correct
12,512,189,A,19.080541345765262,36.709327405721986,0.954027067288263,0.5766287664801932,A,704.3632000004436,Correct
12,512,190,A,47.91190348632011,75.9228880764204,2.3955951743160053,1.1925939371010124,A,702.7856000004249,Correct
12,512,191,A,60.32385505476245,79.82756144981937,3.0161927527381227,1.2539284030237017,A,1048.6796000004688,Correct
12,512,192,B,62.81976769750409,37.43456574202754,3.1409883848752043,0.5880207836273893,B,717.9439999999886,Correct
12,512,193,B,81.98301528427216,52.927209804803006,4.099150764213608,0.831378667488874,B,533.9699000014662,Correct
12,512,194,A,67.8557564072509,86.05263853968538,3.392787820362545,1.3517116852914675,A,612.3382000005222,Correct
12,512,195,B,51.23020745746652,36.610535965554995,2.561510372873326,0.5750769541668623,B,1476.8889999995736,Correct
12,512,196,A,37.66568625511033,61.14195285401144,1.8832843127555166,0.9604155495614792,A,894.2659999993339,Correct
12,512,197,B,46.64578576539925,25.05576448119561,2.3322892882699624,0.393575028121001,B,527.1565999992163,Correct
12,512,198,B,41.19481030847153,15.775862474568743,2.0597405154235764,0.24780666827074027,B,515.8668999993097,Correct
12,512,199,A,27.892971007794614,41.526812586732206,1.3946485503897308,0.6523016467473903,A,541.8054000001575,Correct
12,512,200,B,50.58654996266945,19.261451423466795,2.5293274981334726,0.30255817144719976,B,465.9622999988642,Correct
12,512,201,A,21.199477311606184,37.10020137665434,1.0599738655803093,0.582768600457996,A,443.91880000148376,Correct
12,512,202,A,52.999254449983496,69.36335291100059,2.6499627224991746,1.089556999667778,A,719.2517000003136,Correct
12,512,203,A,32.68979118330841,45.14403519037101,1.6344895591654205,0.7091208465373432,A,444.46919999973034,Correct
12,512,204,A,42.653576435591866,71.23119280571112,2.1326788217795936,1.118896960124301,A,665.7285000001139,Correct
12,512,205,A,41.60612487764085,60.60964098885008,2.0803062438820428,0.9520540143364311,A,923.6834999992425,Correct
12,512,206,A,60.56007472561551,74.4410224359596,3.028003736280775,1.169316846052618,A,1293.1054000000586,Correct
12,512,207,B,85.84169153950523,65.4218565059272,4.292084576975261,1.0276441189161325,B,558.7734000000637,Correct
12,512,208,A,13.38294002222285,35.186494660698116,0.6691470011111426,0.5527081656581284,A,484.83350000060454,Correct
12,512,209,B,39.7892214946483,26.4412348576178,1.989461074732415,0.41533794590267226,B,971.7497000001458,Correct
12,512,210,B,65.69242215541563,47.46389658115573,3.284621107770781,0.7455611440505225,B,443.7964999997348,Correct
12,512,211,B,62.089413782326794,39.68728294135137,3.1044706891163396,0.6234063826474449,B,844.3375999995624,Correct
12,512,212,B,73.45248221912551,51.49136908265219,3.6726241109562756,0.8088245341667036,B,377.35389999943436,Correct
12,512,213,B,89.14976273203713,66.77262231308471,4.457488136601857,1.0488618985985643,B,489.6147999988898,Correct
12,512,214,B,76.3915372198802,49.610398405371996,3.8195768609940104,0.7792783158598972,B,455.1565000001574,Correct
12,512,215,A,44.18259525234774,65.6060844558558,2.209129762617387,1.0305379647865405,A,851.8352999999479,Correct
12,512,216,A,17.559439955084596,45.50005181065551,0.8779719977542298,0.7147131425315517,A,475.9047000006831,Correct
12,512,217,B,45.20156577661009,25.955285829861438,2.2600782888305044,0.4077046764245798,B,535.7889999995677,Correct
12,512,218,B,70.82457696114442,47.81088998111626,3.541228848057221,0.7510117036313234,B,1814.1195999996853,Correct
12,512,219,A,52.570889035946465,70.16121507018923,2.6285444517973233,1.1020897891571997,A,577.9968999995617,Correct
12,512,220,B,67.02783361882129,41.80231178160121,3.351391680941065,0.656629177980742,B,525.3186000009009,Correct
12,512,221,A,45.81205621651476,72.187511715825,2.290602810825738,1.1339187824368147,A,693.0797999993956,Correct
12,512,222,A,22.245469433423473,41.90474168929125,1.1122734716711735,0.6582381432082766,A,531.4450999994733,Correct
12,512,223,B,76.71546355097279,54.707452661526204,3.8357731775486394,0.8593426568903106,B,498.3740999996371,Correct
12,512,224,A,38.52012762651456,60.28605587300604,1.9260063813257278,0.9469711512226979,A,827.7553000007174,Correct
12,512,225,A,47.82001590121844,60.15532885134778,2.391000795060922,0.9449176959683617,A,562.3943999999028,Correct
12,512,226,A,38.32640734654913,56.36662495134565,1.9163203673274567,0.8854048742739933,A,878.8198000002012,Correct
12,512,227,A,52.176044718435016,69.42644428958599,2.608802235921751,1.090548036725122,A,700.6357999998727,Correct
12,512,228,B,40.95069128565072,26.185025417801143,2.047534564282536,0.4113134174331303,B,485.74879999978293,Correct
12,512,229,B,65.77539613770702,50.78043418121126,3.2887698068853513,0.7976571948489667,B,616.2762000003568,Correct
12,512,230,A,66.01521936514699,87.31774295959097,3.3007609682573498,1.3715838990494644,A,569.0807999999379,Correct
12,512,231,B,85.05204994795398,66.13062380483238,4.252602497397699,1.0387774096128584,B,568.006499999683,Correct
12,512,232,B,84.67738927132353,63.928210107098685,4.233869463566177,1.00418197614803,B,517.8290999992896,Correct
12,512,233,B,67.26644365513168,40.12526790424441,3.3633221827565842,0.6302862343564828,B,447.7662999997847,Correct
12,512,234,B,56.32783922557158,36.40432292389653,2.816391961278579,0.5718377672831192,B,469.03390000079526,Correct
12,512,235,A,52.64820002079216,69.80286911953742,2.632410001039608,1.096460904127143,A,1118.133799998759,Correct
12,512,236,B,36.423223224597905,19.402455886392172,1.8211611612298952,0.3047730643714484,B,430.44969999937166,Correct
12,512,237,A,33.61606300369395,51.69184094182441,1.6808031501846978,0.8119735387668383,A,543.0087000004278,Correct
12,512,238,A,36.543694270040504,51.425368601731236,1.8271847135020252,0.8077878010367303,A,844.5350000001781,Correct
12,512,239,A,58.18108583991885,76.03012711634793,2.909054291995943,1.1942784440010838,A,801.8150999996578,Correct
12,512,240,A,68.80976317501302,82.5963349723798,3.440488158750651,1.2974201958133504,A,1069.1544000001159,Correct
12,512,241,B,76.35561414689118,49.60577850598906,3.8177807073445593,0.7792057466500885,B,744.4720999992569,Correct
12,512,242,A,27.50618074444362,57.7363596197094,1.3753090372221808,0.9069206161314871,A,442.41730000067037,Correct
12,512,243,A,28.683116649090838,37.81810342842694,1.434155832454542,0.5940453795172251,A,440.2298000004521,Correct
12,512,244,A,45.1632168393131,75.27709291848784,2.258160841965655,1.1824498104815884,A,534.2926000012085,Correct
12,512,245,A,55.69781483056577,70.39874514401919,2.7848907415282884,1.1058209028319541,A,908.3742999991955,Correct
12,512,246,A,19.553479758627034,35.46252340875797,0.9776739879313517,0.5570440150935505,A,593.3452999997826,Correct
12,512,247,B,40.407538067762836,31.309822583666197,2.020376903388142,0.49181354307022757,B,1577.651400000832,Correct
12,512,248,B,39.868711794850185,16.990386395750573,1.9934355897425093,0.2668843654127098,B,549.8525000002701,Correct
12,512,249,B,32.70772613858486,12.745634043639509,1.635386306929243,0.20020795138420924,B,493.8578999990568,Correct
12,512,250,B,60.986967542427465,44.91409063884651,3.0493483771213734,0.7055088859683315,B,625.7398999987345,Correct
12,512,251,B,53.35051199228013,27.745849167668702,2.667525599614007,0.4358307795637924,B,534.4423999995342,Correct
12,512,252,A,53.60039407675934,70.4202642982139,2.680019703837967,1.1061589249156019,A,610.3050000001531,Correct
12,512,253,A,39.69944328832164,46.782963414860774,1.984972164416082,0.7348650708864333,A,1333.636800000022,Correct
12,512,254,B,72.8650617078486,49.09529869027205,3.64325308539243,0.7711871484557764,B,513.4984999986045,Correct
12,512,255,A,39.36611740150183,56.09475995179351,1.9683058700750917,0.8811344288471871,A,752.9736999986198,Correct
12,512,256,B,36.2504779931775,12.391741062454884,1.8125238996588748,0.19464901343497623,B,592.1515999998519,Correct
12,512,257,B,70.18538558253167,37.18576764473994,3.5092692791265834,0.58411267225406,B,544.4799999986571,Correct
12,512,258,A,39.883113689050845,47.151671785061914,1.9941556844525423,0.7406567284221383,A,541.9865999992908,Correct
12,512,259,B,55.86512889725436,38.234363957935045,2.793256444862718,0.6005839846246356,B,991.657500000656,Correct
12,512,260,B,44.22044090767645,15.575622075547496,2.2110220453838223,0.24466129943815512,B,503.6645000000135,Correct
12,512,261,A,47.85038917871554,56.406604502713456,2.392519458935777,0.8860328715983476,A,602.485000001252,Correct
12,512,262,A,27.677669872406632,47.76410154965795,1.3838834936203315,0.7502767526686114,A,602.4530000013328,Correct
12,512,263,B,53.686160817918505,26.84494815609743,2.6843080408959255,0.4216794595659728,B,569.4012999992992,Correct
12,512,264,B,74.57267292660026,55.883827568313976,3.728633646330013,0.8778211107154695,B,886.3478000002942,Correct
12,512,265,A,41.3546983551255,73.4930296868375,2.0677349177562747,1.1544258107711263,A,544.3519000000379,Correct
12,512,266,A,27.78430360287949,37.96790143649098,1.3892151801439747,0.5963984011255071,A,561.1791999999696,Correct
12,512,267,B,44.6670475243466,17.513809950547774,2.23335237621733,0.2751062833850435,B,568.9154000010603,Correct
12,512,268,B,47.67231468382293,35.57011962147544,2.383615734191147,0.558734132450687,B,1348.7454999994952,Correct
12,512,269,A,50.50777717803413,68.9887394328282,2.5253888589017066,1.0836725849129676,A,533.6614000007103,Correct
12,512,270,B,39.52588170422517,13.563116782145624,1.9762940852112587,0.21304894021284562,B,526.2703999997029,Correct
12,512,271,B,52.261980629988734,22.119080931739415,2.613099031499437,0.34744571079655306,B,495.8927000006952,Correct
12,512,272,B,56.92573708738978,27.8793699868577,2.846286854369489,0.4379281196871196,B,527.3220999988553,Correct
12,512,273,B,72.55585693831561,52.807183154215096,3.627792846915781,0.8294932932702642,B,1274.9555999998847,Correct
12,512,274,B,75.69893778498681,53.49815911059125,3.7849468892493405,0.8403471182120568,B,440.73539999953937,Correct
12,512,275,A,25.325213269942267,49.871864991698104,1.2662606634971134,0.7833854233937039,A,489.32980000063253,Correct
12,512,276,B,70.80351098188746,39.843432987251234,3.540175549094373,0.6258591818327286,B,535.9556999992492,Correct
12,512,277,A,69.55450221771233,86.31617517877166,3.477725110885616,1.3558513091379933,A,670.0121000012587,Correct
12,512,278,B,74.87133474036035,63.42208462392191,3.7435667370180177,0.9962317756493162,B,1237.2548000003007,Correct
12,512,279,A,47.76753684206326,69.79172770633942,2.388376842103163,1.0962858952178758,A,475.3398000011657,Correct
12,512,280,B,39.498192651180915,30.35856456263749,1.9749096325590458,0.4768712170175668,B,1105.9618999988743,Correct
12,512,281,A,42.05272871282495,72.36542668488264,2.1026364356412475,1.1367134642355903,A,1069.2909999997937,Correct
12,512,282,A,34.94279649616183,66.60410503836424,1.7471398248080916,1.04621483543724,A,743.2353000003786,Correct
12,512,283,B,64.13793205073333,44.01619645033467,3.206896602536666,0.6914047970366827,B,1157.3146999999153,Correct
12,512,284,B,66.81872113304446,57.06844954010846,3.340936056652223,0.8964291091348227,B,656.102800001463,Correct
12,512,285,A,42.59860000009795,56.03259754775505,2.1299300000048977,0.8801579840879037,A,840.9711000003881,Correct
12,512,286,B,47.83524116624196,21.397535168046705,2.3917620583120978,0.33611169644432387,B,459.4969999998284,Correct
12,512,287,A,34.88651499586478,66.87994961789892,1.744325749793239,1.0505477919602337,A,562.9162000004726,Correct
12,512,288,A,11.347642481944742,34.838422691687285,0.5673821240972372,0.5472406639543036,A,480.14449999936915,Correct
12,512,289,B,44.98107480861743,32.802087573616376,2.2490537404308713,0.5152539867184113,B,492.61069999920437,Correct
12,512,290,A,39.740016084318285,68.26656155078082,1.9870008042159142,1.0723286412688422,A,1882.6864999991813,Correct
12,512,291,A,51.75291965677227,65.24570700211332,2.5876459828386134,1.0248771689805567,A,1879.3624000009004,Correct
12,512,292,A,51.72437477022101,78.92049061025125,2.5862187385110507,1.2396801675943379,A,610.4300999995758,Correct
12,512,293,A,33.77265399958205,46.67616255227339,1.6886326999791024,0.7331874468599254,A,959.9556000011944,Correct
12,512,294,B,42.33170954818766,25.84887505562935,2.116585477409383,0.4060331798916281,B,1035.052799999903,Correct
12,512,295,B,57.78184508317591,50.72084629339354,2.889092254158795,0.7967211904959113,B,491.07120000007853,Correct
12,512,296,B,78.45350402000135,47.34701812451664,3.922675201000067,0.7437252215468214,B,451.3605000011012,Correct
12,512,297,B,50.166804499706316,39.20270584061404,2.5083402249853157,0.6157946633485737,B,478.6787999983062,Correct
12,512,298,B,55.850186053855154,25.50308766479703,2.792509302692758,0.40060156425791404,B,449.75269999849843,Correct
12,512,299,A,68.47602045353341,87.57968427465839,3.4238010226766704,1.3756984636049017,A,655.5712999997922,Correct
12,512,300,A,59.386444259045845,79.90443509484969,2.9693222129522923,1.2551359314161112,A,986.0235000014654,Correct
12,512,301,B,46.60463901636627,39.31986471534108,2.3302319508183134,0.6176349906493003,B,895.0262000016664,Correct
12,512,302,A,43.899491647799316,64.65854862437209,2.194974582389966,1.015654106750529,A,658.3326999989367,Correct
12,512,303,B,83.42854810809636,53.337833234153116,4.171427405404819,0.8378287252340647,B,613.6925999999221,Correct
12,512,304,A,44.682715902351944,68.33242626783338,2.2341357951175973,1.073363241824958,A,629.6913000005588,Correct
12,512,305,A,37.5056342644603,49.421261131740934,1.8752817132230148,0.7763073545131004,A,1931.8020999999135,Correct
12,512,306,A,12.842556330186607,33.35010236766183,0.6421278165093304,0.5238621829735699,A,839.1226999992796,Correct
12,512,307,B,75.56751593106081,49.97242281737071,3.778375796553041,0.7849649820256741,B,639.9502999993274,Correct
12,512,308,A,68.10774462582827,81.79847312127986,3.4053872312914137,1.2848874111633746,A,1299.0215999998327,Correct
12,512,309,B,62.505756350646344,32.929619513140125,3.125287817532317,0.5172572537399406,B,488.2707000015216,Correct
12,512,310,B,38.72679164148528,23.172458682229642,1.936339582074264,0.3639921298085283,B,526.3760999987426,Correct
12,512,311,B,40.554074027929616,24.437013505993775,2.027703701396481,0.383855710530523,B,519.2137000012735,Correct
12,512,312,A,58.633122363833536,75.38828463657924,2.9316561181916767,1.1841964059050683,A,467.65659999982745,Correct
12,512,313,A,18.271930468322417,32.46444718338184,0.9135965234161207,0.5099503438708313,A,472.3489999996673,Correct
12,512,314,B,81.86710158579929,55.05553737382334,4.093355079289965,0.8648103587652086,B,492.24490000051446,Correct
12,512,315,A,15.387725027170696,33.3755587515238,0.7693862513585347,0.5242620509162085,A,469.6225999996386,Correct
12,512,316,B,62.8578641481604,51.340079167523555,3.14289320740802,0.806448077737052,B,518.1998000007297,Correct
12,512,317,A,37.93969947726324,69.21479479797675,1.8969849738631621,1.087223454285244,A,488.1268999997701,Correct
12,512,318,A,25.109574689342395,47.24016001444708,1.2554787344671197,0.7420466982789661,A,551.0322999998607,Correct
12,512,319,A,48.92045685154352,59.78478290121637,2.446022842577176,0.9390971737946101,A,583.918199999971,Correct
12,512,320,A,40.726903616852894,65.55043422733378,2.0363451808426447,1.0296638130410638,A,725.4252000002452,Correct
12,512,321,B,60.19576102699278,43.65704079655012,3.0097880513496387,0.6857631932195588,B,556.3318000004074,Correct
12,512,322,B,76.72398543990407,47.22857578151118,3.836199271995204,0.7418647335735219,B,436.0735999998724,Correct
12,512,323,B,65.18183508284291,41.414625031209546,3.2590917541421454,0.6505394087461194,B,428.9220999999088,Correct
12,512,324,B,67.22133949263844,49.41563351063296,3.361066974631922,0.7762189560474506,B,687.9979000004823,Correct
12,512,325,A,39.308539742238125,56.69380036615013,1.965426987111906,0.8905441336719176,A,701.8157999991672,Correct
12,512,326,A,61.46092402339763,78.54146621314848,3.0730462011698814,1.233726466286991,A,974.3760000001203,Correct
12,512,327,B,75.07588932646439,43.72442328073629,3.7537944663232197,0.6868216348060583,B,538.7783999995008,Correct
12,512,328,A,44.866363227545854,62.278100580644875,2.243318161377293,0.9782621163184009,A,928.8897000005818,Correct
12,512,329,B,54.11340291709709,39.68507337076543,2.705670145854855,0.6233716747938429,B,896.6134000002057,Correct
12,512,330,B,37.85553597903145,16.852271857506075,1.8927767989515727,0.2647148673191955,B,562.5529999997525,Correct
12,512,331,B,81.82371123858346,66.60047735743636,4.091185561929173,1.046157851958477,B,493.6388000005536,Correct
12,512,332,A,55.03210799220092,81.4548658304909,2.751605399610046,1.2794900404610623,A,537.5077999997302,Correct
12,512,333,A,15.507414049824895,32.74813489727819,0.7753707024912447,0.5144065000602835,A,469.6550999997271,Correct
12,512,334,B,69.69758438482131,40.122564251636646,3.4848792192410656,0.6302437654806308,B,479.85349999908067,Correct
12,512,335,B,55.69066580528136,32.06022560478855,2.7845332902640685,0.5036008461621754,B,409.54010000132257,Correct
12,512,336,B,74.69037799513856,47.09085694179705,3.7345188997569276,0.7397014510979876,B,546.6717999988759,Correct
12,512,337,A,59.221658326202586,68.28671645849425,2.9610829163101293,1.0726452338188739,B,1439.08139999985,Incorrect
12,512,338,A,27.93120574904716,50.825124097641435,1.396560287452358,0.7983591824146994,A,503.40350000078615,Correct
12,512,339,B,64.17021648524818,50.079996946162325,3.2085108242624085,0.7866547524893142,B,501.48709999848506,Correct
12,512,340,A,22.825799169926285,48.11928650690671,1.1412899584963143,0.755855984930403,A,451.2839000017266,Correct
12,512,341,B,33.615498454332595,17.99786052946026,1.6807749227166298,0.2827097320984303,B,434.77059999895573,Correct
12,512,342,B,51.88567504598836,27.520727371095326,2.5942837522994178,0.43229457465240306,B,513.6911999998119,Correct
12,512,343,A,52.33552510376132,66.21884756181039,2.616776255188066,1.0401632251468296,A,685.547699999006,Correct
12,512,344,B,54.91853137565569,34.19245773240826,2.7459265687827843,0.5370938701015665,B,462.9776999991009,Correct
12,512,345,A,37.92399225330724,69.94798783056648,1.896199612665362,1.0987404235094795,A,522.3103000007541,Correct
12,512,346,A,50.928329860780536,77.40523977496895,2.5464164930390267,1.2158786631319947,A,586.8594999992638,Correct
12,512,347,B,46.11420628409822,21.774211136155746,2.3057103142049113,0.3420285087152998,B,446.99060000129975,Correct
12,512,348,B,76.8166845065253,45.43313460015278,3.8408342253262653,0.7136620094469811,B,397.075799999584,Correct
12,512,349,A,26.689280281895996,43.136697506999944,1.3344640140947999,0.6775896599405808,A,436.8320000012318,Correct
12,512,350,B,57.3520857679755,46.346658357764944,2.867604288398775,0.7280116070759517,B,556.8351000001712,Correct
12,512,351,B,71.81531140635724,42.0306474000185,3.590765570317862,0.6602158654876054,B,495.8851000010327,Correct
12,512,352,A,37.14071655704467,50.63542678792553,1.8570358278522334,0.7953794240416534,A,598.7917000002199,Correct
12,512,353,A,13.28915982186129,40.15263578606759,0.6644579910930645,0.6307161280388828,A,512.1424000008119,Correct
12,512,354,B,35.09644219298133,22.274155334483442,1.7548221096490664,0.3498816138186554,B,688.4928999988915,Correct
12,512,355,A,43.70615148882991,52.04220011122466,2.1853075744414956,0.8174769677303666,A,628.6559999989549,Correct
12,512,356,B,35.60784677594495,11.920743441180743,1.7803923387972476,0.18725060010071068,B,530.4474999993545,Correct
12,512,357,B,68.37095407115476,52.04267227648205,3.4185477035577376,0.8174843844848861,B,628.6528000000544,Correct
12,512,358,A,54.04411036678216,68.03128586258208,2.702205518339108,1.068632939400775,A,503.43319999956293,Correct
12,512,359,B,84.85632566231223,62.002408769276215,4.242816283115611,0.9739315594721477,B,491.6357000001881,Correct
12,512,360,B,70.97521743260853,48.575642981761554,3.5487608716304266,0.7630244156745134,B,482.5423000002047,Correct
12,512,361,B,61.239916714448654,29.439573671809363,3.061995835722433,0.46243574186085884,B,482.0060999991256,Correct
12,512,362,A,28.681350510061794,53.1547735193569,1.4340675255030897,0.8349532299582045,A,466.54400000079477,Correct
12,512,363,A,44.15960534092334,63.47814964947335,2.207980267046167,0.9971124430112948,A,556.502499999624,Correct
12,512,364,B,75.0716281756452,58.33972655949037,3.7535814087822597,0.9163982818586615,B,667.4098999992566,Correct
12,512,365,A,42.929620804381074,60.22791073343157,2.1464810402190535,0.9460578095060523,A,424.6564999994007,Correct
12,512,366,A,23.49067250587924,35.043140687848634,1.174533625293962,0.5504563667182942,A,583.0006000014691,Correct
12,512,367,B,68.63992421388775,57.87708970658236,3.4319962106943875,0.9091311991667829,B,927.8699000005872,Correct
12,512,368,B,39.651024867361016,12.368535571563196,1.9825512433680508,0.19428450243643486,B,432.1587000013096,Correct
12,512,369,A,51.886954386631594,75.21911493402557,2.5943477193315796,1.1815390944313051,A,373.132099999566,Correct
12,512,370,B,70.88043652501526,55.039995760243336,3.5440218262507632,0.8645662316699692,B,517.1573999996326,Correct
12,512,371,A,29.874424404068627,40.559896094287424,1.4937212202034313,0.6371133580008935,A,877.1626999987348,Correct
12,512,372,B,59.68078450553289,38.934432801232774,2.9840392252766446,0.6115806403001918,B,777.6353000008385,Correct
12,512,373,B,40.531283922804676,12.723853020219114,2.026564196140234,0.19986581586838337,B,421.5050999991945,Correct
12,512,374,B,61.795143957136254,31.603663380421647,3.089757197856813,0.4964291835122871,B,418.75269999945886,Correct
12,512,375,B,41.40054816676592,26.827104144722068,2.070027408338296,0.4213991664907357,B,633.9432999993733,Correct
12,512,376,A,45.831611460508846,57.771997798260045,2.2915805730254424,0.9074804193310972,A,543.1934999996884,Correct
12,512,377,A,23.63248172950433,54.345589699511294,1.1816240864752166,0.853658526774949,A,474.23999999955413,Correct
12,512,378,A,39.62010411146562,54.9577532292066,1.9810052055732812,0.863274369013381,A,750.6816000004619,Correct
12,512,379,B,40.832754065231754,21.440286622300036,2.0416377032615878,0.3367832347173866,B,550.7066999998642,Correct
12,512,380,A,26.70927714298638,53.115946164391396,1.335463857149319,0.8343433312926148,A,489.7295999999187,Correct
12,512,381,A,50.07941638083628,70.36388628667343,2.5039708190418137,1.1052733411812041,A,706.8953999987571,Correct
12,512,382,B,44.511857721079224,20.36956842663835,2.225592886053961,0.3199644326296082,B,722.3481000000902,Correct
12,512,383,B,76.72423160699311,50.555372262733194,3.8362115803496555,0.794121930500499,B,451.99200000024575,Correct
12,512,384,A,27.25720942578129,39.05259614740899,1.3628604712890646,0.6134367458015457,A,756.8967999995948,Correct
12,512,385,B,73.53114774370302,42.50164743319528,3.6765573871851505,0.6676143167079489,B,501.96600000163016,Correct
12,512,386,B,75.8190669636177,61.3366534745879,3.7909533481808855,0.963473899757741,B,682.9654000011942,Correct
12,512,387,B,38.401653579936195,21.164217074927535,1.9200826789968095,0.3324467444078601,B,576.4749999998457,Correct
12,512,388,B,59.129078853725915,47.30762143709765,2.9564539426862955,0.743106379827965,B,704.2293999984395,Correct
12,512,389,B,50.24664920211124,34.37786245858294,2.5123324601055623,0.5400062007300225,B,442.1923000008974,Correct
12,512,390,B,71.09470325483434,38.59408122811167,3.5547351627417174,0.6062344102914168,B,563.0469999996421,Correct
12,512,391,A,35.596435949889845,45.055628169374366,1.779821797494492,0.7077321522988992,A,653.7771000002977,Correct
12,512,392,A,35.64895787915288,67.82897156767987,1.782447893957644,1.0654549938878701,A,495.5033000005642,Correct
12,512,393,B,69.496831490523,57.10193420145126,3.47484157452615,0.8969550849652351,B,551.7639000008785,Correct
12,512,394,B,66.9355449903474,50.30594584541787,3.3467772495173698,0.7902039494992538,B,500.47579999954905,Correct
12,512,395,B,55.35201884232896,39.83850736995394,2.767600942116448,0.6257818104171506,B,851.9226999997045,Correct
12,512,396,A,19.792187021826024,46.35826162252046,0.9896093510913012,0.7281938707325196,A,506.0216000001674,Correct
12,512,397,B,73.43146147933986,51.919568590563536,3.671573073966993,0.815550676308329,B,490.5871000009938,Correct
12,512,398,A,51.7973509818698,80.84823157423433,2.5898675490934897,1.2699610518467048,A,556.5452999999252,Correct
12,512,399,A,59.019243365544455,84.1391699334814,2.950962168277223,1.321654990710842,A,643.4759999992821,Correct
12,512,400,A,50.37064007620849,73.82806645799286,2.5185320038104244,1.159688556065847,A,764.5622000000003,Correct
12,512,401,A,30.66394174316957,49.89692487519212,1.5331970871584784,0.7837790631231268,A,533.4437000001344,Correct
12,512,402,A,55.24689666491486,70.47805966987896,2.7623448332457428,1.1070667724907741,A,609.8557000004803,Correct
12,512,403,B,81.41834775290273,59.52481264222368,4.070917387645136,0.9350135705155936,B,487.1300999984669,Correct
12,512,404,B,68.0867182541382,58.236732411188214,3.40433591270691,0.9147804535603175,B,594.1840000014054,Correct
12,512,405,A,20.15239366928396,35.37273357679163,1.007619683464198,0.555633599711188,A,625.6413999999495,Correct
12,512,406,B,54.06039495003466,39.11396594042208,2.7030197475017332,0.6144007402559569,B,525.2435000002151,Correct
12,512,407,A,67.32916740255018,80.20266537218829,3.3664583701275093,1.2598205216579361,A,710.6364999999641,Correct
12,512,408,B,56.87833716865189,49.53567145805034,2.8439168584325945,0.7781045077162425,B,529.4135999993159,Correct
12,512,409,A,39.424089309670826,64.06024453619122,1.9712044654835412,1.0062559681103203,A,509.0061999999307,Correct
12,512,410,A,67.49681551638092,84.32829135658392,3.374840775819046,1.3246257030781183,A,604.2010000001028,Correct
12,512,411,B,66.58906663812294,36.35262012067413,3.3294533319061475,0.5710256215492517,B,626.568399999087,Correct
12,512,412,A,35.95227052571792,65.44483625134562,1.797613526285896,1.0280050839130719,A,432.0926000000327,Correct
12,512,413,A,35.15968612541849,55.896761165992345,1.7579843062709244,0.8780242711927239,A,678.4654999992199,Correct
12,512,414,A,10.58565278435723,31.95666739967629,0.5292826392178615,0.5019741576801774,A,555.1584000004368,Correct
12,512,415,A,41.7950308057237,72.11164376063351,2.089751540286185,1.1327270513834524,A,931.1959000006027,Correct
12,512,416,B,62.96402802073988,44.59321519985801,3.148201401036994,0.7004685863591131,B,701.1492999990878,Correct
12,512,417,A,56.83491114155376,68.85828137651585,2.8417455570776884,1.0816233545564051,A,520.4659000009997,Correct
12,512,418,A,22.69731365025193,42.040817925918034,1.1348656825125965,0.660375623734851,A,463.62910000061675,Correct
12,512,419,A,13.884264292778127,30.13088362903777,0.6942132146389064,0.47329481327577,A,452.3348000002443,Correct
12,512,420,A,22.844556152293524,46.26840958880125,1.1422278076146761,0.7267824782873078,A,419.5666000014171,Correct
12,512,421,B,67.98217644830922,44.375824783253414,3.399108822415461,0.6970538256802841,B,548.3876999987842,Correct
12,512,422,A,26.257883909104656,51.777147942911135,1.312894195455233,0.8133135380064074,A,473.92799999943236,Correct
12,512,423,A,46.089689104714914,60.782300842557405,2.304484455235746,0.9547661489763153,A,534.895000000688,Correct
12,512,424,A,32.41659316005224,61.701401944681685,1.6208296580026118,0.9692033553280148,A,466.4945999993506,Correct
12,512,425,A,33.12652049896727,54.19029400112967,1.6563260249483633,0.8512191476491,A,556.7482999995264,Correct
12,512,426,A,23.428432007260806,53.60279232021998,1.1714216003630404,0.8419906928255123,A,547.0746999999392,Correct
12,512,427,A,32.41125259959443,60.910110121024445,1.6205626299797213,0.9567737724277786,A,1736.3291000001482,Correct
12,512,428,B,77.77834729217516,64.80766533207068,3.888917364608758,1.0179964265176957,B,658.5735999997269,Correct
12,512,429,B,78.69586545108385,46.943984912377445,3.934793272554192,0.7373943906547754,B,694.1661999990174,Correct
12,512,430,B,53.38543028696439,27.739977202643995,2.6692715143482193,0.43573854295287356,B,1146.900400000959,Correct
12,512,431,B,34.16562064749383,19.777223050629857,1.7082810323746915,0.31065989322132737,B,605.1622999984829,Correct
12,512,432,B,50.383059787976734,22.173927665875393,2.5191529893988367,0.348307241281728,B,428.8465999998152,Correct
12,512,433,A,23.461838346873073,49.68287076528059,1.1730919173436536,0.7804167090272829,A,502.50640000012936,Correct
12,512,434,B,62.143041147609296,43.69443473623038,3.107152057380465,0.6863505758505002,B,577.8312000002188,Correct
12,512,435,A,31.91087166838647,45.132219918942454,1.5955435834193237,0.7089352526877427,A,494.5403999990958,Correct
12,512,436,B,66.83019554398423,43.395960836121134,3.341509777199212,0.6816621587911426,B,546.4114000005793,Correct
12,512,437,B,40.12755007809746,29.0090890170584,2.0063775039048726,0.4556737047166151,B,544.4809999989957,Correct
12,512,438,A,44.86848613903008,76.97726700770248,2.2434243069515043,1.2091560826240904,A,482.4772000010853,Correct
12,512,439,A,34.166557726025985,65.1742334952866,1.7083278863012992,1.023754465760691,A,461.7969000009907,Correct
12,512,440,B,63.174821586897636,53.57316286418679,3.158741079344882,0.8415252744184939,A,1139.869099999487,Incorrect
12,512,441,A,52.84986585063905,62.000653385855806,2.6424932925319524,0.9739039859738585,A,739.3081999998685,Correct
12,512,442,A,38.964642823397526,65.25973280261236,1.9482321411698762,1.0250974857395994,A,830.6756999991194,Correct
12,512,443,A,39.70133376753212,50.091731872538105,1.985066688376606,0.786839084281777,A,607.0109000011144,Correct
12,512,444,B,70.64038421694491,44.0863929717506,3.532019210847245,0.6925074414166219,B,491.3923000003706,Correct
12,512,445,B,73.08522099403268,52.866052765783955,3.654261049701634,0.8304180149663861,B,601.4979999999923,Correct
12,512,446,B,69.96813699644647,50.72028470289662,3.4984068498223233,0.7967123690530138,B,527.8529000006529,Correct
12,512,447,B,65.6363466661654,32.66820577872667,3.28181733330827,0.5131509764020367,B,383.3087000002706,Correct
12,512,448,A,52.59995009285045,67.8711516614382,2.629997504642523,1.0661175572512647,B,1132.296599998881,Incorrect
12,512,449,B,75.72331339131937,60.774642952807866,3.7861656695659685,0.9546458591254195,B,617.005699999936,Correct
12,512,450,B,53.54486090322877,41.794253646187514,2.677243045161439,0.6565026010856556,B,555.7684999985213,Correct
12,512,451,B,83.38910363762764,63.94946858318304,4.169455181881382,1.0045159035094957,B,693.1916000012279,Correct
12,512,452,B,78.9044158146626,53.90881103786104,3.9452207907331296,0.8467976236015229,B,417.5966000002518,Correct
12,512,453,B,67.67393466190805,45.049764986905316,3.3836967330954026,0.7076400536440421,B,439.1406000013376,Correct
12,512,454,B,72.10422871919394,45.9397979794126,3.605211435959697,0.7216206591976092,B,421.7645000007906,Correct
12,512,455,B,75.67354404061027,48.611621680191874,3.7836772020305136,0.7635895677478856,B,401.6396999995777,Correct
12,512,456,B,46.74359740042814,33.520868412082564,2.3371798700214073,0.5265445697267437,B,861.3029000007373,Correct
12,512,457,B,72.55547987119456,53.55939118659235,3.627773993559728,0.8413089494127022,B,825.1201000002766,Correct
12,512,458,A,25.77608069078517,46.79082959246409,1.2888040345392584,0.7349886325152853,A,508.1960999996227,Correct
12,512,459,A,47.460389656696805,66.6198591929469,2.3730194828348403,1.0464623011187422,A,622.1531000010145,Correct
12,512,460,A,61.836379175615704,72.95133376165181,3.0918189587807854,1.1459168710759118,A,1079.8338999993575,Correct
12,512,461,A,34.43710417140577,55.709548315143515,1.7218552085702885,0.8750835386083026,A,581.6216000002896,Correct
12,512,462,A,61.333896703023626,78.43253072079634,3.0666948351511816,1.2320153115745476,A,973.6436999992293,Correct
12,512,463,B,47.34900783651285,24.96667134695095,2.3674503918256424,0.39217555644085944,B,550.753600000462,Correct
12,512,464,A,49.280096246346034,59.723946972169614,2.4640048123173015,0.9381415652557722,A,1106.6461999998864,Correct
12,512,465,A,48.44159935256984,67.34146968927386,2.4220799676284916,1.0577973322888123,A,572.5868000008631,Correct
12,512,466,A,53.34885707161256,65.2941524158589,2.667442853580628,1.0256381477601728,A,492.8695999988122,Correct
12,512,467,A,39.05432050920007,56.59713271002714,1.9527160254600033,0.8890256816803391,A,516.3380000012694,Correct
12,512,468,B,85.8465907031552,68.77341496855031,4.2923295351577595,1.0802902761373998,B,803.5252000008768,Correct
12,512,469,B,36.10975131056667,20.953318171793832,1.8054875655283338,0.3291339521841851,B,587.2699000010471,Correct
12,512,470,A,12.57729351642006,39.021585295399476,0.6288646758210029,0.6129496284772724,A,479.4347999995807,Correct
12,512,471,A,40.3880738080957,69.36752941430946,2.019403690404785,1.0896226040283425,A,523.8645999997971,Correct
12,512,472,B,73.16407864941216,53.99849255616146,3.6582039324706077,0.8482063375967998,B,533.8345000000118,Correct
12,512,473,B,32.88214287334264,10.18024954970926,1.644107143667132,0.15991098598538706,B,585.1249000006646,Correct
12,512,474,A,64.70867683106482,87.7519101109209,3.2354338415532413,1.378403780714705,A,744.306399999914,Correct
12,512,475,B,61.20726685791985,48.037447254410594,3.0603633428959927,0.7545704569583175,B,856.6021999995428,Correct
12,512,476,B,51.63980157474838,39.91131014845567,2.581990078737419,0.6269253937876604,A,826.8628000005265,Incorrect
12,512,477,A,27.343141336487548,56.93627508853043,1.3671570668243773,0.8943529177044738,A,662.7150000003894,Correct
12,512,478,A,38.91505945307048,70.19284179590832,1.9457529726535239,1.102586580603081,A,756.550199999765,Correct
12,512,479,A,31.594313591712716,52.922417027809296,1.5797156795856357,0.8313033827239054,A,593.0415999991965,Correct
12,512,480,B,42.260412416423044,15.571962866042242,2.113020620821152,0.24460382070965683,B,463.6043000009522,Correct
12,512,481,A,54.68003590569777,78.97287478272747,2.7340017952848887,1.2405030162514163,A,590.2520999989065,Correct
12,512,482,B,47.12096828849636,28.481185867033947,2.356048414424818,0.44738142142699644,B,537.2621000005893,Correct
12,512,483,A,52.50285463145673,76.4561656884421,2.6251427315728364,1.2009706422422686,A,663.3891999990738,Correct
12,512,484,B,71.46380314874321,53.067344938744576,3.57319015743716,0.8335799050253772,B,451.5209999990475,Correct
12,512,485,A,21.53648495535047,45.338761054925925,1.0768242477675236,0.7121795932650915,A,598.8667000001442,Correct
12,512,486,A,34.10117845346911,43.134641104437044,1.7050589226734556,0.6775573580446587,A,574.8846000005869,Correct
12,512,487,A,51.7259035852083,81.40305572036789,2.586295179260415,1.2786762091543418,A,443.56640000114567,Correct
12,512,488,A,43.8381649587828,51.0032015201303,2.1919082479391396,0.8011564160260056,A,548.7229999998817,Correct
12,512,489,B,34.83741848170077,20.1046789030067,1.7418709240850387,0.31580355772233776,B,661.0208000001876,Correct
12,512,490,A,34.91797597293765,58.48782093474002,1.7458987986468824,0.9187245428652728,A,485.5816999988747,Correct
12,512,491,A,60.91074022549465,70.87540034993359,3.045537011274732,1.113308185297934,A,982.4109999990469,Correct
12,512,492,B,37.42609837355941,18.497050073139516,1.8713049186779704,0.29055098311428823,B,489.4805999992968,Correct
12,512,493,A,28.01888141437791,60.818740297991326,1.4009440707188956,0.955338538603775,A,445.90989999960584,Correct
12,512,494,A,29.861198731762002,60.05703229447996,1.4930599365880999,0.9433736572637159,A,477.33080000034533,Correct
12,512,495,B,44.823137854826655,22.184832519605198,2.2411568927413326,0.34847853432355813,B,379.45899999976973,Correct
12,512,496,A,46.765693739431015,70.97400714478184,2.3382846869715506,1.1148570972093805,A,524.3011999991722,Correct
12,512,497,A,31.187518933722714,57.978140374568106,1.5593759466861357,0.9107184993477045,A,456.1579000001075,Correct
12,512,498,B,60.83986828401734,36.14491152036912,3.0419934142008676,0.5677629424852235,B,507.7752999986842,Correct
12,512,499,B,32.94674096874758,12.206767120953558,1.6473370484373788,0.19174344955634565,B,416.52909999902477,Correct
12,512,500,A,47.493482954051295,56.4849678756273,2.374674147702565,0.887263800581631,A,584.5086999997875,Correct
12,512,501,A,37.72110654461293,50.10776450333863,1.8860553272306464,0.7870909242574803,A,728.7734000001365,Correct
12,512,502,B,74.66163693542458,62.380991508054116,3.733081846771229,0.9798783232267504,B,1248.2591999996657,Correct
12,512,503,B,68.14720255143258,52.11594083554244,3.4073601275716294,0.8186352843193021,B,536.003700000947,Correct
12,512,504,A,53.917677010286006,82.52875222905368,2.6958838505143,1.2963586085636365,A,552.8334000009636,Correct
12,512,505,B,88.45468833740192,64.38653563722949,4.422734416870096,1.011381336740088,B,583.4562000000005,Correct
12,512,506,A,28.543628282846942,47.59383558846483,1.4271814141423471,0.7476022212044077,A,447.7941000004648,Correct
12,512,507,A,29.817381890370065,40.92872918134657,1.4908690945185032,0.6429069745844229,A,429.57120000028226,Correct
12,512,508,B,59.248008352026275,30.970067768376673,2.9624004176013137,0.486476686911551,B,593.1780000009894,Correct
12,512,509,A,15.992808053307456,39.76776359485918,0.7996404026653728,0.6246705697965262,A,425.4600999993272,Correct
12,512,510,B,34.24273966058526,17.115168940059668,1.7121369830292628,0.2688444450351983,B,570.5839000002015,Correct
12,512,511,B,41.89861081436152,16.977350486335943,2.094930540718076,0.2666795978264605,B,458.8547999992443,Correct
12,512,512,B,35.920023830581314,12.659791629213139,1.796001191529066,0.1988595418915678,B,375.3013000005012,Correct
12,512,513,B,83.97474446635222,63.39338360909454,4.198737223317611,0.995780941162655,B,661.4024999998946,Correct
12,512,514,A,34.72033165566,61.12384890664349,1.7360165827829999,0.9601311734212185,A,694.225399998686,Correct
12,512,515,A,31.48938041483291,51.83914014255347,1.5744690207416456,0.8142873092012886,A,549.1627999999764,Correct
12,512,516,B,44.63964877036408,32.808780530739796,2.2319824385182043,0.5153591194430599,B,1628.3043999992515,Correct
12,512,517,A,17.735168553904085,32.0868698784831,0.8867584276952043,0.5040193734346706,A,438.8753999992332,Correct
12,512,518,B,43.928708468769756,14.83438842116741,2.1964354234384875,0.23301802842218516,B,509.47570000062115,Correct
12,512,519,B,61.91235039578474,45.35900741752023,3.0956175197892373,0.7124976223850326,B,1230.8611999997083,Correct
12,512,520,B,38.25727267356103,26.14242482432743,1.9128636336780516,0.4106442488756526,B,646.8843999991805,Correct
12,512,521,B,49.80582907387619,42.95297538367911,2.4902914536938097,0.6747037595759475,B,409.38330000062706,Correct
12,512,522,B,86.52855597445871,61.897484924698844,4.326427798722936,0.9722834195755943,B,521.1474999996426,Correct
12,512,523,B,80.77457306757148,54.70813882752711,4.038728653378574,0.8593534351606483,B,436.1895000001823,Correct
12,512,524,B,88.97904533394893,63.63158738691898,4.448952266697447,0.999522637355008,B,485.894699999335,Correct
12,512,525,A,48.17326701180009,69.08189335169202,2.4086633505900044,1.0851358432487461,A,643.7205000001995,Correct
12,512,526,A,50.855041120756916,71.63368707413471,2.5427520560378456,1.1252193253082587,A,732.5344000000769,Correct
12,512,527,A,57.70713191974383,69.19078149955659,2.8853565959871914,1.0868462542757176,A,881.7734999993263,Correct
12,512,528,A,41.595355599764744,64.83493694902867,2.079767779988237,1.0184248080751295,A,522.3563999988983,Correct
12,512,529,B,71.83411858184427,47.813202464519364,3.5917059290922135,0.7510480280356772,B,639.0455000000657,Correct
12,512,530,A,52.70484955654817,65.68757250762742,2.6352424778274086,1.0318179761105457,A,1005.6724999994913,Correct
12,512,531,A,64.43589194234676,76.06132992098117,3.221794597117338,1.19476857651012,A,622.2951999989164,Correct
12,512,532,A,55.45022951271383,74.68701677635792,2.7725114756356914,1.1731809161157185,A,560.7681000001321,Correct
12,512,533,A,22.810394644174444,54.25362801929114,1.1405197322087222,0.852213996079992,A,812.6641999988351,Correct
12,512,534,B,46.00198624031265,21.360113530200714,2.3000993120156323,0.3355238787316125,B,643.5879000000568,Correct
12,512,535,A,64.46960331664093,78.08343407494498,3.223480165832046,1.2265317142845502,A,662.8796999993938,Correct
12,512,536,A,52.69027959599862,66.77958030336401,2.634513979799931,1.0489711944542903,A,491.29979999997886,Correct
12,512,537,A,63.255558494005115,78.84291631462331,3.162777924700256,1.2384616334080771,A,527.4755999998888,Correct
12,512,538,B,55.534801287939565,48.82218094826193,2.7767400643969786,0.7668970249964562,B,1737.4287000002369,Correct
12,512,539,B,72.13198276685914,46.270029256639084,3.606599138342957,0.7268079199702107,B,501.59290000010515,Correct
12,512,540,B,68.41018619516588,46.434207690312846,3.4205093097582937,0.7293868287757475,B,406.7261000000144,Correct
12,512,541,A,35.12532492024761,60.020971359974496,1.7562662460123803,0.9428072134290962,A,591.5444000002026,Correct
12,512,542,B,36.32417264651768,19.77684061237157,1.8162086323258841,0.31065388589521387,B,416.6827999997622,Correct
12,512,543,A,23.707634178038482,49.75697288559527,1.1853817089019243,0.7815807024112631,A,492.00289999862434,Correct
12,512,544,A,23.70959764482656,42.56203072954754,1.185479882241328,0.6685628153090478,A,584.9695999986579,Correct
12,512,545,B,34.80264228145991,11.381988183717805,1.7401321140729953,0.17878785230606845,B,492.006800001036,Correct
12,512,546,A,41.70378416919516,69.69626781690525,2.085189208459758,1.0947864147810813,A,454.50160000109463,Correct
12,512,547,A,57.272294669536336,79.2055668039307,2.8636147334768167,1.244158133973221,A,1367.6301000014064,Correct
12,512,548,A,63.51648882579008,77.76187275831205,3.175824441289504,1.2214806409344872,A,551.1612999998761,Correct
12,512,549,A,20.35711073865103,39.383352016481716,1.0178555369325515,0.6186322468435986,A,589.743799999269,Correct
