subject,day,trial,cat,x,y,xt,yt,resp,rt,fb
9,209,0,B,35.194304213974156,13.471387857281016,1.759715210698708,0.21160806563046392,B,897.7137000001676,Correct
9,209,1,B,77.27633982655415,65.54326276048378,3.8638169913277074,1.0295511639032067,A,971.119899999394,Incorrect
9,209,2,A,50.892144663131916,81.67931146326994,2.544607233156596,1.2830156242164072,A,931.1195999998745,Correct
9,209,3,A,51.90820214711406,81.94284336984124,2.5954101073557028,1.2871551737247615,A,1131.7027999994025,Correct
9,209,4,A,63.47841212465876,82.75327380851544,3.173920606232938,1.2998853852866836,A,725.3799999998591,Correct
9,209,5,B,67.28836019871058,38.82200532037375,3.3644180099355285,0.6098146335605502,B,479.61450000002515,Correct
9,209,6,B,63.68632629026836,44.862473304870775,3.184316314513418,0.7046980827822511,B,698.3811999998579,Correct
9,209,7,B,80.01938280109815,54.40271901144466,4.000969140054907,0.8545559119083215,B,677.9796999999235,Correct
9,209,8,B,46.27471826327331,34.481652947258006,2.3137359131636654,0.5416365379136928,B,743.1358999983786,Correct
9,209,9,B,66.4916834391463,34.129828839478854,3.324584171957315,0.5361100977519192,B,586.168899999393,Correct
9,209,10,B,39.71889992709592,22.02925142340792,1.985944996354796,0.34603467217930406,B,793.9155000003666,Correct
9,209,11,B,50.733123651334296,39.458065538800334,2.536656182566715,0.6198058441077986,B,716.6722000001755,Correct
9,209,12,B,53.561591651195116,35.93075622293435,2.6780795825597554,0.5643989989394815,B,524.4081999990158,Correct
9,209,13,B,77.87582956354527,49.31909829385827,3.8937914781772633,0.7747025844082902,B,1177.3971000002348,Correct
9,209,14,A,65.89803831744752,86.62336023319787,3.2949019158723756,1.3606765606893834,A,424.89129999921715,Correct
9,209,15,B,79.32390638166505,55.570770787373604,3.9661953190832526,0.8729036262996761,B,500.21320000087144,Correct
9,209,16,B,68.49689940715051,38.84135343622229,3.4248449703575257,0.6101185530536032,B,443.42279999909806,Correct
9,209,17,B,78.41739928410801,59.425860537157064,3.9208699642054006,0.9334592344839212,B,855.2804999999353,Correct
9,209,18,B,66.48715972569423,51.68231272280072,3.3243579862847117,0.8118238698524051,B,638.455199999953,Correct
9,209,19,B,70.14711775789172,56.41406133184575,3.507355887894586,0.8861500031964531,B,711.8595000010828,Correct
9,209,20,A,37.64310267448652,49.632283150755235,1.882155133724326,0.7796220806365055,A,2289.5220999998855,Correct
9,209,21,A,35.972282719653215,52.30608921380178,1.7986141359826606,0.82162212806046,A,529.8474999999598,Correct
9,209,22,A,30.666828874466525,51.57153120807575,1.5333414437233261,0.8100837178883376,A,444.0417999994679,Correct
9,209,23,B,56.809484442186566,39.87994972439205,2.840474222109328,0.6264327853984017,B,462.31019999868295,Correct
9,209,24,A,62.26026033289286,72.22838096214386,3.113013016644643,1.13456075505678,A,734.0425000002142,Correct
9,209,25,B,74.48060097360235,58.4579412881095,3.7240300486801177,0.9182551944735414,B,484.1031000014482,Correct
9,209,26,B,61.05454241599058,49.66595503847496,3.052727120799529,0.7801509974119695,B,1732.7105999993364,Correct
9,209,27,B,75.67162523245337,47.205895272793654,3.7835812616226683,0.7415084689756885,B,705.6855999999243,Correct
9,209,28,A,69.28570874068023,87.6322540950506,3.4642854370340115,1.376524228412625,A,594.2178999994212,Correct
9,209,29,A,34.82485864261917,62.825969131146444,1.7412429321309586,0.9868680153853439,A,1678.9369999987684,Correct
9,209,30,A,45.494674487952864,63.116110614104905,2.274733724397643,0.9914255471421637,A,430.71660000168777,Correct
9,209,31,B,42.86431346336398,14.966992077654623,2.1432156731681986,0.235100961787482,B,552.3947000001499,Correct
9,209,32,B,57.19224902608841,27.136785920640598,2.8596124513044208,0.4262636364516172,B,1225.4611999996996,Correct
9,209,33,B,65.84562220961685,44.70801265065189,3.2922811104808427,0.7022718204994375,B,879.8657999996067,Correct
9,209,34,A,23.440563500132054,55.29048086916667,1.1720281750066028,0.8685008425601052,A,560.4504999992059,Correct
9,209,35,B,46.374537864933814,23.148011360076705,2.3187268932466907,0.36360811217015027,B,446.51840000005905,Correct
9,209,36,A,29.77828629893868,45.25568910823146,1.488914314946934,0.7108747021778178,A,1448.7621000007493,Correct
9,209,37,B,86.01432368737238,57.50871089971926,4.3007161843686195,0.9033447183998866,B,594.1262999986066,Correct
9,209,38,B,68.17999800686532,51.20651800827052,3.4089999003432663,0.8043501039534805,B,690.1813999993465,Correct
9,209,39,B,33.59524951967143,16.542630750164204,1.6797624759835714,0.2598510361788224,B,777.6345000002038,Correct
9,209,40,A,41.2554124548475,68.7405697173981,2.062770622742375,1.0797743441387744,A,528.7976999989041,Correct
9,209,41,A,32.567426805023715,57.86595777368251,1.628371340251186,0.9089563391736907,A,937.6577999992151,Correct
9,209,42,B,74.52799634349958,48.33893075422625,3.726399817174979,0.7593061486993145,B,519.4311999985075,Correct
9,209,43,A,22.361528411155263,40.66164342237017,1.1180764205577631,0.6387116012930293,A,527.7695999993739,Correct
9,209,44,B,52.22845289731893,32.090953181611596,2.611422644865946,0.5040835138102249,B,495.4961000003095,Correct
9,209,45,A,55.68620880253673,79.38578660224739,2.784310440126837,1.2469890199453373,A,463.2516999990912,Correct
9,209,46,A,23.14889474845148,38.62694228729865,1.157444737422574,0.6067505906020717,A,819.1387000006216,Correct
9,209,47,B,50.45086662464058,43.15986470200117,2.522543331232029,0.6779535693886816,B,817.1972000000096,Correct
9,209,48,B,81.18575452009998,66.67118080301591,4.059287726004999,1.0472684590845582,B,645.377599999847,Correct
9,209,49,B,51.868544043674426,35.318702935867094,2.593427202183721,0.5547848883882016,B,721.2368000000424,Correct
9,209,50,A,40.78660383913079,51.42025609900405,2.0393301919565396,0.8077074940316843,B,2354.933799999344,Incorrect
9,209,51,B,53.39743443543837,39.19331057660109,2.6698717217719183,0.6156470828865657,B,638.5062999997899,Correct
9,209,52,A,19.024730356741554,49.13729731261722,0.9512365178370777,0.7718468612728788,A,515.2524999994057,Correct
9,209,53,A,33.151765573088866,61.520130850873265,1.6575882786544434,0.9663559556449312,A,415.3887000011309,Correct
9,209,54,A,30.88549589190459,52.335516554127196,1.5442747945952293,0.822084371641365,A,573.1958999986091,Correct
9,209,55,B,80.28769541879082,56.95651968764345,4.01438477093954,0.8946709191237153,B,450.4367000008642,Correct
9,209,56,A,52.1200394019051,78.16667257717661,2.6060019700952552,1.2278392216200837,A,698.466499999995,Correct
9,209,57,B,74.2448314580719,58.43989401862318,3.712241572903595,0.9179717086273634,B,497.9657000003499,Correct
9,209,58,B,79.82964775745756,51.98623028045328,3.9914823878728782,0.8165977956844963,B,747.3227000009501,Correct
9,209,59,A,35.7016919644375,53.503527574671956,1.7850845982218748,0.8404314458486417,A,1316.7286999996577,Correct
9,209,60,B,36.44070564068755,13.508574660815434,1.8220352820343775,0.212192194574435,B,497.18189999839524,Correct
9,209,61,B,57.21940806512287,40.635919162372815,2.860970403256143,0.6383075255618956,B,640.9198000001197,Correct
9,209,62,A,47.81484601843153,78.77804064907974,2.3907423009215765,1.237442568836735,A,664.6436999999423,Correct
9,209,63,B,54.37472701885355,46.47348117972824,2.7187363509426774,0.7300037353048888,B,599.8271000007662,Correct
9,209,64,A,29.03544771550426,56.18774010567769,1.4517723857752132,0.8825949576890479,A,516.0212999999203,Correct
9,209,65,B,43.30814567806456,23.703750651317737,2.165407283903228,0.37233764454352036,B,419.2020999998931,Correct
9,209,66,A,26.906981638141005,57.76006694455822,1.3453490819070504,0.9072930099193937,A,581.1628999999812,Correct
9,209,67,A,56.50112408214607,70.91393825951612,2.8250562041073035,1.11391353736608,A,1157.9885999999533,Correct
9,209,68,A,27.641511298033635,50.181678612517814,1.3820755649016818,0.78825196436945,A,421.73989999901096,Correct
9,209,69,A,47.506200344346354,63.62547637033159,2.3753100172173176,0.9994266457309234,A,1169.0364000005502,Correct
9,209,70,B,56.51317715035879,38.931522496517424,2.82565885751794,0.6115349253406245,B,536.7721000002348,Correct
9,209,71,A,17.091320560252406,34.46854791149528,0.8545660280126203,0.5414306844933068,A,531.0146000010718,Correct
9,209,72,A,43.68541504391855,62.37060160644866,2.184270752195928,0.9797151190339742,A,689.6673999999621,Correct
9,209,73,A,51.7798636505416,63.07544479594105,2.58899318252708,0.9907867699641849,A,750.59390000024,Correct
9,209,74,B,80.96260394810471,65.68888733776893,4.048130197405236,1.0318386294141122,B,529.6996000015497,Correct
9,209,75,A,40.122898769813375,57.66845728654895,2.006144938490669,0.9058540087763948,A,1410.8093000013469,Correct
9,209,76,B,64.85581353091337,32.964927648923954,3.242790676545668,0.5178118726398927,B,474.8266999995394,Correct
9,209,77,A,46.20474687212183,59.16443299724896,2.3102373436060915,0.9293527402898143,A,626.5613999985362,Correct
9,209,78,B,84.74204350848066,60.866069453662924,4.237102175424033,0.9560819832425678,B,480.36880000108795,Correct
9,209,79,B,81.6355810147368,50.939913078626816,4.08177905073684,0.8001622835115831,B,448.9642999997159,Correct
9,209,80,B,82.17749657387327,56.26096355365376,4.108874828693663,0.8837451489202087,B,402.0708999996714,Correct
9,209,81,A,64.60203698626492,83.78514407252229,3.230101849313246,1.3160939654909922,A,682.9250999999203,Correct
9,209,82,B,81.03020703953776,58.43939956048362,4.051510351976888,0.9179639416970696,B,506.3724999999977,Correct
9,209,83,B,41.35805774181128,27.34073776656324,2.067902887090564,0.42946730455580046,B,617.0435000003636,Correct
9,209,84,A,39.53258375043399,67.13918114323721,1.9766291875216995,1.0546197912381419,A,387.22989999951096,Correct
9,209,85,B,49.65264070624782,27.919018667113487,2.4826320353123914,0.43855091970020005,B,432.8017000007094,Correct
9,209,86,A,64.14093141381225,82.01633553351887,3.207046570690613,1.288309585932292,A,422.30540000127803,Correct
9,209,87,B,71.66774359021326,54.0653273560107,3.5833871795106633,0.8492561761778522,B,633.6635999996361,Correct
9,209,88,A,25.304043217909722,35.86847925227436,1.2652021608954862,0.5634207545719152,A,417.08699999981036,Correct
9,209,89,A,59.00255722549592,71.89413897436901,2.950127861274796,1.1293104941902063,A,568.2837999993353,Correct
9,209,90,B,51.817583534073,23.48992513526594,2.59087917670365,0.36897888119162847,B,396.4488000001438,Correct
9,209,91,B,52.92410888417898,41.4357727468049,2.646205444208949,0.6508715962858922,B,660.4425999994419,Correct
9,209,92,B,52.09947713270875,21.439353180126776,2.6049738566354375,0.3367685722420162,B,423.7884000012855,Correct
9,209,93,A,24.461255944992846,38.745214957788775,1.2230627972496422,0.6086084133657329,A,484.7782000015286,Correct
9,209,94,B,78.90252788257214,58.29735423748545,3.945126394128607,0.9157326989810304,B,804.7944999998435,Correct
9,209,95,A,40.44769333554089,57.850528111233395,2.0223846667770444,0.9087139706027033,A,1707.112899999629,Correct
9,209,96,B,59.77056965516462,45.192015738283004,2.9885284827582312,0.709874523221521,B,1253.9092999995773,Correct
9,209,97,B,43.69649494724486,25.607103399500758,2.1848247473622426,0.40223543959792896,B,512.156300001152,Correct
9,209,98,A,28.30189535328956,44.24990397987006,1.4150947676644778,0.6950758663260678,A,1238.771899999847,Correct
9,209,99,B,67.72114358312818,44.539698277194304,3.3860571791564094,0.6996279445036979,B,631.3810999999987,Correct
9,209,100,A,45.682647475036134,64.73859701505889,2.284132373751807,1.0169115039310956,A,420.09779999898456,Correct
9,209,101,B,31.994595902978087,15.846869846751641,1.5997297951489042,0.2489220494647428,B,534.2989000000671,Correct
9,209,102,B,44.57862692807609,16.70436404286316,2.2289313464038045,0.262391536799742,B,446.0261999993236,Correct
9,209,103,A,53.07009488582524,71.9097816500307,2.6535047442912623,1.129556208764913,A,445.51959999989776,Correct
9,209,104,A,62.19920898981739,76.04243198744359,3.10996044949087,1.1944717284642714,A,535.4415000001609,Correct
9,209,105,B,58.35237154638776,40.504642613780725,2.917618577319388,0.636245438358668,B,640.0233999993361,Correct
9,209,106,B,61.81733869892165,41.436305917916236,3.0908669349460824,0.6508799713181246,B,913.9692000007926,Correct
9,209,107,B,52.67261072897901,36.674768115410345,2.6336305364489503,0.5760859104174115,B,462.9690000001574,Correct
9,209,108,A,33.91310652322116,48.30391175928438,1.695655326161058,0.7587560716130872,A,1361.4932999989833,Correct
9,209,109,A,53.05598531283748,67.27006873546888,2.652799265641874,1.0566757687291475,A,562.0398999999452,Correct
9,209,110,B,64.51198058942886,34.15045010520837,3.225599029471443,0.536434015836537,B,433.23289999898407,Correct
9,209,111,B,85.65409739362227,69.7371596316459,4.282704869681113,1.095428741904987,B,725.9049999993294,Correct
9,209,112,B,87.15219514056761,59.18704794526546,4.357609757028381,0.9297079750625643,B,507.20710000132385,Correct
9,209,113,B,73.35640968245988,49.80120200255452,3.6678204841229944,0.7822754517558329,B,489.2555000005814,Correct
9,209,114,B,78.5998422257882,55.11762719692332,3.9299921112894096,0.8657856634257765,B,442.6525999988371,Correct
9,209,115,A,36.74351591541244,46.39746410742444,1.837175795770622,0.7288096619254035,A,685.7182999992801,Correct
9,209,116,B,43.54256622390065,16.223616108583403,2.1771283111950326,0.25483996590693325,B,514.7309000003588,Correct
9,209,117,B,62.5552080807294,29.541498001483184,3.1277604040364704,0.4640367654874856,B,518.5660999995889,Correct
9,209,118,A,43.94433924247415,58.30969325182017,2.1972169621237074,0.915926519764963,A,761.9008000001486,Correct
9,209,119,B,54.5134711772831,30.07207806484132,2.725673558864155,0.4723710976334212,B,467.0174999992014,Correct
9,209,120,B,30.66551946466436,15.295754384177176,1.5332759732332182,0.2402651480222244,B,812.681800000064,Correct
9,209,121,B,42.42333645877676,16.493940110866898,2.121166822938838,0.25908620540524735,B,446.10409999950207,Correct
9,209,122,A,57.04802195581267,65.48172573767599,2.8524010977906333,1.028584542609323,A,515.9253000001627,Correct
9,209,123,B,72.8746465184501,59.29999625195955,3.6437323259225054,0.931482162915292,B,854.1522999985318,Correct
9,209,124,A,65.8665707943163,80.4742179317197,3.2933285397158154,1.2640860592883731,A,730.8441999994102,Correct
9,209,125,A,30.500603861922862,52.1045567016771,1.525030193096143,0.8184564627627081,A,701.3554999994085,Correct
9,209,126,B,46.308741522176106,37.076502679464895,2.3154370761088052,0.5823963421930459,B,608.3843000014895,Correct
9,209,127,A,59.834380242220696,80.41723800716571,2.991719012111035,1.2631910207264685,A,531.4388000006147,Correct
9,209,128,A,56.97587353153861,78.73374223969469,2.84879367657693,1.2367467310492861,A,394.9047000005521,Correct
9,209,129,B,57.88188086788258,44.26949338941314,2.894094043394129,0.6953835760516113,B,512.989099999686,Correct
9,209,130,A,47.20614311852193,68.47106095126873,2.3603071559260966,1.075540910340024,A,938.635799999247,Correct
9,209,131,A,41.41866737212159,55.24807177050282,2.0709333686060796,0.8678346819960666,B,686.8407000001753,Incorrect
9,209,132,B,55.84501864205283,34.72726301351184,2.7922509321026414,0.5454945718126466,B,606.2724000003072,Correct
9,209,133,B,71.20822016919568,46.65537004144521,3.560411008459784,0.7328608388635879,B,495.9716000012122,Correct
9,209,134,A,28.684643323594734,59.14415748334241,1.4342321661797368,0.9290342532621316,A,436.6936000005808,Correct
9,209,135,A,37.08920385434132,52.03600385335445,1.854460192717066,0.8173796371393425,A,791.1554999991495,Correct
9,209,136,A,39.4401380086878,52.56771055498307,1.97200690043439,0.8257316664778473,A,374.34140000004845,Correct
9,209,137,B,44.471536019615364,36.366020087909234,2.2235768009807684,0.5712361077423724,B,662.6670000005106,Correct
9,209,138,A,19.168581912310355,35.75357170071648,0.9584290956155178,0.5616157909728341,A,583.5079000007681,Correct
9,209,139,A,42.24992582285472,57.03007396213123,2.112496291142736,0.8958263069655702,A,1088.897999999972,Correct
9,209,140,A,18.148383733673207,36.47613040797439,0.9074191866836603,0.5729657166053781,A,512.91239999955,Correct
9,209,141,A,48.83177729338483,69.09805606062326,2.441588864669242,1.0853897264869485,A,652.2248000001127,Correct
9,209,142,A,18.497696051112392,44.039654901366866,0.9248848025556197,0.6917732815238193,A,602.323900000556,Correct
9,209,143,B,89.25656827980451,64.87853755514756,4.462828413990226,1.0191096847945054,B,1129.7955999998521,Correct
9,209,144,A,50.792004774047,59.101358558532866,2.53960023870235,0.9283619693233155,A,2182.2080000001733,Correct
9,209,145,A,61.25279333371063,83.39065867041462,3.0626396666855316,1.3098974032849426,A,738.6633999994956,Correct
9,209,146,A,64.7299869417819,83.81854624819213,3.2364993470890955,1.3166186456394837,A,466.1224999999831,Correct
9,209,147,B,65.99728364638882,37.73322262079026,3.2998641823194412,0.5927120749087144,B,487.93859999932465,Correct
9,209,148,A,46.39728766882921,75.49381735911213,2.3198643834414607,1.1858541100341813,A,482.14659999939613,Correct
9,209,149,B,51.170290546850225,42.10013560346497,2.558514527342511,0.6613073836348982,B,531.835100000535,Correct
9,209,150,B,55.01326366245169,34.267701722951,2.7506631831225845,0.5382757999411457,B,582.8692000013689,Correct
9,209,151,B,80.2469998566088,63.63185003422805,4.01234999283044,0.9995267630092914,B,1585.3970000007394,Correct
9,209,152,A,60.834489820389166,84.02817674937539,3.0417244910194587,1.319911513851912,A,461.81890000116255,Correct
9,209,153,A,41.76040850658571,61.01895873488214,2.088020425329286,0.9584835624560223,B,677.0177999987936,Incorrect
9,209,154,A,36.36990726692946,49.02672819571241,1.8184953633464729,0.7701100456459684,B,637.3429999985092,Incorrect
9,209,155,A,23.01848852432286,53.60465937690002,1.1509244262161429,0.8420200204832615,A,547.6576999990357,Correct
9,209,156,A,21.254870939506084,43.88302875918435,1.0627435469753042,0.6893130038356158,A,479.0007000010519,Correct
9,209,157,B,88.28838053882461,62.381543470761656,4.414419026941231,0.9798869934366858,B,531.155899998339,Correct
9,209,158,A,28.871190931656173,50.42181538837927,1.4435595465828086,0.7920240240239654,A,592.9738999984693,Correct
9,209,159,A,40.22333044742329,67.85136306966783,2.0111665223711643,1.065806718778611,A,488.40329999984533,Correct
9,209,160,A,56.0726514837241,73.61172922789098,2.8036325741862047,1.1562903388019168,A,856.4382999993541,Correct
9,209,161,B,68.85453944189005,39.442934217100074,3.4427269720945026,0.6195681618623354,B,487.62949999945704,Correct
9,209,162,A,53.83702293023062,70.77401231990078,2.6918511465115307,1.111715585846369,A,634.4288999989658,Correct
9,209,163,B,81.90154242988909,65.37975251646365,4.095077121494454,1.026982750996205,B,566.5698999982851,Correct
9,209,164,A,56.137668747903746,82.0796831832941,2.806883437395187,1.2893046484880721,A,527.1222000010312,Correct
9,209,165,A,59.319883634932964,76.56050173487503,2.965994181746648,1.20260954902716,A,465.066000000661,Correct
9,209,166,B,60.82189182777093,44.7817117854075,3.0410945913885468,0.7034294838010583,B,493.7809000002744,Correct
9,209,167,B,53.31893327146858,31.288949472594368,2.6659466635734295,0.4914856690082235,B,609.1264999995474,Correct
9,209,168,B,47.38895716093725,19.596078892589322,2.3694478580468625,0.3078144874406231,B,565.8052999988286,Correct
9,209,169,B,41.16314495304435,28.332148041420737,2.058157247652218,0.44504034073672916,B,558.1174999988434,Correct
9,209,170,A,18.453683466585638,44.64752020932074,0.9226841733292818,0.7013216074530193,A,542.9338000012649,Correct
9,209,171,A,58.67591413539927,72.95425750530632,2.933795706769963,1.145962797133842,A,637.5972000005277,Correct
9,209,172,A,28.450344167855928,43.02003442285766,1.4225172083927964,0.6757571205001482,A,722.838399999091,Correct
9,209,173,A,37.21093986347726,55.37691711291062,1.8605469931738627,0.8698585799018546,A,924.7723999997106,Correct
9,209,174,B,55.33451093551688,32.66249941492845,2.766725546775844,0.5130613410491005,B,499.99620000016876,Correct
9,209,175,B,86.70125081936057,68.15529664680153,4.335062540968028,1.070580896244124,B,492.5246999991941,Correct
9,209,176,A,16.75495618584543,38.162582185566926,0.8377478092922714,0.5994564391809688,A,563.458200000241,Correct
9,209,177,B,60.17184505896468,28.995552020529505,3.0085922529482336,0.45546106607238096,B,495.3600999997434,Correct
9,209,178,A,55.441417637606975,72.92871343830092,2.7720708818803486,1.145561551867607,A,475.21020000021963,Correct
9,209,179,A,29.74577341182473,49.561578846778126,1.4872886705912365,0.7785114600267473,A,481.5799000007246,Correct
9,209,180,B,66.84401303111632,44.47184201837428,3.342200651555816,0.6985620608826527,B,3079.149999999572,Correct
9,209,181,B,76.47578981438848,62.13990907162058,3.823789490719424,0.9760914091707047,B,2133.780400001342,Correct
9,209,182,B,56.13359635832806,34.510624313998306,2.8066798179164034,0.5420916190782719,B,631.9585000001098,Correct
9,209,183,B,69.12823003295914,59.53182610595753,3.456411501647957,0.9351237377463062,B,1545.4057000006287,Correct
9,209,184,A,26.958003530234276,38.006225412474606,1.3479001765117138,0.5970003927325398,A,450.256599999193,Correct
9,209,185,B,51.10302002238786,24.573191732444066,2.555151001119393,0.3859947931094986,B,595.1359999999113,Correct
9,209,186,A,66.06180969502009,89.06550779225037,3.3030904847510043,1.3990377248418915,A,471.2024999989808,Correct
9,209,187,A,21.227906229675284,46.690343806275074,1.0613953114837642,0.7334102054768773,A,592.3669999992853,Correct
9,209,188,B,53.33599358618667,33.31713816129602,2.6667996793093334,0.5233443824308187,B,526.7686999995931,Correct
9,209,189,A,15.095940939373211,36.048184828203944,0.7547970469686605,0.5662435631576627,A,422.7408999995532,Correct
9,209,190,B,61.71333618935285,45.46711526217022,3.085666809467643,0.7141957764377715,B,823.8827000004676,Correct
9,209,191,A,49.90628363480849,62.33755081385759,2.4953141817404245,0.979195958397977,A,1143.3440999990125,Correct
9,209,192,A,43.308642349614615,54.36423980948284,2.165432117480731,0.8539514820173253,A,373.1370000004972,Correct
9,209,193,A,46.80098513852824,71.70764807858073,2.3400492569264117,1.1263811020493573,A,510.0001999999222,Correct
9,209,194,B,35.31183917940669,24.95696773941966,1.7655919589703344,0.3920231325301913,B,412.0702000000165,Correct
9,209,195,A,46.72605732079188,64.71875470491696,2.336302866039594,1.0165998216522352,A,508.08390000020154,Correct
9,209,196,A,63.599547372732374,80.05784568277866,3.179977368636619,1.2575456992962137,A,580.6706000003032,Correct
9,209,197,B,57.88491268817882,50.451212075349694,2.894245634408941,0.7924857861030963,B,468.1183000011515,Correct
9,209,198,A,46.6960041421704,70.53565871845636,2.33480020710852,1.1079715362300966,A,497.40120000024035,Correct
9,209,199,B,51.40457361218019,21.14425011759667,2.5702286806090093,0.33213310417553404,B,370.50949999866134,Correct
9,209,200,A,31.806447087812963,52.55743949857737,1.590322354390648,0.8255703291011034,A,494.9674999988929,Correct
9,209,201,A,39.34348986139049,59.60128944924468,1.9671744930695243,0.9362148653911297,A,539.0829000007216,Correct
9,209,202,B,44.92148399260144,27.16682906070429,2.246074199630072,0.4267355529921915,B,458.5437000005186,Correct
9,209,203,A,47.07265308751699,62.50678396531325,2.3536326543758492,0.9818542665247618,A,462.4184000003879,Correct
9,209,204,A,25.98909786941844,43.46005678712544,1.299454893470922,0.6826689756351425,A,558.4663000008732,Correct
9,209,205,B,48.59955617652041,19.313578561907505,2.4299778088260204,0.3033769826230897,B,454.1905999994924,Correct
9,209,206,B,72.16569948567046,40.68004402679454,3.608284974283523,0.6390006373114353,B,1835.9875000005559,Correct
9,209,207,A,18.482911061696914,36.9486565152698,0.9241455530848457,0.5803881393419213,A,417.00720000153524,Correct
9,209,208,A,52.76983379157202,67.55080331567109,2.638491689578601,1.0610855372030066,A,2453.137800001059,Correct
9,209,209,A,22.74518950628605,54.01187787346617,1.1372594753143026,0.848416593669352,A,430.8220999992045,Correct
9,209,210,B,79.80131391843119,55.04874292057825,3.99006569592156,0.8647036317432087,B,1281.0167000006913,Correct
9,209,211,A,21.969319063819853,46.94314017637748,1.0984659531909926,0.737381121572717,A,552.8212999997777,Correct
9,209,212,B,44.64514370019643,15.125311874572905,2.2322571850098214,0.2375878433420635,B,732.3701000004803,Correct
9,209,213,B,58.98606951180931,32.337208960193124,2.9493034755904652,0.5079516905347038,B,1178.1888000004983,Correct
9,209,214,A,60.371956336958434,79.48124136930362,3.0185978168479215,1.248488419920007,A,525.2533000002586,Correct
9,209,215,B,54.94564082004726,46.70131543754895,2.747282041002363,0.7335825474579168,B,696.5655999993032,Correct
9,209,216,B,67.69087760047908,46.219526277003204,3.3845438800239545,0.7260146210211684,B,1080.0151000003098,Correct
9,209,217,A,39.95616992126819,48.88659958113106,1.9978084960634095,0.767908910515336,A,1299.9451000014233,Correct
9,209,218,A,27.940185333051254,37.83654328495001,1.3970092666525629,0.5943350321061558,A,1548.1888000012987,Correct
9,209,219,A,42.87507689916981,60.00340338302179,2.1437538449584905,0.942531256292431,B,1157.6175999998668,Incorrect
9,209,220,A,54.937447348447094,74.23546438540953,2.746872367422355,1.1660879477451465,A,434.0630000006058,Correct
9,209,221,A,54.27326875241132,67.23983139698743,2.713663437620566,1.05620080172696,A,651.4618999990489,Correct
9,209,222,B,39.64053783358072,28.765717286334812,1.982026891679036,0.4518508305099518,B,657.8131000005669,Correct
9,209,223,A,31.573364749082486,53.862875277461384,1.5786682374541243,0.8460760663644797,A,1010.0947999999335,Correct
9,209,224,A,52.37507685706183,59.66229882900198,2.618753842853091,0.9371731984873578,A,1184.484399998837,Correct
9,209,225,B,43.10684606609535,17.375198781379638,2.1553423033047676,0.27292898423122297,B,828.0790999997407,Correct
9,209,226,B,89.30309518764912,66.18950638316421,4.465154759382456,1.039702334990417,B,769.3280000003142,Correct
9,209,227,B,54.681464986855154,43.0998840042948,2.734073249342758,0.6770113947923239,B,1089.9153999998816,Correct
9,209,228,A,44.88576819612711,75.2281741792198,2.2442884098063556,1.1816813967220514,A,532.6736000006349,Correct
9,209,229,A,49.16913156604171,75.14162204623327,2.4584565783020853,1.1803218389963366,A,675.6208999995579,Correct
9,209,230,B,61.70196092896212,51.864539632091734,3.085098046448106,0.8146862834499803,B,765.2727000004234,Correct
9,209,231,B,58.66414439398889,34.883016937059494,2.9332072196994443,0.5479411487225722,B,526.120999998966,Correct
9,209,232,B,59.401909104441074,48.6201295377553,2.9700954552220535,0.7637232088619806,B,2019.3973000004917,Correct
9,209,233,B,71.42901566910514,42.86318846848181,3.5714507834552567,0.6732933900100859,B,1295.246200001202,Correct
9,209,234,B,83.71407025464868,63.48281852757247,4.185703512732434,0.9971857815769783,B,632.6681000009557,Correct
9,209,235,A,14.852402975123841,35.659341032235346,0.742620148756192,0.5601356190936182,A,434.60009999944305,Correct
9,209,236,A,31.94877253800682,45.11308607993128,1.597438626900341,0.7086346990473803,A,670.1967999997578,Correct
9,209,237,A,62.56098209492228,84.13803379080173,3.128049104746114,1.3216371442233623,A,622.2349999989092,Correct
9,209,238,A,22.764207436440614,43.271525443074026,1.1382103718220307,0.6797075322079259,A,462.2369999997318,Correct
9,209,239,A,22.61078608780246,34.78515524020996,1.130539304390123,0.5464039407831205,A,475.50720000072033,Correct
9,209,240,A,46.80053874646503,61.44967896873969,2.3400269373232514,0.9652493000682193,A,624.4750000005297,Correct
9,209,241,B,52.230322111174196,45.29667288900288,2.61151610555871,0.7115184739007568,A,1365.196000000651,Incorrect
9,209,242,A,49.172341510133286,78.70876344424494,2.4586170755066643,1.2363543650478839,A,464.53959999962535,Correct
9,209,243,B,42.08134615296137,31.060089440927964,2.1040673076480685,0.487890744037306,B,802.7437000000646,Correct
9,209,244,B,67.03772243332538,51.62371332723782,3.351886121666269,0.8109033926993793,B,1028.686800000287,Correct
9,209,245,B,33.616792241585976,18.622996486905066,1.680839612079299,0.2925293447554474,B,690.790200000265,Correct
9,209,246,A,32.539551488676246,61.670163969110874,1.6269775744338122,0.9687126703551834,A,474.8273999994126,Correct
9,209,247,A,57.51922307143934,69.86731718517167,2.875961153571967,1.097473251974816,A,553.4206000011181,Correct
9,209,248,A,35.864695722510355,61.256667778636704,1.7932347861255178,0.9622174873837783,A,501.01159999940137,Correct
9,209,249,A,43.26668483445904,57.13622867653367,2.163334241722952,0.8974937813201233,A,588.2177000003139,Correct
9,209,250,B,76.23861435469078,58.07217701691353,3.8119307177345387,0.912195623471508,B,757.6234999996814,Correct
9,209,251,A,49.78960776260078,62.295472592177866,2.489480388130039,0.9785349952374514,A,954.3257000004814,Correct
9,209,252,A,45.64505634733011,53.23972001005632,2.2822528173665058,0.8362875663138523,A,1052.5754999998753,Correct
9,209,253,B,61.51109775054944,30.998638136670472,3.075554887527472,0.48692546920726176,B,593.831100000898,Correct
9,209,254,B,76.62618575050338,47.15897681440465,3.831309287525169,0.7407714755547251,B,705.8390000001964,Correct
9,209,255,A,34.63131681395913,55.225974192439445,1.7315658406979566,0.8674875740515363,A,558.8100999993912,Correct
9,209,256,A,47.76823087205946,67.45920817861142,2.388411543602973,1.0596467641545504,A,601.8459999995684,Correct
9,209,257,A,48.84372027693226,76.86640701743303,2.442186013846613,1.2074146979690528,A,420.6230999989202,Correct
9,209,258,A,57.83727469879081,78.32252629001785,2.89186373493954,1.2302873660165674,A,431.9406999984494,Correct
9,209,259,B,38.861819110342964,28.893775795098087,1.9430909555171483,0.45386236886175363,B,455.95760000105656,Correct
9,209,260,B,53.40084956210214,34.659961108842424,2.670042478105107,0.5444373959662365,B,663.4484999995038,Correct
9,209,261,A,29.894856101177385,43.5354682060086,1.4947428050588691,0.6838535354329431,A,590.3531000003568,Correct
9,209,262,B,83.16659387671345,63.64140818805536,4.158329693835673,0.99967690213852,B,601.4033000010386,Correct
9,209,263,B,35.750562633924915,11.95895328481097,1.7875281316962457,0.18785079892092835,B,1352.5946999998268,Correct
9,209,264,B,47.040926590751866,24.079689207223275,2.3520463295375933,0.3782428735706904,B,568.0732999990141,Correct
9,209,265,B,78.70330081703887,48.85149525892747,3.9351650408519436,0.7673574931116158,B,1367.5215000002936,Correct
9,209,266,A,45.55631800339632,66.73627478633814,2.277815900169816,1.0482909529835482,A,601.22070000034,Correct
9,209,267,A,45.16079398476498,72.27352784020515,2.2580396992382488,1.135269920559029,A,407.3188000002119,Correct
9,209,268,B,46.002172655522514,17.262240999329116,2.3001086327761255,0.2711546475399444,B,469.6529000011651,Correct
9,209,269,A,30.0080060417488,38.71341288310633,1.50040030208744,0.6081088675447764,A,1304.1596000002755,Correct
9,209,270,A,40.957230459616476,49.53949610718593,2.0478615229808237,0.7781645851643775,B,599.6379999996861,Incorrect
9,209,271,A,22.066459148769884,47.84469532666644,1.1033229574384942,0.7515427167574861,A,480.7196000001568,Correct
9,209,272,A,34.25614644504978,50.28911298974627,1.7128073222524889,0.7899395396206697,A,623.9306000006763,Correct
9,209,273,B,67.31647996534836,38.28854854727241,3.3658239982674183,0.6014351141636358,B,539.5193000003928,Correct
9,209,274,A,14.78064118406899,33.73460126703915,0.7390320592034496,0.5299018775615557,A,420.6401999999798,Correct
9,209,275,A,46.08992498795744,62.5822088377664,2.304496249397872,0.9830390376507459,A,594.1951000004337,Correct
9,209,276,A,36.760708818537054,68.03138661690579,1.838035440926853,1.068634522045991,A,619.3230999997468,Correct
9,209,277,B,78.03568325391453,54.5664928316739,3.901784162695726,0.857128465060734,B,603.8805999996839,Correct
9,209,278,B,44.704370741222974,27.77416027642278,2.235218537061149,0.4362754894201763,B,637.8191000003426,Correct
9,209,279,B,70.5564228954708,47.66373646503545,3.52782114477354,0.7487002216059764,B,676.7385999992257,Correct
9,209,280,A,52.98720218388718,68.76289269557871,2.649360109194359,1.0801249926600667,A,631.793699998525,Correct
9,209,281,A,58.142262967841376,81.7333846752857,2.9071131483920687,1.2838650042445305,A,513.1781999989471,Correct
9,209,282,A,34.416580478067715,47.11995656349512,1.7208290239033857,0.7401585468867321,B,626.5718999984529,Incorrect
9,209,283,B,43.29884986557995,32.89049051995683,2.1649424932789976,0.5166426169523055,B,622.7330999990954,Correct
9,209,284,A,29.219883393116845,61.66118314952664,1.4609941696558422,0.9685715999710383,A,482.65879999962635,Correct
9,209,285,B,49.21060586127999,28.055184256758935,2.460530293063999,0.4406898037807094,B,476.02069999993546,Correct
9,209,286,A,61.51972570433318,77.55080384650324,3.075986285216659,1.2181651782207883,A,681.8036999993637,Correct
9,209,287,B,38.9144058331596,19.4770225985864,1.94572029165798,0.30594435554760707,B,441.8595000006462,Correct
9,209,288,B,56.59461303141126,47.388464984898,2.829730651570563,0.7443762673072636,A,1814.565800001219,Incorrect
9,209,289,A,67.25729683912957,79.38757997085072,3.3628648419564784,1.247017190113484,A,487.7008000003116,Correct
9,209,290,A,60.48587256919405,69.00467840766727,3.0242936284597026,1.0839229537442685,A,439.9541999991925,Correct
9,209,291,A,45.54934612425183,70.0412731948171,2.2774673062125914,1.1002057465845654,A,518.0853999991086,Correct
9,209,292,B,56.97109337069786,30.944044717408467,2.8485546685348933,0.48606791778282243,B,457.94480000040494,Correct
9,209,293,A,45.636883134177175,61.928197575247644,2.2818441567088588,0.9727658527622763,A,1053.2571000003372,Correct
9,209,294,A,67.80585936507187,88.08220361519136,3.3902929682535934,1.3835920189474276,A,580.1910999998654,Correct
9,209,295,A,68.22900672182978,83.49614561887579,3.4114503360914887,1.311554388396619,A,660.1628999997047,Correct
9,209,296,B,50.84258352614188,27.40807764350589,2.542129176307094,0.4305250768692838,B,506.51509999988775,Correct
9,209,297,A,27.864322198415515,39.03316598480538,1.3932161099207758,0.613131537521078,A,522.8705999998056,Correct
9,209,298,A,54.21029351831007,70.22743423168257,2.7105146759155034,1.1031299573135716,A,1271.5275999998994,Correct
9,209,299,B,74.68669908508772,46.889798125774256,3.7343349542543867,0.7365432266012044,B,626.3405999998213,Correct
9,209,300,A,26.94757872929548,59.70302381395736,1.3473789364647741,0.9378129050551245,A,465.8060000001569,Correct
9,209,301,A,43.41530941429729,53.59291872900113,2.1707654707148647,0.8418355988173241,A,1004.0474999987055,Correct
9,209,302,A,43.554859361424256,53.72091856532528,2.177742968071213,0.843846215544607,A,592.7270000011049,Correct
9,209,303,A,35.30753200601882,49.61328567117043,1.7653766003009408,0.7793236689250038,A,461.96950000012293,Correct
9,209,304,B,68.77518170499387,54.969866277381946,3.4387590852496936,0.8634646403291824,A,621.4521000001696,Incorrect
9,209,305,A,50.24819976228361,60.181128715942684,2.5124099881141806,0.9453229592937364,A,643.549799999164,Correct
9,209,306,B,67.4782670450346,56.6622625158224,3.37391335225173,0.8900487382774197,B,486.0406999996485,Correct
9,209,307,A,52.42722125003553,78.3556067016138,2.6213610625017765,1.2308069919068052,A,516.4246000003914,Correct
9,209,308,A,49.0406628650594,67.14825318684385,2.45203314325297,1.05476229456588,A,693.8011000002007,Correct
9,209,309,B,53.94579376138687,46.22767643968754,2.6972896880693433,0.7261426434772418,B,622.3406999997678,Correct
9,209,310,B,57.998005621452876,40.627951674486496,2.899900281072644,0.6381823725548396,B,573.8391000013507,Correct
9,209,311,A,18.074066988546676,40.842476194992685,0.9037033494273338,0.6415521158430252,A,475.9315000010247,Correct
9,209,312,A,30.333714581537993,44.430889104881715,1.5166857290768996,0.6979187740217958,A,443.0967000007513,Correct
9,209,313,B,81.47235041478503,67.6542171207998,4.073617520739251,1.0627099574553673,B,1326.1865000004036,Correct
9,209,314,B,64.68394498459469,40.530988519804836,3.2341972492297346,0.6366592788827555,B,919.5657999989635,Correct
9,209,315,B,63.32048362095003,46.27689377751563,3.1660241810475016,0.7269157476119915,B,508.26930000039283,Correct
9,209,316,B,46.570131098154896,39.60466698673662,2.3285065549077446,0.6221086542670098,B,934.7867999986192,Correct
9,209,317,B,78.67981329351096,55.77457997752941,3.933990664675548,0.876105053572314,B,658.923800001503,Correct
9,209,318,B,57.18272094397039,39.87911021946382,2.8591360471985197,0.626419598485826,B,1320.1733000005333,Correct
9,209,319,B,78.48952261751505,65.1136807474529,3.9244761308757523,1.022803305421946,B,575.6321999997454,Correct
9,209,320,B,33.32788931667437,16.544902591294537,1.6663944658337186,0.25988672217584824,B,1048.2038999998622,Correct
9,209,321,B,50.99296044093944,27.98962899059315,2.549648022046972,0.43966006406775665,B,654.0526999997383,Correct
9,209,322,A,34.561509862418745,66.3014642318906,1.7280754931209372,1.0414609647657698,A,1014.0456000008271,Correct
9,209,323,B,55.67454731975045,45.96844700086978,2.783727365987523,0.7220706769743214,B,615.9678999993048,Correct
9,209,324,B,54.577947906858086,30.80735772185011,2.728897395342904,0.4839208434773855,B,497.3967999994784,Correct
9,209,325,B,64.60961424531267,41.43244631035195,3.2304807122656336,0.650819344744276,B,567.7694000005431,Correct
9,209,326,B,44.82585156880486,19.14095155062833,2.241292578440243,0.30066536387086057,B,575.7751000001008,Correct
9,209,327,B,85.90183457943328,64.8060912974385,4.295091728971665,1.0179717016395111,B,1147.6787999999942,Correct
9,209,328,A,34.43085314661357,58.105528288918734,1.7215426573306787,0.912719504027105,A,417.4861999999848,Correct
9,209,329,A,68.32679811563116,81.35467885317763,3.416339905781558,1.2779163071014987,A,1010.5847000013455,Correct
9,209,330,A,34.00464619752191,48.33742849897255,1.7002323098760954,0.7592825513289703,A,1368.6727000003884,Correct
9,209,331,B,49.64262004025976,31.165792413927935,2.482131002012988,0.4895511224545026,B,590.7759000001533,Correct
9,209,332,A,33.362652867628135,65.49321291576598,1.6681326433814068,1.0287649827808127,A,511.8714000000182,Correct
9,209,333,A,66.35464707761554,81.3291476615084,3.317732353880777,1.2775152640805716,A,480.1853000008123,Correct
9,209,334,B,48.888446570117075,18.986373454398766,2.444422328505854,0.29823725681325713,B,533.9798999993945,Correct
9,209,335,A,60.47864576833744,81.75916060337939,3.0239322884168716,1.2842698915762236,A,518.5657000001811,Correct
9,209,336,A,59.47331540036204,74.34537899077466,2.9736657700181017,1.167814482328833,A,608.4835000001476,Correct
9,209,337,A,52.18646575277328,69.3264060174789,2.609323287638664,1.0889766392214746,A,721.917000000758,Correct
9,209,338,B,67.65362806412129,47.22401794723688,3.3826814032060644,0.7417931392801594,B,560.5343999995966,Correct
9,209,339,B,43.14254782362411,15.276025547838625,2.1571273911812057,0.2399552481856991,B,643.3174000012514,Correct
9,209,340,B,81.42127850654158,55.450559731504065,4.071063925327079,0.8710153554496759,B,824.8437000002014,Correct
9,209,341,B,43.54033924987912,33.33505209476093,2.1770169624939557,0.5236257738396699,B,665.1524999997491,Correct
9,209,342,B,45.91256689201537,38.07089785570261,2.2956283446007686,0.5980162650952136,B,687.2507000007317,Correct
9,209,343,B,32.08093184704097,15.303201843026113,1.6040465923520486,0.2403821324322631,B,556.7559999999503,Correct
9,209,344,B,67.23677149872614,52.28011126857302,3.3618385749363076,0.8212140674510298,A,1083.1428000001324,Incorrect
9,209,345,A,24.269123619942867,34.849702104072904,1.2134561809971434,0.547417840549741,A,483.42979999870295,Correct
9,209,346,A,64.63259745783724,78.61429492116035,3.2316298728918618,1.234870456957294,A,574.1873000006308,Correct
9,209,347,A,14.445321985244739,35.42371118786937,0.7222660992622368,0.5564343541534849,A,437.14059999911115,Correct
9,209,348,A,57.89645084191186,83.83882138235796,2.894822542095593,1.3169371267022134,A,494.77329999899666,Correct
9,209,349,A,15.397108521147043,35.20628730892446,0.7698554260573522,0.5530190678494432,A,413.124799999423,Correct
9,209,350,A,25.176107120348973,50.19143856397672,1.2588053560174486,0.7884052733284636,A,380.8714999995573,Correct
9,209,351,A,52.47419562861081,75.85056490446979,2.6237097814305406,1.1914578873725905,A,522.9875999993965,Correct
9,209,352,B,60.753464021206405,43.6487939412505,3.0376732010603202,0.6856336519194361,B,4296.236700000009,Correct
9,209,353,B,69.48827213402546,38.89977540646276,3.4744136067012734,0.6110362432161816,B,631.4340000008087,Correct
9,209,354,A,19.560622487381806,46.5654560266916,0.9780311243690903,0.7314484728225646,A,459.58320000136155,Correct
9,209,355,A,61.24494519158364,76.41509906737654,3.062247259579182,1.200325569267032,A,559.4363000000158,Correct
9,209,356,A,49.68731839973768,58.185628703506296,2.484365919986884,0.9139777183971939,A,446.3671000012255,Correct
9,209,357,A,10.950957139317019,33.87887557215513,0.547547856965851,0.5321681330468263,A,420.9842000000208,Correct
9,209,358,B,51.446365896851646,32.93037703543531,2.5723182948425825,0.517269152872328,B,1259.6553999992466,Correct
9,209,359,A,64.09052048218237,77.6954249890967,3.2045260241091182,1.2204368818164149,A,418.8735000007,Correct
9,209,360,B,64.5391346453894,55.936490252884,3.2269567322694694,0.8786483342302873,A,4341.313400000217,Incorrect
9,209,361,B,78.02825711869112,63.3610461776341,3.901412855934556,0.9952729859770948,A,1314.5921999985148,Incorrect
9,209,362,B,63.06546138014691,51.83881699921339,3.153273069007345,0.8142822332775724,B,1462.499300001582,Correct
9,209,363,B,63.78249449675886,46.3175932839689,3.189124724837943,0.7275550539643831,B,1261.1242000002676,Correct
9,209,364,A,28.67751531748406,50.608606559562865,1.4338757658742027,0.7949581328796946,A,459.52670000042417,Correct
9,209,365,A,23.819808188455,47.9350538782937,1.19099040942275,0.7529620655673921,A,448.23379999979807,Correct
9,209,366,B,44.19866168720009,28.17469450822615,2.2099330843600042,0.4425670664208999,B,701.1636999995972,Correct
9,209,367,B,36.90288517073927,12.290121577378581,1.8451442585369633,0.19305277829608974,B,515.0092000003497,Correct
9,209,368,B,63.57949577165055,36.600929088721244,3.1789747885825275,0.5749260496984382,B,595.864499999152,Correct
9,209,369,B,38.6959878556667,16.235351578950468,1.9347993927833351,0.2550243062443912,B,1113.3502000011504,Correct
9,209,370,A,39.93001661488141,71.24987797848975,1.9965008307440706,1.119190466131963,A,856.28270000052,Correct
9,209,371,B,36.512514212960795,24.633702900610736,1.8256257106480398,0.3869453003163613,B,609.4135999992432,Correct
9,209,372,B,55.381080693276196,48.625673153767,2.7690540346638097,0.7638102877786642,A,515.6630999990739,Incorrect
9,209,373,B,67.78969075379386,45.58490432527816,3.389484537689693,0.7160460027144372,B,2414.1254000005574,Correct
9,209,374,A,19.792785806085398,38.42939906609311,0.9896392903042698,0.603647588939543,A,498.563600000125,Correct
9,209,375,A,28.640693815925786,54.2162868231295,1.432034690796289,0.8516274419423037,A,448.66860000001907,Correct
9,209,376,A,28.949889309711452,60.83670029788178,1.4474944654855728,0.9556206536223467,A,388.8043999995716,Correct
9,209,377,A,53.56468841331877,77.02911829821598,2.6782344206659383,1.209970560790872,A,586.6327999992791,Correct
9,209,378,B,43.6754737823432,17.426712169074364,2.1837736891171597,0.2737381546329393,B,494.78070000077423,Correct
9,209,379,B,46.0157624453507,21.251026900972104,2.300788122267535,0.33381034996666514,B,511.6316999992705,Correct
9,209,380,A,58.49769804829968,67.93828826348678,2.924884902414984,1.0671721365301787,A,459.23819999916304,Correct
9,209,381,B,53.02441727506418,45.680450717297354,2.6512208637532093,0.7175468419306597,B,675.2312000007805,Correct
9,209,382,A,50.765294615669305,74.48210520640876,2.538264730783465,1.169962172701779,A,764.9196000002121,Correct
9,209,383,A,57.28354382116955,77.15086817011249,2.8641771910584777,1.2118830033064998,A,621.2087000003521,Correct
9,209,384,A,40.40238010256731,59.48606711734463,2.020119005128365,0.9344049572339964,A,1312.7947000011773,Correct
9,209,385,B,50.08231839887861,39.60715670726968,2.5041159199439305,0.6221477627056906,B,532.1624999996857,Correct
9,209,386,A,61.81932232502241,80.7488747260698,3.0909661162511206,1.2684003581253172,A,533.8011000003462,Correct
9,209,387,A,30.82872274845633,47.176333486386824,1.5414361374228165,0.741044113520675,A,545.1188999995793,Correct
9,209,388,B,54.786387716341046,46.688901606306366,2.7393193858170526,0.7333875514527438,B,725.8619999993243,Correct
9,209,389,A,56.88129958719759,84.14870688506154,2.8440649793598793,1.321804796795951,A,627.1106000003783,Correct
9,209,390,A,39.30979072461955,46.71219310201393,1.9654895362309777,0.7337534134117738,B,640.0979999998526,Incorrect
9,209,391,A,49.47606526185447,70.96456771751475,2.473803263092724,1.1147088230325988,A,464.0909999998257,Correct
9,209,392,B,59.4594534824438,51.827287540653124,2.97297267412219,0.8141011289660084,B,2520.422800000233,Correct
9,209,393,B,75.98721429710562,52.25662381244315,3.7993607148552813,0.8208451273528843,B,463.30610000040906,Correct
9,209,394,B,72.39631932792848,40.719867383883155,3.6198159663964242,0.6396261811417897,B,556.3203999990947,Correct
9,209,395,B,38.381307698923024,29.28054943371739,1.9190653849461512,0.45993779497019666,B,897.580900000321,Correct
9,209,396,B,40.50631817042104,19.914187111876345,2.0253159085210517,0.31281131966441633,B,546.7055000008259,Correct
9,209,397,B,73.81223101839207,58.679869304612026,3.690611550919604,0.9217412316048917,A,640.7583000000159,Incorrect
9,209,398,B,38.23254177336368,14.135701838196447,1.9116270886681839,0.22204308524106844,B,598.875899999257,Correct
9,209,399,B,78.00700242021847,63.971887155334,3.900350121010923,1.0048680536173629,B,1464.7929999991902,Correct
9,209,400,B,57.82557364570998,30.29388793496345,2.891278682285499,0.47585527892576823,B,502.62060000022757,Correct
9,209,401,B,79.99430352843184,50.10783237276094,3.999715176421592,0.787091990347873,B,476.4281999996456,Correct
9,209,402,A,56.435286719956025,81.06538151693957,2.821764335997801,1.273372035170356,A,628.7243000006129,Correct
9,209,403,A,24.216871014422566,37.444903442864266,1.2108435507211284,0.5881831678524077,A,548.1996999988041,Correct
9,209,404,B,54.60992986902988,45.21671775292996,2.7304964934514935,0.7102625415602397,A,945.1697999993485,Incorrect
9,209,405,B,69.59882688304845,49.866571128120775,3.4799413441524223,0.7833022675790855,B,1279.5047999989038,Correct
9,209,406,A,23.850179253159986,45.074704792078,1.1925089626579992,0.7080318071876044,A,517.3507999988942,Correct
9,209,407,B,74.43337643355639,56.148525468485204,3.7216688216778198,0.8819789756084625,B,1597.9146000008768,Correct
9,209,408,A,61.48100956647542,75.61422764235172,3.0740504783237714,1.187745510340392,A,654.7955000005459,Correct
9,209,409,A,15.891662796887314,30.970894559666153,0.7945831398443657,0.4864896741187564,A,512.1499000015319,Correct
9,209,410,B,65.06756525122972,36.76448694714494,3.253378262561486,0.5774952105307419,B,1239.6103000010044,Correct
9,209,411,A,57.01915868599221,67.46318003154883,2.8509579342996108,1.059709153874597,A,700.3370999991603,Correct
9,209,412,A,64.99434562967755,81.46874968514769,3.249717281483878,1.2797081275400288,A,839.915700000347,Correct
9,209,413,B,62.70059592812065,54.56910849468381,3.1350297964060325,0.8571695517992153,B,1321.0326000007626,Correct
9,209,414,A,33.41371673596436,65.12491727027243,1.6706858367982178,1.0229798083096544,A,1155.8389000001625,Correct
9,209,415,B,75.55545118200801,59.884891128471416,3.7777725591004008,0.9406696701511518,B,565.7769999997981,Correct
9,209,416,A,21.6084522579221,50.6814174804925,1.080422612896105,0.7961018441511629,A,549.5468999997684,Correct
9,209,417,A,24.27901883160726,36.11267487332561,1.213950941580363,0.5672565704175823,A,520.2974999992875,Correct
9,209,418,A,12.431116482904752,32.325022788180476,0.6215558241452377,0.5077602705923522,A,667.6518000003853,Correct
9,209,419,B,88.64561217678815,67.29693557797196,4.432280608839408,1.0570977921043117,B,1154.5420000002196,Correct
9,209,420,A,43.66107120150673,72.57457856691133,2.1830535600753365,1.1399988143159194,A,760.101300000315,Correct
9,209,421,B,56.85853327396067,34.68993128424542,2.8429266636980333,0.5449081663806008,B,578.0470999998215,Correct
9,209,422,A,31.54714004792673,49.97931456663373,1.5773570023963368,0.7850732373699494,A,610.8640000002197,Correct
9,209,423,A,26.183277469859288,50.51157962053378,1.3091638734929643,0.7934340372854242,A,635.721000000558,Correct
9,209,424,A,46.76527644386643,59.20627273726124,2.338263822193322,0.9300099573890677,A,857.2500000009313,Correct
9,209,425,A,31.987742700139627,57.26830870330689,1.5993871350069813,0.8995684895291068,A,492.57609999949636,Correct
9,209,426,B,64.8655889877494,52.338406293505024,3.24327944938747,0.822129763561366,A,3509.685699998954,Incorrect
9,209,427,B,68.35401255882508,52.494797641153646,3.4177006279412536,0.8245863531056554,B,728.7500000002183,Correct
9,209,428,B,57.41504514473502,43.06284619354878,2.870752257236751,0.6764296062216002,B,524.0948999999091,Correct
9,209,429,A,69.49665661833279,88.3995984383487,3.4748328309166396,1.3885776451710203,A,520.5340000011347,Correct
9,209,430,A,40.8502162780869,55.898856832139245,2.042510813904345,0.8780571898395814,A,1188.957100001062,Correct
9,209,431,A,12.25042449702319,36.5910672427966,0.6125212248511595,0.5747711401848996,A,490.4767999996693,Correct
9,209,432,A,37.44524453543571,54.855362832491515,1.8722622267717854,0.8616660244227897,A,734.1242000002239,Correct
9,209,433,A,35.03318914609264,52.73769839379598,1.751659457304632,0.8284018292059184,A,499.084999999468,Correct
9,209,434,A,41.16097744003447,72.83900213815348,2.0580488720017236,1.1441523700601708,A,542.3885000000155,Correct
9,209,435,A,27.56519663655689,52.51198781112171,1.3782598318278445,0.8248563756640838,A,464.9021000004723,Correct
9,209,436,A,44.23749229234099,72.9272358719086,2.2118746146170496,1.1455383423089904,A,449.4819000010466,Correct
9,209,437,A,25.934817105947225,50.979082313104875,1.2967408552973612,0.8007775524079983,A,401.20650000062597,Correct
9,209,438,A,42.48119041904098,55.944076188075655,2.124059520952049,0.8787674938216308,A,457.7951999999641,Correct
9,209,439,A,23.710057360727387,37.60110988875624,1.1855028680363693,0.5906368529666957,A,457.77989999987767,Correct
9,209,440,B,51.70370417712875,23.191570515361565,2.5851852088564375,0.36429233778134773,B,530.6311000003916,Correct
9,209,441,B,83.68939442095015,53.773959516005,4.184469721047508,0.8446793808495812,B,509.1783999996551,Correct
9,209,442,A,26.051218237578617,41.792623222681655,1.3025609118789307,0.6564769904531144,A,469.9658999998064,Correct
9,209,443,A,38.56904345129965,64.49214607663801,1.9284521725649824,1.0130402616430287,A,401.5808999993169,Correct
9,209,444,A,28.339050400415456,54.86242049265591,1.4169525200207727,0.8617768858894095,A,401.331900000514,Correct
9,209,445,A,20.950177513929585,37.054018616300056,1.0475088756964792,0.5820431633547385,A,396.0915000006935,Correct
9,209,446,A,50.83760075046548,77.5153889435652,2.5418800375232737,1.2176088822262994,A,407.95950000028824,Correct
9,209,447,A,19.677614666353268,46.45537134361882,0.9838807333176633,0.7297192666644935,A,422.31879999962985,Correct
9,209,448,A,26.874889425929407,58.43756588394599,1.3437444712964703,0.9179351383733713,A,422.0504000004439,Correct
9,209,449,B,42.38232915333886,29.146706678406964,2.1191164576669426,0.45783539788609934,B,757.7987999993638,Correct
9,209,450,B,44.530575772277125,24.765153097113178,2.2265287886138565,0.3890101151745863,B,504.59870000122464,Correct
9,209,451,A,24.979994255728222,48.857821245137416,1.2489997127864112,0.7674568614706352,A,467.3579999998765,Correct
9,209,452,B,88.21144549369268,62.810436857237036,4.410572274684634,0.9866240349973072,B,562.846200000422,Correct
9,209,453,B,58.438899362876704,26.354370287810532,2.921944968143835,0.4139734804308534,B,550.1110000004701,Correct
9,209,454,B,68.80878901452435,54.469896354538335,3.4404394507262173,0.8556111311460756,B,3349.618600001122,Correct
9,209,455,A,55.23462919658964,62.84035616956912,2.761731459829482,0.9870940064564219,A,677.1124000006239,Correct
9,209,456,B,64.73933211390042,44.609501175760116,3.236966605695021,0.7007244058703661,B,808.6891999992076,Correct
9,209,457,B,68.70905073564218,59.82382192466684,3.4354525367821087,0.9397103973409866,A,624.1769999996905,Incorrect
9,209,458,A,38.85688622530469,46.83037440859496,1.9428443112652345,0.7356098010345069,B,734.5736999996006,Incorrect
9,209,459,A,17.299427925049656,36.700022737469666,0.8649713962524828,0.5764826090930654,A,474.95359999993525,Correct
9,209,460,B,58.19810955896474,50.778148792561986,2.9099054779482367,0.7976212960480107,A,1321.0658999996667,Incorrect
9,209,461,A,21.2427366260975,50.28336083441814,1.062136831304875,0.7898491849760638,A,440.51779999972496,Correct
9,209,462,A,36.971233006800524,45.03747429693001,1.8485616503400264,0.7074469919373723,A,2344.2857999998523,Correct
9,209,463,B,39.66316398445222,14.67937743596464,1.9831581992226108,0.23058312156049143,B,506.47249999929045,Correct
9,209,464,B,80.50119824280674,53.209179580724594,4.025059912140336,0.8358078383717221,B,835.6233999984397,Correct
9,209,465,B,36.53754031861462,12.749484047076347,1.8268770159307308,0.20026842709677659,B,761.7012999999133,Correct
9,209,466,A,63.94947785510925,74.0656151932278,3.1974738927554625,1.163419962873265,A,1107.9254999986006,Correct
9,209,467,B,67.84318932540769,44.349123787957254,3.392159466270385,0.6966344074269543,B,509.0349999991304,Correct
9,209,468,A,60.78854334778065,73.72249512365462,3.0394271673890323,1.1580302454239135,A,509.60959999974875,Correct
9,209,469,B,78.75033782472012,60.78938559666247,3.9375168912360063,0.9548774360335599,B,529.7812999997404,Correct
9,209,470,A,38.398122978147114,47.41453499078626,1.9199061489073557,0.7447857740021515,A,3527.8543000003992,Correct
9,209,471,B,46.42035693744723,32.1821092740823,2.3210178468723615,0.5055153903624044,B,426.6317000001436,Correct
9,209,472,B,56.575767037119455,49.45210180784996,2.8287883518559727,0.7767917987205798,B,716.562999999951,Correct
9,209,473,B,40.34265845077349,24.823192287077198,2.0171329225386745,0.38992179263864274,B,486.54919999898993,Correct
9,209,474,A,57.43188741793378,76.83462742841621,2.8715943708966893,1.2069155053521061,A,591.6479999996227,Correct
9,209,475,B,78.72885614578229,62.470448122194504,3.936442807289114,0.9812835044357427,B,573.9895999995497,Correct
9,209,476,B,63.828854069382125,34.52855298585893,3.191442703469106,0.5423732419973016,B,614.0555000001768,Correct
9,209,477,B,42.20085740144637,31.3564124878239,2.1100428700723186,0.4925453755733941,B,581.7676000006031,Correct
9,209,478,A,62.23228597053311,74.88701388388327,3.1116142985266553,1.1763224633344227,A,661.2454999994952,Correct
9,209,479,B,77.89883343365948,61.546116886137796,3.894941671682974,0.9667641433323462,B,623.76039999981,Correct
9,209,480,A,58.963915666114005,69.27642143072816,2.9481957833057004,1.0881914831688304,A,923.9142000005813,Correct
9,209,481,A,35.68871231021301,50.59668935213253,1.7844356155106507,0.7947709378231224,A,1429.3061999997008,Correct
9,209,482,B,55.84915279689771,28.43719107365298,2.7924576398448857,0.44669035282858716,B,421.3228999997227,Correct
9,209,483,B,78.15833449692423,63.52173646959032,3.907916724846211,0.997797103180659,B,577.2093999985373,Correct
9,209,484,A,46.70858367089903,65.78960158465011,2.3354291835449517,1.033420645104681,A,1024.9449999992066,Correct
9,209,485,B,83.17155993731828,63.49970551127563,4.1585779968659145,0.997451041696694,B,589.1417000002548,Correct
9,209,486,A,22.47751249100444,51.81450452979761,1.123875624550222,0.8139003339010361,A,555.1913999988756,Correct
9,209,487,B,81.75736158089954,59.39702023149928,4.087868079044977,0.9330062120220122,B,589.3674999988434,Correct
9,209,488,B,41.45251761328139,23.985827932193562,2.072625880664069,0.37676850411024077,B,785.819900000206,Correct
9,209,489,A,18.199895477923924,34.9284764371962,0.9099947738961961,0.5486552248808989,A,539.2314000000624,Correct
9,209,490,B,49.80648892641072,33.109711595582986,2.4903244463205363,0.5200861335558015,B,539.5187999984046,Correct
9,209,491,B,44.2964632797605,36.89601267929159,2.214823163988025,0.5795612119000916,B,1742.033000000447,Correct
9,209,492,B,63.28837612162214,44.337852840101036,3.164418806081107,0.6964573637920337,B,4086.885599999732,Correct
9,209,493,B,70.31659880213437,40.38484718808856,3.5158299401067183,0.6343636962122272,B,993.6698000001343,Correct
9,209,494,B,42.02571905856138,22.366455957662357,2.1012859529280687,0.3513314686171586,B,465.6906000000163,Correct
9,209,495,A,68.48306306339624,89.35445465759848,3.424153153169812,1.4035764915891682,A,563.3555999993405,Correct
9,209,496,A,54.10828655368339,68.7330837903896,2.7054143276841693,1.0796567554722984,A,1709.028600000238,Correct
9,209,497,B,49.085038116105785,27.679390635081646,2.454251905805289,0.43478685137507306,B,477.3072999996657,Correct
9,209,498,A,24.066457071324482,35.2429518520901,1.2033228535662241,0.5535949931467253,A,443.70969999908993,Correct
9,209,499,B,54.88712715339317,25.827470976258407,2.7443563576696586,0.40569696539908506,B,439.5390999998199,Correct
9,209,500,B,36.583885731950765,12.348059919911194,1.8291942865975384,0.1939628716523979,B,507.4246000003768,Correct
9,209,501,A,12.267052758253012,31.634304113481928,0.6133526379126506,0.496910487021701,A,455.0446000012016,Correct
9,209,502,A,35.3405914282489,44.068025295045885,1.7670295714124449,0.6922189226256267,B,965.9739999988233,Incorrect
9,209,503,A,40.38831697032855,57.66378789413291,2.0194158485164277,0.9057806621318399,A,1684.303899999577,Correct
9,209,504,A,20.00779888377129,39.17203754048256,1.0003899441885644,0.615312926816618,A,563.765599999897,Correct
9,209,505,B,66.35430221488816,42.305499603424835,3.317715110744408,0.6645332338028267,B,1788.9172000013787,Correct
9,209,506,A,52.33588307744024,59.63639553278319,2.6167941538720125,0.9367663104618341,A,547.5561000002926,Correct
9,209,507,B,71.10055388922679,56.40001889031083,3.555027694461339,0.8859294250406303,B,604.1284000002634,Correct
9,209,508,A,40.19265493577798,48.37928528125755,2.009632746788899,0.7599400361276177,A,1635.0397999995039,Correct
9,209,509,B,58.56744370784614,44.67784927509777,2.928372185392307,0.701798015304196,B,987.0413999997254,Correct
9,209,510,A,27.77361264325883,47.01648811707712,1.3886806321629417,0.7385332683310063,A,881.4010999994935,Correct
9,209,511,B,58.33433463868551,34.870357051021124,2.916716731934276,0.547742287697705,B,510.4263000011997,Correct
9,209,512,B,69.7275302728248,48.856246283607426,3.4863765136412392,0.7674321220327738,B,687.780099999145,Correct
9,209,513,A,43.6759728766272,59.473621153072564,2.18379864383136,0.9342094564843763,A,701.6169999988051,Correct
9,209,514,B,65.476298961128,48.71464063281659,3.2738149480564,0.7652077856716173,A,3332.5142999983655,Incorrect
9,209,515,A,56.6605957562379,77.25695747449538,2.833029787811895,1.2135494502028688,A,491.7724000006274,Correct
9,209,516,B,50.29029584448911,24.9610092395653,2.514514792224455,0.3920866162660265,B,424.7129000013956,Correct
9,209,517,A,20.214790706815396,44.662895218516454,1.0107395353407698,0.70156311753271,A,401.5573000015138,Correct
9,209,518,B,77.12830808830395,65.36859774534545,3.8564154044151975,1.026807532261218,B,736.4687999997841,Correct
9,209,519,A,29.6123448837223,45.09747081121853,1.480617244186115,0.7083894149800213,A,651.5257000010024,Correct
9,209,520,A,15.668099324470592,31.73778242800954,0.7834049662235296,0.49853592058533003,A,435.00719999974535,Correct
9,209,521,A,39.08542570148397,62.907739766152226,1.9542712850741986,0.9881524655164117,A,703.1746000011481,Correct
9,209,522,A,38.61284423942099,61.30935198772679,1.9306422119710493,0.9630450490049663,A,566.6227000001527,Correct
9,209,523,A,63.78610182119242,78.5002270313464,3.189305091059621,1.2330786827340436,A,589.2684999998892,Correct
9,209,524,A,30.31944169578282,63.262064876141466,1.515972084789141,0.9937181913290347,A,434.2437000013888,Correct
9,209,525,B,66.71414442663328,54.39328886886853,3.3357072213316643,0.8544077835751244,B,4674.474300001748,Correct
9,209,526,B,47.66281151841585,19.226667839011732,2.3831405759207924,0.30201179218025204,B,595.3829000009137,Correct
9,209,527,B,66.31968516131772,41.64550438001738,3.315984258065886,0.6541660530765208,B,605.8771000007255,Correct
9,209,528,B,41.441199735699215,20.085609483711952,2.0720599867849607,0.3155040159845147,B,482.0435000001453,Correct
9,209,529,B,63.92751972553839,48.257454986590744,3.1963759862769194,0.758026330334068,B,472.1196999998938,Correct
9,209,530,B,78.52160126195983,56.1133612261131,3.926080063097992,0.8814266169809364,B,501.67510000028415,Correct
9,209,531,B,61.56365839706985,46.87103846175643,3.078182919853493,0.7362485504878932,B,537.5409999996918,Correct
9,209,532,B,85.28297191220781,57.83060653203905,4.264148595610391,0.9084010431684788,B,425.2700000015466,Correct
9,209,533,B,89.79134298568091,68.02651306578804,4.489567149284046,1.0685579684840487,B,811.5520999999717,Correct
9,209,534,B,87.75495920313918,62.9841419841883,4.3877479601569584,0.989352588750912,B,533.1525999990845,Correct
9,209,535,A,45.94608046113015,73.13371118244363,2.2973040230565074,1.1487816489026133,A,570.989499999996,Correct
9,209,536,B,45.078970299148494,31.479831012099563,2.2539485149574245,0.4944840292193007,B,499.52870000015537,Correct
9,209,537,A,48.70409770021139,69.39387127246968,2.4352048850105694,1.0900363809687326,A,408.8257000003068,Correct
9,209,538,B,88.34182890298038,69.19244015491188,4.417091445149019,1.0868723083731129,B,559.7441999998409,Correct
9,209,539,B,35.730809208299135,17.266910884112804,1.7865404604149568,0.27122800191859214,B,630.6158999996114,Correct
9,209,540,B,74.09067325142759,53.654115936488765,3.704533662571379,0.8427968823046409,B,1294.0882000002603,Correct
9,209,541,B,39.55872182282201,30.437424371419375,1.9779360911411004,0.4781099439972302,B,557.8507000009267,Correct
9,209,542,A,16.75146031157194,45.27800203168688,0.8375730155785971,0.7112251927598562,A,519.231199999922,Correct
9,209,543,B,41.40699798864173,30.938292683625214,2.0703498994320864,0.48597756504743916,B,428.49200000091514,Correct
9,209,544,B,62.49334674938354,31.442115225417112,3.124667337469177,0.49389159102747093,B,619.401599999037,Correct
9,209,545,A,19.09471426996753,33.38824778827812,0.9547357134983764,0.524461369839451,A,507.13050000013027,Correct
9,209,546,B,81.8488850812391,60.85068055919548,4.092444254061956,0.9558402550535388,B,570.0474999994185,Correct
9,209,547,A,59.97530325714892,82.79224551364011,2.9987651628574463,1.3004975513992714,A,560.1455999985774,Correct
9,209,548,B,53.15640043035623,34.14553583759542,2.6578200215178116,0.5363568227013839,B,470.22870000000694,Correct
9,209,549,B,71.38574650612956,56.52409548926693,3.5692873253064783,0.8878784156994447,B,1241.580599998997,Correct
