subject,day,trial,cat,x,y,xt,yt,resp,rt,fb
19,219,0,A,34.67582999538131,48.80737834246791,1.7337914997690655,0.7666645062083739,A,677.9755000006844,Correct
19,219,1,B,36.71958980854147,11.897366026660503,1.8359794904270734,0.18688338853212716,B,690.931900000578,Correct
19,219,2,A,66.9680623053171,80.98719003284972,3.3484031152658553,1.272143806210406,A,950.5752999994002,Correct
19,219,3,B,72.80269256182693,40.60349025569115,3.6401346280913462,0.6377981334869203,B,910.8814999999595,Correct
19,219,4,B,45.69232053762543,32.58759776336805,2.284616026881271,0.5118847886576812,B,684.654300001057,Correct
19,219,5,B,46.36763103213321,26.948625155259617,2.3183815516066604,0.4233080140605435,B,635.8657000000676,Correct
19,219,6,A,12.654585134163714,36.81349554700314,0.6327292567081857,0.5782650358171282,A,540.4347999992751,Correct
19,219,7,B,57.94196964042047,29.36186758869796,2.8970984820210233,0.46121513756164884,B,651.3427999998385,Correct
19,219,8,A,40.71026594805159,65.81562715549775,2.0355132974025794,1.033829453815583,A,626.8170999992435,Correct
19,219,9,B,69.10157087590774,37.39838272385543,3.455078543795387,0.5874524221070183,B,674.2823000004137,Correct
19,219,10,B,54.29456089599882,30.22448036817198,2.714728044799941,0.47476502741609017,B,704.1284999995696,Correct
19,219,11,A,19.614862899119835,41.68221001247777,0.9807431449559917,0.6547426238029355,A,560.1295999986178,Correct
19,219,12,A,61.30767150092497,77.57201340588746,3.0653835750462486,1.218498337200525,A,918.7825999997585,Correct
19,219,13,B,45.51920934357763,21.76138695244499,2.275960467178882,0.34182706690862974,B,693.9080000011018,Correct
19,219,14,A,29.77550228789864,61.4440674935452,1.488775114394932,0.9651611552219849,A,1407.3320999996213,Correct
19,219,15,A,13.698645538505748,32.801994028381145,0.6849322769252874,0.5152525173132924,A,579.2291999987356,Correct
19,219,16,A,36.470298745604104,61.2947956557421,1.8235149372802053,0.9628163986768347,B,1587.5197000004846,Incorrect
19,219,17,B,70.22539981280919,53.578317435843694,3.5112699906404594,0.8416062422407423,B,1074.9942000002193,Correct
19,219,18,A,39.364408767261146,67.38980428219948,1.9682204383630575,1.0585565702990594,A,1333.481199999369,Correct
19,219,19,A,19.76213072907247,41.388024773091246,0.9881065364536235,0.6501215728686791,A,545.9169000005204,Correct
19,219,20,B,52.33150570212658,40.82091776863257,2.6165752851063293,0.6412134768736456,B,1029.7885999989376,Correct
19,219,21,B,82.42994877340192,52.99794016952916,4.1214974386700955,0.832489697459921,B,633.7212999987969,Correct
19,219,22,A,53.77347567305607,72.29529859104886,2.688673783652803,1.135611894713598,A,1615.2033999987907,Correct
19,219,23,B,36.88949363536466,19.492230231408993,1.844474681768233,0.3061832364853768,B,885.5529000011302,Correct
19,219,24,B,73.25414228579035,43.909287674012546,3.6627071142895176,0.6897254779051933,B,626.5755000003992,Correct
19,219,25,A,62.304870900150505,79.49807167780266,3.115243545007525,1.248752789787698,A,793.2125000006636,Correct
19,219,26,A,23.346253347561223,38.87116734199522,1.1673126673780612,0.6105868687903583,A,504.9672000004648,Correct
19,219,27,B,82.73733398006893,60.70602311330656,4.136866699003446,0.9535679812070803,B,1332.5443000012456,Correct
19,219,28,B,80.24740392415035,60.51377100012236,4.012370196207518,0.9505480920749975,B,1308.0321999987063,Correct
19,219,29,B,76.679466931196,53.968669424332596,3.8339733465598,0.8477378769374968,B,719.9097999982769,Correct
19,219,30,A,34.88011009584991,63.80963900907928,1.7440055047924954,1.0023194656957009,A,931.5084999998362,Correct
19,219,31,B,65.36695290716807,52.699400346893405,3.2683476453584035,0.8278002448919385,B,862.8569000011339,Correct
19,219,32,A,22.245176289320646,45.52347255436755,1.1122588144660324,0.7150810347134884,A,569.0462000002299,Correct
19,219,33,B,77.71286395145104,56.39030855291033,3.885643197572552,0.8857768954174239,B,552.5455999995756,Correct
19,219,34,B,34.059066716525706,16.998290700623784,1.7029533358262854,0.2670085259433169,B,1458.7583000011364,Correct
19,219,35,B,57.19210907623032,30.044188842036355,2.8596054538115157,0.4719330147460292,B,786.758700000064,Correct
19,219,36,B,58.72298617924705,42.82071130672901,2.9361493089623525,0.6726261603135464,B,739.6308999996108,Correct
19,219,37,B,54.72639790388559,29.15678836244178,2.7363198951942795,0.4579937606085973,B,663.5040999990451,Correct
19,219,38,B,66.0368797823135,55.03280162078805,3.3018439891156754,0.8644532263916609,B,1611.929599999712,Correct
19,219,39,B,61.14088891578243,49.931192146446115,3.0570444457891215,0.7843173321612775,B,930.5889000006573,Correct
19,219,40,B,71.31755578416644,60.86325707204889,3.5658777892083218,0.9560378064554791,B,634.5984999989014,Correct
19,219,41,A,43.67072085179612,58.02251243490372,2.183536042589806,0.9114154940415798,A,1222.7632000012818,Correct
19,219,42,B,42.82718808214945,21.048411737101215,2.1413594041074724,0.3306276784150518,B,598.511199999848,Correct
19,219,43,B,77.27210363334116,54.30584717179775,3.863605181667058,0.8530342526094492,B,735.6246000017563,Correct
19,219,44,B,64.30580840690591,45.90658586654544,3.2152904203452954,0.7210989645486409,B,554.6868000001268,Correct
19,219,45,A,45.43722345956524,62.58237244368908,2.271861172978262,0.9830416075665697,A,1667.8121000004467,Correct
19,219,46,B,49.278769446221666,28.21262527422433,2.4639384723110833,0.4431628814999244,B,640.5348999996932,Correct
19,219,47,B,58.9866343174873,52.120363742123786,2.949331715874365,0.8187047591734194,B,1643.2951999995566,Correct
19,219,48,B,57.55632581600755,34.025326314580035,2.8778162908003777,0.5344685759294006,B,651.3223999991169,Correct
19,219,49,B,51.01579188207718,40.27426423515284,2.550789594103859,0.6326266632494515,B,615.4843000003893,Correct
19,219,50,B,67.60286345644212,58.19239733780879,3.3801431728221063,0.9140840398561916,B,777.174599999853,Correct
19,219,51,A,41.88474112623775,54.91390236947418,2.0942370563118873,0.8625855613194361,A,1853.8576000009925,Correct
19,219,52,A,60.757075072637605,82.58232130958547,3.03785375363188,1.2972000697129276,A,1078.677499999685,Correct
19,219,53,B,46.98171980852184,26.751849021689456,2.349085990426092,0.42021706178241447,B,611.4010999990569,Correct
19,219,54,B,33.2349878281582,13.902770572049231,1.6617493914079098,0.21838420946847117,B,864.1225999999733,Correct
19,219,55,B,66.68508017657315,39.67202207776534,3.3342540088286574,0.6231666655627983,B,1270.7546000001457,Correct
19,219,56,A,51.08811313554015,74.75388493914879,2.5544056567770075,1.1742312787606326,A,788.0091999995784,Correct
19,219,57,B,48.9738574346601,26.495558383690806,2.4486928717330048,0.4161912578548124,B,731.2147000011464,Correct
19,219,58,B,60.2403684348345,47.965234539677894,3.012018421741725,0.7534361422878173,B,1098.6916000001656,Correct
19,219,59,A,29.01400613047853,58.15849537823911,1.4507003065239266,0.9135515091205597,A,593.0478999998741,Correct
19,219,60,A,68.09953360778113,83.1138877995528,3.4049766803890567,1.305549896611807,A,783.6654000002454,Correct
19,219,61,A,17.132925657626476,41.39898630625193,0.8566462828813237,0.6502937562289274,A,507.86190000144416,Correct
19,219,62,A,57.7234753191004,84.62707592802596,2.88617376595502,1.32931900015136,A,1199.1405999997369,Correct
19,219,63,A,64.04224565528577,83.22088634854747,3.2021122827642885,1.307230625889139,A,1193.3900999993057,Correct
19,219,64,B,72.60624045997908,52.28206046098938,3.630312022998954,0.8212446852939081,B,707.6182000000699,Correct
19,219,65,B,77.58766525447639,59.834938699936714,3.87938326272382,0.9398850192385839,B,659.371599998849,Correct
19,219,66,B,64.0256709536646,54.54762826165438,3.20128354768323,0.8568321410878019,B,1074.534199999107,Correct
19,219,67,A,17.15031007946605,43.380389597574066,0.8575155039733025,0.6814175663480089,A,752.9187000000093,Correct
19,219,68,A,20.08741362682288,49.21519219084665,1.004370681341144,0.7730704311588681,A,605.0747999997839,Correct
19,219,69,B,55.1102808094637,46.57077026144238,2.755514040473185,0.7315319486268268,B,1584.6725999999762,Correct
19,219,70,B,50.60516604356121,40.76906223275935,2.5302583021780607,0.6403989320209094,B,1905.5407000014384,Correct
19,219,71,A,21.603479191836605,47.46946039200057,1.0801739595918303,0.7456485401869033,A,662.5238999986323,Correct
19,219,72,A,44.21113713322384,76.47814132058001,2.210556856661192,1.2013158346646808,B,1828.0092000004515,Incorrect
19,219,73,B,61.815617760470225,30.5088138766753,3.0907808880235113,0.47923132772350735,B,495.6485000002431,Correct
19,219,74,A,16.60187071268325,31.8287426537337,0.8300935356341625,0.49996472046984936,A,498.7098999990849,Correct
19,219,75,B,62.49528321096114,50.9074975419597,3.1247641605480574,0.7996531014523053,B,763.0168000014237,Correct
19,219,76,A,52.03744003974225,82.46592866313722,2.6018720019871124,1.2953717782978593,A,671.9919999995909,Correct
19,219,77,B,67.04870953258046,49.07825958343294,3.352435476629023,0.7709194987914288,B,640.003099999376,Correct
19,219,78,A,50.39616989570074,66.10747713119838,2.5198084947850368,1.0384138225136403,A,1617.1149000001606,Correct
19,219,79,A,61.936698380982534,73.11766265244022,3.096834919049127,1.148529559182815,A,2178.257699999449,Correct
19,219,80,B,43.808257483727914,21.534109605458344,2.1904128741863955,0.33825700269052666,B,627.9248999999254,Correct
19,219,81,A,57.26655854265819,79.49868295820647,2.863327927132909,1.2487623917578279,A,775.2813000006427,Correct
19,219,82,B,70.7444921614211,53.74443315228854,3.5372246080710554,0.844215581812887,B,1084.2354999986128,Correct
19,219,83,B,37.73281494999996,26.25607080241099,1.8866407474999982,0.4124293957249391,A,609.2403000002378,Incorrect
19,219,84,B,39.97536719718471,18.458651272106575,1.9987683598592354,0.28994781615812953,B,664.7074000011344,Correct
19,219,85,A,23.742060059590948,46.542604313904256,1.1871030029795475,0.7310895189574911,A,599.8863999993773,Correct
19,219,86,A,40.64519711303397,50.2291857926484,2.0322598556516986,0.7889982054099052,B,707.4909999992087,Incorrect
19,219,87,A,29.386395002510543,47.989675428643764,1.4693197501255273,0.7538200588739291,A,609.5852999987983,Correct
19,219,88,B,47.157613280411276,31.073462766299404,2.357880664020564,0.48810081174101083,B,694.0040000008594,Correct
19,219,89,A,41.52168383084074,52.12412504468283,2.076084191542037,0.8187638415758567,B,838.8481000001775,Incorrect
19,219,90,A,25.975378092851606,40.749576197943796,1.2987689046425803,0.6400928461017885,A,554.7133000000031,Correct
19,219,91,A,21.960984042649763,42.372930987242746,1.0980492021324881,0.6655924435029456,A,589.7973999999522,Correct
19,219,92,A,50.600730861960365,80.17226967338061,2.530036543098018,1.2593430671375614,A,1145.373199999085,Correct
19,219,93,A,17.611446285445847,32.79209015350456,0.8805723142722924,0.5150969476105206,A,610.2196000010736,Correct
19,219,94,B,73.49110586406653,53.149811690295536,3.6745552932033263,0.8348752897295668,B,1249.969599999531,Correct
19,219,95,A,50.69046630318351,66.38792716215052,2.5345233151591757,1.0428191212983318,B,1446.1328000015783,Incorrect
19,219,96,A,26.011544027114393,47.03686363985982,1.3005772013557197,0.7388533262944422,A,555.1043999985268,Correct
19,219,97,A,65.09293314366292,75.61230688820125,3.254646657183146,1.18771533920475,A,863.002600000982,Correct
19,219,98,B,50.12808407662231,30.920953391801483,2.5064042038311154,0.48570520008837964,B,903.5616999990452,Correct
19,219,99,A,59.182621647489135,87.14607174063806,2.9591310823744568,1.3688872938479881,A,916.2466999987373,Correct
19,219,100,A,51.587188800879716,62.93419254033126,2.579359440043986,0.9885679847215512,A,1641.8090999995911,Correct
19,219,101,A,29.81059108553732,59.054288361978415,1.4905295542768662,0.927622592404823,A,521.2721999996575,Correct
19,219,102,A,50.00873945516628,59.51031672525489,2.500436972758314,0.9347858691843127,A,1960.1720999999088,Correct
19,219,103,B,44.75623819825645,31.4676454456335,2.2378119099128226,0.49429261878885256,B,471.6463999993721,Correct
19,219,104,B,59.047822971925726,42.41950376335877,2.952391148596286,0.6663240069594624,B,805.9868000000279,Correct
19,219,105,A,42.72405974345469,50.54118809075522,2.1362029871727346,0.7938991260480827,B,821.7388000011852,Incorrect
19,219,106,A,39.289905618285026,49.83606138219618,1.9644952809142513,0.7828230216107875,A,789.5183000000543,Correct
19,219,107,A,29.910078566291382,50.44499113860011,1.4955039283145692,0.7923880678571416,A,730.4530999990675,Correct
19,219,108,A,29.588266195273413,60.82489002083423,1.4794133097636706,0.9554351382242997,A,700.4186000012851,Correct
19,219,109,B,48.302545226748975,18.367909337480423,2.4151272613374486,0.28852244518215925,B,846.3957000003575,Correct
19,219,110,A,25.81540873725783,37.59913472166714,1.2907704368628916,0.590605827114612,A,609.4438000000082,Correct
19,219,111,A,38.15542229674757,66.21173669553987,1.9077711148373782,1.040051527920649,A,1662.9888000006758,Correct
19,219,112,A,19.850104857994143,43.732770903392094,0.9925052428997071,0.6869527589561103,A,730.5727000002662,Correct
19,219,113,B,37.20296525756723,23.054486100737062,1.8601482628783614,0.36213902083181776,B,1022.1768999999767,Correct
19,219,114,A,40.90063402584946,50.20434264495512,2.0450317012924732,0.7886079701584787,B,938.6327000011079,Incorrect
19,219,115,B,64.96465823631405,34.457062117303266,3.2482329118157027,0.5412502660600356,B,662.2192999984691,Correct
19,219,116,B,75.66621422914383,52.886061556947816,3.783310711457192,0.8307323123230242,B,1108.585199999652,Correct
19,219,117,B,33.010560528608806,20.513558496451164,1.6505280264304403,0.3222262233571773,B,897.8413000004366,Correct
19,219,118,B,60.366334088930245,27.314398222831386,3.018316704446512,0.42905356397036587,B,694.5461000013893,Correct
19,219,119,A,57.52692975739616,70.51949346772884,2.876346487869808,1.1077176130654516,A,1265.0686999986647,Correct
19,219,120,B,69.3332345156857,43.105714762674225,3.4666617257842853,0.6771029841307721,B,2194.9961000009353,Correct
19,219,121,B,64.4082647795476,39.161850533862186,3.22041323897738,0.6151529096908148,B,830.0798000000214,Correct
19,219,122,B,51.33512016604763,30.648494459340988,2.5667560083023817,0.48142542518526565,B,1293.2748999992327,Correct
19,219,123,A,61.27946092782241,77.28738593859417,3.0639730463911206,1.2140274193992326,A,1069.5479000005435,Correct
19,219,124,B,52.43395749442557,43.81050122721568,2.6216978747212782,0.688173744027537,B,716.7380999981106,Correct
19,219,125,A,30.85857831044224,64.04813034510838,1.542928915522112,1.00606567884177,A,563.1212999978743,Correct
19,219,126,B,77.79863832607683,62.26247249493801,3.889931916303841,0.9780166309221692,B,942.1769000000495,Correct
19,219,127,A,25.7005400221881,40.90777386388618,1.2850270011094052,0.6425778092274868,A,572.493100000429,Correct
19,219,128,A,21.44322665949554,37.72729683924587,1.072161332974777,0.5926189929498811,A,597.3827999987407,Correct
19,219,129,B,60.50213829848534,47.1617843560434,3.025106914924267,0.7408155763156599,B,1348.3166999976675,Correct
19,219,130,A,66.4367933626609,81.83361031601031,3.321839668133044,1.2854393449275394,A,949.6910000016214,Correct
19,219,131,A,38.17227010776946,47.32319659005891,1.908613505388473,0.7433510337585731,A,631.3716000004206,Correct
19,219,132,B,56.276703859619076,25.089329026746164,2.813835192980954,0.3941022587696145,B,1010.1074999984121,Correct
19,219,133,A,57.2043796746859,84.21433687488968,2.860218983734295,1.3228357102654473,A,676.9107999971311,Correct
19,219,134,A,55.83774232741577,73.55513262957328,2.791887116370788,1.1554013215144514,A,987.8028999992239,Correct
19,219,135,B,40.32160958053135,18.512750833105713,2.0160804790265674,0.2907976100751162,B,680.4981000022963,Correct
19,219,136,B,43.52140666430148,31.593733378728643,2.176070333215074,0.49627320341044273,B,579.0178999995987,Correct
19,219,137,A,35.01196213988681,67.55792663310758,1.7505981069943406,1.061197430011645,A,1507.0192999992287,Correct
19,219,138,B,38.395164075713666,26.44814612594628,1.9197582037856833,0.415446507851711,B,863.7428000001819,Correct
19,219,139,A,18.822636562071455,38.03119044943682,0.9411318281035728,0.5973925426161251,A,553.1537999995635,Correct
19,219,140,B,47.70972245507749,26.031312237703105,2.3854861227538744,0.40889889644635075,B,984.8967999969318,Correct
19,219,141,A,40.92698381400235,67.96624457591855,2.0463491907001172,1.067611273258964,A,767.2411999992619,Correct
19,219,142,A,51.58313911332306,79.03400191400229,2.5791569556661527,1.2414631989841562,B,1003.7091999984113,Incorrect
19,219,143,A,39.2403494423847,66.62214654066325,1.9620174721192347,1.0464982306926516,A,992.3971999996866,Correct
19,219,144,A,31.846877469096654,65.21987264761,1.5923438734548327,1.0244713638889673,A,536.1406000010902,Correct
19,219,145,B,35.29300869662373,10.675071893447608,1.7646504348311864,0.16768363718498944,B,721.8009999996866,Correct
19,219,146,B,54.58554039255023,39.04668468712106,2.7292770196275113,0.613343888800483,B,1267.4996999994619,Correct
19,219,147,B,67.59294152677522,55.44989774681244,3.3796470763387614,0.8710049570184559,B,1657.0231999976386,Correct
19,219,148,B,64.05277413965486,31.997185026511804,3.202638706982743,0.5026106070742141,B,612.3573000004399,Correct
19,219,149,B,42.1437721506875,14.291393099471104,2.1071886075343746,0.22448867785431142,A,612.365699998918,Incorrect
19,219,150,B,32.206526349989204,12.558252404088396,1.61032631749946,0.19726456747305232,A,1051.2914999999339,Incorrect
19,219,151,B,59.170591421541445,31.341146903981905,2.958529571077072,0.4923055843431402,B,846.0788000011235,Correct
19,219,152,A,61.94915131696317,87.55486576577346,3.097457565848158,1.375308615378972,A,838.3437000011327,Correct
19,219,153,B,89.54377147086988,64.97109221757576,4.477188573543494,1.020563530032205,B,867.3472999980731,Correct
19,219,154,B,80.9494396844951,60.032486241742944,4.047471984224756,0.9429880887689499,B,820.4547999994247,Correct
19,219,155,A,12.094615042932261,34.231059734875856,0.6047307521466131,0.5377002289383969,A,494.42820000331267,Correct
19,219,156,B,31.15593224230989,16.123425475567313,1.5577966121154947,0.2532661751237239,A,933.0745999977808,Incorrect
19,219,157,B,45.4274676891309,33.53222791740271,2.271373384456545,0.5267230044190546,B,1202.0222999999532,Correct
19,219,158,A,44.580861869862275,66.93341021866327,2.2290430934931136,1.0513875491133224,B,1031.2961999989056,Incorrect
19,219,159,B,77.03760627759137,49.184237507624445,3.851880313879568,0.7725841961318426,B,779.4667999987723,Correct
19,219,160,A,31.870843275787706,44.63253669856387,1.5935421637893854,0.7010862470164254,A,538.6613000009675,Correct
19,219,161,A,25.706786394398026,40.969060453518125,1.2853393197199015,0.6435404967262432,A,1005.7268999989901,Correct
19,219,162,A,54.30534634540204,69.31169649906475,2.715267317270102,1.088745582646536,A,2005.7061000006797,Correct
19,219,163,B,59.00199764270433,44.35548294431392,2.9500998821352162,0.6967342968214199,B,1038.0155999991985,Correct
19,219,164,A,24.086982525674387,51.65139112063942,1.2043491262837194,0.8113381544614694,A,922.7018000019598,Correct
19,219,165,B,75.41381083240974,50.656892264594035,3.7706905416204872,0.7957166029606911,B,699.3148999972618,Correct
19,219,166,B,40.60410741954534,18.69307263661926,2.030205370977267,0.2936300983411173,B,1218.7412999992375,Correct
19,219,167,A,22.075114929927462,48.55068597939575,1.1037557464963732,0.7626323919980733,A,754.778599999554,Correct
19,219,168,B,47.03043839857502,21.213118230597555,2.3515219199287514,0.33321488196488497,B,1794.5379000011599,Correct
19,219,169,B,79.37758823175864,51.74931665263489,3.968879411587932,0.8128763651210484,B,2001.696899998933,Correct
19,219,170,B,33.966726726263644,11.493324385790306,1.698336336313182,0.18053671727861623,B,1165.628700000525,Correct
19,219,171,A,57.50015649940181,74.84062334030199,2.87500782497009,1.1755937623798676,A,3620.802999997977,Correct
19,219,172,A,14.119495817955727,37.05417001381893,0.7059747908977863,0.5820455415014039,A,523.442800000339,Correct
19,219,173,A,36.12229814884104,56.87787917783663,1.806114907442052,0.8934356368842972,B,1224.421099999745,Incorrect
19,219,174,A,22.485295671319374,45.66345575678995,1.1242647835659687,0.7172798857152693,A,522.6382999971975,Correct
19,219,175,A,39.294287411840884,52.8447574306145,1.9647143705920442,0.8300835086237658,A,1133.1441000002087,Correct
19,219,176,B,64.36690167416229,33.99752238395377,3.218345083708115,0.5340318328084186,B,1444.6031999978004,Correct
19,219,177,A,34.15900552293564,52.937781905404805,1.707950276146782,0.831544733656792,A,865.8668999996735,Correct
19,219,178,A,40.791204186954836,56.49473847633541,2.039560209347742,0.8874172768186597,A,2377.905600002123,Correct
19,219,179,B,48.480637869406685,35.02135863887538,2.424031893470334,0.5501142150931215,B,1296.5672999998787,Correct
19,219,180,B,45.31295422878742,25.916455640062853,2.265647711439371,0.40709473322953615,B,1806.0689000012644,Correct
19,219,181,A,67.79370999555847,82.89178319124443,3.3896854997779235,1.302061085582857,A,1003.3298999987892,Correct
19,219,182,A,24.89937683937772,37.085920596658724,1.244968841968886,0.5825442784903871,A,2030.1484999981767,Correct
19,219,183,A,25.133181788432765,36.47893814419356,1.2566590894216383,0.5730098204227749,A,820.5035999999382,Correct
19,219,184,A,54.2894951313393,76.46254347981217,2.714474756566965,1.2010708243548402,A,2424.09570000018,Correct
19,219,185,A,30.967014238692208,46.03085646090124,1.5483507119346103,0.7230510024800682,B,1241.5015999977186,Incorrect
19,219,186,A,24.11778787662565,42.34534749701732,1.2058893938312822,0.6651591630516828,A,568.4347999995225,Correct
19,219,187,A,35.97422952059403,44.22813614568569,1.7987114760297016,0.6947339379862767,B,2862.81240000244,Incorrect
19,219,188,B,48.64353635536722,29.36823325309358,2.4321768177683607,0.46131512918415135,B,1467.7959000000556,Correct
19,219,189,A,67.23674332517871,84.61251714332457,3.3618371662589355,1.3290903112960444,A,748.3205999997153,Correct
19,219,190,B,40.76394518939051,14.454597434579306,2.0381972594695257,0.22705228555536108,B,994.4436000005226,Correct
19,219,191,B,73.71546726541226,41.342331357254814,3.685773363270613,0.6494038223711333,B,1814.6020000021963,Correct
19,219,192,A,47.40313799755187,59.28670823893888,2.370156899877594,0.9312734352948593,A,1542.305099999794,Correct
19,219,193,A,25.66277192392028,52.55411179556746,1.283138596196014,0.8255180576644571,A,656.5888000004634,Correct
19,219,194,A,65.86006941412336,88.69529952149341,3.293003470706168,1.3932225069233497,A,1339.8699999997916,Correct
19,219,195,B,64.40573009984296,51.58137693242776,3.220286504992148,0.8102383741648055,B,1762.5549000003957,Correct
19,219,196,A,21.862354111445995,40.85256388945548,1.0931177055722998,0.641710572977105,A,560.6155000023136,Correct
19,219,197,A,59.32760422246163,78.86201808999796,2.9663802111230813,1.2387616833940147,A,1897.2237999987556,Correct
19,219,198,B,49.30500269910147,38.10280080508978,2.4652501349550735,0.5985173954523264,B,761.2055000026885,Correct
19,219,199,B,76.41459389721297,61.581325193919,3.820729694860648,0.9673171941376999,B,924.2627999992692,Correct
19,219,200,B,75.41414484314524,62.56251496786916,3.7707072421572616,0.9827296870657962,B,1035.753800002567,Correct
19,219,201,B,55.815455390702965,35.88000083086155,2.790772769535148,0.5636017351051514,B,951.8987999981618,Correct
19,219,202,A,64.88707409236119,85.01898356716623,3.2443537046180597,1.3354750709514038,A,1546.9288999993296,Correct
19,219,203,A,30.9979935200927,49.958829148128714,1.549899676004635,0.7847514531685439,A,530.4326000004949,Correct
19,219,204,A,33.39504096776225,65.39188851002179,1.6697520483881123,1.0271733827372362,A,2833.305100000871,Correct
19,219,205,B,45.79534303512626,17.066980176299456,2.2897671517563127,0.26808749770412504,B,651.2990999981412,Correct
19,219,206,A,35.31898547820012,51.73724486868204,1.765949273910006,0.8126867419821385,B,1723.5899999977846,Incorrect
19,219,207,B,58.36861736644985,50.29615881590357,2.9184308683224924,0.7900502151991406,B,897.6871000013489,Correct
19,219,208,A,33.263424620436005,58.908391843438956,1.6631712310218003,0.9253308552506836,A,598.9106999986689,Correct
19,219,209,B,72.225642950947,53.23254776726597,3.6112821475473504,0.8361749049875525,B,1118.6587999982294,Correct
19,219,210,B,50.96078717297088,33.943600068519075,2.548039358648544,0.5331848230582477,B,813.8685999983863,Correct
19,219,211,A,61.61032868379668,73.9104443675969,3.080516434189834,1.1609825452439977,A,1018.5471000004327,Correct
19,219,212,A,21.21887281411259,46.98271410762986,1.0609436407056294,0.7380027474311976,A,544.9083999992581,Correct
19,219,213,A,12.852994416107155,36.23819820362169,0.6426497208053576,0.5692282862791437,A,536.9570999973803,Correct
19,219,214,A,15.162224105781764,42.271900089671334,0.7581112052890882,0.6640054538749658,A,562.061900000117,Correct
19,219,215,A,18.81208855399867,39.52839373092472,0.9406044276999336,0.6209105567663896,A,522.9165999990073,Correct
19,219,216,B,75.31224032372714,59.08350774141486,3.7656120161863567,0.928081569343723,B,719.5930000016233,Correct
19,219,217,A,48.94911325879241,56.80178408052443,2.4474556629396202,0.892240337890846,B,580.6132999969122,Incorrect
19,219,218,A,25.60389479202633,49.643122995621155,1.2801947396013165,0.7797923525214897,A,561.5964999997232,Correct
19,219,219,B,51.124185919564454,40.92331196431945,2.5562092959782228,0.6428218811383464,B,1548.62409999987,Correct
19,219,220,A,56.40132567362872,78.75271305019325,2.820066283681436,1.2370447238437607,A,2101.46800000075,Correct
19,219,221,B,61.350091792144724,48.65838426427434,3.0675045896072364,0.7643241127009672,B,2408.5347000000183,Correct
19,219,222,B,73.70789319177963,47.68028999460243,3.6853946595889817,0.7489602438403696,B,628.1419000006281,Correct
19,219,223,B,36.7813601924728,22.70786411799538,1.83906800962364,0.3566942954590478,A,527.7688999995007,Incorrect
19,219,224,A,56.20194839958891,74.67405365877529,2.8100974199794457,1.1729772919408923,A,733.2867999975861,Correct
19,219,225,A,30.650231611715405,54.829686911802966,1.5325115805857703,0.8612627080037432,A,513.4539999999106,Correct
19,219,226,A,52.053652368442684,72.4412751480585,2.602682618422134,1.137904889109087,B,1107.384800001455,Incorrect
19,219,227,B,42.87250710335414,21.64155550221639,2.143625355167707,0.3399447588900939,B,1810.872300000483,Correct
19,219,228,A,20.861191661949047,48.75788947788066,1.0430595830974523,0.7658871369412648,A,547.6989000017056,Correct
19,219,229,A,38.907171141436464,51.92747979130533,1.9453585570718233,0.8156749451589863,A,635.9984000009717,Correct
19,219,230,B,73.72886854985379,52.770019713384336,3.6864434274926894,0.828909531306784,B,687.0545000019774,Correct
19,219,231,A,32.31771399883199,52.86617609717828,1.6158856999415996,0.830419952251398,A,519.6163000000524,Correct
19,219,232,B,51.11804355391986,24.130764413617037,2.5559021776959927,0.37904516103662644,B,794.1374000001815,Correct
19,219,233,B,47.287535395634904,21.44006320538509,2.364376769781745,0.3367797252926932,B,917.9919000016525,Correct
19,219,234,B,42.3339366949683,20.174710420576726,2.1166968347484154,0.31690361022792646,B,1143.4250000020256,Correct
19,219,235,B,48.77768196759416,20.446114663192763,2.438884098379708,0.3211668181017047,B,851.8203000021458,Correct
19,219,236,B,69.64539683050188,59.37338240351343,3.482269841525094,0.9326349098882765,A,853.7749999995867,Incorrect
19,219,237,B,59.52806862345231,31.46552961670439,2.9764034311726157,0.49425938342575293,B,656.5606999974989,Correct
19,219,238,A,30.781353622701204,58.21944638863738,1.53906768113506,0.91450892535304,A,710.3954999984126,Correct
19,219,239,B,70.70051915821401,56.94667470607527,3.5350259579107,0.8945162745148688,B,1944.890899998427,Correct
19,219,240,B,35.37936317281954,24.05425588581035,1.7689681586409767,0.3778433678921541,A,621.5618000023824,Incorrect
19,219,241,B,43.18040668661904,15.766829243100744,2.159020334330952,0.24766477460265007,B,1139.682699998957,Correct
19,219,242,A,50.18698353902128,76.07580313731631,2.509349176951064,1.1949959212606813,A,1042.3313999999664,Correct
19,219,243,A,16.331196750452005,33.253966301342246,0.8165598375226003,0.5223520811750967,A,536.9546000001719,Correct
19,219,244,A,51.90277441583487,70.45155162252395,2.5951387207917436,1.1066503850566165,A,2523.1839999978547,Correct
19,219,245,A,48.70943642213025,76.46869213717021,2.4354718211065123,1.2011674072387677,A,1194.6473000025435,Correct
19,219,246,B,45.11372839057701,16.424478078872934,2.2556864195288506,0.25799509835816903,B,1170.674600001803,Correct
19,219,247,A,10.840003734706244,33.54763543688428,0.5420001867353121,0.5269650251691214,A,555.8122000002186,Correct
19,219,248,A,59.21517331413323,82.49992424091067,2.9607586657066616,1.2959057795847972,A,921.5620999966632,Correct
19,219,249,A,36.503543614906796,44.21618007154011,1.8251771807453396,0.6945461324127691,B,1820.1206999983697,Incorrect
19,219,250,B,54.94682336614541,28.98582163279353,2.7473411683072704,0.45530822149924133,B,2433.351399999083,Correct
19,219,251,B,33.006244125896586,14.642890642684048,1.6503122062948292,0.23000998835187467,A,540.9906999993837,Incorrect
19,219,252,A,28.043308866605937,39.74234090339078,1.4021654433302968,0.624271231092768,B,861.2539999994624,Incorrect
19,219,253,A,54.96324270077661,83.12894073578286,2.7481621350388306,1.3057863475811837,A,1166.678999998112,Correct
19,219,254,B,65.19373414933399,56.573604136157584,3.2596867074666993,0.8886560957062488,B,3173.2833000023675,Correct
19,219,255,B,68.29348435187148,49.44214894578171,3.414674217593574,0.7766354595288008,B,1554.8550999992585,Correct
19,219,256,B,55.619306222502345,39.155932540598634,2.7809653111251174,0.6150599500700109,B,1054.7146999997494,Correct
19,219,257,A,39.093681835461865,60.74901485765209,1.9546840917730932,0.9542432939480848,B,2110.2310999995098,Incorrect
19,219,258,B,66.46158258029264,48.523359645198205,3.323079129014632,0.7622031509442504,B,1253.9547999986098,Correct
19,219,259,B,44.268524277480665,24.78975867773306,2.2134262138740333,0.38939661873115,B,890.4041000023426,Correct
19,219,260,A,21.051730559328007,44.49447477070753,1.0525865279664004,0.6989175753249558,A,576.1848000001919,Correct
19,219,261,A,32.5377933194454,53.38739771651091,1.62688966597227,0.8386072823023359,B,1804.0908000002673,Incorrect
19,219,262,B,72.00299037206304,49.84939121129688,3.600149518603152,0.7830324060766695,B,2241.062900000543,Correct
19,219,263,B,82.86642337749733,68.19927810906448,4.143321168874866,1.0712717554378208,B,2555.039899998519,Correct
19,219,264,B,36.44058732590872,24.183658320254402,1.822029366295436,0.3798760165791845,B,959.7348999996029,Correct
19,219,265,B,43.86811635649441,19.963334856191384,2.19340581782472,0.3135833306268195,B,665.1457000007213,Correct
19,219,266,B,36.56013860091963,15.930595444027588,1.8280069300459814,0.2502372080713405,B,649.9900000017078,Correct
19,219,267,B,74.11736624326805,48.24683225481928,3.705868312163403,0.7578594688535968,B,720.3304000031494,Correct
19,219,268,B,62.05358807532499,37.218132975291205,3.1026794037662495,0.5846210656775145,B,693.3345999968878,Correct
19,219,269,A,27.503898583722634,56.475857169768545,1.3751949291861316,0.8871206899486564,A,1138.2640000010724,Correct
19,219,270,B,68.28081469137754,46.97635476572217,3.4140407345688772,0.7379028551221034,B,1191.594099997019,Correct
19,219,271,A,47.314929308305054,60.69759205140299,2.3657464654152527,0.9534355463963893,A,2083.17530000204,Correct
19,219,272,A,45.444226498783976,57.68635801197751,2.2722113249391986,0.9061351927138962,A,997.6830999985395,Correct
19,219,273,B,80.18557920782031,63.12425303002017,4.009278960391016,0.9915534479122731,B,654.2417999989993,Correct
19,219,274,B,47.00845650302283,38.39051070391606,2.3504228251511416,0.603036731974915,B,900.0527999996848,Correct
19,219,275,A,21.201126260724436,35.11484982182161,1.0600563130362217,0.5515827711607181,A,695.9590000005846,Correct
19,219,276,A,14.332052737742782,35.92427083453836,0.7166026368871391,0.564297126696779,A,631.3684000015201,Correct
19,219,277,B,41.02016347927828,25.352440390894085,2.051008173963914,0.39823520241303,B,774.604599999293,Correct
19,219,278,A,32.87178601998209,66.23433101428715,1.6435893009991045,1.0404064386495955,A,2259.562899998855,Correct
19,219,279,B,80.86826555435744,53.97395575550012,4.043413277717872,0.8478209144332987,B,1160.3133999997226,Correct
19,219,280,A,30.71093300526555,46.1718831762652,1.5355466502632773,0.7252662449448045,A,571.0691999993287,Correct
19,219,281,B,41.56798428373946,21.603604776003518,2.078399214186973,0.3393486302767501,B,819.099999996979,Correct
19,219,282,B,37.06390314984816,26.800618980166547,1.853195157492408,0.420983138498752,B,1083.660599997529,Correct
19,219,283,A,44.168992081925786,69.6907423249729,2.2084496040962893,1.0946996205567707,A,2002.0155999991402,Correct
19,219,284,B,58.2217694141283,48.08840659726006,2.911088470706415,0.7553709244439557,B,1045.8859999998822,Correct
19,219,285,B,67.45991975060468,58.12502214544742,3.372995987530234,0.9130257128094083,B,1047.838899998169,Correct
19,219,286,B,60.361746921673856,28.89549880641264,3.018087346083693,0.4538894338601929,B,654.7525999994832,Correct
19,219,287,A,44.28289678463893,56.3255205031757,2.2141448392319463,0.8847592071119902,A,1531.1589000011736,Correct
19,219,288,A,46.36220376008889,57.467214461205685,2.318110188004445,0.9026928938679646,A,1508.5974000030546,Correct
19,219,289,B,60.93129027293221,53.537239822967805,3.0465645136466106,0.840960996606553,A,1796.8948000016098,Incorrect
19,219,290,A,49.004492543379094,77.70213934854205,2.4502246271689545,1.2205423507279503,A,1324.6343999999226,Correct
19,219,291,A,59.010319833422216,74.62167419386982,2.950515991671111,1.1721545172301626,A,1456.2597999974969,Correct
19,219,292,B,39.64518582438245,18.71719498398495,1.9822592912191226,0.2940090112874742,B,778.4836999999243,Correct
19,219,293,B,52.6914074398854,30.486244579912917,2.63457037199427,0.4788768100389803,B,748.6888999992516,Correct
19,219,294,B,32.242513386480624,11.670045956338772,1.6121256693240311,0.18331265321744578,B,1433.6901999995462,Correct
19,219,295,B,82.57671802758932,57.521999565111955,4.128835901379466,0.903553456267755,B,664.3505000029108,Correct
19,219,296,A,48.17430181949922,55.02731109140347,2.408715090974961,0.8643669813577665,B,1503.5064999974566,Incorrect
19,219,297,B,52.96374223544436,34.94924667889497,2.6481871117722178,0.5489814830745696,B,780.7811999991827,Correct
19,219,298,B,74.33848536723471,54.71581721073371,3.7169242683617356,0.859474046922015,B,1203.9756999984093,Correct
19,219,299,B,72.9337553501898,55.181184090123196,3.64668776750949,0.8667840127695849,B,756.8741000031878,Correct
19,219,300,B,82.21115377616364,65.29225842365221,4.110557688808182,1.0256083970001602,B,598.2219999968947,Correct
19,219,301,B,48.851323268352246,25.985668745716232,2.442566163417612,0.4081819301508,B,1224.215300000651,Correct
19,219,302,B,68.73443910397182,53.76762155086759,3.436721955198591,0.8445798243260092,B,639.9038999988989,Correct
19,219,303,A,49.05825821894253,72.48130084698957,2.452912910947126,1.1385336113176705,A,697.5778999985778,Correct
19,219,304,B,45.25845821924313,32.73110837847286,2.2629229109621565,0.5141390481283084,B,577.8728000004776,Correct
19,219,305,A,68.66355956732131,83.73899616475252,3.433177978366066,1.3153690758508518,A,874.7347999997146,Correct
19,219,306,A,58.83588280029076,77.87100697453914,2.941794140014538,1.2231949171942584,A,1313.3290000005218,Correct
19,219,307,B,59.86953825480694,31.38132184238396,2.9934769127403467,0.4929366507998518,B,575.4459999989194,Correct
19,219,308,A,52.28224415607587,80.02889591946976,2.6141122078037933,1.2570909574775417,A,1377.3948999987624,Correct
19,219,309,B,84.22646276086459,56.85674903507641,4.211323138043229,0.893103725377973,B,815.2016000021831,Correct
19,219,310,A,40.66597373208978,55.20225178039452,2.033298686604489,0.8671149432745074,A,1284.1980000011972,Correct
19,219,311,A,36.58733610022301,59.583041582769305,1.8293668050111507,0.9359282285748162,A,550.1419000029273,Correct
19,219,312,B,86.1233861287754,69.91708269679609,4.30616930643877,1.098254966803423,B,719.835800002329,Correct
19,219,313,A,64.7714219843442,82.09701325795008,3.2385710992172103,1.289576868664199,A,2333.6472000009962,Correct
19,219,314,B,79.46301245489434,48.85544911846628,3.973150622744717,0.7674196001920182,B,607.3130000004312,Correct
19,219,315,A,54.92477083058448,83.24106663442076,2.7462385415292236,1.3075476170783735,A,2823.0198999990535,Correct
19,219,316,A,24.955867140881487,50.54730758927037,1.2477933570440742,0.793995250905977,A,571.4996999995492,Correct
19,219,317,A,17.843113670568954,43.94409026172698,0.8921556835284477,0.6902721556746413,A,594.6666999989247,Correct
19,219,318,B,47.71937629580913,33.02740125825468,2.3859688147904565,0.5187932058004758,B,1430.282499997702,Correct
19,219,319,A,32.46008123233901,62.20288068639906,1.6230040616169503,0.9770805649825687,A,2391.1398999989615,Correct
19,219,320,A,39.668554071212604,50.612356186460474,1.9834277035606303,0.7950170318812706,A,635.539200000494,Correct
19,219,321,B,76.19330527242616,56.092532880795765,3.809665263621308,0.8810994460977595,B,502.87930000195047,Correct
19,219,322,B,89.52831253125869,64.72558733583733,4.476415626562934,1.0167071483677554,B,533.0001000002085,Correct
19,219,323,A,40.45289581826433,68.64950953768957,2.0226447909132164,1.07834397418074,B,1138.2577999975183,Incorrect
19,219,324,B,45.052374289977806,23.01323820064563,2.2526187144988903,0.3614911003323016,B,708.4644999995362,Correct
19,219,325,A,41.69096202410448,71.44200590178862,2.0845481012052236,1.1222084044938887,A,655.2221999991161,Correct
19,219,326,A,41.153426695289895,63.23742268311254,2.057671334764495,0.9933311126660944,A,707.6661999999487,Correct
19,219,327,B,39.908418294293824,13.14221101420014,1.9954209147146913,0.2064373678706901,B,824.6397000002617,Correct
19,219,328,B,58.71437196918828,42.20525685805118,2.935718598459414,0.662958624440619,B,3251.4254999987315,Correct
19,219,329,A,38.188600878615155,58.57504644867548,1.9094300439307577,0.9200946780341989,A,1373.384000002261,Correct
19,219,330,B,31.706201267964627,12.57071037338346,1.5853100633982313,0.19746025679713242,B,631.594700000278,Correct
19,219,331,B,79.53348294655616,47.83519465155024,3.9766741473278078,0.7513934805017399,B,596.8738999981724,Correct
19,219,332,B,44.92425049335282,32.976865514172694,2.246212524667641,0.5179993921887176,B,520.4893000009179,Correct
19,219,333,A,44.37046325056367,73.96862345739743,2.218523162528183,1.1618964202495472,A,1221.1329999990994,Correct
19,219,334,B,55.97211751431982,40.885210981462016,2.798605875715991,0.642223392299149,B,759.4118000015442,Correct
19,219,335,B,40.03685597316229,12.916526427118875,2.0018427986581147,0.2028923226666754,B,641.3666000007652,Correct
19,219,336,B,46.643708583882244,17.489534934790417,2.332185429194112,0.27472497232919807,B,676.9598000028054,Correct
19,219,337,A,45.30801571308994,58.4325098080638,2.2654007856544967,0.9178557177191339,A,783.4405000030529,Correct
19,219,338,B,48.84396070415433,32.40013254399947,2.442198035207716,0.5089400918778215,B,710.4122000018833,Correct
19,219,339,B,51.4907726299092,41.51300091239942,2.57453863149546,0.6520846934743021,B,644.1884000014397,Correct
19,219,340,B,74.70456039342552,47.69840125986253,3.7352280196712764,0.7492447349298111,B,804.739300001529,Correct
19,219,341,A,23.814322596761457,34.652931437181635,1.1907161298380728,0.5443269741420032,A,528.1303000010666,Correct
19,219,342,B,49.66607093857762,24.92464174345966,2.4833035469288807,0.39151535697305173,B,864.9346999991394,Correct
19,219,343,B,62.37566968453084,30.023169204327615,3.118783484226542,0.47160283904899475,B,807.8399000005447,Correct
19,219,344,A,53.53610498869132,72.71634366830482,2.6768052494345658,1.1422256553212853,A,791.0561999997299,Correct
19,219,345,A,38.03881608627682,47.83226150775664,1.901940804313841,0.7513474067867705,A,2082.3863000005076,Correct
19,219,346,B,56.39841024122286,43.26656622967804,2.819920512061143,0.6796296330660638,B,952.7075000005425,Correct
19,219,347,A,52.93608736453222,80.37817419585535,2.646804368226611,1.2625774078132992,A,1319.9227000004612,Correct
19,219,348,A,36.320833013322506,49.57014790955506,1.8160416506661252,0.7786460625500881,A,529.0186000020185,Correct
19,219,349,A,55.483863669017055,79.16590624162936,2.774193183450853,1.2435351473174057,A,916.6273000009824,Correct
19,219,350,B,42.17536598827628,14.83612088277582,2.108768299413814,0.23304524186549314,A,691.5498000016669,Incorrect
19,219,351,A,40.57518500560871,60.21464954066064,2.0287592502804355,0.9458495031771172,B,650.4358000020147,Incorrect
19,219,352,B,47.11476635200455,38.46586268681814,2.3557383176002276,0.6042203581545081,B,717.524499999854,Correct
19,219,353,B,76.70838696147887,52.69440712121716,3.8354193480739434,0.8277218114864275,B,709.2818000019179,Correct
19,219,354,A,46.64537506504278,65.37138341211774,2.332268753252139,1.0268512894125537,A,1090.5395000008866,Correct
19,219,355,B,57.89337178737212,34.54492769771833,2.894668589368606,0.5426304553697123,B,1313.1773999994039,Correct
19,219,356,B,44.512261119875845,32.71433576954733,2.2256130559937923,0.5138755846033985,B,708.7589000002481,Correct
19,219,357,A,24.215854558428667,48.97033453055494,1.2107927279214334,0.7692242160251298,A,630.6658000030438,Correct
19,219,358,B,59.11554228455896,51.14873403352036,2.9557771142279483,0.8034424354006291,B,668.5151999990921,Correct
19,219,359,A,57.73592216437643,80.41492816271615,2.886796108218822,1.2631547377747,A,954.3431999991299,Correct
19,219,360,B,67.11204777044418,45.24121972513468,3.355602388522209,0.7106474176396236,B,692.8555000013148,Correct
19,219,361,B,57.96182932667231,45.335175651767074,2.8980914663336153,0.7121232738839715,B,656.1879000000772,Correct
19,219,362,A,43.08147981083499,54.18489698835055,2.1540739905417494,0.851134371570609,B,859.5214999986638,Incorrect
19,219,363,A,29.04417334543355,55.84835572941163,1.4522086672716774,0.8772639203729451,A,645.7101000014518,Correct
19,219,364,B,55.05432292252593,45.094419347149774,2.752716146126296,0.7083414826945158,B,713.8799000022118,Correct
19,219,365,B,79.34014155207058,50.614630298391475,3.9670070776035287,0.7950527535479499,B,966.5804999967804,Correct
19,219,366,A,32.046018726704794,53.77047354735939,1.6023009363352398,0.8446246233821426,A,525.7816999983334,Correct
19,219,367,B,51.904866742543774,23.43064831189,2.595243337127189,0.36804776302739856,B,853.2469999991008,Correct
19,219,368,B,46.63479626188921,38.781392669941155,2.3317398130944604,0.6091766915393408,A,835.0585000007413,Incorrect
19,219,369,B,63.48177860375218,46.09953411647395,3.1740889301876094,0.7241297885711329,B,588.163500000519,Correct
19,219,370,A,63.196410372028026,80.58687762643733,3.1598205186014012,1.265855713634776,A,1444.7586000023875,Correct
19,219,371,B,65.1391728776928,37.628125084672796,3.25695864388464,0.5910612066718294,B,540.5137999987346,Correct
19,219,372,A,15.035462829247415,41.8245654438308,0.7517731414623708,0.6569787376896219,A,537.184900000284,Correct
19,219,373,B,70.5197494776254,43.150068216837674,3.52598747388127,0.6777996865595783,B,915.416700001515,Correct
19,219,374,A,26.832384591089305,45.51680613490231,1.3416192295544653,0.7149763188413998,A,700.2388000000792,Correct
19,219,375,A,21.957259537881793,53.98377205567385,1.0978629768940897,0.8479751085158547,A,580.8878000025288,Correct
19,219,376,A,20.152497662794435,39.32249569067484,1.0076248831397216,0.6176763179132019,A,553.5202999999456,Correct
19,219,377,A,30.25900377989798,51.81538870842253,1.5129501889948989,0.8139142225463988,A,727.6277000019036,Correct
19,219,378,A,29.12323108436191,42.340657362416096,1.4561615542180957,0.665085490589645,A,587.7835999999661,Correct
19,219,379,A,62.39950244443315,77.00761266597735,3.119975122221658,1.2096327511096137,B,568.2285000002594,Incorrect
19,219,380,A,28.843866701512873,40.960822537528,1.4421933350756435,0.643411095844466,A,709.1870000003837,Correct
19,219,381,A,37.109067050588756,57.4278858325399,1.8554533525294377,0.9020751212135036,A,1066.4533999988635,Correct
19,219,382,B,43.055555228647364,29.579917072739498,2.152777761432368,0.4646402508475686,B,586.7565000007744,Correct
19,219,383,B,88.61248068493059,66.64215749160695,4.430624034246529,1.046812561975032,B,710.3504999977304,Correct
19,219,384,A,12.024608723038423,37.02571767018857,0.6012304361519212,0.581598613132771,A,554.7984000004362,Correct
19,219,385,A,52.253267441001896,63.3510113529736,2.6126633720500947,0.9951153593199271,A,1513.954800000647,Correct
19,219,386,A,43.58752023543292,69.9552083633221,2.179376011771646,1.09885384337278,B,640.5818999992334,Incorrect
19,219,387,B,63.51442930354766,42.575205492693605,3.175721465177383,0.6687697640046102,B,639.5534999974188,Correct
19,219,388,B,66.34558501704157,45.91246338626719,3.3172792508520788,0.7211912884125369,B,519.2575999972178,Correct
19,219,389,B,59.48832976539289,43.004609856163974,2.974416488269645,0.6755148319730998,B,525.6133000002592,Correct
19,219,390,B,70.52275833564701,47.42452587587942,3.526137916782351,0.7449427104582091,B,811.1523000006855,Correct
19,219,391,B,41.389090707138735,22.41343905989667,2.069454535356937,0.35206947746126943,B,963.4421000009752,Correct
19,219,392,A,55.14175249421518,64.2140434728268,2.7570876247107594,1.0086718361576414,A,886.4973999989161,Correct
19,219,393,A,24.34139298870142,52.35472509452581,1.2170696494350708,0.8223860986883774,A,467.49669999917387,Correct
19,219,394,A,41.29879325365332,73.75080226661699,2.064939662682666,1.1584748929857869,A,1250.6804000004195,Correct
19,219,395,A,52.27189392677597,81.12334629709528,2.613594696338798,1.2742825438078764,A,905.8901999997033,Correct
19,219,396,A,55.154886861370535,71.57128204504772,2.757744343068527,1.124239069403625,B,680.218600002263,Incorrect
19,219,397,B,76.95621841898779,53.19202765322875,3.847810920949389,0.8355384165246428,B,558.0024000009871,Correct
19,219,398,B,42.421980552340344,31.34688977019769,2.121099027617017,0.49239579307471054,B,1475.5523999992874,Correct
19,219,399,A,20.179994662640112,34.43007654796491,1.0089997331320055,0.5408263777281039,A,672.8459999976621,Correct
19,219,400,A,22.94315241810007,44.96608824134632,1.1471576209050034,0.7063256623984199,A,518.3916999994835,Correct
19,219,401,B,54.011114255445754,36.82855947403775,2.7005557127722875,0.5785016594296589,B,627.3596999999427,Correct
19,219,402,B,53.13462962091886,38.90311617156402,2.6567314810459433,0.6110887198316791,B,657.1674000006169,Correct
19,219,403,B,48.74215450003343,26.56742065955562,2.4371077250016713,0.4173200678444481,B,968.0805999996664,Correct
19,219,404,A,41.90883310143838,74.55542104290552,2.095441655071919,1.1711138151684293,A,738.84199999884,Correct
19,219,405,A,18.637414966630132,39.322287136946024,0.9318707483315066,0.6176730419588902,A,715.135200000077,Correct
19,219,406,B,44.55923042225066,15.005933685656636,2.2279615211125328,0.2357126551355725,B,869.9352000003273,Correct
19,219,407,A,34.9774724835747,46.94953005563689,1.748873624178735,0.7374814935614101,B,2251.754400000209,Incorrect
19,219,408,B,75.73796249748587,48.358588333463565,3.786898124874293,0.759614929231911,B,624.4486000032339,Correct
19,219,409,B,61.791186397984276,43.99862293508978,3.089559319899214,0.6911287529047271,B,587.7584000008937,Correct
19,219,410,A,39.502717054191415,57.70237171864248,1.9751358527095706,0.9063867354299734,A,1144.4611000006262,Correct
19,219,411,A,56.36296020070077,79.54574045092778,2.818148010035038,1.2495015691249758,A,853.4830999997212,Correct
19,219,412,A,46.57482120518475,77.18164571500722,2.3287410602592375,1.2123664558511842,A,1555.5520000016259,Correct
19,219,413,B,73.96004242707856,62.72135626832216,3.6980021213539285,0.9852247603787452,B,1851.0544999990088,Correct
19,219,414,A,68.77438429526424,87.67932532915923,3.438719214763212,1.3772636216289804,A,1624.5587000012165,Correct
19,219,415,B,69.88530893291679,53.59954721535463,3.4942654466458394,0.841939718837487,B,1642.5126000031014,Correct
19,219,416,B,38.855301928634134,29.79559746218287,1.9427650964317067,0.4680281504825619,A,899.3687000001955,Incorrect
19,219,417,B,42.993065518813424,21.703334282386606,2.149653275940671,0.3409151776997463,B,517.8663000006054,Correct
19,219,418,A,62.0284561540015,77.98350633220929,3.101422807700075,1.224962052972209,A,1142.9943000002822,Correct
19,219,419,A,38.41281373104053,52.47991340067962,1.9206406865520265,0.8243525520030182,B,1108.5136000001512,Incorrect
19,219,420,B,34.42764468814727,19.992007981728126,1.7213822344073635,0.3140337270295279,B,935.0378000017372,Correct
19,219,421,B,61.146393834097246,37.97493915830081,3.0573196917048624,0.596508949401186,B,607.5878000010562,Correct
19,219,422,B,46.776157973568495,31.954869945969392,2.3388078986784246,0.5019459233433736,B,660.2847000031034,Correct
19,219,423,A,43.07438759407117,56.900370193440125,2.1537193797035585,0.8937889249312557,A,970.3661999992619,Correct
19,219,424,B,38.77662131767893,25.83806859165142,1.9388310658839465,0.40586343235240646,B,1996.6261000008672,Correct
19,219,425,A,33.36386175974488,56.373265305885006,1.668193087987244,0.8855091807191836,A,705.048200001329,Correct
19,219,426,A,65.10501850093054,83.42665734425651,3.255250925046527,1.310462869131346,B,618.7195999991673,Incorrect
19,219,427,A,41.97487459997034,74.23559280222744,2.098743729998517,1.1660899649118053,A,1142.8725000005215,Correct
19,219,428,A,18.757608513999262,36.25790127756059,0.9378804256999631,0.5695377814408416,A,522.5067999999737,Correct
19,219,429,A,31.933637892642018,60.4297519999571,1.596681894632101,0.9492283247065916,A,919.4655999999668,Correct
19,219,430,B,58.07096974859832,33.45376977325283,2.9035484874299162,0.5254905867726769,B,2093.557799998962,Correct
19,219,431,B,53.78513300024697,43.76550111113138,2.6892566500123483,0.6874668838570313,B,876.5114999987418,Correct
19,219,432,B,45.89603392171821,28.399761119756377,2.2948016960859103,0.44610240448765837,B,1233.734800000093,Correct
19,219,433,A,15.532745618966125,33.291260734517934,0.7766372809483062,0.5229379007615194,A,515.4139000005671,Correct
19,219,434,A,45.77301121374194,54.71906177765445,2.288650560687097,0.8595250124600265,B,775.0105000013718,Incorrect
19,219,435,A,45.9193685717487,69.22156776420127,2.2959684285874347,1.0873298437899135,A,1293.070700001408,Correct
19,219,436,A,17.987767340180152,44.63270828485654,0.8993883670090077,0.701088942287608,A,493.9522999993642,Correct
19,219,437,B,78.6320078618251,59.38535249241443,3.931600393091255,0.9328229356050473,B,737.8017000010004,Correct
19,219,438,A,34.68953268073143,66.46163837451951,1.7344766340365714,1.0439769743146599,A,972.3171000005095,Correct
19,219,439,B,78.8101517657846,48.146055163138534,3.94050758828923,0.7562764659992248,B,805.4682000001776,Correct
19,219,440,B,73.0460922116576,60.458915477694845,3.65230461058288,0.9496864235436618,B,617.3320999987482,Correct
19,219,441,B,48.34874098406801,17.75971117259685,2.4174370492034005,0.2789688907485342,B,906.1465999984648,Correct
19,219,442,B,59.71495263832982,26.81845907463822,2.9857476319164906,0.4212633700474097,B,519.4159999991825,Correct
19,219,443,A,31.204982005436293,48.63377660319341,1.5602491002718148,0.7639375764645979,A,571.04260000051,Correct
19,219,444,A,48.466350723196136,72.9347059130103,2.4233175361598067,1.1456556814402261,A,806.3459000004514,Correct
19,219,445,B,34.750789685745325,24.08108951481878,1.7375394842872662,0.37826486955096433,A,515.3549000024213,Incorrect
19,219,446,A,38.03499496001802,57.61223668970362,1.901749748000901,0.9049708977062463,A,1950.3999000007752,Correct
19,219,447,B,86.12179502310772,60.34006536802849,4.306089751155386,0.9478195303866308,B,631.7662000001292,Correct
19,219,448,A,56.63905957218927,78.21906505655849,2.831952978609463,1.2286622007617314,A,731.3982000014221,Correct
19,219,449,A,47.20624525153431,57.65477025281059,2.3603122625767154,0.9056390133531855,B,1165.648100002727,Incorrect
19,219,450,A,50.916229332315446,63.84859390334306,2.5458114666157723,1.002931367743903,B,1291.1491000013484,Incorrect
19,219,451,B,76.25338818573815,58.792656102761754,3.812669409286907,0.9235128824873371,B,647.3025999985111,Correct
19,219,452,B,72.22879948684623,58.382621367570984,3.6114399743423116,0.9170720719283776,B,742.4906999985978,Correct
19,219,453,B,60.87376986492417,28.791983480372757,3.0436884932462083,0.4522634189210887,B,814.2509999997856,Correct
19,219,454,A,24.76441262862538,35.09581368393209,1.238220631431269,0.551283752205986,A,578.9576999995916,Correct
19,219,455,A,32.220057946973284,57.63714977652976,1.611002897348664,0.9053622315590025,A,686.0186000012618,Correct
19,219,456,B,60.38080071685423,35.59266897527738,3.0190400358427114,0.5590883368719237,B,797.7324000021326,Correct
19,219,457,A,21.296598651170967,50.181175445665474,1.0648299325585484,0.7882440606430159,A,514.7149999975227,Correct
19,219,458,A,23.328339774600213,42.399373179902284,1.1664169887300107,0.6660077964939657,A,587.5847000024805,Correct
19,219,459,B,80.94909397492498,62.86066058806277,4.0474546987462485,0.9874129475162973,B,616.2949999998091,Correct
19,219,460,A,26.14688945790499,43.203193527827764,1.3073444728952495,0.678634176993209,A,580.695900000137,Correct
19,219,461,A,47.3680725684337,54.33762131775812,2.368403628421685,0.8535333597270653,B,1443.067299998802,Incorrect
19,219,462,B,83.5598586400487,59.53685452482881,4.177992932002435,0.935202723965232,B,544.6048000012524,Correct
19,219,463,B,52.02522592761798,40.914010038378734,2.601261296380899,0.6426757668273484,B,744.092200002342,Correct
19,219,464,B,59.90607398503618,33.855704076061976,2.9953036992518087,0.5318041560373316,B,696.6584000001603,Correct
19,219,465,A,51.785162751146714,76.36228401121264,2.5892581375573354,1.1994959523048145,A,795.7052000019758,Correct
19,219,466,B,50.31222695310548,25.38012100425364,2.515611347655274,0.39867000847091616,B,534.2146000002685,Correct
19,219,467,A,42.802414211707024,51.923418814070374,2.1401207105853515,0.8156111554777478,A,889.8174000023573,Correct
19,219,468,B,55.76406910982066,44.41280358420504,2.788203455491033,0.6976346873273248,A,1289.5430000025954,Incorrect
19,219,469,B,71.56843677208644,61.707249021999495,3.578421838604322,0.9692952010037478,B,561.0097999997379,Correct
19,219,470,A,40.94346345169606,71.17505575028551,2.0471731725848032,1.1180151613197045,A,591.6471000018646,Correct
19,219,471,B,80.85948316057127,50.1092645344386,4.042974158028564,0.7871144866908993,B,1745.5771999993885,Correct
19,219,472,A,47.109173273490676,55.62557752281533,2.355458663674534,0.8737645284868307,A,733.2141000006231,Correct
19,219,473,A,44.766732588387,74.86474944553167,2.2383366294193503,1.1759727343546142,A,569.8998000007123,Correct
19,219,474,A,29.998080199579306,48.32456768929237,1.4999040099789653,0.759080534202918,A,631.1763999983668,Correct
19,219,475,B,39.92349081399645,26.004811417098537,1.9961745406998228,0.4084826225297237,B,1133.5324000028777,Correct
19,219,476,A,40.03962136059921,61.67528621736672,2.0019810680299606,0.9687931304426355,A,1074.5344000024488,Correct
19,219,477,A,45.6475955279196,67.04923047182224,2.28237977639598,1.0532068493956284,B,1028.4847999973863,Incorrect
19,219,478,A,44.03997144873432,53.076681964704136,2.201998572436716,0.8337265706861821,B,1584.8898000003828,Incorrect
19,219,479,A,13.445701968684034,31.023009824304033,0.6722850984342017,0.48730829878138765,A,495.5574000014167,Correct
19,219,480,A,68.68704256235478,86.42076584076662,3.434352128117739,1.3574942154147807,A,828.8179000010132,Correct
19,219,481,A,34.166375764324066,47.58371384980135,1.7083187882162034,0.747443229305274,A,490.36449999766774,Correct
19,219,482,B,51.598331283494964,42.812433163179946,2.579916564174748,0.6724961275387508,B,1229.6520999989298,Correct
19,219,483,B,65.351489288606,54.34918201542488,3.2675744644303,0.8537149547413665,B,640.4421999977785,Correct
19,219,484,A,31.24582054665256,60.94939454820871,1.562291027332628,0.9573908507669914,A,524.8643000013544,Correct
19,219,485,A,19.679944398840835,42.301304461515485,0.9839972199420417,0.664467336667811,A,529.2917999977362,Correct
19,219,486,B,48.32139545020153,37.51027472794086,2.416069772510076,0.5892100175971694,B,676.3537000006181,Correct
19,219,487,A,41.40526599522301,55.27811489370873,2.0702632997611503,0.8683065982718394,A,766.0214999996242,Correct
19,219,488,B,53.93538234474332,39.99041395355032,2.6967691172371655,0.6281679534524421,B,509.21350000135135,Correct
19,219,489,B,85.07513768580964,63.36400591223768,4.253756884290482,0.9953194773795306,B,601.0893000020587,Correct
19,219,490,A,32.521661407631164,56.6057049377218,1.6260830703815583,0.8891603339180915,A,629.794700002094,Correct
19,219,491,B,74.27633173878392,58.880531873589206,3.7138165869391964,0.9248932318676375,B,526.3739000001806,Correct
19,219,492,A,42.01832368167261,50.33751579881026,2.1009161840836303,0.7906998491675123,B,1300.4406000000017,Incorrect
19,219,493,A,18.695497991001112,48.614603960846225,0.9347748995500555,0.7636364133028588,A,471.2489000012283,Correct
19,219,494,A,57.196357220534736,70.16856841341539,2.859817861026737,1.1022052952024928,B,840.0830999999016,Incorrect
19,219,495,B,50.268660386584905,39.63861031927488,2.5134330193292453,0.6226418348877126,B,717.8980999997293,Correct
19,219,496,A,38.415274672327605,51.01753170482585,1.92076373361638,0.8013815140408261,B,860.7989999982237,Incorrect
19,219,497,B,64.59313766604433,31.655319724740053,3.229656883302216,0.49724059947139715,B,1060.8054999975138,Correct
19,219,498,B,43.762525960890585,32.9943235253758,2.188126298044529,0.5182736219874274,B,666.6094000029261,Correct
19,219,499,A,66.40074039024083,83.75663661401947,3.320037019512041,1.3156461713799674,A,776.9821000001684,Correct
19,219,500,B,72.51577926039863,44.661295431923335,3.6257889630199314,0.7015379881436687,B,557.4078999998164,Correct
19,219,501,B,75.02589014485473,45.53972467714515,3.7512945072427364,0.7153363224611051,B,652.304199997161,Correct
19,219,502,A,42.308422638658115,58.88143521352854,2.1154211319329055,0.9249074214982231,A,1063.6680999996315,Correct
19,219,503,A,47.20095674598225,65.8382218913183,2.3600478372991125,1.0341843710959013,B,1689.332400001149,Incorrect
19,219,504,A,42.05125925383709,55.89440901804,2.1025629626918545,0.8779873237390878,A,1145.9147999994457,Correct
19,219,505,A,22.102617704808175,53.65566988801867,1.105130885240409,0.8428212917181926,A,704.5548999994935,Correct
19,219,506,A,62.44572404226038,72.30828461094265,3.122286202113019,1.1358158786370867,A,953.9433999998437,Correct
19,219,507,B,59.82011302909205,44.077321071718515,2.991005651454602,0.6923649403441473,B,1603.3521999997902,Correct
19,219,508,B,53.32173456656018,45.98943267542709,2.666086728328009,0.7224003191794207,B,694.3858999984514,Correct
19,219,509,A,35.351106385226785,48.632183546843734,1.7675553192613394,0.7639125527939734,B,755.3802000002179,Incorrect
19,219,510,A,54.9750506655645,67.39920871458088,2.748752533278225,1.0587042947774623,A,771.1460999998963,Correct
19,219,511,B,60.88917023166952,32.51944905181105,3.0444585115834757,0.5108143111997858,B,906.8723000018508,Correct
19,219,512,B,45.8391651965309,34.156918134738575,2.291958259826545,0.5365356154068134,B,610.0578999976278,Correct
19,219,513,A,49.89986731765264,66.30646017209062,2.494993365882632,1.0415394408109206,A,843.190899999172,Correct
19,219,514,A,41.11453500838121,73.80322197012114,2.0557267504190606,1.1592982997629468,A,653.1360000008135,Correct
19,219,515,B,40.511404222842394,28.424074904974134,2.02557021114212,0.44648432453276365,B,776.4561000003596,Correct
19,219,516,B,47.90367972883189,36.00177333448611,2.3951839864415945,0.5655145331191325,B,748.8859000004595,Correct
19,219,517,B,48.84571767562065,29.288454953056075,2.4422858837810324,0.46006197457758274,B,493.4734999987995,Correct
19,219,518,B,42.213183037722374,29.42521497000574,2.110659151886119,0.46221019590035217,B,636.0883000015747,Correct
19,219,519,A,30.887620953452405,40.90215664172362,1.54438104767262,0.6424895741080895,A,680.5247999982384,Correct
19,219,520,B,57.36133919535962,34.69075459730153,2.868066959767981,0.544921098951844,B,529.3720000008761,Correct
19,219,521,B,86.60842059817338,57.97319169023528,4.330421029908669,0.91064076559598,B,625.3890000007232,Correct
19,219,522,A,56.17590183460618,77.68268199420129,2.808795091730309,1.2202367153206743,B,889.6578999992926,Incorrect
19,219,523,B,80.55777474921011,49.36233013485166,4.027888737460506,0.7753816685786202,B,736.8581000009726,Correct
19,219,524,A,45.66555243851709,56.21475586514694,2.2832776219258544,0.8830193202464468,A,693.8654000005045,Correct
19,219,525,B,30.605261724447345,15.293252435852146,1.5302630862223674,0.24022584750983653,B,800.8732000016607,Correct
19,219,526,A,47.26812400363278,63.691156105719315,2.3634062001816387,1.0004583406018424,A,883.3692000007431,Correct
19,219,527,B,62.1942583522318,49.999001098366925,3.1097129176115903,0.7853824726872877,B,549.0572999988217,Correct
19,219,528,A,31.30693802864932,57.5791355318775,1.565346901432466,0.9044509459349868,A,469.13730000233045,Correct
19,219,529,A,52.03587840584348,69.03051124945877,2.6017939202921743,1.0843287350742363,B,655.0409999981639,Incorrect
19,219,530,A,51.36427392611625,65.07321221574422,2.568213696305812,1.022167627212358,A,1588.349499998003,Correct
19,219,531,B,86.14414363428628,61.44291018559366,4.307207181714314,0.9651429762711926,B,492.3222000034002,Correct
19,219,532,B,71.65937556968329,45.11816784001843,3.5829687784841644,0.7087145231481659,B,494.2493000016839,Correct
19,219,533,A,17.384815537591532,43.024896485408945,0.8692407768795767,0.6758334936001101,A,476.6094999977213,Correct
19,219,534,A,24.311459067014788,36.397810687142474,1.2155729533507396,0.5717354733073943,A,661.1928999991505,Correct
19,219,535,A,19.015472020553982,47.05514718954757,0.9507736010276991,0.7391405236213454,A,556.1084999972081,Correct
19,219,536,B,44.359651461193955,26.20827444987745,2.2179825730596976,0.41167861237500036,B,902.3330000018177,Correct
19,219,537,B,38.475880877275024,14.097565781015035,1.923794043863751,0.22144404545567842,B,557.796099998086,Correct
19,219,538,B,65.42182845904763,40.75958921984909,3.2710914229523813,0.6402501302820782,B,723.3243000009679,Correct
19,219,539,A,14.16240132205968,39.64972034872356,0.708120066102984,0.6228163508221983,A,490.529399998195,Correct
19,219,540,A,44.181464552250674,54.527614811968036,2.2090732276125338,0.8565177705552638,B,545.1623000008112,Incorrect
19,219,541,B,40.095155203865275,12.762602915740178,2.0047577601932636,0.20047449780386511,B,659.9117999976443,Correct
19,219,542,B,59.4269083472447,26.62847204726068,2.971345417362235,0.41827906079997657,B,518.4445000013511,Correct
19,219,543,B,54.64112166196539,48.00206358696599,2.7320560830982696,0.7540146516098124,B,464.9379999973462,Correct
19,219,544,A,61.12143144563773,81.48219510641579,3.0560715722818865,1.2799193277234302,A,578.0435999986366,Correct
19,219,545,A,27.591668147959332,38.08622888217934,1.3795834073979665,0.5982570842959701,A,479.8486999970919,Correct
19,219,546,A,39.12651387300008,66.16132402834774,1.956325693650004,1.0392596475961555,A,501.6713000004529,Correct
19,219,547,A,31.234340002711487,48.49536598761925,1.5617170001355742,0.7617634275992649,A,465.5808999996225,Correct
19,219,548,B,55.256233094088,26.84633525762775,2.7628116547043997,0.4217012481058599,B,546.1162999999942,Correct
19,219,549,B,87.12637011607396,61.33838688323598,4.356318505803698,0.9635011280771134,B,518.5382000017853,Correct
