subject,day,trial,cat,x,y,xt,yt,resp,rt,fb
8,208,0,A,50.56784664865658,64.33760597109519,2.5283923324328286,1.0106127513417371,A,632.5394999998935,Correct
8,208,1,A,45.2073619935716,52.132226394945626,2.26036809967858,0.8188910972882054,A,651.0164999999688,Correct
8,208,2,B,69.00416865066546,43.77137496411688,3.450208432533273,0.687559150123969,B,936.0466999999062,Correct
8,208,3,A,60.35355783315573,72.88600734188272,3.0176778916577867,1.1448907260737524,A,669.0088999998807,Correct
8,208,4,A,35.08660561285237,56.25430957847378,1.7543302806426184,0.8836406285224958,A,842.5250999998752,Correct
8,208,5,A,25.838804414314808,36.49656758772621,1.2919402207157404,0.5732867430742201,A,1728.6397000000306,Correct
8,208,6,A,64.37958204542377,88.121908002396,3.218979102271189,1.3842156940032142,A,812.8173000000061,Correct
8,208,7,A,27.38474141649684,53.904712960513976,1.369237070824842,0.8467332511530861,A,904.1532999999617,Correct
8,208,8,A,43.95671564668772,60.14378630504027,2.1978357823343857,0.9447363860749445,A,697.5526999999602,Correct
8,208,9,B,80.3580892389959,55.675314371511384,4.017904461949795,0.874545793079212,B,681.2993000000915,Correct
8,208,10,B,64.67575026115078,35.99506597969027,3.233787513057539,0.5654091742363742,B,717.9905000000417,Correct
8,208,11,B,50.503343672288494,40.99296450885136,2.5251671836144247,0.6439159807493727,A,597.4487999999383,Incorrect
8,208,12,B,65.21740256856275,50.86851154430332,3.2608701284281376,0.7990407108331545,B,763.0123000001277,Correct
8,208,13,A,60.22415215695214,82.71892761074062,3.011207607847607,1.2993458764736432,A,1515.8380999998826,Correct
8,208,14,A,63.16677681866294,72.85946200393819,3.1583388409331468,1.1444737528803843,B,1968.8273000001573,Incorrect
8,208,15,A,57.731633472880134,79.11943779832288,2.886581673644007,1.2428052227168287,A,773.837500000127,Correct
8,208,16,A,22.23549419651617,49.36020122895501,1.1117747098258086,0.7753482278029947,A,842.7990000000136,Correct
8,208,17,A,34.00343872437337,55.58945911052245,1.7001719362186685,0.8731971817932376,A,1222.1509000000879,Correct
8,208,18,B,63.57202943729857,46.00510606607193,3.1786014718649285,0.7226465162239539,B,934.7474999999577,Correct
8,208,19,A,29.499519936613645,56.156844614886325,1.4749759968306821,0.8821096524545521,A,662.7501999998913,Correct
8,208,20,B,67.77226233882371,47.869039138273806,3.388613116941185,0.7519251084560165,B,1027.1790000001602,Correct
8,208,21,B,60.14466807284375,33.9135787330363,3.0072334036421875,0.5327132490232295,B,614.2009999998663,Correct
8,208,22,B,82.88483852772583,54.39496571702031,4.144241926386291,0.8544341234442984,B,497.28929999992033,Correct
8,208,23,A,32.78223624108758,51.31104348110549,1.639111812054379,0.8059919862413373,A,670.5534000000171,Correct
8,208,24,A,46.435028460271084,70.16542292904471,2.3217514230135543,1.1021558860495384,A,646.8082999999751,Correct
8,208,25,B,79.03192142953597,53.486848350559214,3.951596071476798,0.840169449208941,B,530.1554000000124,Correct
8,208,26,B,38.990983582115675,24.548192712032684,1.949549179105784,0.3856021094151419,B,793.3369999998376,Correct
8,208,27,B,36.87182723372693,10.888757888345065,1.8435913616863469,0.17104020894371383,B,600.0030999998671,Correct
8,208,28,B,57.52223657646454,29.20718807056324,2.8761118288232272,0.45878543737248456,B,606.3173000000006,Correct
8,208,29,B,64.64052827530998,57.06277550308836,3.2320264137654986,0.89633998156973,A,1157.5370000000476,Incorrect
8,208,30,B,31.678265445283117,11.256400737512351,1.5839132722641558,0.17681512931415766,B,707.3523999999907,Correct
8,208,31,A,38.77786436435701,62.03713742775493,1.9388932182178504,0.9744770759638764,A,610.8458000001065,Correct
8,208,32,A,26.56937800956843,51.855498150566845,1.3284689004784216,0.8145442601902997,A,809.7224000000551,Correct
8,208,33,A,27.90346164328176,59.79707380636738,1.395173082164088,0.9392902388812521,A,571.1397000000034,Correct
8,208,34,B,47.00474517102726,17.098160660352324,2.350237258551363,0.2685772796023043,B,627.6910000001408,Correct
8,208,35,B,38.175473569474626,17.172267713480537,1.9087736784737315,0.2697413504707382,B,599.8537000000397,Correct
8,208,36,B,53.46155278006474,26.145013965605095,2.673077639003237,0.41068491901173754,B,534.8073999998633,Correct
8,208,37,B,66.56744219547737,58.600442243904226,3.3283721097738685,0.9204935942528124,B,611.4924000000883,Correct
8,208,38,B,65.25800061372534,49.78157082100233,3.2629000306862674,0.7819670858771047,B,552.191300000004,Correct
8,208,39,A,39.989366464922014,63.25138997324802,1.9994683232461006,0.9935505103464952,A,593.0611000001136,Correct
8,208,40,B,49.40476060602565,19.327411595995798,2.4702380303012825,0.3035942714144329,B,546.9645000000583,Correct
8,208,41,A,23.76490180399336,35.32057543177745,1.188245090199668,0.5548143014851808,A,1058.4480999998505,Correct
8,208,42,A,64.7106605547034,88.62865837721579,3.23553302773517,1.3921757102769028,A,630.6076999999277,Correct
8,208,43,B,43.59518850585058,16.166919341043602,2.179759425292529,0.25394937516500654,B,652.9476000000614,Correct
8,208,44,B,36.906245924028866,17.6380803831272,1.8453122962014432,0.27705831877529324,B,572.183799999948,Correct
8,208,45,B,73.24671559211492,44.188060128875264,3.6623357796057463,0.6941044253862928,B,528.8769999999658,Correct
8,208,46,A,45.377053005672934,56.17318034530359,2.268852650283647,0.8823662535079018,A,2443.9233999999033,Correct
8,208,47,A,67.29255664217949,79.34805501307355,3.364627832108974,1.2463963335285533,A,654.9775000000864,Correct
8,208,48,A,62.817492738191135,86.87766754837565,3.140874636909557,1.3646712106549665,A,586.0583999999562,Correct
8,208,49,B,51.481853455009635,38.193321819762744,2.574092672750482,0.5999392962257869,B,663.013699999965,Correct
8,208,50,A,51.34351197627342,70.8744127609322,2.567175598813671,1.1132926722861762,A,800.7155000000239,Correct
8,208,51,B,35.3365845271538,17.726644110682937,1.7668292263576901,0.2784494745546114,B,763.759299999947,Correct
8,208,52,A,44.069734414759196,70.56792061388153,2.20348672073796,1.1084783048983897,A,591.920600000094,Correct
8,208,53,B,50.96223648684646,27.4376111157111,2.548111824342323,0.4309889875658582,B,795.7364999999754,Correct
8,208,54,B,45.97401452245241,32.13873155894461,2.2987007261226204,0.5048340148063741,B,819.8251999999684,Correct
8,208,55,A,61.46473076495846,87.23128966577028,3.073236538247923,1.370225893885736,A,579.2834999999741,Correct
8,208,56,A,44.45236313645228,61.26515990217173,2.2226181568226138,0.9623508813483335,A,449.084300000095,Correct
8,208,57,A,33.792579203596134,51.41285709698266,1.6896289601798065,0.807591270779713,A,715.5947999999626,Correct
8,208,58,A,50.44258155570612,79.01873248526181,2.522129077785306,1.241223347358378,A,565.7820999999785,Correct
8,208,59,B,60.731911304080036,28.11837142015905,3.036595565204002,0.4416823454224043,B,697.4290000000565,Correct
8,208,60,B,43.6105881750838,22.04812658494071,2.18052940875419,0.34633116252333773,B,696.6523999999481,Correct
8,208,61,B,65.07641043105625,44.498873809134714,3.2538205215528127,0.6989866752589844,B,652.1841000001132,Correct
8,208,62,A,16.464902132506243,46.312250892194925,0.8232451066253121,0.7274711358706346,A,546.8065000000024,Correct
8,208,63,B,59.650682313564324,40.22097827032702,2.982534115678216,0.6317896492712703,B,1407.8280999999606,Correct
8,208,64,A,51.970755181009785,80.7336165485141,2.598537759050489,1.2681606832327363,A,503.30090000011296,Correct
8,208,65,A,49.26106780694916,66.44967276682996,2.463053390347458,1.0437890189885939,A,531.194400000004,Correct
8,208,66,A,69.38868657878581,84.5421936302728,3.4694343289392906,1.3279856721361543,B,1277.3515999999745,Incorrect
8,208,67,A,67.7810298537115,85.20781840878661,3.3890514926855753,1.3384412817072855,A,606.8253000000823,Correct
8,208,68,B,72.24224747275665,53.75888640725451,3.612112373637832,0.8444426130109948,B,892.03550000002,Correct
8,208,69,A,54.670707978572025,72.68979825592054,2.733535398928601,1.1418086809586205,A,521.0641999999552,Correct
8,208,70,A,24.84532621696375,38.850855368574656,1.2422663108481873,0.6102678090579685,A,1755.8356000001822,Correct
8,208,71,A,35.63364262733713,58.39628566810337,1.7816821313668567,0.9172867102592224,A,514.1906999999719,Correct
8,208,72,A,55.078252359717126,84.50736533167485,2.753912617985856,1.3274385905010924,A,557.7980999998999,Correct
8,208,73,A,45.85942032351794,77.54024297294026,2.292971016175897,1.2179992884067836,A,521.1216999998669,Correct
8,208,74,B,42.69744676236965,14.553159678974211,2.1348723381184826,0.22860049766992288,B,569.7150999999394,Correct
8,208,75,B,45.3142706229334,34.103592245525675,2.26571353114667,0.5356979742978265,B,655.2437000000282,Correct
8,208,76,B,37.90346783146232,27.88544664814789,1.895173391573116,0.43802357165945766,B,516.24599999991,Correct
8,208,77,B,52.75232373380839,43.2926715232107,2.637616186690419,0.6800396940579738,B,554.59309999992,Correct
8,208,78,B,66.33195283573718,50.19771564182614,3.316597641786859,0.7885038734367523,B,1167.277100000092,Correct
8,208,79,B,44.95161679096644,30.484659790171424,2.247580839548322,0.4788519162199335,B,2189.6741999998994,Correct
8,208,80,B,78.05913596319824,51.594317300433296,3.902956798159912,0.8104416409901103,B,602.6598999999351,Correct
8,208,81,A,57.514865757952826,71.4936758808355,2.875743287897641,1.1230200346268129,A,1129.2945999998665,Correct
8,208,82,A,54.16600380040154,77.35083268563456,2.708300190020077,1.2150240385712139,A,508.07609999992565,Correct
8,208,83,A,44.819112171474124,76.47280816415972,2.240955608573706,1.2012320616395287,A,609.2906999999741,Correct
8,208,84,B,42.078273611719794,33.11279044956259,2.1039136805859897,0.5201344960810205,B,989.2287000000124,Correct
8,208,85,A,31.104507700457763,52.003385483068506,1.5552253850228883,0.8168672689770305,A,496.26069999999345,Correct
8,208,86,B,53.94917452325425,44.96234275927899,2.6974587261627123,0.7062668285036855,B,2766.8599999999515,Correct
8,208,87,B,48.38290075147283,23.33194793838324,2.419145037573642,0.36649738118582154,B,594.7971999999027,Correct
8,208,88,B,52.60812979283182,44.3684475661987,2.630406489641591,0.6969379446257687,B,815.7733000000462,Correct
8,208,89,B,73.88155565627201,62.40509493993465,3.6940777828136,0.9802569390493613,B,1008.6079000000154,Correct
8,208,90,B,38.20245463058609,26.516830625671627,1.9101227315293046,0.4165254014504741,B,762.85299999995,Correct
8,208,91,B,61.87230398229172,48.762588276592666,3.093615199114586,0.7659609454988365,B,1114.848400000028,Correct
8,208,92,A,59.00702560797267,81.02450614047599,2.9503512803986336,1.2727299662583023,A,596.2756000001264,Correct
8,208,93,B,64.14281699337113,55.052808756775576,3.2071408496685563,0.8647674977488499,A,1390.452699999969,Incorrect
8,208,94,B,81.29986544526628,59.94639426803087,4.0649932722633135,0.9416357592082153,B,594.3781999999374,Correct
8,208,95,B,57.640134946605926,47.466231330846604,2.8820067473302964,0.7455978182129068,B,1582.5280999999904,Correct
8,208,96,B,85.19765275350831,55.9180487645215,4.259882637675415,0.8783586560084828,B,766.0108000000037,Correct
8,208,97,B,81.66452907173357,61.90835864624435,4.083226453586678,0.9724542235942172,B,1235.8146999999917,Correct
8,208,98,B,51.30029091359584,26.378361955659315,2.5650145456797917,0.41435034066815896,B,1772.9148999999325,Correct
8,208,99,B,69.1937889209003,49.76797789688446,3.459689446045015,0.7817535687243571,B,608.2687999999052,Correct
8,208,100,B,42.79457824059768,34.459780248251775,2.139728912029884,0.5412929623611321,B,704.2969999999968,Correct
8,208,101,B,41.70746641278092,22.440464710988515,2.0853733206390457,0.3524939953959126,B,803.0696000000717,Correct
8,208,102,B,87.61934555136428,66.13256090134468,4.380967277568214,1.03880783745372,B,607.4989000001096,Correct
8,208,103,A,45.236083014123786,61.563673211682335,2.261804150706189,0.9670399174491198,A,2839.781700000003,Correct
8,208,104,B,81.57611372578633,67.40594796010143,4.078805686289317,1.0588101545985529,B,585.4927999998836,Correct
8,208,105,B,34.30763507357136,10.751044901012232,1.715381753678568,0.16887701839717018,B,755.4502000000411,Correct
8,208,106,A,37.660884485548344,51.09690136517249,1.883044224277417,0.8026282497501408,B,2253.9222999998856,Incorrect
8,208,107,B,54.47236674585113,29.27345148375169,2.723618337292556,0.45982630063285773,B,608.7241000000176,Correct
8,208,108,B,62.016365980591765,45.8707750086344,3.100818299029588,0.7205364489079806,B,516.5815999998813,Correct
8,208,109,A,54.46166899377401,61.95533997063336,2.723083449688701,0.9731922045119992,B,660.3302999999414,Incorrect
8,208,110,A,54.60991314227143,66.07880750947179,2.7304956571135715,1.037963481148653,A,564.3769999999222,Correct
8,208,111,B,66.26529595918085,52.37323573343868,3.313264797959042,0.822676863124487,B,1261.1991999999645,Correct
8,208,112,A,27.698013822673342,55.105896260924865,1.384900691133667,0.865601394314014,A,887.9779999999755,Correct
8,208,113,A,37.84504209632258,69.08092951104177,1.892252104816129,1.085120703275216,A,500.68069999997533,Correct
8,208,114,A,52.11105387053997,78.03798288558454,2.6055526935269984,1.225817768671592,A,582.0708999999624,Correct
8,208,115,A,13.419907226980008,40.77028691805197,0.6709953613490004,0.6404181693325006,A,1032.5714999999036,Correct
8,208,116,A,30.138043151886443,48.213769273386205,1.5069021575943222,0.7573401167557168,A,499.0783000000647,Correct
8,208,117,A,47.436486545764794,77.13157619041354,2.3718243272882398,1.2115799655980228,A,561.1830999998801,Correct
8,208,118,A,35.6084792280087,55.784729084411495,1.7804239614004347,0.8762644753704201,A,987.0982999998432,Correct
8,208,119,B,77.62554346107883,50.77571644726596,3.8812771730539417,0.7975830888574458,B,867.4121999999898,Correct
8,208,120,B,88.94737736494123,67.19242431124134,4.447368868247062,1.0554561329654202,B,624.1345999999339,Correct
8,208,121,B,62.3611645028432,52.01665252336337,3.11805822514216,0.8170756671586565,B,751.8460000001141,Correct
8,208,122,B,76.66936435527113,44.331144777213694,3.8334682177635564,0.6963519937866003,B,577.5416999999834,Correct
8,208,123,A,22.842726824421515,54.78810118233521,1.1421363412210759,0.8606094808927929,A,501.67880000003606,Correct
8,208,124,A,16.378284099919906,36.14247456910741,0.8189142049959953,0.5677246629443188,A,470.00019999995857,Correct
8,208,125,A,61.12521141574509,82.22606717693945,3.0562605707872548,1.291604042883269,A,782.0150000000012,Correct
8,208,126,A,44.68384096582385,54.16309947123211,2.234192048291192,0.8507919769723801,A,1009.5741000000089,Correct
8,208,127,B,54.589469038678764,24.69522383612472,2.729473451933938,0.3879116689116249,B,1900.1082000002043,Correct
8,208,128,A,23.51996718821497,40.267029925939504,1.1759983594107484,0.6325130269860596,A,899.8541000000841,Correct
8,208,129,A,40.00287282647969,58.519548882655485,2.0001436413239846,0.9192229243056962,A,1184.3031000000792,Correct
8,208,130,A,43.64103009615669,56.00400017967033,2.1820515048078346,0.8797087776804687,A,1275.8879000000434,Correct
8,208,131,A,26.600789873693987,51.66683206864917,1.3300394936846993,0.8115807003056288,A,528.8932999999361,Correct
8,208,132,A,33.70578296646854,49.050657434818135,1.6852891483234271,0.770485925254871,A,1080.3214000000025,Correct
8,208,133,B,64.38914808350694,34.88669949811513,3.2194574041753468,0.547998994256366,A,1597.626400000081,Incorrect
8,208,134,A,13.375429283347543,38.36683777383535,0.6687714641673772,0.6026648784587625,A,521.4946999999484,Correct
8,208,135,B,60.21851007064724,28.4444764058708,3.0109255035323623,0.4468047905594596,B,598.7385000000813,Correct
8,208,136,A,52.4695237865792,69.20114752653677,2.62347618932896,1.087009083446757,A,1152.687600000263,Correct
8,208,137,A,62.26047546539914,83.84879804434432,3.113023773269957,1.3170938397422316,A,920.4594000002544,Correct
8,208,138,B,88.45741339211646,61.87681235327983,4.422870669605823,0.9719586955830904,B,846.4968000002955,Correct
8,208,139,B,56.94021876843757,39.583554635653954,2.8470109384218785,0.6217770222317033,B,713.8568000000305,Correct
8,208,140,A,48.65786012484685,71.15858834324777,2.4328930062423426,1.1177564918948375,A,996.9188999998551,Correct
8,208,141,B,67.49921502541746,42.7844987288751,3.374960751270873,0.6720573344707793,B,1024.002399999972,Correct
8,208,142,A,44.584476074987464,70.98671701795087,2.229223803749373,1.1150567434302598,A,995.3077999998641,Correct
8,208,143,A,47.523294642778595,70.91689945859171,2.3761647321389296,1.1139600517723887,A,797.803599999952,Correct
8,208,144,A,26.106302182965596,48.362557312071786,1.3053151091482798,0.7596772738021004,A,1135.507100000268,Correct
8,208,145,B,76.1806093209536,52.08895466674871,3.8090304660476795,0.8182113865711477,B,558.9497999999367,Correct
8,208,146,B,80.57260575911039,60.74326129385862,4.02863028795552,0.9541529171793574,B,770.8517000000938,Correct
8,208,147,B,68.89239173355259,59.8998469876836,3.4446195866776295,0.9409045962382976,B,734.1635000002498,Correct
8,208,148,A,53.51651071280749,63.645586566888184,2.6758255356403744,0.9997425359597456,A,1089.2288000000008,Correct
8,208,149,B,56.90057415779276,46.166699743833725,2.845028707889638,0.725184823778569,B,1512.4000000000706,Correct
8,208,150,B,62.47516574288688,45.62725481156239,3.1237582871443443,0.7167112425973697,B,1949.1143999998712,Correct
8,208,151,A,46.41788103636495,68.2807574171168,2.3208940518182475,1.0725516294158046,A,1654.5208000002276,Correct
8,208,152,A,43.01829095041032,59.65279719485244,2.150914547520516,0.9370239471671512,A,842.6973000000544,Correct
8,208,153,B,60.78225344309613,35.45083060878937,3.0391126721548067,0.5568603450211442,B,593.329199999971,Correct
8,208,154,A,26.510421363229433,57.164751538131156,1.3255210681614715,0.8979418173823933,A,599.9649999998837,Correct
8,208,155,A,25.099658629950703,55.4421888724259,1.2549829314975351,0.8708838663027549,A,874.7042999998484,Correct
8,208,156,A,54.01980296970507,79.31129524282606,2.700990148485254,1.2458189124077672,A,683.036699999775,Correct
8,208,157,A,20.075442266866443,51.32296323692668,1.0037721133433222,0.8061792213279395,A,523.0552999996689,Correct
8,208,158,B,58.270999700515986,30.428746589218335,2.9135499850257993,0.477973633713169,B,756.1684999996032,Correct
8,208,159,B,60.18185228695729,50.33134085201996,3.0090926143478645,0.7906028533301488,B,645.3135000001566,Correct
8,208,160,A,13.379345708032641,40.222090804790895,0.6689672854016321,0.6318071249217632,A,508.2073999997192,Correct
8,208,161,B,60.95561909415967,50.030265144320246,3.0477809547079833,0.7858735671727299,B,696.6231999999764,Correct
8,208,162,A,17.3688075535608,46.690168331536725,0.8684403776780399,0.7334074491261329,A,876.8029000002571,Correct
8,208,163,A,54.41473947245416,67.39907729991486,2.720736973622708,1.0587022305207157,A,720.1132999998663,Correct
8,208,164,B,66.38827134115496,39.66596834429834,3.3194135670577483,0.6230715737398648,B,624.9649000001227,Correct
8,208,165,B,44.39576939078421,16.853204205529195,2.2197884695392105,0.2647295126076956,B,1418.891899999835,Correct
8,208,166,B,61.08953833920614,42.90361019981135,3.054476916960307,0.6739283330810373,B,1429.4112000002315,Correct
8,208,167,B,71.61552634710375,49.23342220636774,3.5807763173551876,0.7733567875730474,B,616.1815000000388,Correct
8,208,168,B,54.73584886347486,45.937814892205935,2.736792443173743,0.7215895089366097,B,1078.0041999996683,Correct
8,208,169,A,39.8765033397911,54.370121347443316,1.993825166989555,0.8540438689995674,A,1031.963800000085,Correct
8,208,170,A,58.907354278824386,83.81595414982182,2.9453677139412195,1.3165779290534958,A,666.146800000206,Correct
8,208,171,A,29.345986130499874,50.993690028004906,1.4672993065249937,0.8010070098570766,A,935.4720999999699,Correct
8,208,172,B,76.9233066122363,62.38950289952815,3.846165330611815,0.9800120198513836,B,568.0013999999574,Correct
8,208,173,A,42.51483633696192,61.170448253676746,2.1257418168480964,0.9608631542527274,A,865.6723999997666,Correct
8,208,174,A,13.7516094910833,31.420465961974365,0.687580474554165,0.49355152519253404,A,1263.7841999999182,Correct
8,208,175,A,15.981326233651,43.57731320297063,0.79906631168255,0.6845108351081701,A,502.41779999987557,Correct
8,208,176,A,50.26919182196269,69.71966017575093,2.5134595910981345,1.0951538610945801,A,531.3740999999936,Correct
8,208,177,A,54.88322525287417,75.14470605642488,2.7441612626437086,1.1803702825151443,A,581.605099999706,Correct
8,208,178,A,25.680920313908416,42.526780189631054,1.2840460156954208,0.6680091011228643,A,1133.1449999997858,Correct
8,208,179,A,32.72286087507888,41.30668565844654,1.636143043753944,0.6488439010435927,A,603.1803999999283,Correct
8,208,180,B,57.7023666980906,49.87181204664467,2.88511833490453,0.7833845917347492,B,699.7261999999864,Correct
8,208,181,B,76.17897656887732,50.131204684375604,3.808948828443866,0.7874591217602032,B,579.7397000001183,Correct
8,208,182,B,57.45592624598969,46.07594186399011,2.8727963122994846,0.7237592023357086,B,533.1537999995817,Correct
8,208,183,A,18.840524933056322,47.87301017053566,0.9420262466528161,0.7519874852849213,A,556.0764000001654,Correct
8,208,184,B,66.0979192730321,40.87776489637566,3.3048959636516053,0.6421064294681226,B,622.0134000000144,Correct
8,208,185,A,28.52276130987436,56.233318284209815,1.4261380654937181,0.8833108980432507,A,607.1562999995876,Correct
8,208,186,B,47.574765995877314,31.440707266635982,2.378738299793866,0.4938694748626541,B,565.5154999999468,Correct
8,208,187,B,72.24959674161168,40.413828538200406,3.6124798370805844,0.6348189341952396,B,504.3071999998574,Correct
8,208,188,B,38.469110780170766,25.445162358642946,1.9234555390085382,0.3996916756765611,B,764.1630000002806,Correct
8,208,189,A,64.70367656188404,75.88559943302384,3.235183828094202,1.1920082084602275,A,525.8552000000236,Correct
8,208,190,A,25.166059401322336,39.14653463032822,1.2583029700661168,0.6149123280406879,A,594.8388999995586,Correct
8,208,191,B,53.919495402532206,45.02636506139495,2.6959747701266106,0.7072724884736524,A,661.0570000002554,Incorrect
8,208,192,A,60.027833834496036,70.54351576753993,3.001391691724802,1.108094954468496,A,684.5287000001008,Correct
8,208,193,A,43.769374717399444,73.22900620276305,2.1884687358699724,1.150278539581409,A,597.8806000002805,Correct
8,208,194,B,60.48537805913382,50.93837236369833,3.0242689029566914,0.80013808201808,B,1776.9537000003766,Correct
8,208,195,A,57.04071586683102,84.74238538320411,2.852035793341551,1.3311302768377453,A,668.5687999997754,Correct
8,208,196,B,39.63446395549334,25.524806698587355,1.981723197774667,0.40094272604290787,B,783.0727000000479,Correct
8,208,197,A,22.366136460186546,39.70807184649749,1.1183068230093272,0.623732934005861,A,525.1677000001109,Correct
8,208,198,A,17.296252005440913,45.79047652466596,0.8648126002720457,0.7192751232713325,A,495.6446999999571,Correct
8,208,199,B,49.21639266535179,28.848779316307414,2.46081963326759,0.4531555658257228,B,740.3799999997318,Correct
8,208,200,A,34.49413367720626,63.923953147379535,1.724706683860313,1.0041151079811284,A,513.9066000001549,Correct
8,208,201,A,37.89443581148815,62.888057465512176,1.8947217905744076,0.987843296660929,A,422.06420000002254,Correct
8,208,202,B,80.94034933306574,59.95344596968832,4.047017466653287,0.941746527078827,B,950.8938999997554,Correct
8,208,203,B,64.95084240401658,37.888140979025444,3.2475421202008294,0.5951455267894037,B,544.0373999999792,Correct
8,208,204,A,36.84545027305294,68.50051208335788,1.842272513652647,1.07600352764108,A,558.6686999999984,Correct
8,208,205,A,19.22970350670833,41.09238494683133,0.9614851753354166,0.6454776733372456,A,383.21829999995316,Correct
8,208,206,B,65.36264617498857,51.163448304494366,3.2681323087494287,0.8036735666286033,B,978.5572000000684,Correct
8,208,207,B,72.90209774876837,40.42189291189469,3.6451048874384187,0.6349456090810084,B,776.37679999998,Correct
8,208,208,B,66.49488826445833,58.29113529110574,3.3247444132229163,0.9156350119997326,B,460.52099999997154,Correct
8,208,209,B,88.4969144109462,69.18816180563468,4.42484572054731,1.086805104219819,B,703.5837999997057,Correct
8,208,210,A,40.477098607647264,69.64881216844046,2.023854930382363,1.0940409831981397,A,910.2063000000271,Correct
8,208,211,B,85.85204643968156,69.42112459365264,4.292602321984078,1.090464475136804,B,539.9940000002061,Correct
8,208,212,A,36.775519088698964,56.89944064851844,1.838775954434948,0.89377432367377,B,1342.2387000000526,Incorrect
8,208,213,B,63.181653668423714,33.95092298776807,3.1590826834211856,0.533299851204825,B,590.8440999996856,Correct
8,208,214,B,50.042376903013746,19.34352265648716,2.5021188451506875,0.3038473433608389,B,727.6702999997724,Correct
8,208,215,B,70.34811271878924,41.22082709143339,3.517405635939462,0.6474952378267113,B,785.3383000001486,Correct
8,208,216,B,66.01309040584921,44.33498906456751,3.3006545202924604,0.6964123797111456,B,673.9146999998411,Correct
8,208,217,A,30.762522973666428,59.82005454561785,1.5381261486833213,0.9396512194892688,A,758.3384999998088,Correct
8,208,218,A,41.77200891752581,52.88997795453985,2.08860044587629,0.8307938309525426,A,591.4696999998341,Correct
8,208,219,A,59.86160706949033,71.10019166597837,2.9930803534745167,1.1168391990333195,A,845.282700000098,Correct
8,208,220,A,19.124143247717676,42.71873429981883,0.9562071623858839,0.6710243092348257,A,723.6200999996072,Correct
8,208,221,B,62.119414701898414,39.742521926856355,3.1059707350949206,0.624274074602716,B,971.392399999786,Correct
8,208,222,B,61.50221630899482,50.60230965181081,3.075110815449741,0.7948592212840236,B,783.8273000002118,Correct
8,208,223,A,41.42413906418389,71.19278198083366,2.0712069532091943,1.118293604298034,A,757.9069000003074,Correct
8,208,224,A,41.072131108709364,71.50609412524483,2.053606555435468,1.123215099953847,A,464.10259999993286,Correct
8,208,225,A,30.109674380709123,50.45755539994663,1.5054837190354562,0.7925854268128616,A,728.1376000000819,Correct
8,208,226,A,57.475669385519566,84.9775450480771,2.873783469275978,1.3348241562156735,A,788.038200000301,Correct
8,208,227,A,34.75977697434393,60.15007404202154,1.7379888487171966,0.9448351536164848,A,755.2368999999999,Correct
8,208,228,A,49.6216253746244,66.63873699527285,2.48108126873122,1.0467588329442576,A,758.8393000000906,Correct
8,208,229,B,67.64397752120229,40.85361609770342,3.382198876060114,0.641727101025614,B,641.5966999998091,Correct
8,208,230,B,81.73233782559063,65.99795334125365,4.086616891279532,1.036693426844222,B,1761.3486000000194,Correct
8,208,231,A,45.8405269851646,64.34048490110166,2.2920263492582302,1.0106579734685297,A,752.8017999998156,Correct
8,208,232,A,33.34304183192462,46.85924538041436,1.667152091596231,0.7360633051993559,A,755.8807999998862,Correct
8,208,233,B,59.42417840905382,37.64203595916089,2.971208920452691,0.5912797181773133,B,511.48070000044754,Correct
8,208,234,B,78.41691764677057,56.8686155020617,3.9208458823385284,0.8932901234054984,B,755.9065000000373,Correct
8,208,235,A,52.86962373240329,80.423796048048,2.6434811866201646,1.2632940341917573,A,834.0123000002677,Correct
8,208,236,B,56.00269183632516,42.304725193979905,2.800134591816258,0.6645210694077115,B,820.7768000002034,Correct
8,208,237,B,47.84201635319382,28.607261271561747,2.392100817659691,0.44936180925031094,B,437.08390000028885,Correct
8,208,238,B,59.090904775448955,46.8984151651669,2.9545452387724476,0.7366785827394624,B,752.6524999998401,Correct
8,208,239,A,42.83640337460877,52.435782755049864,2.1418201687304386,0.8236593494424751,A,1243.4324000000743,Correct
8,208,240,B,52.8241008873503,44.553523147145924,2.6412050443675152,0.6998451050530823,A,2412.5607999999374,Incorrect
8,208,241,B,69.95219363271808,42.1852095447764,3.497609681635904,0.6626437219800778,B,1285.7155000001512,Correct
8,208,242,A,58.567318047422205,67.9339010472425,2.92836590237111,1.067103222298565,B,893.1664000001547,Incorrect
8,208,243,B,38.767545177859176,16.475084687898512,1.9383772588929589,0.2587900251138583,B,748.359199999868,Correct
8,208,244,A,22.4178486267264,51.29817158871485,1.12089243133632,0.805789795028476,A,642.9987000001347,Correct
8,208,245,A,29.02193946374051,45.244952056801964,1.4510969731870256,0.7107060449683573,A,1067.297200000212,Correct
8,208,246,A,42.47973605391243,67.66805106989474,2.1239868026956215,1.0629272606196014,A,771.2737000001653,Correct
8,208,247,B,68.17126599593843,35.284990259719784,3.4085632997969215,0.5542553309096154,B,822.118699999919,Correct
8,208,248,B,42.40889054354232,29.882611595475765,2.120444527177116,0.46939496529211916,B,1345.4458999999588,Correct
8,208,249,A,64.22859831133036,89.11536275081116,3.211429915566518,1.3998208446996891,A,1930.5511000002298,Correct
8,208,250,B,75.34145991383728,53.85678480498038,3.7670729956918643,0.8459803974464637,B,536.6426000000502,Correct
8,208,251,A,27.56691680699892,49.48993092138637,1.3783458403499458,0.7773860170464688,A,557.8484999996363,Correct
8,208,252,B,34.63963014991884,17.63494417404604,1.731981507495942,0.2770090553182458,B,793.7661000000844,Correct
8,208,253,A,40.14382555449957,68.0990983976656,2.0071912777249787,1.0696981362109736,A,631.3430000000153,Correct
8,208,254,A,44.88184208871258,64.19408313390093,2.244092104435629,1.008358299886978,A,540.0229000001673,Correct
8,208,255,B,54.50241371156884,27.30606870940126,2.725120685578442,0.4289227242793656,B,1786.4150999998856,Correct
8,208,256,B,47.69019493676726,32.513757722477706,2.384509746838363,0.5107249120076719,B,469.698000000335,Correct
8,208,257,A,31.092461567002836,61.4081838059839,1.5546230783501418,0.9645974955758537,A,573.6825999997563,Correct
8,208,258,B,65.59911948789129,42.34131020967881,3.2799559743945643,0.6650957454904672,B,641.600500000095,Correct
8,208,259,A,52.52366523585298,71.3861811926217,2.626183261792649,1.121331512012851,A,655.1274999997077,Correct
8,208,260,A,16.597534390330026,44.13406634340039,0.8298767195165013,0.693256292987356,A,531.8544000001566,Correct
8,208,261,B,62.45581502452451,48.37146268817003,3.1227907512262254,0.7598171591227387,B,668.9869000001636,Correct
8,208,262,B,61.435592384916205,43.71597208063065,3.0717796192458104,0.6866888836652287,B,909.2620999999781,Correct
8,208,263,B,80.78786577708735,65.81417047947633,4.0393932888543675,1.0338065724021455,B,1012.7305000000888,Correct
8,208,264,A,16.833092921079672,42.12782788422233,0.8416546460539835,0.6617423729638405,A,878.3880000000863,Correct
8,208,265,A,27.18481302466003,57.64662843754584,1.3592406512330015,0.9055111220180723,A,572.7767999997013,Correct
8,208,266,B,72.9485175773674,55.49302411564743,3.6474258788683698,0.871682384435996,B,567.2700000000077,Correct
8,208,267,B,61.41943596798014,28.455272191571744,3.070971798399007,0.4469743703646986,B,822.7375999999822,Correct
8,208,268,A,67.07423510187091,80.5031050662695,3.3537117550935456,1.2645398173367977,A,801.4729999999872,Correct
8,208,269,A,56.35515064730598,80.15515722535685,2.8177575323652992,1.2590742654325795,A,537.2843000000103,Correct
8,208,270,A,22.968567445229482,42.43259215000402,1.148428372261474,0.6665295988561227,A,498.6438000000817,Correct
8,208,271,A,53.66544454611904,61.3946469777845,2.6832722273059524,0.9643848595757328,A,1111.8977000000996,Correct
8,208,272,B,82.37705883248887,67.61715904148186,4.118852941624443,1.0621278505066603,B,530.3974999997081,Correct
8,208,273,A,61.86290171667271,82.00167952781268,3.093145085833635,1.2880793699330044,A,878.8518999999724,Correct
8,208,274,A,41.207794362623375,72.91252548932252,2.0603897181311686,1.1453072721596709,A,520.7648999999037,Correct
8,208,275,B,54.913906050786146,36.479761656012315,2.7456953025393074,0.5730227561161746,B,798.5789000003933,Correct
8,208,276,A,51.47511736377915,62.53901774378679,2.5737558681889574,0.9823605935330116,A,647.145399999772,Correct
8,208,277,A,36.178015393432055,54.959658104787046,1.8089007696716026,0.8633042907290286,A,1276.4102000001003,Correct
8,208,278,A,44.93167611262926,60.45229281215101,2.246583805631463,0.9495823949565635,A,519.7805000002518,Correct
8,208,279,A,29.914793437971376,47.90407164833933,1.495739671898569,0.7524753978373097,A,581.0343000002831,Correct
8,208,280,B,69.83006296951926,48.06689451309994,3.491503148475963,0.7550330134161516,B,714.0226999999868,Correct
8,208,281,B,52.62125221187946,27.404441079865286,2.631062610593973,0.43046795386119563,B,601.7537000002449,Correct
8,208,282,A,25.48384608128211,43.66861448993963,1.2741923040641054,0.6859449923701956,A,500.5369000000428,Correct
8,208,283,B,64.92077997525834,35.4975971546557,3.2460389987629172,0.5575949522057815,B,469.63999999979933,Correct
8,208,284,B,76.3200882026607,60.57346684348891,3.816004410133035,0.9514857921898484,B,433.2470999997895,Correct
8,208,285,A,36.200074365455706,52.11248963728637,1.810003718272785,0.8185810730238654,A,573.1165000001965,Correct
8,208,286,A,28.209228153531676,57.17670351895093,1.4104614076765838,0.8981295586580897,A,533.4118000000672,Correct
8,208,287,B,43.18115623158823,32.446309389238095,2.1590578115794115,0.5096654360666596,B,652.8641999998399,Correct
8,208,288,B,58.87023213402876,28.574012276789656,2.9435116067014384,0.44883953526173465,B,562.9291999998713,Correct
8,208,289,B,69.01649783134098,43.429144358443054,3.4508248915670494,0.6821834043408765,B,511.1111000001074,Correct
8,208,290,A,39.81593644369656,56.808778221631115,1.9907968221848278,0.8923502016024408,A,1093.498300000192,Correct
8,208,291,B,57.847150172217844,34.866330173109205,2.892357508610892,0.5476790336473801,B,598.6239000003479,Correct
8,208,292,B,56.801355524601625,46.349755054985316,2.8400677762300814,0.7280602498821412,B,569.9315000001661,Correct
8,208,293,A,15.567382767649843,32.28615879932511,0.7783691383824922,0.5071497964829661,A,484.4711999999163,Correct
8,208,294,B,53.131048143906824,44.54719192819632,2.656552407195341,0.6997456544983804,B,1059.8912000000382,Correct
8,208,295,B,53.415726457741684,45.64809228577378,2.6707863228870843,0.717038556876879,B,767.2640000000683,Correct
8,208,296,A,15.248116546439764,40.18112932651502,0.7624058273219881,0.6311637035256048,A,502.72320000021864,Correct
8,208,297,A,44.29091947304918,63.46442641401422,2.214545973652459,0.9968968789327854,A,1337.166100000104,Correct
8,208,298,B,39.63024624411418,21.13465876730863,1.981512312205709,0.3319824435975195,B,849.19600000012,Correct
8,208,299,A,42.74921971171462,62.8371109647398,2.137460985585731,0.9870430308981659,A,567.5909999999931,Correct
8,208,300,A,69.20605397744133,86.34359370103672,3.4603026988720664,1.3562819982785943,A,1036.2804999999753,Correct
8,208,301,A,54.430599816673016,64.41773026401164,2.721529990833651,1.0118713407917392,A,643.7622000003103,Correct
8,208,302,B,39.066063448738056,21.749349400617398,1.9533031724369028,0.34163798148668595,B,2170.970600000146,Correct
8,208,303,B,47.51134758794387,37.867176758815,2.3755673793971934,0.5948162215883969,B,1143.0788999996366,Correct
8,208,304,A,63.868745981579664,78.58443769157506,3.193437299078983,1.2344014606916853,A,1432.242700000188,Correct
8,208,305,B,52.040735524584015,35.79660610222478,2.6020367762292005,0.5622917737709846,A,732.6821000001473,Incorrect
8,208,306,B,61.436404602609784,49.276281604997834,3.0718202301304895,0.7740300214324153,A,939.0344999997069,Incorrect
8,208,307,B,79.56464057201497,57.967106205529156,3.9782320286007486,0.9105451750257485,B,473.6700999997083,Correct
8,208,308,B,54.8980820444852,40.07712371550584,2.74490410222426,0.6295299872082122,A,1061.5469999997913,Incorrect
8,208,309,B,62.84548751661896,46.43128782574595,3.142274375830948,0.7293409636503834,B,838.953500000116,Correct
8,208,310,A,51.44599557126825,81.11366776757674,2.5722997785634125,1.2741305138217114,A,690.8070999998017,Correct
8,208,311,A,31.269211927904422,61.328190626406865,1.563460596395221,0.963340965649371,A,706.0199000002285,Correct
8,208,312,B,74.27156003151117,57.754646229144114,3.7135780015755584,0.9072078615207829,B,507.7035999997861,Correct
8,208,313,A,33.37080619924935,44.75603198978084,1.6685403099624676,0.7030261065146262,A,1933.635900000354,Correct
8,208,314,B,48.4739401211248,28.404743436524313,2.4236970060562397,0.44618066653643834,B,626.1069000001953,Correct
8,208,315,B,51.336631705728216,22.89414661553347,2.5668315852864105,0.35962041408783785,B,1305.5626999998822,Correct
8,208,316,B,75.75806526133793,55.769756133414404,3.7879032630668967,0.8760292808061451,B,590.4967000001307,Correct
8,208,317,A,57.419394002995446,66.63499246886313,2.870969700149772,1.046700014060958,A,605.4441999999653,Correct
8,208,318,A,26.355030250786825,44.77629537579354,1.3177515125393413,0.703344403037798,A,642.1380000001591,Correct
8,208,319,B,60.9653014804071,28.302740617772233,3.048265074020355,0.44457841000625353,B,869.7742000003927,Correct
8,208,320,B,64.87074806449877,55.49513935461822,3.2435374032249387,0.871715610532052,B,865.0984999999309,Correct
8,208,321,A,34.21924285842482,58.12827861408917,1.710962142921241,0.9130768652992162,A,683.054600000105,Correct
8,208,322,B,75.93173025329082,49.63989432980923,3.796586512664541,0.7797416367575115,B,736.5973999999369,Correct
8,208,323,B,33.000131275653175,13.473061146654278,1.6500065637826589,0.21163434959847574,B,681.9824000003791,Correct
8,208,324,A,15.247674403569832,35.68572678553733,0.7623837201784915,0.5605500855372828,A,821.3071000000127,Correct
8,208,325,B,49.99435847324732,22.97320133985097,2.4997179236623657,0.36086220279357495,B,1420.7652000000053,Correct
8,208,326,A,29.337723605929455,57.981129908467814,1.4668861802964728,0.9107654588363895,A,2164.7947000001295,Correct
8,208,327,B,45.92120712105988,28.33162772242408,2.296060356052994,0.4450321675850421,B,775.802499999827,Correct
8,208,328,B,31.8640972458942,12.614643235824204,1.59320486229471,0.19815035258660746,B,709.9259999999958,Correct
8,208,329,B,61.10869433475049,43.67116419910894,3.0554347167375244,0.6859850431081711,B,1241.815200000019,Correct
8,208,330,B,48.488087386922345,20.870605799592624,2.4244043693461172,0.32783470927984354,B,652.8802000002543,Correct
8,208,331,A,53.12350826308146,79.20878583924171,2.6561754131540734,1.244208698461645,A,605.9465999996974,Correct
8,208,332,B,34.148495366242614,20.986180374711136,1.7074247683121309,0.329650150460514,B,695.41049999998,Correct
8,208,333,A,30.401617017392866,54.39564125227182,1.5200808508696435,0.8544447347272153,A,664.2591999998331,Correct
8,208,334,A,18.748765726644613,45.41807323410498,0.9374382863322307,0.7134254260623372,A,628.9622999997846,Correct
8,208,335,B,38.55004391826371,21.924319415493922,1.9275021959131857,0.34438640405335885,A,531.862799999999,Incorrect
8,208,336,B,37.50453103555658,24.277007005313468,1.875226551777829,0.38134233429520364,B,529.3676999999661,Correct
8,208,337,A,19.7379216430556,39.760298808898824,0.98689608215278,0.6245533132128578,A,591.1928999998963,Correct
8,208,338,B,33.98011732592928,13.692434753801585,1.699005866296464,0.21508026216150317,B,516.4807000001019,Correct
8,208,339,B,84.87700024004691,63.54285827064753,4.243850012002346,0.9981288836558184,B,3834.8102999998446,Correct
8,208,340,A,26.53636363492518,46.252399673687066,1.326818181746259,0.7265309951287711,A,3543.5637999999017,Correct
8,208,341,B,38.19245314434471,25.387619667967883,1.9096226572172355,0.3987877972050982,B,646.7542000000321,Correct
8,208,342,A,51.66342450410028,68.64350355945322,2.5831712252050134,1.0782496324952153,A,2373.1494999997267,Correct
8,208,343,B,55.92083106584516,36.304498937708466,2.7960415532922576,0.5702697357748169,B,2446.797300000071,Correct
8,208,344,B,50.309152806985296,28.39086269956957,2.515457640349265,0.4459626284302213,B,747.5198999995882,Correct
8,208,345,B,43.73135235497145,17.580763162759876,2.1865676177485724,0.2761579819831424,B,533.4173000001101,Correct
8,208,346,B,73.69404118673955,52.932747610071765,3.684702059336978,0.8314656551306207,B,535.9570000000531,Correct
8,208,347,A,51.56322045560476,63.782142937625885,2.578161022780238,1.001887558415298,A,793.3487000000241,Correct
8,208,348,B,51.66623602232028,26.763488691493237,2.5833118011160137,0.4203998972881432,B,789.5112000001063,Correct
8,208,349,A,29.902419354117633,61.240886453629756,1.4951209677058817,0.9619695949102496,A,1205.539200000203,Correct
8,208,350,B,87.5751047426519,65.985559239434,4.378755237132595,1.0364987407480997,B,712.5615999998445,Correct
8,208,351,B,69.7873923733602,49.92091602772284,3.48936961866801,0.7841559152658352,B,887.5263999998424,Correct
8,208,352,A,43.038002671347954,73.78230379365192,2.1519001335673975,1.158969717815336,A,637.0409999999538,Correct
8,208,353,B,74.16996842618663,63.3682681521217,3.7084984213093315,0.9953864284870679,B,609.2045000000326,Correct
8,208,354,B,53.50014122994331,37.43050717513941,2.6750070614971655,0.5879570318077901,B,810.0583999998889,Correct
8,208,355,B,43.4835992044178,29.915521906393757,2.17417996022089,0.46991191924715564,B,1189.6665999997822,Correct
8,208,356,B,72.52785715363315,58.0710327227399,3.6263928576816573,0.9121776489406608,B,2819.4516999997177,Correct
8,208,357,B,48.16526949320383,36.70591272591971,2.4082634746601914,0.5765751288152873,B,559.1067999998813,Correct
8,208,358,A,63.52920538467917,79.44254807459978,3.1764602692339587,1.2478806270680831,A,579.7950000001038,Correct
8,208,359,A,59.060359876840415,74.30794379870483,2.9530179938420207,1.1672264517068713,A,1178.4369000001789,Correct
8,208,360,A,24.509878228974813,49.24291882200849,1.2254939114487406,0.7735059600627022,A,868.6554000000797,Correct
8,208,361,A,54.85012165334335,74.3124964743699,2.742506082667168,1.1672979649689894,A,1773.4929999996893,Correct
8,208,362,A,35.18311575096395,57.092367264973426,1.7591557875481976,0.8968048078784545,A,1002.4803999999676,Correct
8,208,363,B,58.17687024061335,49.141939765574655,2.9088435120306673,0.7719197847534073,A,2525.822600000083,Incorrect
8,208,364,B,36.147048350426275,16.656288590326177,1.8073524175213138,0.261636369357201,B,1303.7821000002623,Correct
8,208,365,B,47.77873370660335,39.82927189638044,2.3889366853301675,0.625636739937496,B,3103.814600000078,Correct
8,208,366,A,68.19859679280677,85.30121244700513,3.4099298396403386,1.3399083118290678,A,1018.0106000002525,Correct
8,208,367,B,49.26472367004182,40.215104853888526,2.4632361835020906,0.6316973898615972,B,1824.6570999999676,Correct
8,208,368,B,34.042498850387744,16.822070891887776,1.7021249425193872,0.26424047166060666,B,748.565299999882,Correct
8,208,369,B,81.26427666635283,64.96355464418562,4.063213833317642,1.0204451301062631,B,999.856699999782,Correct
8,208,370,A,69.36312337297258,88.7373347399135,3.4681561686486293,1.393882794590253,A,1004.0337000000363,Correct
8,208,371,A,52.038982029723925,60.321379392787165,2.601949101486196,0.9475260117739145,B,1984.4877000000452,Incorrect
8,208,372,B,77.49884505503582,45.71902701182415,3.874942252751791,0.7181527969481004,B,2355.5366999999023,Correct
8,208,373,B,77.05475227206246,46.280249738199394,3.852737613603123,0.7269684629191407,B,827.0068000001629,Correct
8,208,374,A,27.657501722443115,57.398676611463934,1.3828750861221557,0.901616303841757,A,959.4574000002467,Correct
8,208,375,A,61.69003775652283,79.57001870453571,3.0845018878261414,1.2498829310408592,A,1502.6272000000063,Correct
8,208,376,B,66.12348112730807,46.96339491925972,3.3061740563654034,0.7376992823299127,B,622.0911999998862,Correct
8,208,377,B,55.83167180485819,40.22056763562874,2.7915835902429094,0.6317831990365133,B,556.4597000002323,Correct
8,208,378,B,47.415082290857214,38.92124389973382,2.370754114542861,0.6113734695199016,B,609.984600000189,Correct
8,208,379,A,12.597644487308521,36.21782999102458,0.6298822243654261,0.5689083431438345,A,928.9303000000473,Correct
8,208,380,A,26.428247368128915,41.67345150735282,1.3214123684064458,0.6546050455261506,A,480.35010000012335,Correct
8,208,381,B,48.5593341236608,30.590840089904404,2.4279667061830397,0.480519792467919,B,3289.521500000319,Correct
8,208,382,A,20.02886534749923,36.308181219955756,1.0014432673749616,0.5703275769290995,A,1053.4028000001854,Correct
8,208,383,B,52.206935629364295,44.313845552707974,2.610346781468215,0.6960802582035005,A,1310.8021000002736,Incorrect
8,208,384,B,66.32959355210373,48.23140924873173,3.316479677605187,0.757617204840492,B,565.407900000082,Correct
8,208,385,B,68.35731399571213,43.74044864476846,3.4178656997856067,0.6870733606356312,B,595.2585999998519,Correct
8,208,386,B,66.52458786420976,50.21628883420703,3.3262293932104883,0.7887956204604397,B,533.1689999998162,Correct
8,208,387,A,59.63144559100225,78.01341507370546,2.9815722795501127,1.2254318583850214,A,600.5264999998872,Correct
8,208,388,A,32.850910874429694,54.64638965528884,1.6425455437214849,0.8583834814313035,A,1409.9145999998655,Correct
8,208,389,A,62.24168969356707,80.33774515406826,3.1120844846783537,1.2619423499099491,A,610.7722000001559,Correct
8,208,390,B,86.10424597044936,61.81451267193485,4.305212298522468,0.9709800944769185,B,557.8552000001764,Correct
8,208,391,A,54.274128537859944,61.804535191547295,2.713706426892997,0.9708233685814842,A,2662.6688999999715,Correct
8,208,392,A,19.08097428833143,38.582566807094764,0.9540487144165715,0.6060535421890316,A,813.5808000001816,Correct
8,208,393,A,61.04416894686235,73.42817902165483,3.0522084473431175,1.153407138904535,A,699.6917999999823,Correct
8,208,394,A,41.5658515132515,58.204184852478484,2.078292575662575,0.9142691977036437,A,717.8681999998844,Correct
8,208,395,B,70.35832401929454,54.58263149158627,3.5179162009647267,0.8573819705378316,B,497.2438999998303,Correct
8,208,396,B,36.33306939250036,18.017841039636888,1.816653469625018,0.2830235852183597,B,1255.3376000000753,Correct
8,208,397,B,77.33343330196833,56.45215921939365,3.8666716650984165,0.886748443414642,B,838.5138999997253,Correct
8,208,398,A,34.840700041093065,65.60425838589568,1.7420350020546533,1.0305092809466823,A,516.3582999998653,Correct
8,208,399,A,20.787062590108146,47.12190124264683,1.0393531295054073,0.7401890938354152,A,1349.1661999996722,Correct
8,208,400,A,17.46567317717354,41.69133343182543,0.873283658858677,0.6548859341389265,A,658.4252999996352,Correct
8,208,401,A,64.82321338607238,88.59951027586698,3.241160669303619,1.3917178529715852,A,692.3915000002125,Correct
8,208,402,B,65.33623400304057,41.56110822739005,3.2668117001520285,0.6528403614110944,B,950.0456000000668,Correct
8,208,403,A,55.520190927871745,76.56594911263593,2.7760095463935874,1.202695116236935,A,511.996199999885,Correct
8,208,404,B,64.642847277389,49.30018929783176,3.23214236386945,0.774405562593272,B,710.0784999997813,Correct
8,208,405,A,30.14955861241566,47.6366344848508,1.507477930620783,0.7482745046967475,A,1327.4524999997084,Correct
8,208,406,B,62.40128178200584,48.745532058004784,3.120064089100292,0.765693027043768,B,840.6165000001238,Correct
8,208,407,B,74.83422574020629,42.38367222167187,3.7417112870103146,0.6657611664188108,B,605.3029999998216,Correct
8,208,408,B,59.19381845673848,49.60044895475844,2.9596909228369235,0.7791220302551234,B,666.2883000003603,Correct
8,208,409,B,40.897365484440684,19.20501517102849,2.044868274222034,0.3016716728669181,B,581.3195000000633,Correct
8,208,410,A,36.80483601866355,54.16521025766878,1.8402418009331774,0.8508251331281939,A,517.9262000001472,Correct
8,208,411,B,65.29047608026043,45.66077177120488,3.2645238040130216,0.7172377257682873,B,978.3073000003242,Correct
8,208,412,B,45.38742793336882,16.214399257440284,2.2693713966684412,0.254695187947731,B,754.0906999997787,Correct
8,208,413,A,60.44426794662617,70.26159168002611,3.022213397331308,1.103666501257479,A,628.0354999998963,Correct
8,208,414,B,77.10833001084929,54.79913611508604,3.8554165005424643,0.8607828172111072,B,1629.1544999999132,Correct
8,208,415,A,21.526832226211088,47.90799779673316,1.0763416113105544,0.7525370696320645,A,514.9861999998393,Correct
8,208,416,A,33.29736016274924,59.58361494367297,1.664868008137462,0.9359372349068301,A,659.5639000001938,Correct
8,208,417,A,56.15831002293581,73.00690650319657,2.8079155011467902,1.1467898056587964,A,967.1376000001146,Correct
8,208,418,B,50.52772165125119,41.71880810253748,2.5263860825625595,0.6553175052572704,B,778.7322999997741,Correct
8,208,419,A,52.33371351180853,80.16755528829141,2.6166856755904266,1.2592690137497493,A,588.4231999998519,Correct
8,208,420,A,33.728655115438855,52.055431423967,1.686432755771943,0.8176848047049099,A,512.5745999998799,Correct
8,208,421,B,85.08340569537351,60.16655584525971,4.2541702847686755,0.9450940491763397,B,629.028500000004,Correct
8,208,422,A,34.37956560698822,63.95849906635592,1.7189782803494111,1.004657754007467,B,726.9771999999648,Incorrect
8,208,423,A,19.75693856216167,32.13218898356581,0.9878469281080836,0.5047312442726462,A,1377.4666999997862,Correct
8,208,424,B,73.76570335676075,59.716697549733254,3.6882851678380377,0.9380276915944279,B,768.6385000001792,Correct
8,208,425,B,53.1508323187887,33.819236541095684,2.657541615939435,0.5312313253376084,B,1557.6592000002165,Correct
8,208,426,B,51.81000954199882,25.099025087307645,2.590500477099941,0.39425456413275806,B,792.9865000000973,Correct
8,208,427,A,32.091095420705074,55.04798945394143,1.6045547710352537,0.8646917963169539,A,782.8067000000374,Correct
8,208,428,A,52.94303132898719,64.28842712102644,2.64715156644936,1.0098402517712974,B,777.5854999999865,Incorrect
8,208,429,A,30.41452139099541,59.45005754331053,1.5207260695497706,0.933839320167774,A,655.637200000001,Correct
8,208,430,A,69.18551571180708,89.16517981149275,3.459275785590354,1.4006033692589928,A,805.457099999785,Correct
8,208,431,B,82.84796032107602,59.38388076318098,4.142398016053801,0.9327998177363079,B,739.2509999999675,Correct
8,208,432,B,70.51620034066512,37.758213521305976,3.5258100170332565,0.5931046310560483,B,515.5707999997503,Correct
8,208,433,A,14.214353937107276,32.31349418602363,0.7107176968553638,0.5075791797331417,A,562.7434000002722,Correct
8,208,434,A,33.71791411885761,54.76561275497215,1.6858957059428803,0.86025623350182,A,2720.0244000000566,Correct
8,208,435,A,24.977287189408916,39.28606600329276,1.2488643594704458,0.6171040817219413,A,646.9560000000456,Correct
8,208,436,A,57.6401204687897,71.3700072447671,2.882006023439485,1.1210774522340532,A,710.9378999998626,Correct
8,208,437,B,64.4309281036818,35.807587518713845,3.22154640518409,0.5624642694578249,B,711.4772999998422,Correct
8,208,438,A,31.703602396922307,60.86485574923276,1.5851801198461153,0.9560629184179606,A,1650.0260000002527,Correct
8,208,439,B,33.14376259793269,14.356538566547087,1.6571881298966347,0.22551198045821433,B,867.44920000001,Correct
8,208,440,B,68.11602654120657,52.2907999547907,3.4058013270603285,0.8213819649415198,B,889.2620999999963,Correct
8,208,441,A,33.81470731957655,43.146975860653285,1.6907353659788273,0.6777511119422225,B,911.8723999999929,Incorrect
8,208,442,A,27.3526655233714,56.31364669746329,1.36763327616857,0.884572693808009,A,791.354500000125,Correct
8,208,443,B,53.23197783287171,33.300498511846186,2.6615988916435858,0.5230830074284691,B,1057.8575000004093,Correct
8,208,444,B,65.92764173903929,43.09635407817904,3.2963820869519647,0.676955946842559,B,447.6566999996976,Correct
8,208,445,A,53.18704201623025,77.76882873087581,2.659352100811512,1.2215899050960115,B,1324.3631999998797,Incorrect
8,208,446,B,36.827388912650854,12.449196423162967,1.8413694456325427,0.1955515201305255,B,836.0853000003772,Correct
8,208,447,A,38.618044996901425,59.79624575643975,1.9309022498450714,0.9392772319034047,A,1180.684200000087,Correct
8,208,448,B,38.674452519642806,27.040269451488548,1.9337226259821403,0.42474755929942465,A,6295.188099999905,Incorrect
8,208,449,B,46.60483056093402,27.063049953533397,2.330241528046701,0.42510539458877056,B,783.5207000002811,Correct
8,208,450,B,57.13052197417875,34.631663434207724,2.8565260987089376,0.5439928971325062,B,553.9859000000433,Correct
8,208,451,A,55.57666183296318,83.60618253175802,2.778833091648159,1.3132828441822915,A,515.1137999996536,Correct
8,208,452,A,51.754757106852736,75.88288764745265,2.5877378553426365,1.1919656118320847,A,569.7708000002422,Correct
8,208,453,B,75.47385917546536,56.183251578808964,3.773692958773268,0.8825244520738669,B,2180.0012999997307,Correct
8,208,454,B,35.57562257627221,24.531570354359996,1.7787811288136106,0.3853410060313926,B,712.1321999998145,Correct
8,208,455,A,22.448607987827728,46.00412094030055,1.1224303993913864,0.7226310419045231,A,606.5198000001146,Correct
8,208,456,A,13.20202979510135,34.464581161507525,0.6601014897550675,0.5413683749302061,A,496.4715000000979,Correct
8,208,457,B,34.406296795214175,20.610427046630594,1.7203148397607089,0.32374783098521526,B,598.279299999831,Correct
8,208,458,A,42.589440309241404,74.65386524053967,2.12947201546207,1.172660173008809,A,770.4399999997804,Correct
8,208,459,A,20.304404418985985,37.227543272025486,1.0152202209492993,0.5847688822729569,A,1963.8322000000699,Correct
8,208,460,A,14.274196238971484,42.57833493127516,0.7137098119485742,0.6688189211108986,A,455.43540000016947,Correct
8,208,461,B,34.095044642157745,15.49834414953321,1.7047522321078872,0.24344742061489938,B,867.3220999999103,Correct
8,208,462,B,55.61313759136927,29.85977255296457,2.780656879568463,0.46903621045127825,B,1456.879100000151,Correct
8,208,463,A,52.208094326928055,80.86444724600308,2.6104047163464026,1.2702157670232135,A,540.704999999889,Correct
8,208,464,B,68.46373988226685,59.704461892923476,3.4231869941133426,0.9378354943467007,B,547.666300000401,Correct
8,208,465,A,25.63667432324504,43.7092462641173,1.281833716162252,0.6865832347864901,A,602.5463999999374,Correct
8,208,466,B,83.14255776227347,66.74998722127016,4.157127888113673,1.0485063474077745,B,640.1111000000128,Correct
8,208,467,B,57.65555839940867,41.09670374176828,2.882777919970433,0.6455455128094769,B,2253.3541000002515,Correct
8,208,468,B,86.70844192526663,67.46424445234805,4.335422096263332,1.0597258737574131,B,2022.1826000001784,Correct
8,208,469,A,58.847380170409636,80.26929197028181,2.9423690085204814,1.2608670898134575,A,879.9037999997381,Correct
8,208,470,A,28.415931739905275,39.28745738445649,1.4207965869952637,0.6171259374861529,A,2882.9466000001958,Correct
8,208,471,B,66.31023613293434,37.49930451746129,3.315511806646717,0.5890376979339146,B,573.4721999997419,Correct
8,208,472,A,46.376186895514536,69.36399710247352,2.318809344775727,1.0895671186037725,A,956.8884000000253,Correct
8,208,473,B,33.18376597401638,12.78946530452049,1.659188298700819,0.2008964512201156,B,4101.731400000062,Correct
8,208,474,B,30.29764791243169,14.255778806444258,1.5148823956215844,0.22392924984763174,B,473.6460999997689,Correct
8,208,475,A,31.504204218177154,44.02000385348266,1.5752102109088577,0.6914646035854776,B,1324.442700000418,Incorrect
8,208,476,A,34.556453516224764,47.01559934887196,1.7278226758112383,0.7385193075926861,A,490.80940000021656,Correct
8,208,477,B,43.793100758245906,23.798875032588846,2.189655037912295,0.37383185483041337,B,656.0675999999148,Correct
8,208,478,A,36.42279603565434,58.43280920597567,1.8211398017827174,0.9178604206505361,A,612.8020000001015,Correct
8,208,479,A,45.805878237332884,61.109728168792394,2.290293911866644,0.9599093653897371,A,735.0111000000652,Correct
8,208,480,A,41.936916964799266,59.62098843959772,2.0968458482399632,0.9365242964080108,A,615.288199999668,Correct
8,208,481,A,18.433031484804996,42.39632550402531,0.9216515742402498,0.6659599237132375,A,548.0054999998174,Correct
8,208,482,A,30.743828016194463,39.469842905084704,1.5371914008097232,0.6199908425447866,A,1334.8105000000032,Correct
8,208,483,A,22.476285928049673,40.19592624684431,1.1238142964024838,0.6313961330066162,A,3870.2782999998817,Correct
8,208,484,A,57.039161778415696,74.7602030322409,2.851958088920785,1.1743305231348469,A,751.9403999999668,Correct
8,208,485,B,42.12274830431102,34.39466748012442,2.1061374152155508,0.5402701733911132,B,988.0967999997665,Correct
8,208,486,A,55.09894902539956,73.81559259097602,2.7549474512699783,1.1594926170209374,A,1354.975000000195,Correct
8,208,487,B,71.1289158689253,43.33773068559388,3.5564457934462657,0.6807474817255734,B,592.0154999998886,Correct
8,208,488,A,47.48186581661488,59.36029540036048,2.374093290830744,0.9324293397234623,B,1089.6655999999894,Incorrect
8,208,489,A,61.95634819024365,85.62324144587214,3.0978174095121824,1.3449667315144853,A,886.6457999997692,Correct
8,208,490,A,48.96569740395742,64.7439643362642,2.448284870197871,1.0169958136154358,A,1042.5390999998854,Correct
8,208,491,A,14.062829033903853,33.420699681218196,0.7031414516951926,0.5249711229817291,A,525.3136999999697,Correct
8,208,492,B,60.926542913150165,38.60582923587479,3.046327145657508,0.6064189475658316,B,752.9421999997794,Correct
8,208,493,A,66.010818383314,84.6822276054998,3.3005409191657002,1.330185320675285,A,706.0496999997667,Correct
8,208,494,B,69.15707005465393,51.304835296757105,3.457853502732696,0.8058944683096322,B,948.5500999999203,Correct
8,208,495,A,18.97862879627228,38.64153352460127,0.9489314398136139,0.6069797892216553,A,603.4449999997378,Correct
8,208,496,A,34.6227640601099,56.9365127275984,1.731138203005495,0.8943566505302245,A,914.9146000004293,Correct
8,208,497,B,43.5196767968074,32.90045722424611,2.17598383984037,0.5167991735771841,B,1013.9697999998134,Correct
8,208,498,B,55.788028002466675,28.284008535111163,2.7894014001233334,0.44428416713988117,B,720.5088000000615,Correct
8,208,499,A,40.377735610561274,55.439653489953024,2.0188867805280637,0.8708440406080007,A,836.362100000315,Correct
8,208,500,A,16.205572742362047,36.857906906611845,0.8102786371181024,0.5789626478225414,A,619.8059999996985,Correct
8,208,501,A,14.725611017426669,44.052510480173936,0.7362805508713335,0.6919752164835091,A,391.4220999999998,Correct
8,208,502,A,26.566890534133172,58.49643734427529,1.3283445267066585,0.9188598891097545,A,414.6255000000565,Correct
8,208,503,B,56.474760031814256,28.410523549008392,2.8237380015907125,0.4462714603310229,B,1097.1098999998503,Correct
8,208,504,B,56.991264176039614,41.35432378991153,2.8495632088019804,0.6495921990627984,B,771.0456999998314,Correct
8,208,505,B,82.2355777953577,55.840240838465455,4.111778889767885,0.8771364519640391,B,500.44960000013816,Correct
8,208,506,A,66.07082910426374,84.33116421247597,3.3035414552131868,1.324670829792945,A,544.0724000000046,Correct
8,208,507,B,42.709433670655145,16.94797879313477,2.135471683532757,0.26621822834853903,B,671.7868000000635,Correct
8,208,508,A,53.309839940952166,64.74254579807013,2.6654919970476083,1.0169735312695891,A,553.191599999991,Correct
8,208,509,A,44.06584304619378,61.79460534868471,2.2032921523096887,0.9706673909745422,A,1266.598299999714,Correct
8,208,510,A,66.00649538409495,81.40512668528191,3.3003247692047473,1.2787087397951404,A,578.6235999999008,Correct
8,208,511,B,55.96174501110238,41.84685541072414,2.798087250555119,0.6573288676708262,B,816.4284999998017,Correct
8,208,512,A,57.86252487295141,69.65312785977788,2.8931262436475707,1.0941087739191437,A,681.8374999998014,Correct
8,208,513,B,36.78787516154875,18.05644886588211,1.8393937580774375,0.2836300355348749,B,522.9211999999279,Correct
8,208,514,A,28.359345874631856,52.545411444031565,1.4179672937315928,0.8253813928621129,A,1422.8352999998606,Correct
8,208,515,A,66.63146055453777,83.38541362113905,3.331573027726888,1.3098150142435836,A,1022.2994999999173,Correct
8,208,516,B,51.84839237297956,39.49577287461744,2.592419618648978,0.6203981495537458,B,1431.9668999996793,Correct
8,208,517,B,70.10365792414936,45.6601947983416,3.5051828962074683,0.7172286626997443,B,796.9585999999254,Correct
8,208,518,A,44.051566059770124,53.92695344682189,2.202578302988506,0.8470826038950722,B,783.4517000001142,Incorrect
8,208,519,B,73.08815105587166,41.35398352444831,3.6544075527935833,0.6495868541854007,B,905.9717999998611,Correct
8,208,520,B,71.175469403586,55.32077805547916,3.5587734701793003,0.8689767496498239,B,842.8126999997403,Correct
8,208,521,A,37.78021301658092,64.03811537507465,1.889010650829046,1.0059083640603506,A,905.6999000003998,Correct
8,208,522,A,56.74565100821623,79.23220139314213,2.8372825504108112,1.2445765091222116,A,1199.8235999999451,Correct
8,208,523,A,37.464531874040404,47.402625080199414,1.8732265937020203,0.7445986935641288,A,890.5760000002374,Correct
8,208,524,B,55.026206387451516,31.91049415108658,2.751310319372576,0.5012488699873683,B,658.8710999999421,Correct
8,208,525,A,32.336039681587785,60.73485322934295,1.6168019840793892,0.9540208436107906,A,1175.340100000085,Correct
8,208,526,B,58.879094218522816,27.471917181995863,2.943954710926141,0.43152786599492704,B,809.5318999999108,Correct
8,208,527,B,32.93704652864857,10.02175937195615,1.6468523264324286,0.1574214280949105,B,816.1730000001626,Correct
8,208,528,B,55.38245306808714,28.030796384705283,2.7691226534043567,0.44030671998230725,B,717.4577999999201,Correct
8,208,529,A,28.289378523690427,47.33084225288924,1.4144689261845214,0.7434711315494711,A,621.1874999999054,Correct
8,208,530,B,81.30663346066814,66.01445922976008,4.065331673033407,1.0369527007345858,B,1633.8910000004034,Correct
8,208,531,A,46.219145277638084,65.34832068693402,2.3109572638819045,1.026489020972509,B,2279.9871000001986,Incorrect
8,208,532,B,32.341608689269975,11.618358293500485,1.6170804344634988,0.18250074530817584,B,606.6380000002027,Correct
8,208,533,A,33.10148090306234,60.90434816317402,1.655074045153117,0.9566832638055126,A,543.1898000001638,Correct
8,208,534,A,17.249421071488293,46.915421008659834,0.8624710535744146,0.7369457099043899,A,1787.8778999997849,Correct
8,208,535,B,77.17859749341758,60.285850824106745,3.858929874670879,0.9469679303221197,B,826.0144000000764,Correct
8,208,536,A,35.54030596214425,60.126207081015274,1.7770152981072127,0.9444602522696809,A,592.0289000000594,Correct
8,208,537,B,72.24577168645233,54.95326586755266,3.6122885843226165,0.8632038817013508,B,535.8187000001635,Correct
8,208,538,B,56.12700982343873,32.911919257963014,2.8063504911719366,0.5169792187817852,B,1289.1841000000568,Correct
8,208,539,A,52.42342907714424,72.15751983096439,2.6211714538572117,1.1334476710110877,A,847.3086999997577,Correct
8,208,540,B,74.4527697368959,57.63001112789411,3.722638486844795,0.9052500979284507,B,541.099800000211,Correct
8,208,541,B,55.04003759371525,30.880927432260506,2.7520018796857624,0.4850764737861456,A,459.49930000006134,Incorrect
8,208,542,B,31.771187149050395,14.170632839210317,1.5885593574525196,0.222591780121907,B,757.1768999996493,Correct
8,208,543,A,15.880041717560772,31.118125786073556,0.7940020858780386,0.4888023768150589,A,674.6908999998595,Correct
8,208,544,B,45.63959866326026,26.464311498111144,2.281979933163013,0.4157004329238892,B,634.9843000002693,Correct
8,208,545,B,71.39256106502093,54.27717283486284,3.569628053251046,0.8525838371781429,B,1088.236699999925,Correct
8,208,546,B,75.65348850579724,62.66596201894201,3.7826744252898616,0.9843546295442261,B,611.013699999603,Correct
8,208,547,A,49.94719588087847,65.42937382404683,2.4973597940439234,1.0277622006730291,A,991.7227000000821,Correct
8,208,548,B,70.90384817990324,54.68340898445234,3.5451924089951614,0.8589649796940079,B,699.0576000002875,Correct
8,208,549,A,34.96400443152643,52.91628219555666,1.7482002215763217,0.8312070170042258,A,808.3443000000443,Correct
