subject,day,trial,cat,x,y,xt,yt,resp,rt,fb
9,509,0,A,32.16607551596357,51.58762095894776,1.6083037757981784,0.8103364551040255,A,462.6069000005373,Correct
9,509,1,A,23.91671367102927,42.50382976024894,1.1958356835514636,0.6676485966211464,A,376.5291999998226,Correct
9,509,2,B,82.17989238368662,67.41172818842175,4.1089946191843305,1.0589009502126887,B,360.8401999999842,Correct
9,509,3,B,54.05443051365677,34.97386535596955,2.7027215256828385,0.5493681923497625,B,500.68019999980606,Correct
9,509,4,A,52.42998429567197,82.93033255444108,2.6214992147835985,1.3026666175639527,A,374.13440000000264,Correct
9,509,5,A,57.06341934898731,77.5156194602706,2.853170967449365,1.2176125031742409,A,390.94659999955184,Correct
9,509,6,A,41.68213461989831,73.00132114042201,2.0841067309949155,1.1467020709854951,A,372.2349999998187,Correct
9,509,7,B,61.231901611777666,40.32248086231141,3.061595080588883,0.6333840482577627,B,322.3006999996869,Correct
9,509,8,B,67.5251144876112,34.44157660720109,3.37625572438056,0.5410070202361651,B,327.5828999994701,Correct
9,509,9,B,72.39029827491878,43.5715044585975,3.619514913745939,0.6844195915649242,B,344.67419999964477,Correct
9,509,10,B,32.30049691054427,18.47787510201565,1.6150248455272134,0.2902497833722105,B,501.3935999995738,Correct
9,509,11,A,46.38721792982304,55.53791136406736,2.319360896491152,0.8723874716853756,A,401.8175999999585,Correct
9,509,12,B,76.51933349203462,51.2962370415255,3.8259666746017307,0.8057594072322856,B,305.3069999996296,Correct
9,509,13,B,61.140117090572325,45.732486477449676,3.057005854528616,0.7183642177397522,B,331.23819999946136,Correct
9,509,14,A,63.60823118206295,86.77309750079999,3.180411559103147,1.3630286281887203,A,369.85529999947175,Correct
9,509,15,B,53.33566608667162,35.122899109287296,2.666783304333581,0.5517092090725623,B,350.5995999994411,Correct
9,509,16,B,69.40516017529106,43.14853903347313,3.4702580087645525,0.6777756662034581,B,334.60720000039146,Correct
9,509,17,B,83.89805697142192,58.89256232395613,4.194902848571096,0.9250822057400981,B,316.98490000053425,Correct
9,509,18,B,65.7910712224307,49.0111999279994,3.2895535611215347,0.7698661281871175,B,331.8735000002562,Correct
9,509,19,B,62.76508329718649,33.589294435612075,3.1382541648593247,0.527619403190917,B,326.41270000021905,Correct
9,509,20,B,41.8111388554625,16.08719710900253,2.090556942773125,0.25269710127246653,B,307.3623000000225,Correct
9,509,21,A,57.36572736724778,70.99151215029357,2.868286368362389,1.1151320651929642,A,389.3051999993986,Correct
9,509,22,B,47.21815358463069,17.227680885854532,2.3609076792315347,0.27061177854694946,B,288.09019999971497,Correct
9,509,23,A,41.469145635701054,58.02099871810301,2.073457281785053,0.911391716633676,A,405.3287000006094,Correct
9,509,24,A,43.35352736449447,57.337263850803794,2.1676763682247238,0.900651634453124,A,371.4291999995112,Correct
9,509,25,A,34.86765153801841,58.21987833474504,1.7433825769009204,0.9145157103466328,A,368.66339999960474,Correct
9,509,26,A,48.82175687237296,76.21300337295884,2.441087843618648,1.1971510575225082,A,357.95340000004217,Correct
9,509,27,A,44.44765772637618,55.716790687186005,2.222382886318809,0.8751973015223189,A,348.8214999997581,Correct
9,509,28,A,26.364844729471336,47.33690360718279,1.3182422364735669,0.7435663430800681,A,356.05559999930847,Correct
9,509,29,A,23.057566236327883,41.85634730417837,1.152878311816394,0.6574779659845486,A,370.9705999999642,Correct
9,509,30,B,58.5420649618245,33.98063775519036,2.9271032480912247,0.53376660968001,B,450.13960000051156,Correct
9,509,31,A,32.260067504042794,53.11621786862854,1.6130033752021398,0.8343475992127917,A,404.3952000001809,Correct
9,509,32,B,55.29564677383649,30.59207117742661,2.764782338691824,0.48053913034549744,B,352.2325000003548,Correct
9,509,33,B,63.87243654231959,42.0937601239913,3.1936218271159795,0.6612072378375102,B,358.61949999980425,Correct
9,509,34,A,22.959860286503975,50.640599206818735,1.1479930143251988,0.7954606722076341,A,351.71270000046206,Correct
9,509,35,B,62.2411814092793,37.74922646389876,3.112059070463965,0.5929634626884087,B,332.96789999985776,Correct
9,509,36,B,32.28922816499097,11.60428776854721,1.6144614082495485,0.18227972601904904,B,373.8316999997551,Correct
9,509,37,A,25.015061570358093,36.28394401910618,1.2507530785179046,0.5699468598684364,A,367.5143999998909,Correct
9,509,38,A,56.136417764095675,72.289326822741,2.806820888204784,1.1355180903963737,A,526.6517000000022,Correct
9,509,39,A,49.57642303936262,59.05737505464628,2.4788211519681314,0.9276710780598693,A,400.08709999983694,Correct
9,509,40,A,61.985069577353386,72.45238440860902,3.099253478867669,1.138079392965749,A,396.523100000195,Correct
9,509,41,B,60.765974171467626,42.648540096964624,3.038298708573381,0.6699217012747689,B,365.6477000004088,Correct
9,509,42,A,28.60964253830113,54.75842899070313,1.4304821269150565,0.8601433911965567,A,407.8729000002568,Correct
9,509,43,B,61.35995929080241,52.7631627887402,3.0679979645401203,0.8288018229863429,B,334.487000000081,Correct
9,509,44,B,40.19825741038223,30.56615790542834,2.009912870519112,0.4801320856207963,B,401.5484999999899,Correct
9,509,45,B,51.95867248937875,42.84618532135114,2.5979336244689377,0.6730263051995179,B,385.5836000002455,Correct
9,509,46,A,63.58030226648181,82.46391111524926,3.1790151133240903,1.2953400867297438,A,370.95850000059727,Correct
9,509,47,B,45.34323062511922,31.38088799601156,2.2671615312559608,0.4929298359569702,B,322.9537999995955,Correct
9,509,48,B,70.48831474950389,58.533235136476904,3.5244157374751945,0.9194379074779989,B,350.55299999930867,Correct
9,509,49,A,24.893631604137433,43.11058959026778,1.2446815802068716,0.6771795577435493,A,379.8570999997537,Correct
9,509,50,B,79.51691455158279,67.03375082779982,3.9758457275791392,1.0529636957159232,B,309.5253999999841,Correct
9,509,51,A,43.16037826529762,59.89533555913335,2.158018913264881,0.9408337308843443,A,385.36669999939477,Correct
9,509,52,B,69.90884810129292,57.362203123687884,3.4954424050646455,0.9010433796355168,B,365.23850000048697,Correct
9,509,53,A,45.30192220577685,53.805897467663605,2.2650961102888427,0.8451810610210881,A,386.8130000000747,Correct
9,509,54,B,48.364229898670544,36.70523747886746,2.4182114949335274,0.5765645220593937,B,898.3007999995607,Correct
9,509,55,A,30.58804230218346,51.9883695853944,1.529402115109173,0.8166313998079305,A,369.74709999958577,Correct
9,509,56,A,39.14210299890649,50.91494728394435,1.9571051499453245,0.7997701217257557,A,387.4071999998705,Correct
9,509,57,B,89.53771739185916,66.14151960750749,4.476885869592958,1.038948560481054,B,341.6212000001906,Correct
9,509,58,B,50.621747114639255,22.678574996572646,2.531087355731963,0.35623422301558894,B,428.0112000005829,Correct
9,509,59,B,34.965709662783055,19.151586510515447,1.748285483139153,0.3008324174301235,B,426.62989999917045,Correct
9,509,60,A,33.9937451726117,53.03014593183882,1.6996872586305853,0.8329955843912974,A,362.0805999998993,Correct
9,509,61,B,43.047053203115496,31.359919098942264,2.152352660155775,0.49260045729203633,B,387.74350000039703,Correct
9,509,62,A,45.99260295268431,76.17408015181842,2.2996301476342156,1.196539652994564,A,390.81029999942984,Correct
9,509,63,A,53.22537289404715,65.5782929342829,2.661268644702357,1.0301014165865132,A,447.65319999987696,Correct
9,509,64,A,35.95216559330583,62.72936426343583,1.7976082796652915,0.9853505496718407,A,405.2025999999387,Correct
9,509,65,A,34.31863170732987,43.877187413498895,1.7159315853664936,0.6892212481921532,A,376.2413000004017,Correct
9,509,66,A,28.181770073247666,56.985457357761305,1.4090885036623835,0.8951254709829867,A,346.4764999998806,Correct
9,509,67,A,58.688246962681326,73.01208730954075,2.9344123481340665,1.1468711855745488,A,605.7995999999548,Correct
9,509,68,B,71.40438449142648,45.47681708991259,3.570219224571324,0.7143481723915809,B,335.7527999996819,Correct
9,509,69,B,85.73715637349773,59.24029107232786,4.2868578186748865,0.930544316146731,B,328.042799999821,Correct
9,509,70,B,47.06862724937765,37.468494092805166,2.3534313624688825,0.5885537289151463,B,601.9892999993317,Correct
9,509,71,B,59.73351394483194,47.256840484623744,2.986675697241597,0.7423087144917935,B,333.9117999994414,Correct
9,509,72,A,17.89473400238507,43.28846199499041,0.8947367001192535,0.6799735709433142,A,447.5540000003093,Correct
9,509,73,A,36.2217560339319,59.93026782303812,1.811087801696595,0.9413824456026265,A,378.5972999994556,Correct
9,509,74,B,68.85955313498393,56.25557934303103,3.4429776567491963,0.88366057393752,B,360.68539999996574,Correct
9,509,75,A,26.505540938264975,55.13286465197912,1.3252770469132489,0.86602501281009,A,349.3980000002921,Correct
9,509,76,B,50.371368537964756,28.201619527124656,2.518568426898238,0.44299000362874635,B,339.18199999970966,Correct
9,509,77,B,31.304966946711254,16.27923148751003,1.5652483473355627,0.2557135702362458,B,457.5395000001663,Correct
9,509,78,B,59.43752278219715,28.258311201044073,2.971876139109858,0.44388051436027115,B,371.7802000001029,Correct
9,509,79,A,37.76123499733417,47.32949571671206,1.8880617498667085,0.7434499802086609,A,382.0111999993969,Correct
9,509,80,A,21.875102871899973,42.776736544378664,1.0937551435949986,0.6719354063618302,A,358.0106999997952,Correct
9,509,81,A,64.56853588140812,78.60180168479108,3.2284267940704066,1.2346742136593076,A,481.0551000000487,Correct
9,509,82,A,30.66591459660524,62.72954665869649,1.5332957298302619,0.9853534147298952,A,397.19740000055026,Correct
9,509,83,A,65.46907718232072,78.209393657709,3.2734538591160356,1.2285102827838539,A,450.4713999995147,Correct
9,509,84,B,76.74907516517783,54.68348675487138,3.8374537582588912,0.8589662013088935,B,372.97709999984363,Correct
9,509,85,A,51.9800184087187,78.5000920421236,2.599000920435935,1.2330765623282904,A,400.8905999999115,Correct
9,509,86,A,42.92408944261471,63.034518237147715,2.1462044721307354,0.9901438970819756,A,343.7721000000238,Correct
9,509,87,A,56.932417753104176,83.28973300727392,2.8466208876552086,1.3083120666755352,A,388.19490000059886,Correct
9,509,88,A,10.45365888847742,33.303897474020935,0.522682944423871,0.5231363982014592,A,427.6585999996314,Correct
9,509,89,A,53.310265049965395,68.06886060621898,2.6655132524982696,1.069223162093626,A,434.27080000037677,Correct
9,509,90,A,23.03195911822456,36.409644157635,1.151597955911228,0.5719213530272232,A,453.3652999998594,Correct
9,509,91,A,37.64997613221006,59.82225808491076,1.8824988066105026,0.9396858326035411,A,373.88800000007905,Correct
9,509,92,B,39.06942313444351,26.24233205101247,1.9534711567221756,0.41221358792262375,B,382.47730000057345,Correct
9,509,93,A,37.995656819122836,69.20980872858577,1.899782840956142,1.087145133290399,A,380.8486999996603,Correct
9,509,94,A,53.826831333030505,61.53119089683598,2.6913415666515252,0.9665296864406554,A,569.5705000007365,Correct
9,509,95,A,61.778397815165334,85.63077892093526,3.088919890758267,1.3450851298959094,A,449.54150000012305,Correct
9,509,96,A,56.632915587206625,78.18596516231767,2.8316457793603313,1.2281422688388235,A,409.0218000001187,Correct
9,509,97,A,38.17737743672451,45.48288448528049,1.9088688718362254,0.7144434788151519,B,1545.0494000006074,Incorrect
9,509,98,A,24.669270841762177,41.117148459302726,1.2334635420881088,0.6458666576815316,A,373.73070000012376,Correct
9,509,99,A,11.35269201217588,34.99855489342307,0.567634600608794,0.5497560146971852,A,375.7061000005706,Correct
9,509,100,A,66.47860290226632,82.93702214697484,3.3239301451133154,1.3027716974377506,A,487.70950000016455,Correct
9,509,101,A,24.90190906068984,46.68224105300052,1.2450954530344918,0.7332829277260714,A,356.7257000004247,Correct
9,509,102,B,65.5320287746244,41.814667503991025,3.2766014387312197,0.6568232612141903,B,361.6793000001053,Correct
9,509,103,A,61.15091940184951,77.44488807553363,3.057545970092475,1.216501457180901,A,380.4493999996339,Correct
9,509,104,A,40.76555103081512,62.111281558298835,2.038277551540756,0.9756417292429941,A,382.1384000002581,Correct
9,509,105,A,69.2107312888966,87.85645418824369,3.4605365644448294,1.3800459552411728,A,426.31600000004255,Correct
9,509,106,B,66.6055803590401,58.2571667807177,3.330279017952005,0.9151014358862904,B,360.080200000084,Correct
9,509,107,B,46.72236168407036,16.96800259636206,2.336118084203518,0.2665327615141179,B,368.9476999998078,Correct
9,509,108,B,47.39616772220478,20.38449163825867,2.369808386110239,0.32019884588958003,B,372.0192999999199,Correct
9,509,109,B,65.08778681048794,40.94366325427228,3.2543893405243973,0.6431415584533807,B,373.6551000001782,Correct
9,509,110,B,53.84343741639115,44.16656885021237,2.6921718708195574,0.6937668411704749,B,660.8583999995972,Correct
9,509,111,A,14.155707433441787,37.79585168233723,0.7077853716720894,0.5936958499070003,A,409.2595000001893,Correct
9,509,112,A,17.757398986033397,32.110220253334774,0.8878699493016698,0.5043861602651335,A,379.53010000001086,Correct
9,509,113,B,65.70689232100642,35.29640605070262,3.2853446160503212,0.5544346497350484,B,332.86239999961253,Correct
9,509,114,A,31.02993010053258,63.99638494393424,1.551496505026629,1.0052528639808413,A,334.1035000003103,Correct
9,509,115,B,64.35772115638143,39.58652561046671,3.2178860578190718,0.6218236901949321,B,339.2426999998861,Correct
9,509,116,A,52.81659561393822,70.87079223946898,2.6408297806969108,1.1132358012680215,A,354.2096000001038,Correct
9,509,117,A,54.23768253305645,62.715356149600424,2.711884126652823,0.9851305107342606,A,404.1542000004483,Correct
9,509,118,A,17.357402407826243,42.28196293106653,0.8678701203913122,0.6641635206179729,A,354.2375999995784,Correct
9,509,119,A,52.36620659038406,63.7495618014569,2.6183103295192027,1.0013757751251275,A,435.9108999997261,Correct
9,509,120,B,60.041853550389845,32.546453036522934,3.0020926775194927,0.5112384887997283,B,350.12379999989207,Correct
9,509,121,B,57.239185435335706,26.772204730244937,2.861959271766785,0.42053680850469705,B,362.5299000004816,Correct
9,509,122,A,35.72006930491176,50.65463835670428,1.786003465245588,0.7956811986583496,A,380.5235999998331,Correct
9,509,123,A,42.333828617536454,51.62304751009041,2.1166914308768225,0.8108929340680845,A,366.3732999993954,Correct
9,509,124,B,38.81343013182281,25.69247747705497,1.9406715065911408,0.4035764924721856,B,425.4976000001989,Correct
9,509,125,A,24.972014161962203,55.75016154150626,1.2486007080981103,0.8757214896762014,A,426.3461999998981,Correct
9,509,126,A,41.17412087397999,53.994733118335795,2.058706043698999,0.8481472844855263,A,415.3182000000015,Correct
9,509,127,A,43.66411957011431,75.4455073018782,2.1832059785057156,1.185095257429678,A,378.8985999999568,Correct
9,509,128,A,50.29695791260477,63.35297301035934,2.5148478956302385,0.9951461729620867,A,408.4272999998575,Correct
9,509,129,A,31.01567515279853,62.05552834034485,1.5507837576399266,0.9747659597433029,A,349.16019999946,Correct
9,509,130,B,43.96044987263156,21.06162964565761,2.1980224936315778,0.33083530483713475,B,366.28990000008343,Correct
9,509,131,B,70.72403165220463,37.92529806553566,3.5362015826102318,0.59572918893945,B,373.19320000005973,Correct
9,509,132,A,36.11667665710627,62.955636653064346,1.8058338328553134,0.9889048280566765,A,362.72509999980684,Correct
9,509,133,B,34.73816743428744,13.900896406423207,1.736908371714372,0.21835477014365953,B,339.0229000006002,Correct
9,509,134,B,72.13855275946892,45.87731849710818,3.606927637973446,0.7206392337845711,B,451.30169999993086,Correct
9,509,135,B,58.310355062067174,50.28376622628973,2.9155177531033587,0.7898555528566918,B,397.251000000324,Correct
9,509,136,A,22.000121569065048,45.2284436245058,1.1000060784532524,0.7104467311202377,A,362.78539999966597,Correct
9,509,137,B,54.32558441397215,26.463956618378248,2.7162792206986075,0.41569485848608045,B,347.64410000025237,Correct
9,509,138,B,34.69435576268842,14.969653749833686,1.734717788134421,0.235142771236302,B,360.0415000000794,Correct
9,509,139,B,54.78302822035762,23.108553864436878,2.7391514110178807,0.3629883152779946,B,356.5035000001444,Correct
9,509,140,B,52.170260591017474,42.11248469569321,2.6085130295508736,0.661501362722012,B,610.5641000003743,Correct
9,509,141,B,76.59572294675505,49.43067356492477,3.829786147337752,0.7764552046678141,B,350.44379999999364,Correct
9,509,142,B,31.441442853266718,12.566202195941738,1.5720721426633357,0.19738944251147247,B,420.7956000000195,Correct
9,509,143,A,28.112512691050448,59.259684541496725,1.4056256345525224,0.9308489480480738,A,338.8830000003509,Correct
9,509,144,B,71.10294927903158,47.08401535217813,3.5551474639515788,0.7395939836595591,B,337.8030999992916,Correct
9,509,145,A,49.24317295899425,79.44685029104043,2.4621586479497126,1.2479482061259035,A,415.3519999999844,Correct
9,509,146,A,50.70392377463142,64.92544106662359,2.535196188731571,1.0198464434299086,A,508.3191000003353,Correct
9,509,147,B,52.819475949641124,24.603824445717834,2.640973797482056,0.3864759706444005,B,342.00590000000375,Correct
9,509,148,A,50.3973082278208,79.12819051797914,2.51986541139104,1.2429427101156838,A,403.5287000006065,Correct
9,509,149,B,64.41978688583467,42.43083257299945,3.2209893442917337,0.6665019594851679,B,380.9737999999925,Correct
9,509,150,B,76.03818286605937,48.95449026645211,3.801909143302969,0.768975334906595,B,371.01649999931396,Correct
9,509,151,B,47.972105443578336,33.258794902733406,2.3986052721789166,0.5224279286683846,B,410.1975000003222,Correct
9,509,152,A,40.4716929361637,64.34603781571613,2.023584646808185,1.0107451984473241,A,376.021000000037,Correct
9,509,153,A,37.79852615258926,70.77909310961758,1.889926307629463,1.1117953947046126,A,353.94429999996646,Correct
9,509,154,B,39.03882673392258,28.809096524467627,1.9519413366961291,0.4525322299891337,B,331.1063999999533,Correct
9,509,155,A,48.61391578775876,59.46888731013244,2.430695789387938,0.9341350974533568,A,357.26469999917754,Correct
9,509,156,A,41.33551234636329,55.79454167244719,2.0667756173181644,0.8764186111428484,A,366.94809999971767,Correct
9,509,157,B,62.01417753922588,49.48463551876713,3.100708876961294,0.7773028370566367,B,650.8160000003045,Correct
9,509,158,A,41.50314211416321,70.53737592147702,2.0751571057081604,1.1079985099920688,A,368.09660000017175,Correct
9,509,159,B,62.01079336580982,43.916942910265206,3.100539668290491,0.6898457260750577,B,349.92590000001655,Correct
9,509,160,B,41.147869543194304,14.659839176640556,2.057393477159715,0.23027621530070905,B,357.09289999977045,Correct
9,509,161,A,41.482631172622696,66.67679374716754,2.0741315586311346,1.0473566270051171,A,355.7329999994181,Correct
9,509,162,A,61.141910695964484,87.62870121929873,3.0570955347982243,1.3764684199708195,A,415.62620000058814,Correct
9,509,163,B,46.20799366865431,37.894290403355825,2.310399683432715,0.5952421217209043,B,399.6579999993628,Correct
9,509,164,B,65.34738063026604,43.58547609649239,3.2673690315133026,0.6846390575397702,B,337.59139999983745,Correct
9,509,165,A,16.814276139042303,37.93909548320549,0.8407138069521152,0.5959459182694004,A,435.805099999925,Correct
9,509,166,A,17.857203535161347,42.757985673227154,0.8928601767580673,0.6716408683665404,A,304.2427000000316,Correct
9,509,167,B,31.206029475720012,11.477171715176912,1.5603014737860006,0.18028299172194176,B,347.8324999996403,Correct
9,509,168,B,56.0032673393966,31.064496726915856,2.80016336696983,0.4879599735237152,B,368.79729999964184,Correct
9,509,169,A,43.341323838134954,70.21239437022756,2.1670661919067475,1.1028937117222812,A,310.89669999983016,Correct
9,509,170,A,25.72323174816809,51.819019340472124,1.2861615874084042,0.8139712523812731,A,327.71950000005745,Correct
9,509,171,A,21.158348157276002,48.23974297313038,1.0579174078638003,0.7577481106772314,A,308.69090000032884,Correct
9,509,172,B,45.436785582209964,15.637425215960828,2.271839279110498,0.24563210089761162,B,380.7377000002816,Correct
9,509,173,A,54.3722546748031,66.182392314926,2.718612733740155,1.0395905874678455,A,305.20199999955366,Correct
9,509,174,B,64.18553635376446,31.38923784644348,3.209276817688223,0.4930609951008476,B,372.51410000044416,Correct
9,509,175,B,42.32554718851785,27.592075686253807,2.1162773594258923,0.43341531136614253,B,382.4676999993244,Correct
9,509,176,B,38.07272246847967,16.24586421095479,1.9036361234239834,0.25518943828176455,B,349.9192999997831,Correct
9,509,177,A,53.77944676926243,72.61062923865711,2.6889723384631212,1.140565096943487,A,313.8472999999067,Correct
9,509,178,A,40.228310071159235,61.90087653335528,2.0114155035579615,0.9723366948397889,A,346.09850000015285,Correct
9,509,179,A,39.94803348016698,58.92295031046922,1.9974016740083487,0.9255595391160327,A,362.65590000039083,Correct
9,509,180,B,57.87596759655249,37.928197935142094,2.893798379827625,0.5957747399847098,B,341.40389999993204,Correct
9,509,181,B,65.28769338292629,44.50327343555588,3.264384669146315,0.6990557844292007,B,281.86010000081296,Correct
9,509,182,B,50.639956442489364,34.444748376228574,2.531997822124468,0.5410568422675432,B,331.2522000005629,Correct
9,509,183,B,38.569986547400106,13.728349300965291,1.9284993273700053,0.21564440654913564,B,322.71959999980027,Correct
9,509,184,A,60.760910819240735,70.836981603835,3.038045540962037,1.1127047050454169,A,355.26240000035614,Correct
9,509,185,A,43.554601035961866,57.8024816402173,2.1777300517980933,0.9079592584008277,A,407.1043000003556,Correct
9,509,186,B,54.705670574160926,46.14478377341426,2.735283528708046,0.7248405685202387,A,402.4778000002698,Incorrect
9,509,187,B,83.54346921734562,67.55102185821572,4.177173460867281,1.0610889700612702,B,472.8735000007873,Correct
9,509,188,A,25.779956401257216,36.413937423472134,1.2889978200628607,0.5719887914892925,A,386.5172000005259,Correct
9,509,189,A,23.43379521335652,38.30079774280543,1.171689760667826,0.6016275240771303,A,322.5425999999061,Correct
9,509,190,B,48.45973254903399,20.254692889567607,2.4229866274516993,0.3181599719129151,B,383.81529999969644,Correct
9,509,191,B,43.82341626154141,32.464156741930786,2.1911708130770706,0.5099457816271865,B,347.96259999984613,Correct
9,509,192,A,47.470986415276464,79.0320094922165,2.373549320763823,1.2414319020959306,A,369.4783000000825,Correct
9,509,193,A,28.331129082050317,54.238602376097305,1.416556454102516,0.8519779738286258,A,347.97100000014325,Correct
9,509,194,B,46.34038932561355,34.31532111815397,2.317019466280678,0.5390238036518359,B,370.04499999966356,Correct
9,509,195,B,66.8568481410005,53.37532788246325,3.342842407050025,0.838417689792465,B,448.4197000001586,Correct
9,509,196,B,30.302624354496135,14.508382144501322,1.5151312177248066,0.22789713380319343,B,393.8024000008227,Correct
9,509,197,B,48.87050582976019,36.60222478501696,2.4435252914880095,0.5749464024482576,B,396.27910000035627,Correct
9,509,198,A,50.244195692242,79.041022276123,2.5122097846121,1.241573474574476,A,352.182300000095,Correct
9,509,199,B,66.74761533516467,44.068293498358784,3.3373807667582334,0.692223135553414,B,322.6982999995016,Correct
9,509,200,A,57.28497938835403,83.59435569361837,2.8642489694177016,1.3130970686432177,A,390.56130000062694,Correct
9,509,201,A,61.20779546110988,88.00539287982642,3.060389773055494,1.3823854787377308,A,411.8515000000116,Correct
9,509,202,B,77.05421124248565,48.02265053734261,3.8527105621242823,0.7543380306701273,B,366.05560000043624,Correct
9,509,203,B,68.38562805001544,53.26724233507284,3.419281402500772,0.8367198859842601,B,393.145199999708,Correct
9,509,204,A,37.31948465356757,63.36578614866252,1.8659742326783786,0.9953474412679002,A,424.86920000010286,Correct
9,509,205,A,12.22412430521889,31.38163024795755,0.6112062152609445,0.4929414952232734,A,371.61829999968177,Correct
9,509,206,B,72.99000054846844,40.730072494401576,3.6495000274234224,0.6397864826429585,B,337.1442000006937,Correct
9,509,207,A,38.439231556311555,55.41509546951782,1.9219615778155776,0.8704582841250712,A,368.8958000002458,Correct
9,509,208,B,54.84108440335093,33.15840097671848,2.7420542201675464,0.5208509445662171,B,355.65240000050835,Correct
9,509,209,A,40.059642728990276,49.453395137626266,2.0029821364495137,0.7768121142971994,A,323.42330000028596,Correct
9,509,210,A,46.686692051822625,63.58274421663597,2.3343346025911313,0.9987554106303124,A,400.3698999995322,Correct
9,509,211,A,11.843932089698367,36.27400051922463,0.5921966044849184,0.5697906677375422,A,423.0736999998044,Correct
9,509,212,B,70.76536704092797,57.47155409531912,3.5382683520463987,0.9027610606812146,B,343.6007999998765,Correct
9,509,213,A,26.59032690459886,39.22810186746824,1.3295163452299432,0.6161935832055514,A,353.53310000027705,Correct
9,509,214,B,74.92529152200947,50.74732271711048,3.746264576100474,0.7971370811871235,B,332.3264000000563,Correct
9,509,215,A,41.89459999882882,57.1727045271392,2.094729999941441,0.8980667426416021,A,530.1358000006076,Correct
9,509,216,A,23.296519445207643,37.85207654972498,1.1648259722603822,0.5945790280586724,A,367.3739999994723,Correct
9,509,217,A,40.14764464571674,71.72263518243984,2.007382232285837,1.1266165189262694,A,355.0094000001991,Correct
9,509,218,B,50.460045312972674,31.577323409555703,2.5230022656486337,0.496015436217446,B,340.1186000000962,Correct
9,509,219,A,31.50770866654289,59.993216359972664,1.5753854333271446,0.9423712389085656,A,334.87349999995786,Correct
9,509,220,A,21.737131845852545,37.51969116131797,1.0868565922926272,0.5893579305867722,A,404.67420000004495,Correct
9,509,221,A,41.25606681801824,59.67431813306733,2.062803340900912,0.9373619972741226,A,410.5043999998088,Correct
9,509,222,B,85.369056037376,67.9104406302324,4.268452801868801,1.0667347069299196,B,459.3572000003405,Correct
9,509,223,A,31.38592694666837,49.414802141663344,1.5692963473334185,0.7762058969342137,A,464.8810999997295,Correct
9,509,224,A,38.71201751514021,60.532063160868304,1.9356008757570107,0.9508354246640861,A,392.6069999997708,Correct
9,509,225,B,41.61621509203337,24.383665177419772,2.0808107546016688,0.3830177169448761,B,332.7613999999812,Correct
9,509,226,B,62.32523185503243,54.85987309097252,3.1162615927516213,0.8617368713973382,B,482.5650000002497,Correct
9,509,227,A,28.1172781426252,61.04876242038308,1.40586390713126,0.9589517176531207,A,359.58729999947536,Correct
9,509,228,B,36.85285382595562,11.774976104823661,1.842642691297781,0.18496089213554684,B,361.5154999997685,Correct
9,509,229,B,46.441478174493305,32.851858914345065,2.3220739087246653,0.5160357931103741,B,352.43940000054863,Correct
9,509,230,B,66.19804012796538,41.56983865452371,3.309902006398269,0.6529774986398234,B,386.3742000003185,Correct
9,509,231,B,63.681410573118775,49.55472296980223,3.1840705286559388,0.7784037681630404,B,361.550100000386,Correct
9,509,232,B,76.09354604162404,43.49908558099242,3.804677302081202,0.6832820384955974,B,354.11909999947966,Correct
9,509,233,B,68.28094342303075,40.653130058301855,3.4140471711515374,0.6385778736829576,B,309.4399000001431,Correct
9,509,234,B,87.12256454784452,66.83042998537557,4.356128227392226,1.0497699393915148,B,347.5471000001562,Correct
9,509,235,A,29.040964287709834,44.87973689898827,1.4520482143854918,0.7049692586845216,A,371.2503000006109,Correct
9,509,236,B,81.31718910264765,61.2406825390983,4.065859455132382,0.9619663918282797,B,324.4142000003194,Correct
9,509,237,A,61.99592184925703,79.98172834663752,3.099796092462851,1.256350050976055,A,343.9988000000085,Correct
9,509,238,A,41.11641152728196,65.47421209028563,2.055820576364098,1.0284665185121067,A,392.8225999998176,Correct
9,509,239,B,75.54889372940332,43.130783718253014,3.7774446864701656,0.6774967663641696,B,335.1822999993601,Correct
9,509,240,A,55.93064103750727,69.20235184062985,2.7965320518753636,1.0870280007682942,A,376.8926000002466,Correct
9,509,241,A,56.964203733666004,75.40617659926595,2.8482101866833,1.1844774521977424,A,426.8301000001884,Correct
9,509,242,A,43.55307123099852,73.37669151103184,2.177653561549926,1.1525983749789108,A,383.517700000084,Correct
9,509,243,B,72.87764969287062,41.93247497688526,3.6438824846435307,0.6586737766711028,B,368.8985999997385,Correct
9,509,244,A,48.05319584623885,73.80161829907112,2.4026597923119426,1.1592731093569995,A,394.0339999999196,Correct
9,509,245,B,53.48830440530978,43.77280353272734,2.674415220265489,0.6875815900272277,B,1186.3108999996257,Correct
9,509,246,B,60.3964429518428,40.03761962285002,3.01982214759214,0.6289094583718409,B,381.09129999975266,Correct
9,509,247,B,35.36764071298181,17.839583539111484,1.7683820356490907,0.2802235229478702,B,352.1694999999454,Correct
9,509,248,B,44.096135656800115,35.088894977230474,2.2048067828400058,0.5511750734152553,B,375.0606000003245,Correct
9,509,249,A,17.775813495269237,33.57113711246899,0.8887906747634617,0.5273341886259412,A,397.4508000001151,Correct
9,509,250,B,43.95371709856103,20.240377713348312,2.1976858549280514,0.31793510965068816,B,369.8220999995101,Correct
9,509,251,A,35.170353118162474,65.43893762090049,1.7585176559081237,1.0279124284427086,A,363.8127000003806,Correct
9,509,252,B,78.74690425721992,63.45830733050201,3.937345212860996,0.996800760593742,B,348.93990000000485,Correct
9,509,253,A,55.58696835709492,71.57968152448221,2.779348417854746,1.1243710081180518,A,365.76749999949243,Correct
9,509,254,B,69.35168608343916,55.989311525863855,3.4675843041719583,0.879478048846021,B,382.6120000003357,Correct
9,509,255,A,33.13049482774524,51.88364544952583,1.6565247413872617,0.8149863969284392,A,318.0562999996255,Correct
9,509,256,A,60.44351160873648,78.12868824163564,3.022175580436824,1.2272425650726488,A,486.6543999996793,Correct
9,509,257,A,52.02514977804714,72.23918717981498,2.6012574889023568,1.1347304987270233,A,402.5056999998924,Correct
9,509,258,A,57.09923370481614,67.43709515842787,2.854961685240807,1.0592994136457639,A,428.7370000001829,Correct
9,509,259,A,34.12319689026914,48.15098151855914,1.706159844513457,0.7563538490092166,A,477.02639999988605,Correct
9,509,260,A,64.08720100244696,75.86329104014051,3.204360050122348,1.1916577890442492,A,604.2176999999356,Correct
9,509,261,B,58.036128207094485,40.574955611232035,2.9018064103547245,0.6373499123398926,B,444.8011000004044,Correct
9,509,262,A,11.225073766292525,32.204798697575455,0.5612536883146262,0.505871794993206,A,403.4116000002541,Correct
9,509,263,A,42.38221800100372,55.54421640005147,2.119110900050186,0.8724865109590171,A,395.15269999992597,Correct
9,509,264,B,68.57300892137744,44.84475858248828,3.428650446068872,0.7044198205737651,B,364.5788000003449,Correct
9,509,265,B,59.69061634603424,31.371878893288702,2.984530817301712,0.4927883213023224,B,373.6963999999716,Correct
9,509,266,A,24.02034625155089,45.509211848872226,1.2010173125775445,0.7148570280753929,A,369.83760000020993,Correct
9,509,267,B,84.95086588933691,67.83416446262828,4.247543294466846,1.0655365636909742,B,415.13020000002143,Correct
9,509,268,B,78.3388216610185,63.66365071519253,3.9169410830509253,1.0000262869377772,B,353.895599999305,Correct
9,509,269,A,59.55400899080252,78.89180998066668,2.9777004495401265,1.2392296533183218,A,354.9935999999434,Correct
9,509,270,B,67.85375830756169,56.5819906036992,3.3926879153780845,0.8887878300303405,B,449.88589999957185,Correct
9,509,271,A,24.48570853953435,53.68065001051825,1.2242854269767176,0.8432136785648449,A,365.8070999999836,Correct
9,509,272,B,55.59871350316161,35.85239964471931,2.7799356751580806,0.5631681766870775,B,347.5938000001406,Correct
9,509,273,A,47.37514496857128,76.54489985088746,2.368757248428564,1.2023644752065725,A,357.26859999977023,Correct
9,509,274,A,17.28063383628404,35.183413113919904,0.8640316918142019,0.5526597608345278,A,389.86429999931715,Correct
9,509,275,A,31.161447758469066,44.634559733188645,1.5580723879234535,0.7011180247700012,A,348.7414000001081,Correct
9,509,276,B,72.64472515023527,56.179224105565005,3.6322362575117637,0.8824611886720881,B,431.5183999997316,Correct
9,509,277,A,40.98857385111626,54.97502085713072,2.049428692555813,0.8635456082785377,A,333.6454000000231,Correct
9,509,278,A,22.59755062694432,49.106872855087914,1.129877531347216,0.7713689550115611,A,335.23779999995895,Correct
9,509,279,B,69.0288864917397,50.679943468657214,3.451444324586985,0.7960786904273977,B,328.6893999993481,Correct
9,509,280,A,14.859690306960356,40.293630096912906,0.7429845153480179,0.6329308614946308,A,318.2230000002164,Correct
9,509,281,A,17.635753762234938,42.55436040592291,0.8817876881117469,0.6684423301472989,A,332.56880000044475,Correct
9,509,282,B,73.11520441935032,63.06557783230441,3.655760220967516,0.9906317800618142,B,326.006100000086,Correct
9,509,283,A,51.92285169104993,59.85227801586857,2.596142584552496,0.9401573845763329,A,361.0371999993731,Correct
9,509,284,A,38.715523001357845,58.41234599446099,1.935776150067892,0.9175389852757192,A,363.231000000269,Correct
9,509,285,B,38.82672117246969,20.266472011059037,1.9413360586234845,0.31834499792063115,B,370.4154999995808,Correct
9,509,286,B,89.3157754524712,63.99563410520315,4.46578877262356,1.0052410698336331,B,453.48310000008496,Correct
9,509,287,B,63.95373645834157,38.57478258240256,3.197686822917078,0.6059312678734969,B,364.64859999978216,Correct
9,509,288,B,69.12220340015249,43.32490612666015,3.4561101700076247,0.6805460340249148,B,331.8318999999974,Correct
9,509,289,A,33.035184909574646,41.21658815485897,1.6517592454787322,0.647428652766705,A,397.5222999997641,Correct
9,509,290,B,48.389928461601414,21.32132726818885,2.4194964230800706,0.33491462555262913,B,369.1045000005033,Correct
9,509,291,B,61.48471263164459,36.22879972768828,3.07423563158223,0.5690806553644071,B,400.62200000011217,Correct
9,509,292,A,67.09424533389654,89.35748115793874,3.354712266694827,1.4036240317453434,A,375.5055000001448,Correct
9,509,293,B,62.979187082962824,49.277974187537275,3.148959354148141,0.7740566084567728,B,368.33779999960825,Correct
9,509,294,A,63.37464874651015,82.71407635485585,3.1687324373255077,1.2992696731244016,A,380.20270000015444,Correct
9,509,295,A,37.5071540694028,70.33356500226289,1.8753577034701403,1.1047970555594464,A,443.70059999982914,Correct
9,509,296,A,36.5413878224678,62.970970974862375,1.82706939112339,0.9891456990202186,A,426.60609999984445,Correct
9,509,297,B,44.86012457015603,16.11619450978524,2.2430062285078014,0.25315259137882734,B,369.237200000498,Correct
9,509,298,A,57.34230885469413,83.76974903139325,2.8671154427347068,1.3158521407504284,A,337.78050000000803,Correct
9,509,299,A,20.56089518706661,40.55485279947207,1.0280447593533304,0.6370341381111846,A,403.4821999994165,Correct
9,509,300,A,47.68189600615716,77.00249875273664,2.384094800307858,1.2095524219482734,A,376.7287999999098,Correct
9,509,301,A,20.26517365292645,34.998464395189686,1.0132586826463226,0.5497545931542592,A,418.93009999967035,Correct
9,509,302,B,40.46756724218551,26.28465646345366,2.0233783621092756,0.4128784182385875,B,394.1527999995742,Correct
9,509,303,B,41.93806814708021,24.342642858832598,2.0969034073540103,0.3823733398713426,B,374.29710000014893,Correct
9,509,304,B,72.71089491556765,54.0735249480406,3.635544745778383,0.8493849436523438,B,481.5974000002825,Correct
9,509,305,A,13.282249699181424,37.863273777424865,0.6641124849590712,0.594754913700085,A,440.54919999962294,Correct
9,509,306,B,38.56597353693724,26.236705211072994,1.928298676846862,0.4121252017275398,B,392.27459999983694,Correct
9,509,307,B,84.60927490941641,58.44292976212033,4.2304637454708205,0.9180193939747073,B,420.4333999996379,Correct
9,509,308,B,42.76862534789176,31.125522594677825,2.1384312673945884,0.4889185656129148,B,959.4843000004403,Correct
9,509,309,B,61.97831240502035,36.03865146002993,3.0989156202510175,0.5660938133605655,B,456.6112000002249,Correct
9,509,310,A,27.64134267649963,47.708537177854176,1.3820671338249815,0.7494039495573109,A,450.577799999337,Correct
9,509,311,B,63.85733842491591,43.88250884589669,3.192866921245795,0.6893048370567906,B,388.52119999955903,Correct
9,509,312,B,62.356142162338024,45.403746732073444,3.117807108116901,0.7132003858946675,B,340.5216000001019,Correct
9,509,313,A,60.19926012099079,83.6969558034084,3.0099630060495395,1.314708707399087,A,346.34769999956916,Correct
9,509,314,B,50.427340316527676,42.9354285300869,2.521367015826384,0.6744281342442532,B,437.3824999993303,Correct
9,509,315,B,78.02486311106944,50.193891045717926,3.9012431555534715,0.7884437968215697,B,335.87340000030963,Correct
9,509,316,A,21.40751835893556,33.470896939801925,1.070375917946778,0.525759619675714,A,325.14720000017405,Correct
9,509,317,B,40.20867058515632,27.661734231967678,2.0104335292578157,0.4345095052435148,B,352.73879999931523,Correct
9,509,318,A,61.04295354806647,82.60205010273532,3.052147677403324,1.2975099688710465,B,349.4032000007792,Incorrect
9,509,319,A,19.33614510341366,46.53089541337074,0.966807255170683,0.7309055959780026,A,453.1866999996055,Correct
9,509,320,B,35.57735742519853,23.25490924231853,1.7788678712599264,0.36528726017782637,B,468.3411000005435,Correct
9,509,321,A,14.92681063273523,31.198857873614198,0.7463405316367614,0.4900705134806922,A,361.9122000000061,Correct
9,509,322,A,28.085616337005735,39.339826347004916,1.4042808168502867,0.6179485472262441,A,420.68469999958324,Correct
9,509,323,B,72.90787429005356,49.55806515693239,3.645393714502678,0.7784562671157155,B,395.31170000009297,Correct
9,509,324,B,56.941197754421985,29.571931244815044,2.8470598877210995,0.46451480975586706,B,453.8076999997429,Correct
9,509,325,B,42.83351276525004,32.32782361337011,2.141675638262502,0.5078042658515508,B,376.34739999975864,Correct
9,509,326,A,17.952025855216913,35.510736219821254,0.8976012927608457,0.5578013401587771,A,350.13470000012603,Correct
9,509,327,A,55.7958420158959,75.34261061234481,2.789792100794795,1.1834789600100941,A,437.58990000060294,Correct
9,509,328,A,23.300966625705655,39.6890316380756,1.1650483312852828,0.6234338511113559,A,428.21060000005673,Correct
9,509,329,B,58.02984720506622,42.94175107653386,2.901492360253311,0.6745274485716019,B,374.99990000014805,Correct
9,509,330,A,24.582835619762673,42.36816982953691,1.2291417809881338,0.6655176554125893,A,375.01109999993787,Correct
9,509,331,B,66.28146230345145,33.43864469182567,3.3140731151725724,0.5252530025491943,B,340.52390000033483,Correct
9,509,332,A,40.56299053082695,51.57768392903565,2.0281495265413474,0.8101803646031738,A,424.6823999992557,Correct
9,509,333,B,73.9831818150274,46.59727261874312,3.6991590907513694,0.7319482466818209,B,413.6996999995972,Correct
9,509,334,B,59.1959456177013,38.771232829908854,2.9597972808850646,0.6090171011453054,B,372.5627000003442,Correct
9,509,335,B,85.4446849288097,58.099686866995434,4.272234246440485,0.9126277471861013,B,508.35410000036063,Correct
9,509,336,A,30.097864843347466,58.40750664318869,1.504893242167373,0.9174629689236931,A,398.27599999989616,Correct
9,509,337,A,65.16318214422536,84.51582665793104,3.258159107211268,1.3275715007031226,A,428.39569999978266,Correct
9,509,338,B,52.40874350996967,28.867368183752067,2.620437175498483,0.45344755907273615,B,387.56089999969845,Correct
9,509,339,B,32.416704391047304,12.704062130548685,1.620835219552365,0.19955494130040022,B,449.6180000005552,Correct
9,509,340,B,59.61844290815438,27.30809427116565,2.9809221454077193,0.4289545417291576,B,415.984500000377,Correct
9,509,341,A,63.17410780586336,83.88789125207704,3.158705390293168,1.3177079144133235,A,446.3547000004837,Correct
9,509,342,A,24.86030265413752,40.47210463990503,1.243015132706876,0.6357343330602151,A,378.5280000001876,Correct
9,509,343,B,35.126367395487975,19.74142197632638,1.756318369774399,0.31009753126121525,B,392.0473000007405,Correct
9,509,344,A,27.285833086472536,37.74835455585301,1.3642916543236268,0.5929497667888531,A,372.20690000049217,Correct
9,509,345,A,13.684166448449503,36.860378090146625,0.6842083224224751,0.5790014650827341,A,392.6387999999861,Correct
9,509,346,A,17.605655302934057,32.89135837309492,0.8802827651467028,0.5166562491575206,A,376.92040000001725,Correct
9,509,347,A,40.97263071783519,60.567272192530126,2.0486315358917593,0.9513884868401301,A,347.1455999997488,Correct
9,509,348,B,79.6544674021988,67.12664635279941,3.98272337010994,1.0544228952103736,B,528.3851000003779,Correct
9,509,349,B,41.46439646194277,18.74438456835674,2.073219823097139,0.29443610428005706,B,380.00910000027943,Correct
9,509,350,B,76.50690715947843,59.94376524305645,3.8253453579739216,0.9415944625804866,B,390.7993000002534,Correct
9,509,351,B,67.93951618593967,52.9385843730357,3.3969758092969835,0.831557338788862,B,361.83340000025055,Correct
9,509,352,A,37.380032759307866,65.50360555619753,1.8690016379653935,1.0289282299949685,A,316.0729999999603,Correct
9,509,353,A,52.024013641810754,79.37342015180204,2.601200682090538,1.2467947681959866,A,355.79369999959454,Correct
9,509,354,B,47.937982512828306,22.466462848408213,2.3968991256414154,0.3529023731835363,B,345.88370000074065,Correct
9,509,355,B,86.64110026690176,63.18616816781428,4.332055013345087,0.992526008622473,B,419.82069999994565,Correct
9,509,356,A,32.04131303496644,59.9060535278862,1.602065651748322,0.941002088343821,A,392.8108999998585,Correct
9,509,357,A,52.610808278952945,61.417956479043966,2.6305404139476476,0.9647510043653109,A,600.3069999997024,Correct
9,509,358,A,64.00532614437671,80.06296939417763,3.2002663072188353,1.2576261823666643,A,388.46490000014455,Correct
9,509,359,A,49.73921526588131,77.63680873627523,2.4869607632940656,1.2195161398701906,A,408.5700999994515,Correct
9,509,360,B,58.74305890025437,34.26945724597484,2.9371529450127185,0.5383033756323202,B,402.51050000006217,Correct
9,509,361,B,48.88180382664368,29.199557030427215,2.444090191332184,0.45866556927433166,B,589.8440999999366,Correct
9,509,362,B,69.72112358973695,41.46595576642358,3.4860561794868477,0.6513457100493782,B,463.27240000027814,Correct
9,509,363,B,65.10427256950864,35.05453589403786,3.2552136284754316,0.5506353621985454,B,373.31189999986236,Correct
9,509,364,B,60.05038083484138,52.63150023841095,3.0025190417420684,0.8267336724820065,B,667.1486999994158,Correct
9,509,365,B,80.0996036307037,65.7099637152021,4.004980181535185,1.032169696376654,B,351.8444000001182,Correct
9,509,366,A,19.97251414314191,45.326669820966345,0.9986257071570955,0.7119896646061902,A,386.34300000012445,Correct
9,509,367,B,41.679201164617226,22.522507504001386,2.0839600582308613,0.35378272057495874,B,368.723399999908,Correct
9,509,368,A,43.964663532622914,67.43832432887291,2.198233176631146,1.0593187214099649,A,433.01809999957186,Correct
9,509,369,B,60.15128620533441,43.10468026431807,3.00756431026672,0.677086734268593,B,340.8761999999115,Correct
9,509,370,B,76.22711759638499,45.78842451958007,3.8113558798192493,0.7192428904508175,B,383.65970000086236,Correct
9,509,371,B,50.45836367160788,39.86546604824131,2.5229181835803938,0.6262052763454412,B,340.9255000005942,Correct
9,509,372,B,53.551603251371276,22.813491693310617,2.677580162568564,0.35835348953218205,B,381.2110999997458,Correct
9,509,373,B,66.64874416749635,33.28378640131104,3.3324372083748175,0.522820494210053,B,352.54299999996874,Correct
9,509,374,B,79.8465736455831,49.56476864504027,3.9923286822791555,0.7785615652606811,B,397.2499000001335,Correct
9,509,375,B,86.68200210658134,65.67641737988802,4.334100105329067,1.031642751773766,B,430.640399999902,Correct
9,509,376,B,54.089598059844825,44.855623734224295,2.704479902992241,0.704590489978135,B,433.41249999957654,Correct
9,509,377,A,27.43285599692065,48.86349232067627,1.3716427998460323,0.7675459425168892,A,462.38890000040556,Correct
9,509,378,A,45.538776734463845,76.53506157879423,2.2769388367231924,1.2022099359899119,A,413.5802999999214,Correct
9,509,379,B,84.42296847888363,69.51409673797912,4.221148423944181,1.091924878164827,B,493.0445999998483,Correct
9,509,380,A,19.260772365536006,39.203988196624316,0.9630386182768004,0.6158148065496796,A,340.7948000003671,Correct
9,509,381,B,84.25120446442122,59.0591150119543,4.212560223221061,0.9276984092453514,B,385.48199999968347,Correct
9,509,382,B,31.879988008077998,10.749259216352453,1.5939994004039,0.16884896892812623,B,379.7281999995903,Correct
9,509,383,A,38.63929721482125,60.49019567519834,1.9319648607410624,0.9501777717370609,A,334.2358999998396,Correct
9,509,384,A,48.16491298248089,55.10023222999256,2.4082456491240447,0.8655124239241807,A,376.69589999950404,Correct
9,509,385,B,61.95514926511234,38.208240311240225,3.097757463255617,0.6001736353419285,B,300.3099999996266,Correct
9,509,386,B,52.36771926986545,21.85782310938777,2.6183859634932727,0.34334188251958914,B,386.6975000000821,Correct
9,509,387,B,56.87869695927042,32.821909979603156,2.8439348479635207,0.515565356343534,B,406.5570000002481,Correct
9,509,388,A,64.63182795442356,84.92279648802494,3.2315913977211776,1.3339641678454013,A,480.48709999966377,Correct
9,509,389,A,17.267389109009063,36.36153826771317,0.8633694554504531,0.5711657074753591,A,440.50590000006196,Correct
9,509,390,A,30.55243978602045,40.50736871198829,1.5276219893010223,0.6362882598091774,A,633.9014999994106,Correct
9,509,391,A,35.58405778337038,45.11178694619734,1.7792028891685192,0.7086142923024075,A,360.53590000028635,Correct
9,509,392,B,54.07788266534552,46.27774575423259,2.703894133267276,0.7269291304309667,B,675.8514000002833,Correct
9,509,393,A,45.39722097619431,58.148967469410096,2.2698610488097155,0.9134018450786531,A,386.219600000004,Correct
9,509,394,B,57.51442556749186,30.674219353961007,2.875721278374593,0.4818295108850288,B,371.62089999947057,Correct
9,509,395,A,47.281873424800224,74.83906780479069,2.364093671240011,1.175569328085194,A,357.58499999974447,Correct
9,509,396,B,51.48297976639034,36.24104228585256,2.5741489883195174,0.5692729610183572,B,323.6581999999544,Correct
9,509,397,B,75.84332093093978,57.47632297756206,3.7921660465469893,0.902835970108316,B,394.02440000048955,Correct
9,509,398,A,48.44928150064437,57.19934079180166,2.4224640750322184,0.8984851441085155,A,373.6332999997103,Correct
9,509,399,A,54.81641601971673,83.62836593189512,2.7408208009858366,1.3136313002168032,A,413.34589999951277,Correct
9,509,400,B,72.87465224369154,57.42970999448451,3.6437326121845772,0.9021037750823243,B,378.6327000007077,Correct
9,509,401,B,63.312764500682526,43.478761738835,3.165638225034126,0.6829627923295251,B,407.05010000056063,Correct
9,509,402,B,86.09095337363625,57.90050200040416,4.3045476686818125,0.9094989586181541,B,389.68970000041736,Correct
9,509,403,A,34.57504632076416,55.9612222243873,1.728752316038208,0.879036823130205,A,426.13989999972546,Correct
9,509,404,B,65.5866550525321,45.5336947776295,3.2793327526266047,0.7152416050210038,B,346.6806999995242,Correct
9,509,405,A,26.11998148136837,58.52936008939559,1.3059990740684184,0.9193770383807842,A,327.3436999998012,Correct
9,509,406,B,49.57796218097235,27.444416884545724,2.4788981090486173,0.4310958923327226,B,326.29569999971864,Correct
9,509,407,B,71.0946683128749,60.852953143919535,3.554733415643745,0.9558759527309075,B,458.2039999995686,Correct
9,509,408,B,51.397462938207376,20.253342911925845,2.569873146910369,0.3181387665137057,B,318.34649999927933,Correct
9,509,409,B,60.47372150856574,43.22024831855416,3.023686075428287,0.6789020730194818,B,354.2424999996001,Correct
9,509,410,B,71.22352118029495,52.563449446923954,3.5611760590147474,0.8256647331489739,B,347.34149999985675,Correct
9,509,411,B,73.84256052656293,63.66373993559178,3.6921280263281466,1.0000276884085313,B,450.22120000066934,Correct
9,509,412,A,47.594766769120305,58.55831939491094,2.3797383384560153,0.9198319300880845,A,420.4861999996865,Correct
9,509,413,B,44.371249211364784,30.527368143095245,2.218562460568239,0.4795227774588956,B,354.0254999998069,Correct
9,509,414,A,25.032693048567314,37.825559361045535,1.2516346524283657,0.5941624970329263,A,433.74539999967965,Correct
9,509,415,A,36.886203534341576,49.8361575708539,1.8443101767170789,0.7828245325386898,A,426.8685999995796,Correct
9,509,416,B,33.70088192913347,17.462517870119957,1.6850440964566735,0.2743005892697467,B,371.1720000001151,Correct
9,509,417,B,34.49267636344705,10.82582434628214,1.7246338181723528,0.17005165117666746,B,368.4686000005968,Correct
9,509,418,B,59.566354195226275,31.406551691360974,2.978317709761314,0.4933329603408386,B,416.99030000017956,Correct
9,509,419,B,67.80684151753641,39.430996364223915,3.390342075876821,0.6193806425078585,B,355.5089000001317,Correct
9,509,420,B,70.80286378169401,44.22745710191407,3.5401431890847004,0.6947232715916548,B,347.50589999930526,Correct
9,509,421,B,57.18817083738722,35.65544527414248,2.859408541869361,0.5600744246685946,B,352.99990000021353,Correct
9,509,422,B,76.58964013826699,63.28186261702831,3.8294820069133495,0.9940291735156734,B,438.01819999953295,Correct
9,509,423,B,76.10480178259725,48.092272072719894,3.805240089129862,0.7554316431904918,B,344.802399999935,Correct
9,509,424,B,43.36569382459146,27.715173586490728,2.168284691229573,0.43534892866142577,B,449.0702999992209,Correct
9,509,425,B,71.76573377372787,41.44308548775741,3.5882866886863938,0.6509864645521622,B,386.4711000005627,Correct
9,509,426,A,32.39246813148023,52.06965409051074,1.6196234065740114,0.8179082138285513,A,375.6774999992558,Correct
9,509,427,A,35.51704376284954,56.391299060443984,1.775852188142477,0.8857924542733792,A,386.7835999999443,Correct
9,509,428,A,32.357430708342264,41.705042868939366,1.6178715354171131,0.6551012814735364,A,400.56989999993675,Correct
9,509,429,A,58.59878830033816,79.65980016086412,2.9299394150169076,1.2512932148590086,A,394.5430999992823,Correct
9,509,430,B,48.179589241826335,20.149333780180704,2.4089794620913167,0.31650499489272177,B,377.989599999637,Correct
9,509,431,A,12.083107555591013,37.78949446545752,0.6041553777795506,0.5935959909777675,A,354.28310000042984,Correct
9,509,432,A,22.419516456361706,46.494555959446046,1.1209758228180853,0.7303347771705763,A,368.66180000015447,Correct
9,509,433,A,63.21356688788103,86.60252340401902,3.1606783443940514,1.3603492565420212,A,399.5642999998381,Correct
9,509,434,B,42.44220543575375,19.85951070766999,2.1221102717876876,0.3119524647155194,B,375.5890000002182,Correct
9,509,435,A,39.09505483002725,65.30535606289953,1.9547527415013628,1.025814134236354,A,408.7013000007573,Correct
9,509,436,A,29.37067645913463,56.26094751607035,1.4685338229567315,0.8837448970024376,A,301.1321999993015,Correct
9,509,437,B,69.22759181993284,56.2487945940352,3.4613795909966423,0.8835539993495113,B,399.86989999943034,Correct
9,509,438,B,65.75996250140196,39.55579757749659,3.287998125070098,0.6213410153817411,B,387.2174999996787,Correct
9,509,439,A,51.28113399756501,76.2539308681929,2.5640566998782504,1.1977939451142938,A,380.887199999961,Correct
9,509,440,B,37.47419762161752,13.548321996126983,1.873709881080876,0.21281654425750765,B,326.00749999983236,Correct
9,509,441,A,22.85531122828778,43.69628978343964,1.1427655614143888,0.6863797148639235,A,397.49360000041634,Correct
9,509,442,B,64.46495992290232,54.31659372161066,3.2232479961451164,0.8532030590191676,B,520.2567000005729,Correct
9,509,443,A,44.65018635217947,72.57119936135516,2.2325093176089736,1.1399457338791683,A,453.2401000005848,Correct
9,509,444,B,48.61184647354244,19.91268425988081,2.4305923236771223,0.31278771292047336,B,350.3547999998773,Correct
9,509,445,A,61.516656546342546,86.21888434146615,3.0758328273171274,1.3543230682392906,A,345.6851999999344,Correct
9,509,446,B,77.61372563337581,60.35093300111552,3.8806862816687904,0.9479902387679716,B,499.90619999971386,Correct
9,509,447,A,47.2288429168689,73.17465182050643,2.361442145843445,1.14942474294147,A,371.6717000006611,Correct
9,509,448,A,58.230149214636356,76.80383288428186,2.911507460731818,1.2064317857839901,A,358.18319999998494,Correct
9,509,449,A,62.839778743908255,81.11011599612787,3.141988937195413,1.2740747227262563,A,359.5267000000604,Correct
9,509,450,A,36.50286069122965,69.34468589655994,1.8251430345614823,1.089263778890622,A,410.2960999998686,Correct
9,509,451,A,56.45684931070022,75.48841629702773,2.8228424655350115,1.1857692703493516,A,346.8880000000354,Correct
9,509,452,B,61.887126599441345,53.31068671180101,3.094356329972067,0.8374023086581052,B,729.5335000007981,Correct
9,509,453,B,36.14511274209708,17.357255689928397,1.807255637104854,0.27264713480979347,B,430.5004000007102,Correct
9,509,454,B,62.66448717070475,45.70657259763432,3.1332243585352377,0.7179571634674826,B,373.120100000051,Correct
9,509,455,A,63.43590599710856,87.85450115640027,3.171795299855428,1.3800152770887157,A,425.03409999972064,Correct
9,509,456,B,76.04088828070641,52.45522571304259,3.8020444140353207,0.823964758712445,B,386.9807999999466,Correct
9,509,457,B,38.473267863636636,12.90586522502916,1.9236633931818319,0.20272485689585795,B,389.199400000507,Correct
9,509,458,B,73.4521435563054,53.01652196538942,3.67260717781527,0.8327815796267465,B,392.5257999999303,Correct
9,509,459,B,58.18722383912722,34.81970291162841,2.9093611919563607,0.5469466143367547,B,363.291499999832,Correct
9,509,460,B,75.55186881620799,52.11415909990349,3.777593440810399,0.8186072968813324,B,378.2158000003619,Correct
9,509,461,A,61.19698261351109,80.24214511498528,3.0598491306755546,1.2604406680076192,A,466.2365000003774,Correct
9,509,462,B,33.85307292184633,20.963136204405835,1.6926536460923165,0.329288173479818,B,361.6857000006348,Correct
9,509,463,B,67.9247618654796,35.052434826565275,3.3962380932739795,0.5506023587078624,B,399.79239999956917,Correct
9,509,464,B,75.58607242149112,50.59884587398524,3.779303621074556,0.7948048123891712,B,376.06049999976676,Correct
9,509,465,B,62.09474587961489,29.34331611288877,3.1047372939807447,0.4609237316610718,B,387.95699999991484,Correct
9,509,466,A,43.25469611160348,52.17252649418156,2.162734805580174,0.8195241297666982,A,460.79869999994116,Correct
9,509,467,A,38.096742516234585,63.448578091906434,1.9048371258117294,0.9966479340712578,A,442.0356000000538,Correct
9,509,468,A,52.69120554550564,61.940920076187105,2.634560277275282,0.9729656973397097,A,448.403800000051,Correct
9,509,469,B,43.91158407087411,19.58495543004011,2.195579203543706,0.30763976049948766,B,369.5348000001104,Correct
9,509,470,A,22.454826695140607,45.155647836184585,1.1227413347570303,0.7093032575512267,A,355.21590000007564,Correct
9,509,471,B,83.21395743003046,66.75951803271747,4.160697871501523,1.0486560570439027,B,377.292999999554,Correct
9,509,472,B,82.53045929671944,63.57466285453235,4.126522964835972,0.9986284688912336,B,409.3043000002581,Correct
9,509,473,B,82.31463929323118,59.28456390851792,4.115731964661559,0.9312397522313725,B,391.6519000003973,Correct
9,509,474,A,17.139919259589824,38.977176521035354,0.8569959629794911,0.6122520570807862,A,375.6444000000556,Correct
9,509,475,B,70.399694718954,39.72465635191691,3.5199847359476997,0.6239934428078064,B,338.7259000000995,Correct
9,509,476,B,43.124130055128724,15.278310678916306,2.156206502756436,0.23999114294072976,B,413.49760000048263,Correct
9,509,477,A,30.06288355943516,53.45929131238794,1.503144177971758,0.8397365842655731,A,389.76519999960146,Correct
9,509,478,A,48.38132545788481,66.17078629646696,2.419066272894241,1.0394082805562037,A,360.8515999994779,Correct
9,509,479,A,14.365317182185368,37.99801805114893,0.7182658591092683,0.5968714718023092,A,409.672199999477,Correct
9,509,480,A,35.437592548318804,65.81163649753599,1.7718796274159403,1.0337667687069048,A,377.70799999998417,Correct
9,509,481,A,27.186822115051452,44.38631160154452,1.3593411057525726,0.6972185522367984,A,326.4104000008956,Correct
9,509,482,B,30.297837767025857,14.786498250952665,1.5148918883512927,0.23226577138755608,B,361.98310000145284,Correct
9,509,483,B,63.33683985504754,44.30538204308112,3.166841992752377,0.6959473137051638,B,414.695199999187,Correct
9,509,484,A,55.431024441635444,79.6896701758506,2.771551222081772,1.2517624119572293,A,422.4297000000661,Correct
9,509,485,A,42.12042190712001,69.2235547381882,2.1060210953560006,1.0873610551043147,A,393.20950000001176,Correct
9,509,486,B,61.9490056131991,49.84749116235983,3.0974502806599546,0.7830025601777589,B,361.8182000009256,Correct
9,509,487,B,75.033881556147,46.953125572294596,3.7516940778073495,0.7375379718049988,B,397.39729999928386,Correct
9,509,488,A,50.465633062939794,67.6899368189501,2.5232816531469897,1.0632710411618544,A,418.6635000005481,Correct
9,509,489,A,59.70438555429828,78.62601928839256,2.985219277714914,1.235054622887117,A,388.2984000010765,Correct
9,509,490,B,53.745945324827865,38.21956163862884,2.6872972662413934,0.6003514703366932,B,354.3941999996605,Correct
9,509,491,B,88.58518738469503,65.66841127626947,4.429259369234751,1.0315169921922065,B,471.92639999957464,Correct
9,509,492,A,45.361881344633744,69.69962550534291,2.268094067231687,1.0948391572277254,A,435.5448999995133,Correct
9,509,493,B,74.01596628529208,47.11654019856641,3.700798314264604,0.740104882751922,B,372.6470000001427,Correct
9,509,494,B,71.78031909664485,51.775298433190216,3.5890159548322424,0.8132844859756476,B,349.49799999958486,Correct
9,509,495,B,71.5196168506172,58.94997099102924,3.5759808425308597,0.9259839789737446,B,347.33330000017304,Correct
9,509,496,A,24.163063900703612,44.5094607735095,1.2081531950351805,0.6991529749065026,A,407.20449999935227,Correct
9,509,497,B,86.32237817894406,67.53805241655627,4.316118908947203,1.0608852465480776,B,315.07199999941804,Correct
9,509,498,B,39.00248034526069,16.035993743510428,1.9501240172630347,0.25189280068812125,B,404.7437000008358,Correct
9,509,499,A,62.171485666390474,74.04643795008823,3.1085742833195233,1.1631187274424484,A,457.4333000000479,Correct
9,509,500,A,14.031376506371874,30.23453025476235,0.7015688253185937,0.4749228906654987,A,426.86979999962205,Correct
9,509,501,B,66.49062982068936,41.230732106747986,3.3245314910344685,0.6476508254434414,B,360.08959999890067,Correct
9,509,502,B,64.25473517064064,45.6059546539602,3.212736758532032,0.7163766605041529,B,370.05580000004556,Correct
9,509,503,A,44.489580808684806,64.53058281927497,2.2244790404342405,1.01364402458451,A,479.31160000007367,Correct
9,509,504,A,62.42243770564714,81.8850489102682,3.1211218852823572,1.2862473404766972,A,554.9160000009579,Correct
9,509,505,B,48.04847292807668,38.73451705607715,2.4024236464038338,0.6084403711186025,B,527.055399999881,Correct
9,509,506,A,52.91482164167591,69.45206108273828,2.6457410820837954,1.0909504243710009,A,421.7263999998977,Correct
9,509,507,A,67.42312223243262,81.55949134484524,3.3711561116216306,1.2811334941974306,A,416.7503000007855,Correct
9,509,508,A,64.48946069359818,85.78104611098195,3.224473034679909,1.347445521397541,A,407.3920000009821,Correct
9,509,509,A,60.93941590035418,79.81103268151242,3.0469707950177085,1.2536687697382713,A,370.44779999996535,Correct
9,509,510,A,28.56986231862383,50.465822473263415,1.4284931159311915,0.7927152856968552,A,431.1548000005132,Correct
9,509,511,A,29.41013379610841,58.1287863273026,1.4705066898054207,0.9130848404397234,A,371.84569999953965,Correct
9,509,512,A,31.911172700496184,55.955620626573854,1.5955586350248092,0.8789488334375096,A,355.31730000002426,Correct
9,509,513,A,43.024563848173784,60.07386397845757,2.151228192408689,0.9436380487373739,A,369.13280000044324,Correct
9,509,514,A,54.333015767560354,81.5911345126455,2.716650788378018,1.2816305439149187,A,438.3810999988782,Correct
9,509,515,A,51.82551356164725,78.81001213124074,2.5912756780823623,1.237944775704142,A,384.59770000008575,Correct
9,509,516,A,63.623463033538485,82.97713895196628,3.181173151676924,1.3034018507369836,A,400.334699999803,Correct
9,509,517,B,65.99234444518606,42.54852755247885,3.299617222259303,0.6683507078996522,B,451.94619999892893,Correct
9,509,518,A,42.106077476535745,61.956953597549294,2.105303873826787,0.9732175513043227,A,447.7950000000419,Correct
9,509,519,B,80.41902084458617,66.94993259133703,4.020951042229308,1.0516470819363815,B,424.1132999995898,Correct
9,509,520,A,47.21189961251948,66.64030595691919,2.360594980625974,1.0467834781361673,A,378.0444999993051,Correct
9,509,521,B,64.24340889611702,37.839546501083944,3.212170444805851,0.5943822065148735,B,388.8643999998749,Correct
9,509,522,B,37.6299653905092,16.813983583013957,1.8814982695254598,0.2641134365098802,B,437.15460000021267,Correct
9,509,523,A,55.36492650232693,75.6845270840088,2.7682463251163467,1.1888497713876989,A,439.03839999984484,Correct
9,509,524,A,36.40964015383285,60.91172862743303,1.8204820076916421,0.9567991958669934,A,362.11720000028436,Correct
9,509,525,B,43.66814308113507,20.555501929691214,2.1834071540567535,0.3228850692658437,B,374.2951999993238,Correct
9,509,526,B,73.98086085427553,47.22421384284025,3.6990430427137766,0.7417962164011018,B,392.5171999999293,Correct
9,509,527,A,30.430133967229388,56.61113203340661,1.5215066983614693,0.88924558253776,A,343.9650000000256,Correct
9,509,528,B,36.559598193292956,19.528968359517876,1.8279799096646479,0.3067603176522444,B,358.88150000027963,Correct
9,509,529,A,29.404671792882365,38.5817650896543,1.470233589644118,0.6060409488409254,A,372.1224999990227,Correct
9,509,530,A,59.34049271558467,74.24221970617084,2.9670246357792336,1.1661940600755285,A,460.4331999998976,Correct
9,509,531,B,82.46885350005391,51.87568027420005,4.123442675002695,0.8148612802469992,B,343.7675000004674,Correct
9,509,532,A,41.529952630108134,65.92965495530841,2.076497631505407,1.0356205983065339,A,358.103000000483,Correct
9,509,533,A,44.83297874886463,69.95266784176036,2.2416489374432316,1.0988139369534065,A,408.89189999870723,Correct
9,509,534,B,53.80644583680365,30.749597155653483,2.690322291840182,0.48301354262523294,B,369.7418000010657,Correct
9,509,535,A,28.81319289713064,54.92299981744864,1.440659644856532,0.8627284636980511,A,331.4186999996309,Correct
9,509,536,B,54.931548092434596,41.254194363365386,2.7465774046217297,0.6480193697085708,B,364.000000001397,Correct
9,509,537,A,55.011387432103014,79.31339759736419,2.7505693716051507,1.2458519361156284,A,361.50500000076136,Correct
9,509,538,B,71.02555243280406,56.564747713773876,3.5512776216402027,0.8885169793487603,B,337.25670000058017,Correct
9,509,539,B,43.293830722861884,22.983029261678393,2.1646915361430943,0.36101657942864046,B,357.39099999955215,Correct
9,509,540,B,68.26902440261053,53.60433153962485,3.413451220130526,0.8420148708273855,B,399.08920000016224,Correct
9,509,541,A,24.00690027975174,38.9685747124833,1.2003450139875869,0.6121169401880127,A,404.60999999959313,Correct
9,509,542,A,36.913102874304805,44.43588141005584,1.8456551437152402,0.6979971929680934,A,542.2748000000865,Correct
9,509,543,B,66.97779753492186,41.19333578509821,3.3488898767460933,0.6470634053966104,B,396.6313999990234,Correct
9,509,544,B,51.337284250256886,21.03616318478042,2.566864212512844,0.3304352786051111,B,358.5841000003711,Correct
9,509,545,A,68.26277462694932,81.28990387921272,3.4131387313474657,1.2768988241897756,A,402.74890000000596,Correct
9,509,546,B,74.25089279168654,62.149200285816335,3.7125446395843267,0.9762373552220064,B,409.6706999989692,Correct
9,509,547,A,48.993132649487066,79.4632187188598,2.449656632474353,1.2482053207888444,A,368.82189999960246,Correct
9,509,548,B,77.73190900574389,51.69756394600831,3.8865954502871944,0.8120634355063413,B,343.1927000001451,Correct
9,509,549,B,76.96892749668888,54.16217694969728,3.848446374834444,0.8507774860379971,B,364.1921000016737,Correct
