subject,day,trial,cat,x,y,xt,yt,resp,rt,fb
13,113,0,A,28.908873685911317,42.87776545621473,1.4454436842955658,0.6735223647979521,A,1843.1135999999242,Correct
13,113,1,A,35.61823690171945,54.315215601376494,1.7809118450859724,0.8531814115571505,A,1859.3806999997469,Correct
13,113,2,A,53.80978204764821,78.87731647977769,2.690489102382411,1.2390019899387335,A,2298.877100000027,Correct
13,113,3,B,62.43722185875862,36.82099634323564,3.121861092937931,0.5783828580488287,A,1137.7959999999803,Incorrect
13,113,4,A,64.11994782720323,78.98351062383338,3.205997391360162,1.2406700836528315,A,2059.7382999994807,Correct
13,113,5,A,19.642342264401872,40.255101517203514,0.9821171132200937,0.6323256559797894,B,1171.238099999755,Incorrect
13,113,6,A,69.89362721662192,86.84594724915347,3.494681360831096,1.364172949359936,A,1032.770700000583,Correct
13,113,7,B,65.62995743106342,48.55729260878117,3.281497871553171,0.7627361686897843,A,1183.3959000005052,Incorrect
13,113,8,B,39.28446998346402,18.78311301785367,1.964223499173201,0.29504444934217944,A,654.0552000005846,Incorrect
13,113,9,A,32.89492978950536,57.252799479055405,1.6447464894752681,0.89932487120425,A,1738.499399999455,Correct
13,113,10,A,27.91612202524054,47.10783741823401,1.395806101262027,0.7399681797981318,A,1129.126599999836,Correct
13,113,11,A,52.10348358820857,63.5266691842184,2.605174179410428,0.9978745860808481,B,787.372900000264,Incorrect
13,113,12,B,42.28953195258875,24.620522501591935,2.1144765976294377,0.38673826309271714,B,757.0377000001827,Correct
13,113,13,B,59.37987074595232,46.5749475591837,2.9689935372976155,0.7315975654663069,A,942.1241999998529,Incorrect
13,113,14,B,84.59225427993513,57.13476899856197,4.229612713996756,0.8974708527521608,B,1399.837999999363,Correct
13,113,15,B,66.19275575430628,44.38174948035656,3.309637787715314,0.6971468906047539,B,1230.1572999995187,Correct
13,113,16,B,54.586988780989365,29.015258582114782,2.729349439049468,0.4557706160179,A,1164.5532000002277,Incorrect
13,113,17,A,24.356803415240613,37.23614153806072,1.2178401707620308,0.5849039435200064,A,616.7277000004106,Correct
13,113,18,A,51.88996727427358,76.16158166637965,2.594498363713679,1.196343327244387,B,1062.258799999654,Incorrect
13,113,19,A,47.522641451049154,70.36226153374288,2.3761320725524575,1.1052478196218516,A,992.772700000387,Correct
13,113,20,B,59.92478900011934,39.565931879832654,2.996239450005967,0.6215002046305823,A,1202.6736999996501,Incorrect
13,113,21,B,70.81612838705735,54.52915363343327,3.5408064193528674,0.8565419423063158,A,767.6928000000771,Incorrect
13,113,22,A,44.044907963943324,55.19793477007364,2.2022453981971664,0.8670471318349598,B,591.99339999941,Incorrect
13,113,23,B,68.9020984267129,47.06639261148337,3.445104921335645,0.7393171662960454,A,1317.258199999742,Incorrect
13,113,24,A,29.729830085043794,45.28322703077314,1.4864915042521898,0.7113072668535781,A,663.2098000000042,Correct
13,113,25,B,67.78533623568272,42.24168158796281,3.389266811784136,0.6635307827601159,A,1172.473099999479,Incorrect
13,113,26,A,28.417959687714568,39.829905912549265,1.4208979843857283,0.6256466990401872,A,1611.9158000001335,Correct
13,113,27,B,44.707953996113964,19.505444517708817,2.235397699805698,0.30639080600918667,B,2519.5079000004625,Correct
13,113,28,A,52.98951292404799,67.26204013010738,2.6494756462024,1.0565496556910359,A,633.4914999997636,Correct
13,113,29,B,86.6322073741922,58.790467007583004,4.33161036870961,0.9234784962606793,B,2213.429299999916,Correct
13,113,30,A,44.22860836767037,56.999294090740484,2.2114304183835185,0.8953428178763722,A,851.7643999994107,Correct
13,113,31,A,63.45566946011653,85.3454937029335,3.1727834730058264,1.3406038801706492,A,940.3267999996388,Correct
13,113,32,B,72.30882710813722,43.75493010641638,3.615441355406861,0.6873008349032628,B,1331.249800000478,Correct
13,113,33,B,37.23915138969737,17.481784077581395,1.8619575694848687,0.2746032221488636,A,928.2209000002695,Incorrect
13,113,34,B,75.15908053563587,63.322842018152045,3.7579540267817935,0.9946728764432676,A,823.4061000002839,Incorrect
13,113,35,B,74.19957353683915,51.41445657329788,3.7099786768419576,0.8076163952949205,B,537.3725999997987,Correct
13,113,36,B,52.16135805892364,42.47593695227238,2.6080679029461815,0.6672104574180107,B,566.330100000414,Correct
13,113,37,B,30.476666572377983,14.055249755503628,1.5238333286188992,0.22077934688129966,A,1139.8981000002095,Incorrect
13,113,38,A,23.54252860858376,48.73928733890797,1.1771264304291877,0.7655949352255765,A,1378.242599999794,Correct
13,113,39,A,40.54553274113542,59.47295777403112,2.027276637056771,0.9341990361507609,A,638.1311000004644,Correct
13,113,40,A,38.37405852464996,66.80704447175651,1.9187029262324982,1.0494026006025843,A,574.6837000006053,Correct
13,113,41,B,87.01070254367077,65.66715926036834,4.350535127183539,1.0314973255724205,A,800.3374999998414,Incorrect
13,113,42,B,64.97527951971185,45.29077246287348,3.2487639759855926,0.7114257902238511,B,1070.201300000008,Correct
13,113,43,B,41.7121695166434,32.795083269944065,2.08560847583217,0.5151439633736091,A,758.2077999995818,Incorrect
13,113,44,B,76.316069972555,53.54334691001539,3.81580349862775,0.8410569265055704,A,562.355000000025,Incorrect
13,113,45,B,52.06645619474665,28.54177545627014,2.6033228097373327,0.44833316046913874,A,616.4387000007991,Incorrect
13,113,46,A,66.08093578478955,84.26734242307539,3.304046789239477,1.3236683194693457,B,634.0978999996878,Incorrect
13,113,47,B,81.2213943031283,62.25463678158347,4.061069715156416,0.9778935478246178,B,445.44150000001537,Correct
13,113,48,B,64.41908509841858,32.116980565679896,3.2209542549209287,0.5044923510031306,A,889.3324000000575,Incorrect
13,113,49,A,26.927781042252917,52.475527845565,1.3463890521126458,0.824283663864368,A,822.3205000003873,Correct
13,113,50,A,46.08504070062328,71.04549571844962,2.3042520350311637,1.1159800370986321,A,826.7515999996249,Correct
13,113,51,B,42.62165588371906,20.07472164734951,2.1310827941859527,0.3153329902508661,A,761.8923999998515,Incorrect
13,113,52,A,49.03037440913573,78.21338204150021,2.4515187204567868,1.2285729321699446,B,1209.662300000673,Incorrect
13,113,53,B,62.971021659600616,54.220801126628174,3.1485510829800307,0.8516983524558414,B,1088.6123999998745,Correct
13,113,54,B,56.007657236454136,24.54611171105537,2.8003828618227065,0.38556942112822973,A,871.1933000004137,Incorrect
13,113,55,B,50.01019548764008,37.273776070560636,2.5005097743820044,0.5854951053741216,A,501.0370999998486,Incorrect
13,113,56,B,86.4742630543885,67.57406337110825,4.323713152719425,1.0614509052994239,B,1809.4506999996156,Correct
13,113,57,B,71.57683296822793,44.546785267600924,3.5788416484113963,0.6997392666886855,B,554.8581000002741,Correct
13,113,58,A,32.10535506323026,46.9966355213644,1.6052677531615132,0.7382214244867776,A,666.8978999996398,Correct
13,113,59,B,71.33520846372701,53.290364519390195,3.5667604231863503,0.8370830884061919,B,539.7507999996378,Correct
13,113,60,A,40.251879315706304,48.259396269908116,2.012593965785315,0.7580568239411101,A,889.2786999995224,Correct
13,113,61,B,49.56644193350747,32.77537015327845,2.4783220966753734,0.5148343104611288,A,613.151900000048,Incorrect
13,113,62,A,30.563027663786663,43.926575457448514,1.5281513831893332,0.6899970337723897,B,866.4056999996319,Incorrect
13,113,63,B,63.96686920373707,51.55869469668513,3.1983434601868534,0.8098820824389251,A,1385.33710000047,Incorrect
13,113,64,B,40.17241353968818,14.100319962486825,2.008620676984409,0.2214873080370706,A,518.6030999993818,Incorrect
13,113,65,B,75.1855805160447,49.47940975333371,3.759279025802235,0.7772207509251619,B,707.5634000002538,Correct
13,113,66,B,32.60773473133565,16.58380738767727,1.6303867365667823,0.2604978372883752,B,924.1399000002275,Correct
13,113,67,A,67.35384490324097,79.56492422026739,3.367692245162049,1.249802907069103,A,491.9165000001158,Correct
13,113,68,B,49.90332368659901,25.070390314724392,2.4951661843299506,0.3938047701768343,A,454.37099999981,Incorrect
13,113,69,A,37.84032410615869,50.192798063132535,1.8920162053079344,0.7884266282912658,A,1190.684400000464,Correct
13,113,70,B,83.98426314800253,67.12976109988665,4.199213157400126,1.054471821543209,B,585.9647000006589,Correct
13,113,71,A,61.27735918154458,74.65903663680601,3.063867959077229,1.1727414051114047,B,624.093499999617,Incorrect
13,113,72,A,55.20098045774469,71.17758286882318,2.7600490228872343,1.118054857204868,B,632.9227999995055,Incorrect
13,113,73,A,45.7808120071166,62.74285775433227,2.28904060035583,0.9855625049311982,A,773.6227000004874,Correct
13,113,74,B,65.27160909597254,39.87734537291116,3.2635804547986265,0.6263918763410031,B,1236.5789000004952,Correct
13,113,75,A,45.42047051240124,74.05532723855914,2.2710235256200617,1.1632583600592277,A,652.3245999997016,Correct
13,113,76,B,48.04965059456225,25.87676236218271,2.4024825297281125,0.40647123267861035,A,537.5592999998844,Incorrect
13,113,77,A,13.485914303681266,35.0969900673978,0.6742957151840634,0.5513022307942543,B,1254.8245999996652,Incorrect
13,113,78,B,69.69803253021304,52.93352625886675,3.484901626510652,0.831477886117291,B,1212.9151000008278,Correct
13,113,79,B,61.8992863958972,41.68654462210505,3.09496431979486,0.6548107116917417,B,812.3808000000281,Correct
13,113,80,B,44.384936336681946,34.65996056758238,2.2192468168340973,0.5444373874641436,A,956.1095999997633,Incorrect
13,113,81,A,30.638279183714936,44.91321602082622,1.5319139591857467,0.7054951475005953,A,1246.6309999999794,Correct
13,113,82,A,62.51087724776882,81.7981413819107,3.1255438623884406,1.2848822002135494,B,1857.1559000001798,Incorrect
13,113,83,B,59.7021897345553,31.75389577405671,2.9851094867277648,0.4987890284331627,A,587.0871000006446,Incorrect
13,113,84,A,61.96410094919977,75.63128914320237,3.0982050474599885,1.1880135117690502,B,744.9015000001964,Incorrect
13,113,85,B,46.24317832590962,26.388412391756006,2.312158916295481,0.4145082125491926,A,598.4333999995215,Incorrect
13,113,86,B,40.38373729564137,29.115413955330688,2.0191868647820685,0.4573438529414631,B,910.4725999995935,Correct
13,113,87,B,74.70130435586765,63.99512793031384,3.7350652177933825,1.0052331188570647,A,942.464500000824,Incorrect
13,113,88,B,59.08202179458181,32.9827829831609,2.954101089729091,0.5180923435742236,B,1477.643899999748,Correct
13,113,89,B,71.04375129371822,41.65383497894579,3.552187564685911,0.6542969098184883,B,1232.980900000257,Correct
13,113,90,B,45.182107031683465,28.11487792216112,2.2591053515841732,0.4416274696841762,A,901.3849000002665,Incorrect
13,113,91,A,63.82129972217592,81.53328215829167,3.1910649861087963,1.2807218012577641,B,950.5017999999836,Incorrect
13,113,92,A,17.38892451699235,45.102560770958405,0.8694462258496175,0.7084693678806506,A,1631.1322999999902,Correct
13,113,93,A,54.832742826632824,75.62773227253784,2.7416371413316414,1.187957640575303,A,1392.533199999889,Correct
13,113,94,B,69.17342089011802,41.26322777350816,3.458671044505901,0.6481612661832779,B,842.7782999997362,Correct
13,113,95,A,29.16349625681518,61.35675118367093,1.4581748128407588,0.9637895938337873,A,944.5275999996738,Correct
13,113,96,A,34.659274803847154,57.149238760401026,1.7329637401923577,0.8976981432396245,A,673.1268000003183,Correct
13,113,97,B,51.88757722566491,40.9219555033627,2.594378861283246,0.6428005738994633,B,723.6284000000524,Correct
13,113,98,B,53.46881760775419,40.65720740961828,2.6734408803877097,0.6386419205676664,A,1932.4808999999732,Incorrect
13,113,99,A,38.42933773631096,69.25809097452616,1.9214668868155482,1.0879035490361246,B,675.6814999998824,Incorrect
13,113,100,B,80.02038580116471,53.16959957221747,4.0010192900582355,0.835186117051947,B,1457.2011000000202,Correct
13,113,101,A,30.001287095139176,51.53209028260392,1.5000643547569588,0.8094641812797722,A,623.284600000261,Correct
13,113,102,B,55.094391133656345,41.26192923290475,2.7547195566828173,0.6481408687551774,A,763.7249999997948,Incorrect
13,113,103,B,79.28197135020953,66.0418354305837,3.9640985675104763,1.0373827250915395,B,559.9025000001348,Correct
13,113,104,B,74.9305493756573,49.797653750851616,3.7465274687828645,0.7822197159484181,A,767.33189999959,Incorrect
13,113,105,A,37.670260236754174,46.610925624382595,1.8835130118377088,0.7321627075929031,B,654.5069000003423,Incorrect
13,113,106,B,49.38795395611902,27.75732728907746,2.469397697805951,0.4360110774732662,B,750.5626000001939,Correct
13,113,107,A,16.564562050495695,37.75045400933096,0.8282281025247847,0.5929827449269675,A,1278.8426000006439,Correct
13,113,108,B,36.48841395071338,16.175008331676285,1.824420697535669,0.25407643673273955,B,922.1894999991491,Correct
13,113,109,A,36.72691844942921,53.59647757754066,1.8363459224714607,0.8418915010794592,B,1161.3600999999107,Incorrect
13,113,110,A,27.978363511140785,42.083969446864586,1.3989181755570395,0.6610534462408355,A,775.184199999785,Correct
13,113,111,B,77.21878891657025,48.135493856806804,3.8609394458285125,0.7561105693873044,B,923.0640999994648,Correct
13,113,112,B,56.29090485972491,27.458940924509406,2.8145452429862456,0.4313240354189744,A,647.7794999991602,Incorrect
13,113,113,A,32.22798493578103,42.97171378423049,1.6113992467890514,0.6749981016835087,B,742.1205000000555,Incorrect
13,113,114,B,75.07104980334186,56.46167430141901,3.753552490167093,0.8868979059735878,B,773.025499999676,Correct
13,113,115,B,55.4766764064332,35.82935182641391,2.7738338203216597,0.56280614240373,A,1532.2467999994842,Incorrect
13,113,116,B,39.751681544229285,15.6249622543099,1.9875840772114644,0.24543633315378896,B,1381.9702999999208,Correct
13,113,117,B,63.61289230666199,38.98459034271891,3.1806446153330996,0.6123685131194667,B,618.0911999999807,Correct
13,113,118,A,48.237747110308746,59.13291648611604,2.4118873555154376,0.9288576800906045,A,1069.1090999998778,Correct
13,113,119,A,26.296290376618835,43.71592294072082,1.3148145188309417,0.6866881117773302,B,880.7463999992251,Incorrect
13,113,120,B,63.852891427762785,37.713917816217574,3.192644571388139,0.5924088357475916,B,1766.009099999792,Correct
13,113,121,B,72.98850958553042,40.799057941525774,3.6494254792765215,0.6408701035124084,B,1017.0389000004434,Correct
13,113,122,B,52.88867925019788,39.00160651715113,2.644433962509894,0.612635802562409,A,1546.7231999991782,Incorrect
13,113,123,A,24.937291019602906,51.01460527650802,1.2468645509801453,0.8013355458123035,A,753.6157000004096,Correct
13,113,124,A,49.717797704135805,63.647900720201314,2.4858898852067903,0.9997788865949846,B,814.6388999994087,Incorrect
13,113,125,A,41.15971399383038,71.15610641124104,2.0579856996915193,1.117717505798042,A,576.8717000000834,Correct
13,113,126,B,43.76309073069026,21.541696580834106,2.188154536534513,0.33837617862104397,B,1827.3641999994652,Correct
13,113,127,A,24.316400798900105,51.781497690880585,1.2158200399450052,0.8133818636877364,A,1037.0441000004575,Correct
13,113,128,A,28.51561060135857,45.35344093215787,1.4257805300679285,0.7124101842374291,B,1019.1250999996555,Incorrect
13,113,129,A,14.245303135354067,39.29131682986409,0.7122651567677033,0.6171865615128501,A,623.5587999999552,Correct
13,113,130,A,33.491659025688655,48.68963774160388,1.6745829512844326,0.7648150411748553,B,1291.1590999992768,Incorrect
13,113,131,A,31.487839193240404,44.01498689048383,1.5743919596620202,0.6913857973149752,A,1178.343099999438,Correct
13,113,132,B,74.2756882344828,57.76220019536184,3.71378441172414,0.9073265189446584,B,764.0304000005926,Correct
13,113,133,A,17.96717091020624,38.039822881936104,0.8983585455103119,0.5975281405487369,A,799.638600000435,Correct
13,113,134,B,70.18280211607684,47.32715879322749,3.5091401058038425,0.7434132719004053,B,798.7921000003553,Correct
13,113,135,A,56.99742957936047,64.78760053335824,2.8498714789680237,1.0176812493965421,B,1035.2624999995896,Incorrect
13,113,136,A,28.127853948319313,39.61148950639564,1.4063926974159657,0.6222158221552087,A,584.486000000652,Correct
13,113,137,B,71.7490386754287,54.39698657616704,3.5874519337714346,0.8544658670255448,B,915.8257999997659,Correct
13,113,138,B,59.61494564060895,52.019396426834405,2.9807472820304475,0.8171187682935905,B,609.921299999769,Correct
13,113,139,A,31.124643380994954,59.88589547431613,1.5562321690497476,0.9406854463787889,A,528.8252000000284,Correct
13,113,140,B,36.86766004617643,14.107422754101194,1.8433830023088218,0.22159887842684894,B,1289.4230000001698,Correct
13,113,141,A,46.51799647875835,74.89929339200319,2.325899823937917,1.1765153493969187,A,1252.151199999389,Correct
13,113,142,B,62.68593766718952,35.16126383387312,3.134296883359476,0.5523118407571413,B,734.9358999999822,Correct
13,113,143,B,46.83268105347611,28.49815163403062,2.3416340526738053,0.44764791907179274,B,783.8103000003684,Correct
13,113,144,A,58.56299981692217,82.8794432438877,2.9281499908461086,1.301867250143049,A,482.87859999982174,Correct
13,113,145,A,20.146217162624726,47.90920149860233,1.0073108581312362,0.7525559773368109,B,621.0833999994065,Incorrect
13,113,146,B,43.027876877972034,18.297023300976928,2.1513938438986018,0.2874089699245519,B,1204.295099999399,Correct
13,113,147,A,27.0905257610281,59.5925814627806,1.354526288051405,0.9360780806596141,B,1257.8127000006134,Incorrect
13,113,148,A,41.77948589397137,59.075131680754424,2.088974294698568,0.9279499984905388,B,784.7441000003528,Incorrect
13,113,149,A,67.24645139498327,85.01607944781264,3.3623225697491637,1.335429453151272,A,1007.3751999998422,Correct
13,113,150,B,38.22238210062817,18.421847292505618,1.9111191050314085,0.28936970059844336,B,654.0180000001783,Correct
13,113,151,A,60.42539557538853,84.09672718112395,3.0212697787694265,1.3209883015158204,A,826.1486999999761,Correct
13,113,152,B,34.40159995767142,10.753737625455663,1.720079997883571,0.1689193156138183,B,729.1020000002391,Correct
13,113,153,B,50.333175633877644,43.58744237733118,2.5166587816938826,0.6846699438069602,A,2721.3826999995945,Incorrect
13,113,154,B,86.32323568712572,59.74655046117262,4.316161784356286,0.938496620030759,A,1531.6327999998975,Incorrect
13,113,155,B,58.58765467843108,49.302896413367606,2.929382733921554,0.7744480858646712,B,968.8728000000992,Correct
13,113,156,B,64.45179247498469,55.31473019283669,3.2225896237492346,0.8688817500455863,B,566.4094000003388,Correct
13,113,157,A,57.21984147898103,70.12574916217064,2.8609920739490513,1.1015326919767792,B,550.9885999999824,Incorrect
13,113,158,B,76.62969938747067,54.362568519745594,3.8314849693735336,0.8539252294595224,B,743.821700000808,Correct
13,113,159,B,71.92495979616237,57.58450614528496,3.5962479898081186,0.9045353073331176,B,738.8738999998168,Correct
13,113,160,B,57.95791958992344,39.80625571845025,2.897895979496172,0.62527520266,B,895.05089999966,Correct
13,113,161,A,42.92604504067292,72.11296389849868,2.146302252033646,1.1327477880605472,A,948.8467000001037,Correct
13,113,162,A,56.19608932664266,69.77874863036168,2.8098044663321327,1.0960820203691655,B,888.4490999998889,Incorrect
13,113,163,A,52.19811450376045,78.82200311201724,2.6099057251880224,1.2381331295897258,A,783.3771000005072,Correct
13,113,164,B,82.04532730478607,51.58648068612854,4.102266365239303,0.810318543740466,B,778.4243999994942,Correct
13,113,165,A,25.64147009107498,54.88109426722054,1.282073504553749,0.8620702128543448,A,929.8632999998517,Correct
13,113,166,B,49.395331408638924,42.411883640024165,2.469766570431946,0.6662043103420252,A,1693.4801999996125,Incorrect
13,113,167,B,43.2201888986807,32.63571579306074,2.1610094449340354,0.51264062490062,B,564.6692999998777,Correct
13,113,168,A,28.884281832111295,48.768757269073745,1.4442140916055646,0.7660578478061295,A,878.6182000003464,Correct
13,113,169,B,71.7683810927711,52.93633672928111,3.588419054638555,0.8315220328833254,B,623.4948000001168,Correct
13,113,170,B,58.487938376395086,34.97041460498411,2.9243969188197543,0.5493139880800364,B,950.3767999995034,Correct
13,113,171,A,41.908107430373676,58.32860377617466,2.095405371518684,0.916223565586901,A,663.5148999994271,Correct
13,113,172,B,49.09542869468825,36.63867112435786,2.4547714347344125,0.5755189002078758,B,773.0549999996583,Correct
13,113,173,A,31.941431092591515,51.75174916210746,1.597071554629576,0.8129145748904926,A,629.0889000001698,Correct
13,113,174,A,24.50470700324785,37.81600674649987,1.2252353501623927,0.5940124449145303,A,507.4617999998736,Correct
13,113,175,B,51.79160109716664,36.22910354186324,2.5895800548583323,0.5690854276663075,B,1283.9797000006001,Correct
13,113,176,B,36.540296980540106,16.17701322021436,1.8270148490270055,0.254107929448252,A,1345.2537000002849,Incorrect
13,113,177,A,54.77520888815242,80.0021046978609,2.738760444407621,1.2566701219526062,A,989.9873000003936,Correct
13,113,178,A,38.21575124152233,62.62025893703351,1.9107875620761163,0.9836367272123754,B,1022.8158999998413,Incorrect
13,113,179,B,59.656061249406946,29.622090054935565,2.982803062470347,0.4653027025028042,A,713.8546999995015,Incorrect
13,113,180,B,52.21623925303397,30.840325708192093,2.610811962651699,0.4844387033958636,B,805.4588000004514,Correct
13,113,181,B,68.4336567533193,41.419352347354206,3.4216828376659647,0.6506136652544756,B,1090.7451000002766,Correct
13,113,182,B,80.6167043428728,63.22256317653133,4.03083521714364,0.993097700082537,B,811.2737999999808,Correct
13,113,183,A,54.11616500321194,79.31989810716556,2.705808250160597,1.2459540458848113,A,831.719200000407,Correct
13,113,184,A,58.53525241887199,76.66075547661833,2.9267626209435997,1.2041843311199383,A,496.867600000769,Correct
13,113,185,B,70.65881453475599,38.135711102226324,3.5329407267377997,0.5990343491908846,B,677.841300000182,Correct
13,113,186,A,44.35115662098477,69.19478203286425,2.2175578310492385,1.0869090945059665,B,2211.379199999101,Incorrect
13,113,187,B,60.22939047688173,43.270923044990234,3.0114695238440867,0.6796980697609531,B,866.0280000003695,Correct
13,113,188,B,44.98987252575946,28.14806004319609,2.2494936262879732,0.44214869322254613,B,2230.7416000003286,Correct
13,113,189,B,43.892551565245796,28.99214970180883,2.19462757826229,0.4554076225748907,B,1426.578700000391,Correct
13,113,190,A,55.30045384348362,82.14996591659903,2.765022692174181,1.290408647081197,A,631.8946000001233,Correct
13,113,191,A,55.9630868703869,75.04358667072408,2.798154343519345,1.1787819029188784,A,1716.323900000134,Correct
13,113,192,B,65.31353606734635,52.14004230212831,3.2656768033673176,0.8190138692711366,B,983.9079000003039,Correct
13,113,193,A,50.970808635843454,60.05050903912901,2.5485404317921727,0.943271190208276,B,1013.1719999999405,Incorrect
13,113,194,A,43.97460710797536,57.98189138476319,2.198730355398768,0.9107774200780666,A,729.5990000002348,Correct
13,113,195,B,48.2426726569705,29.67701586979313,2.412133632848525,0.466165475185049,B,876.1353999998391,Correct
13,113,196,A,50.37846850707818,70.09145623721813,2.5189234253539095,1.1009940199712747,A,1110.5908999998064,Correct
13,113,197,B,66.3455676993265,37.521275190873595,3.3172783849663245,0.5893828124648472,B,667.617799999789,Correct
13,113,198,A,67.14626208158595,83.47021242600414,3.3573131040792976,1.3111470307555704,A,808.5897999999361,Correct
13,113,199,A,21.2290145790705,48.98116902587655,1.061450728953525,0.7693944038796684,A,736.3054999996166,Correct
13,113,200,B,80.60801885815316,65.25748940861291,4.030400942907658,1.0250622465890602,B,2092.768700000306,Correct
13,113,201,B,46.124412161875064,18.915877947012575,2.3062206080937533,0.29712991597267946,B,960.3591999994023,Correct
13,113,202,A,34.03605957812002,56.48245019865752,1.701802978906001,0.887224253004269,A,1644.2404999997962,Correct
13,113,203,A,29.103767799409862,47.51041149028715,1.455188389970493,0.7462917985345712,A,778.3510999997816,Correct
13,113,204,A,46.23936638637922,76.35382773680334,2.311968319318961,1.1993631214570097,A,1185.799599999882,Correct
13,113,205,B,63.842950276431814,47.095270124352545,3.192147513821591,0.7397707732074641,B,1515.5075000002398,Correct
13,113,206,B,70.80639882761992,48.317323885218954,3.5403199413809956,0.7589667487946126,B,663.636399999632,Correct
13,113,207,B,33.21171936388083,13.873224164703313,1.6605859681940416,0.2179200955871816,B,1557.4619999997594,Correct
13,113,208,B,56.277727692482884,44.828835607803526,2.813886384624144,0.7041697030723004,B,951.6952000003585,Correct
13,113,209,B,50.52912939937305,27.95346722320583,2.5264564699686525,0.43909203635393257,B,539.8514999997133,Correct
13,113,210,B,73.05302781302007,63.42849818995552,3.6526513906510036,0.9963325197089888,B,1714.8009000002276,Correct
13,113,211,B,47.8909594609489,34.64468057661871,2.394547973047445,0.5441973699273517,A,1606.6575000004377,Incorrect
13,113,212,A,16.85196624217743,38.60950072925975,0.8425983121088714,0.6064766192490609,A,647.1961000006559,Correct
13,113,213,B,41.91310477902985,26.177462910516162,2.0956552389514926,0.41119462584648436,B,1298.274400000082,Correct
13,113,214,A,17.006360418281453,35.17452145720987,0.8503180209140726,0.5525200910175354,A,526.9600999999966,Correct
13,113,215,B,55.19074393312383,42.665830943148144,2.7595371966561912,0.6701933052514913,B,774.682500000381,Correct
13,113,216,A,42.12854104625469,73.22031768221646,2.1064270523127346,1.1501420606198103,A,1194.8687000003702,Correct
13,113,217,A,36.765011053514016,44.11478492210553,1.8382505526757007,0.6929534211299024,A,1803.186000000096,Correct
13,113,218,B,45.08650404121669,21.76851526884742,2.254325202060835,0.34193903824084143,B,899.1891000005126,Correct
13,113,219,B,50.92629227274948,30.826673971901826,2.546314613637474,0.48422426242367234,B,622.4802999995518,Correct
13,113,220,B,53.51786499006737,35.16493264013017,2.6758932495033685,0.5523694702310643,B,736.1924999995608,Correct
13,113,221,A,50.081081371578065,77.40059945870301,2.5040540685789034,1.2158057732145375,A,742.0187999996415,Correct
13,113,222,A,36.389547058358986,62.86360506005157,1.819477352917949,0.9874591991741407,A,943.6706999995295,Correct
13,113,223,B,39.26307679921757,26.12022861686003,1.9631538399608786,0.4102955916640667,B,481.365900000128,Correct
13,113,224,B,72.02396875056499,42.322024968613064,3.6011984375282498,0.664792813632193,B,875.5549000006795,Correct
13,113,225,B,53.24756992048396,29.97781236722487,2.662378496024198,0.47089037551783447,A,682.4817999995503,Incorrect
13,113,226,A,54.14393228286599,61.76880566919995,2.7071966141432995,0.9702621305568707,B,1091.3330000003043,Incorrect
13,113,227,B,71.56211623274547,39.24078628028416,3.5781058116372733,0.6163928294961393,B,707.6241000004302,Correct
13,113,228,A,24.746810314964293,45.359294132613535,1.2373405157482147,0.7125021260951864,A,628.452500000094,Correct
13,113,229,A,22.474620966529546,47.90906257675213,1.1237310483264773,0.7525537951574909,A,522.0314999996845,Correct
13,113,230,A,46.34167327248512,74.70240424914765,2.3170836636242558,1.173422621973086,A,1091.1300000007031,Correct
13,113,231,B,89.10527917680892,64.62752139499287,4.455263958840447,1.015166732171134,B,1384.1142999999647,Correct
13,113,232,B,36.48522175052027,13.895786544633552,1.8242610875260135,0.2182745046223633,B,1384.1222999999445,Correct
13,113,233,A,36.86761075922589,60.34654517052885,1.8433805379612946,0.9479213148862902,A,949.9599000000671,Correct
13,113,234,A,57.12643941127024,70.41586930915938,2.8563219705635117,1.1060898885889705,A,1102.2585000000618,Correct
13,113,235,B,60.74177298015497,40.6183194627423,3.0370886490077487,0.6380310701265726,B,614.2322000005151,Correct
13,113,236,A,14.296294459039334,36.672784831787524,0.7148147229519667,0.5760547570711145,A,529.6162000004188,Correct
13,113,237,A,35.732129674241705,61.639918126503474,1.7866064837120854,0.9682375697704981,A,602.1685000005164,Correct
13,113,238,B,53.91574529881159,35.53825104338847,2.6957872649405794,0.5582335419966952,B,692.9061999999249,Correct
13,113,239,A,26.41588576500199,54.81859446362972,1.3207942882500994,0.8610884682352861,A,1098.7075000002733,Correct
13,113,240,B,68.8013309875002,56.12085550308308,3.4400665493750098,0.8815443368083005,B,1340.0885000000926,Correct
13,113,241,B,60.71426228707428,45.021666095761866,3.035713114353714,0.7071986772940907,B,569.6343999998135,Correct
13,113,242,B,74.2912254128444,52.19394233839178,3.7145612706422195,0.8198605290609045,B,728.5947000000306,Correct
13,113,243,B,58.09816605176763,50.52382168540548,2.9049083025883813,0.7936263351907528,B,634.2797999996037,Correct
13,113,244,A,17.769475492948086,31.561193473601957,0.8884737746474043,0.49576206777597015,A,744.6202000000994,Correct
13,113,245,A,23.76459480859841,55.88999684086677,1.1882297404299207,0.877918017422119,A,1071.2442000003648,Correct
13,113,246,A,55.46349574234135,78.15397899803071,2.7731747871170676,1.2276398313451211,A,1027.1467000002303,Correct
13,113,247,A,39.74066633135788,70.25522604011206,1.987033316567894,1.103566510019532,A,2151.311099999475,Correct
13,113,248,B,72.49086725261951,50.04401219423292,3.6245433626309755,0.7860895053278008,B,548.0262000000948,Correct
13,113,249,A,42.294168525461366,55.816153334661806,2.114708426273068,0.8767580863390748,B,541.4220000002388,Incorrect
13,113,250,A,42.764347451389966,72.24830856452274,2.1382173725694984,1.134873777102966,A,918.2714999997188,Correct
13,113,251,B,75.6610657691122,61.63310018692667,3.7830532884556103,0.9681304738260628,B,930.4179999999178,Correct
13,113,252,B,87.49197518500343,63.26325728625039,4.374598759250171,0.9937369216632259,B,815.6781999996383,Correct
13,113,253,B,33.30854631104381,16.925345301588717,1.6654273155521906,0.2658627022947082,A,1576.822500000162,Incorrect
13,113,254,A,30.628244653521286,55.14873115672587,1.5314122326760642,0.8662742432838426,A,1459.8182999998244,Correct
13,113,255,B,57.8340070785642,47.9847567606908,2.8917003539282096,0.7537427966183969,B,908.1569999998464,Correct
13,113,256,A,51.862040549643574,72.99146463257111,2.5931020274821788,1.1465472453222227,B,1293.2357999998203,Incorrect
13,113,257,A,40.53452050265658,58.26269665215623,2.0267260251328287,0.9151882989037231,A,657.1335000007821,Correct
13,113,258,B,60.107859211805724,47.34366954842746,3.0053929605902865,0.7436726222366125,B,566.6757999997571,Correct
13,113,259,A,44.92729185312877,63.642909542549496,2.2463645926564384,0.9997004853597662,B,2286.415399999896,Incorrect
13,113,260,A,52.13312436905576,68.15226635457255,2.606656218452788,1.0705332965250998,B,674.8760999998922,Incorrect
13,113,261,A,40.68544900040546,72.04314636131944,2.034272450020273,1.1316510967510771,A,915.9829000000173,Correct
13,113,262,A,24.693437226463132,56.415203533667736,1.2346718613231566,0.8861679448607174,A,509.414399999514,Correct
13,113,263,B,74.18769248176143,59.65600956473273,3.7093846240880715,0.937074406955234,B,1008.1755999999586,Correct
13,113,264,B,51.67837602082312,27.554318915642657,2.5839188010411562,0.4328222294002662,B,1172.8666999997586,Correct
13,113,265,A,35.423448552991175,64.4026675933734,1.7711724276495588,1.0116347369146366,A,1020.6287999999404,Correct
13,113,266,A,36.179038827413514,48.426896596162756,1.8089519413706756,0.7606879129132873,A,1364.6440000002258,Correct
13,113,267,A,16.303366482458095,35.469508342891956,0.8151683241229049,0.5571537341823561,A,609.621700000389,Correct
13,113,268,B,84.36935244185347,63.81187211821437,4.218467622092674,1.002354543291968,B,695.4403000008824,Correct
13,113,269,A,22.122790382639028,46.43713970835565,1.1061395191319514,0.7294328848074648,A,934.9000000001979,Correct
13,113,270,B,59.2884117880131,32.607086221054416,2.964420589400655,0.5121909126351676,B,616.0357999997359,Correct
13,113,271,B,87.42411621707953,60.9686235735507,4.371205810853977,0.9576928995907418,B,985.6903999998394,Correct
13,113,272,A,39.53127156596428,68.9672074570084,1.9765635782982143,1.083334361427704,A,1135.2649999998903,Correct
13,113,273,B,68.13990025643554,43.2997627911398,3.406995012821777,0.6801510834341273,B,671.5481000001091,Correct
13,113,274,A,62.50718779083633,72.25634181206664,3.125359389541817,1.1349999630603076,B,599.5177000004333,Incorrect
13,113,275,A,33.80160409841911,55.306432797964725,1.6900802049209558,0.8687514148717177,A,1122.5954999999885,Correct
13,113,276,B,76.27053282007553,46.03997095673729,3.8135266410037763,0.7231941726458667,B,518.4641000005286,Correct
13,113,277,B,61.961433439620755,34.21777506083569,3.098071671981038,0.5374915537665472,B,500.574300000153,Correct
13,113,278,B,57.051998440781354,43.0758498426267,2.852599922039068,0.6766338670636655,B,487.58379999981116,Correct
13,113,279,A,58.94436578978145,79.26893009029325,2.9472182894890726,1.2451534421479409,A,516.8811000003188,Correct
13,113,280,A,48.50344957203458,67.19101916934044,2.4251724786017292,1.0554340610480544,A,1182.534499999747,Correct
13,113,281,A,31.626094583833115,40.75159556813122,1.5813047291916558,0.6401245662945171,A,645.471799999541,Correct
13,113,282,A,22.668504393666023,42.75701336842789,1.1334252196833012,0.6716255954384682,A,863.9343000004374,Correct
13,113,283,A,10.48073053485665,33.58438814885932,0.5240365267428325,0.5275423354188227,A,1541.2271999994118,Correct
13,113,284,B,84.64329496713796,57.9502214996616,4.232164748356898,0.9102799506861907,B,942.3255000001518,Correct
13,113,285,B,47.44598565998955,31.892424129605672,2.3722992829994776,0.5009650267536951,B,885.5346000000281,Correct
13,113,286,A,66.20914482077839,89.69223802139456,3.31045724103892,1.4088823802602013,A,736.0100000005332,Correct
13,113,287,B,56.1015966296294,36.96921365590213,2.80507983148147,0.580711050151868,A,801.7247000007046,Incorrect
13,113,288,B,82.38850617172639,65.07843624413059,4.119425308586319,1.022249686058362,B,584.3754000006811,Correct
13,113,289,B,40.05197017472595,25.75783283687531,2.002598508736298,0.4046030920636071,A,532.4671999997008,Incorrect
13,113,290,A,31.41801324729375,63.93787990329344,1.5709006623646875,1.0043338689514658,A,563.9573999997083,Correct
13,113,291,B,50.495511328947735,32.87329685201584,2.5247755664473868,0.5163725394478472,A,2605.9237999998004,Incorrect
13,113,292,A,64.14088032310062,76.40502770441239,3.2070440161550313,1.2001673686675327,A,2564.0095999997357,Correct
13,113,293,A,34.985108189179,62.7166984238846,1.7492554094589503,0.9851515951294121,A,1144.7261999992406,Correct
13,113,294,A,28.904795389831364,52.7743222247029,1.445239769491568,0.8289771149965359,A,1386.3879999998971,Correct
13,113,295,A,50.52587342559407,74.46297151156651,2.5262936712797033,1.1696616213260171,A,1844.9347000005218,Correct
13,113,296,A,66.76085380420942,84.47681012263905,3.338042690210471,1.3269586303999135,A,1717.2006000000692,Correct
13,113,297,A,20.836553043845395,41.491862586261846,1.0418276521922698,0.6517526534237871,A,770.7512000006318,Correct
13,113,298,B,44.71507062406949,23.577472301402896,2.2357535312034744,0.37035406886152084,B,1534.6248999994714,Correct
13,113,299,B,59.339440011282974,27.23594916035661,2.966972000564149,0.4278212889786071,B,549.2717000006451,Correct
13,113,300,B,75.94127894625991,65.19556501480773,3.7970639473129957,1.0240895404857784,B,997.2909999996773,Correct
13,113,301,B,57.21835140988486,31.213288796876327,2.860917570494243,0.49029719389321635,B,875.9284999996453,Correct
13,113,302,A,39.90578881481363,55.584596157816385,1.9952894407406816,0.873120794710757,A,2113.751500000035,Correct
13,113,303,B,69.35939550630292,38.00360561501018,3.467969775315146,0.596959241050199,B,775.2606999993077,Correct
13,113,304,A,38.47951562926176,50.14264846749795,1.923975781463088,0.7876388802851352,A,966.2044000006063,Correct
13,113,305,A,26.71766308607276,38.46703735302431,1.3358831543036382,0.6042388097681267,A,993.7914000001911,Correct
13,113,306,A,29.334417855689527,58.33717773575317,1.4667208927844764,0.916358245029021,A,852.5945999999749,Correct
13,113,307,B,85.38434127389782,62.73937975901348,4.2692170636948905,0.9855078727084847,B,578.6663999997472,Correct
13,113,308,B,61.42904991525732,53.352045344310476,3.071452495762866,0.8380519685383766,B,824.4740000000093,Correct
13,113,309,A,22.528722330661576,44.787582568620714,1.126436116533079,0.7035217018481255,A,1043.7820999995893,Correct
13,113,310,B,75.66441291581279,59.00920855696628,3.7832206457906397,0.9269144804835661,B,3848.488399999951,Correct
13,113,311,A,15.795034706312343,39.38531113092718,0.7897517353156173,0.6186630205413457,A,864.5628000003853,Correct
13,113,312,B,66.1619722964954,55.92006122499663,3.30809861482477,0.8783902676637042,B,3286.327899999378,Correct
13,113,313,A,49.16285610761395,77.50395979256126,2.4581428053806973,1.2174293535421459,A,4877.266899999995,Correct
13,113,314,B,72.32180490642818,46.91226118247726,3.6160902453214088,0.736896075470781,B,1733.3127000001696,Correct
13,113,315,B,46.50838879363939,27.244781613941896,2.3254194396819696,0.4279600288350906,B,1951.5276000001904,Correct
13,113,316,B,53.778080998506475,23.20033701114001,2.6889040499253234,0.3644300415750242,B,845.6256999998004,Correct
13,113,317,B,42.570910288332556,33.048061450689076,2.128545514416628,0.5191177353443441,B,639.0522000001511,Correct
13,113,318,B,35.816831611824625,24.14202583538168,1.7908415805912312,0.37922205503605033,B,656.955200000084,Correct
13,113,319,A,32.9066500479903,54.57196432101085,1.645332502399515,0.8572144110142599,A,857.8549000003477,Correct
13,113,320,A,36.108174741207534,58.01751006772737,1.8054087370603766,0.9113369170417209,A,682.3978000002171,Correct
13,113,321,A,41.43334542788793,55.71664269010365,2.0716672713943964,0.8751949767895854,A,824.4937999998001,Correct
13,113,322,B,55.25439062567597,31.218944465260897,2.7627195312837984,0.49038603292445687,B,617.0687000003454,Correct
13,113,323,A,39.6263529838518,51.474712499423745,1.9813176491925901,0.8085628931691816,B,511.1589999996795,Incorrect
13,113,324,A,36.85063721006746,57.73399703512005,1.8425318605033731,0.9068835047395403,A,4110.613699999703,Correct
13,113,325,A,38.75290827971985,69.44227296135506,1.9376454139859924,1.0907966729198508,A,770.7881000005727,Correct
13,113,326,A,16.46210481687943,45.902174552945525,0.8231052408439716,0.72102967179665,A,745.981899999606,Correct
13,113,327,A,46.45445431406117,74.63818457733443,2.3227227157030583,1.172413861727164,B,759.5024000002013,Incorrect
13,113,328,B,47.00464800741751,32.98087102647679,2.350232400370875,0.5180623106288597,A,1756.7662999999811,Incorrect
13,113,329,A,61.11986891360051,72.32038014270289,3.0559934456800253,1.1360058748056827,B,1505.7575999999244,Incorrect
13,113,330,B,70.68467368384604,47.501720796266255,3.534233684192302,0.7461552854321177,B,1279.8401000000013,Correct
13,113,331,B,81.18733050354511,63.587973103865984,4.059366525177256,0.9988375457988538,B,906.8834999998217,Correct
13,113,332,B,70.45145190239325,46.56367464799891,3.5225725951196627,0.7314204909914933,B,798.223799999505,Correct
13,113,333,B,71.75562787598557,44.42346587305728,3.587781393799278,0.6978021701689682,B,692.8563999999824,Correct
13,113,334,B,53.113182312724845,28.333826620866265,2.6556591156362424,0.4450667078010018,B,798.2869999996183,Correct
13,113,335,A,28.822308689449407,57.29156787197223,1.4411154344724704,0.8999338436961447,A,516.6325000000143,Correct
13,113,336,A,56.249491231373554,72.80236881414379,2.8124745615686777,1.1435769351522438,A,819.8131999997713,Correct
13,113,337,B,65.34413317634882,35.20864038405887,3.267206658817441,0.5530560298672212,B,1768.5419999997976,Correct
13,113,338,B,67.15121108824287,52.707481206329405,3.3575605544121436,0.8279271787351326,B,954.7693999993498,Correct
13,113,339,B,49.189510075368254,40.30352671819956,2.4594755037684126,0.6330863172582784,B,746.2345000003552,Correct
13,113,340,A,48.5873247877408,66.73278531171738,2.42936623938704,1.048236140444381,A,3045.8153999998103,Correct
13,113,341,A,47.33425139805476,57.32797496338549,2.366712569902738,0.9005057249507573,A,793.1726000006165,Correct
13,113,342,B,74.11631737599895,45.31296549923845,3.7058158687999474,0.7117743976238764,B,735.2599000005284,Correct
13,113,343,B,65.91617072855101,39.79112789600053,3.295808536427551,0.6250375753806358,B,692.7928999994037,Correct
13,113,344,B,61.760895422153034,35.81050429619173,3.0880447711076515,0.5625100860913084,B,709.9064000003636,Correct
13,113,345,B,48.57085681195857,19.616865232288486,2.428542840597929,0.30814099850109267,B,604.8147000001336,Correct
13,113,346,A,27.977766390301888,55.021655508726546,1.3988883195150945,0.8642781436728184,A,669.6582000004128,Correct
13,113,347,A,48.73331617166162,56.02066515541665,2.436665808583081,0.8799705505073534,B,886.2347000003865,Incorrect
13,113,348,A,67.69278179445364,82.701420819823,3.384639089722682,1.2990708804449693,B,779.2177999999694,Incorrect
13,113,349,B,41.96096851144678,34.09227443918074,2.0980484255723386,0.5355201946114865,A,1516.3431000000855,Incorrect
13,113,350,B,50.134597163840425,42.04431912105023,2.5067298581920214,0.6604306203793814,B,916.3674999999785,Correct
13,113,351,A,25.478309662752494,43.02993552340358,1.2739154831376247,0.6759126466238358,A,669.2118000000846,Correct
13,113,352,A,64.27554671232707,83.52792003332723,3.2137773356163537,1.3120534997316826,A,1768.799399999807,Correct
13,113,353,B,32.207035311056394,18.776382395395608,1.6103517655528197,0.2949387249718378,B,1710.1010000005772,Correct
13,113,354,A,42.905015682366844,52.586649474805405,2.145250784118342,0.826029158334751,A,1037.791599999764,Correct
13,113,355,B,35.23311080516178,14.519717780653743,1.761655540258089,0.2280751935594945,B,835.3399999996327,Correct
13,113,356,A,53.04647799160882,81.89824170709947,2.6523238995804412,1.2864545724447245,A,1058.8205000003654,Correct
13,113,357,A,36.80143140565932,66.2786091326685,1.840071570282966,1.0411019577067038,A,1664.3744000002698,Correct
13,113,358,A,38.22014598969123,51.033912188768554,1.9110072994845615,0.8016388180809094,A,653.3539000001838,Correct
13,113,359,A,37.4316645681342,69.57693120973978,1.8715832284067102,1.0929118797392046,A,649.5198000002347,Correct
13,113,360,B,44.36350013739239,20.811672095900516,2.21817500686962,0.32690898082700376,B,763.9578999996957,Correct
13,113,361,B,40.91007281344048,18.260169472579534,2.045503640672024,0.28683007134180233,B,734.7828000001755,Correct
13,113,362,B,86.46495787870282,64.4294177990747,4.323247893935141,1.0120549281632025,B,1259.4930999994176,Correct
13,113,363,B,56.56186873051217,27.554233791551212,2.828093436525608,0.43282089227416465,B,730.1024999997026,Correct
13,113,364,A,42.223311519323715,52.631121396036875,2.1111655759661856,0.8267277216399103,A,1104.4488999996247,Correct
13,113,365,B,79.31596435953286,48.36718140574945,3.965798217976643,0.7597499088957365,B,755.0116000002163,Correct
13,113,366,B,45.21195901935581,25.653134189593587,2.2605979509677905,0.4029584895579019,A,778.1882999997833,Incorrect
13,113,367,B,43.671049017645124,25.90157349935837,2.183552450882256,0.40686096511000164,B,660.3609000003416,Correct
13,113,368,A,36.37770142760621,69.12407174156453,1.8188850713803106,1.0857983798475648,A,942.910299999312,Correct
13,113,369,B,86.47635618128986,58.81403394660309,4.323817809064493,0.923848684873145,B,763.8690999992832,Correct
13,113,370,A,45.97453514276309,72.75293663452602,2.2987267571381547,1.1428004562905534,A,1195.3898000001573,Correct
13,113,371,A,25.556961213192494,49.43269891530005,1.2778480606596248,0.7764870187971138,A,1139.6484999995664,Correct
13,113,372,A,34.51644813419444,58.84887649059947,1.7258224067097219,0.9243959902744019,A,1148.4848000000056,Correct
13,113,373,A,30.692619443076765,56.325636632302,1.534630972153838,0.8847610312640405,A,829.6062999997957,Correct
13,113,374,B,61.14868443135939,47.8964225136986,3.0574342215679695,0.7523552455113415,B,1121.521600000051,Correct
13,113,375,A,63.046816490148096,86.01459139808202,3.1523408245074047,1.3511140421887116,A,959.8441999996794,Correct
13,113,376,A,42.42268938128421,68.58607424000007,2.1211344690642107,1.0773475348547419,A,712.4424999992698,Correct
13,113,377,A,11.966642360162947,35.51995632172613,0.5983321180081473,0.5579461691808257,A,787.7815000001647,Correct
13,113,378,B,61.19045331704239,42.30322871112869,3.0595226658521195,0.6644975627100536,B,964.6026000000347,Correct
13,113,379,A,30.867535495664168,46.67357756352146,1.5433767747832083,0.7331468419515621,A,1525.1956000001883,Correct
13,113,380,A,13.155415038273944,32.01376003561957,0.6577707519136972,0.5028709667084448,A,511.42170000002807,Correct
13,113,381,A,40.706729127076905,50.07244565586816,2.035336456353845,0.7865361370987478,A,1066.4557999998578,Correct
13,113,382,A,60.13335071794862,78.43783916024368,3.006667535897431,1.2320986963463967,A,1672.0098000005237,Correct
13,113,383,B,82.13756847804602,60.952284320386376,4.106878423902301,0.9574362432022109,B,2822.633899999346,Correct
13,113,384,A,61.50054242351462,74.46718829153403,3.0750271211757307,1.1697278583508557,B,675.3596999997171,Incorrect
13,113,385,A,40.41692342066361,48.52556320078554,2.02084617103318,0.7622377643144754,A,4040.6151000006503,Correct
13,113,386,A,42.84003045896841,69.40673119662007,2.1420015229484206,1.0902383841849157,A,1414.187800000036,Correct
13,113,387,A,53.06853083313476,68.83093662063251,2.653426541656738,1.0811938241354186,A,1093.9335000002757,Correct
13,113,388,A,57.58853750528523,72.49171253049737,2.8794268752642616,1.1386971576597682,A,779.4623999998294,Correct
13,113,389,A,40.82683415998457,65.62985264461449,2.0413417079992286,1.0309113146225075,A,495.34159999984695,Correct
13,113,390,A,53.597273993060654,79.0703599302985,2.6798636996530325,1.2420343093686323,A,1513.2824000002074,Correct
13,113,391,B,65.09787326360085,56.29279371860045,3.254893663180042,0.8842451359820042,B,2639.643000000433,Correct
13,113,392,A,23.05208670855526,53.885018701564874,1.152604335427763,0.8464238944569242,A,739.7774000000936,Correct
13,113,393,B,58.133176055762085,35.36626139835594,2.9066588027881046,0.5555319349700565,B,723.8258000006681,Correct
13,113,394,A,25.45852791823825,45.03957368645037,1.2729263959119124,0.7074799690708431,A,588.1325999998808,Correct
13,113,395,A,49.815350387841434,68.4919131480613,2.4907675193920715,1.0758684558812979,A,888.2737000003544,Correct
13,113,396,A,59.817276152661734,68.49031524941526,2.9908638076330867,1.0758433561480598,A,731.5892999995413,Correct
13,113,397,A,26.07007365600372,50.758220988459925,1.3035036828001862,0.7973082708331647,A,952.0095999996556,Correct
13,113,398,A,23.939164438895055,54.01902172142268,1.1969582219447528,0.8485288089706449,A,482.82470000049216,Correct
13,113,399,B,76.80083972301807,45.31292346758521,3.8400419861509034,0.7117737373922111,B,720.8842999998524,Correct
13,113,400,B,43.93887733894877,28.46460288557038,2.1969438669474384,0.44712093656329366,A,626.0283000001436,Incorrect
13,113,401,B,75.80267468277104,64.08681524270108,3.790133734138552,1.0066733397921803,A,782.7394999994794,Incorrect
13,113,402,B,53.074686593589846,41.70771283777655,2.653734329679492,0.6551432212459575,B,3012.7864999994927,Correct
13,113,403,B,55.335635721971286,40.8221969112246,2.7667817860985644,0.6412335695984958,B,625.825199999781,Correct
13,113,404,A,21.055777535909357,42.29968926347689,1.0527888767954678,0.6644419651963502,A,528.7217000004603,Correct
13,113,405,A,40.46966981224867,59.18649304208456,2.0234834906124335,0.9296992586637812,A,505.5658000001131,Correct
13,113,406,B,38.29985522591865,18.23538215207445,1.9149927612959323,0.2864407130217976,B,1193.5783999997511,Correct
13,113,407,B,53.26172495786991,39.54138444660264,2.6630862478934954,0.6211146144510827,B,1091.8093000000226,Correct
13,113,408,B,62.83424802347396,49.18992189229354,3.141712401173698,0.7726734862374256,B,501.1896000005436,Correct
13,113,409,B,46.321457069901065,27.141542689119824,2.3160728534950534,0.426338355596163,B,970.1844000001074,Correct
13,113,410,B,80.1204356153435,51.33621856568598,4.006021780767174,0.8063874355451952,A,1670.0684999996156,Incorrect
13,113,411,A,51.15142833668583,80.52085742981255,2.5575714168342913,1.2648186708112512,A,1208.8335000007646,Correct
13,113,412,A,38.15263920204437,56.739483249204824,1.9076319601022187,0.8912617187209149,A,605.2854000008665,Correct
13,113,413,B,74.53241445534347,51.42804710083286,3.7266207227671737,0.807829874802232,B,737.6895000006698,Correct
13,113,414,B,50.210199494616106,27.70575077081888,2.5105099747308053,0.43520091541897166,A,597.0119000003251,Incorrect
13,113,415,B,74.57221498422024,60.803059860118175,3.728610749211012,0.9550922308616385,A,1420.7765999999538,Incorrect
13,113,416,A,21.441716480724605,52.35814539470101,1.0720858240362303,0.8224398246378949,A,540.2845999997226,Correct
13,113,417,A,15.241811759215203,38.98740823589863,0.7620905879607602,0.6124127764820266,A,493.9102999996976,Correct
13,113,418,A,25.391192477672064,53.0098204320869,1.269559623883603,0.8326763121877917,A,1444.291499999963,Correct
13,113,419,B,72.41016240428557,56.049173194851264,3.6205081202142786,0.8804183537436333,B,4952.975800000786,Correct
13,113,420,B,58.75649339586067,32.142608068406616,2.9378246697930335,0.5048949068746111,B,4594.389099999717,Correct
13,113,421,A,51.57223960788913,77.88827408124806,2.5786119803944563,1.223466148272186,A,555.5616000001464,Correct
13,113,422,A,14.641502292317547,35.564922161484944,0.7320751146158773,0.5586524909400695,A,558.6105000002135,Correct
13,113,423,A,35.858448285811676,60.94666735603018,1.7929224142905837,0.9573480121324263,A,667.299799999455,Correct
13,113,424,B,47.65281653769285,29.33836667505657,2.3826408268846424,0.4608459860734066,B,769.3906000004063,Correct
13,113,425,B,84.46247036143909,64.57596539992912,4.223123518071954,1.01435689249443,B,1867.6463000001604,Correct
13,113,426,B,47.513575926167945,39.041384944596274,2.3756787963083976,0.613260640639574,A,585.9989999999016,Incorrect
13,113,427,A,31.656923177781966,62.62390893155145,1.5828461588890983,0.9836940611921913,A,965.0798000002396,Correct
13,113,428,B,41.29133753181395,21.332989955998947,2.0645668765906975,0.3350978226243557,B,1041.7428000000655,Correct
13,113,429,B,36.83326551123908,26.56218807305324,1.8416632755619537,0.41723787456787237,B,513.5129000000234,Correct
13,113,430,A,46.87789960114826,71.11826008929077,2.343894980057413,1.1171230171630204,B,837.3689999998533,Incorrect
13,113,431,A,57.86905848843504,84.39819591135878,2.893452924421752,1.3257237612567845,A,1157.6628999991954,Correct
13,113,432,B,36.31932943827043,13.303362106166851,1.8159664719135213,0.20896872330389307,B,1001.5730000004623,Correct
13,113,433,B,68.45150206797396,36.18510666156745,3.4225751033986977,0.5683943262867169,B,1723.4794999994847,Correct
13,113,434,A,45.0479533598974,52.79657299554756,2.25239766799487,0.8293266292876473,A,2007.6572999996642,Correct
13,113,435,A,50.80512549175748,75.80221335006685,2.540256274587874,1.1906983829320807,A,1295.4130999996778,Correct
13,113,436,B,42.49139691051555,21.30074019950091,2.1245698455257775,0.3345912446338843,B,543.9575999998851,Correct
13,113,437,A,33.520793456394074,65.5056042501647,1.6760396728197038,1.0289596254063886,A,1039.146800000708,Correct
13,113,438,B,63.50707843720983,35.26658407130116,3.1753539218604914,0.5539662071780327,B,490.51779999990686,Correct
13,113,439,A,24.752311949136047,38.65872930046281,1.2376155974568024,0.6072498998372522,A,511.77239999924495,Correct
13,113,440,B,59.44536355553613,44.39347506842705,2.9722681777768063,0.6973310757114602,A,757.2997999996005,Incorrect
13,113,441,A,14.235761870194278,39.34983926125177,0.711788093509714,0.6181058297154389,A,559.5131999998557,Correct
13,113,442,B,78.15393046691605,61.33887463650413,3.9076965233458028,0.9635087896875334,B,1065.4589999994641,Correct
13,113,443,A,63.32692091996376,79.63814004403626,3.1663460459981883,1.250952978539497,A,866.8572999995376,Correct
13,113,444,B,84.04524725677906,53.84521247617268,4.202262362838954,0.8457986197306278,A,1295.006899999862,Incorrect
13,113,445,A,18.15443736289288,41.48196530165619,0.9077218681446441,0.6515971872407489,A,694.205000000693,Correct
13,113,446,A,58.3849216286023,78.50671320462473,2.919246081430115,1.2331805673056493,B,1488.4324000004199,Incorrect
13,113,447,A,13.566369092667777,33.342778647784485,0.6783184546333888,0.5237471422507518,A,646.5365000003658,Correct
13,113,448,B,77.94282444228344,54.14764436975265,3.897141222114172,0.8505492088060382,A,999.0904999995109,Incorrect
13,113,449,B,40.09037168453835,13.043254767094808,2.0045185842269175,0.20488296677602547,B,916.9038,Correct
13,113,450,A,59.855483134141224,68.29794198547911,2.992774156707061,1.0728215639844154,B,1500.661800000671,Incorrect
13,113,451,B,57.872211769874426,29.993539782688146,2.893610588493721,0.4711374211822314,B,742.8821000003154,Correct
13,113,452,B,42.024710165272666,14.806802563748246,2.1012355082636334,0.23258471078713,B,3507.020800000646,Correct
13,113,453,A,41.938374718681075,65.46867905052018,2.0969187359340538,1.028379605726711,A,1036.9833999993716,Correct
13,113,454,B,69.57458026492463,39.0312111593806,3.4787290132462316,0.61310083119511,B,580.753399999594,Correct
13,113,455,B,44.844162903426984,37.00483718608512,2.2422081451713494,0.5812706232554571,A,765.3176000003441,Incorrect
13,113,456,B,77.84156309222965,58.041563003803944,3.8920781546114824,0.9117147396780979,B,536.6179000002376,Correct
13,113,457,A,48.91806682694331,64.19269276080759,2.4459033413471656,1.008336459957499,B,1763.6881999997058,Incorrect
13,113,458,B,39.594147939407954,26.633279895461094,1.9797073969703975,0.41835458230290656,B,3407.870300000468,Correct
13,113,459,B,65.39745887220998,53.93870553844398,3.2698729436104994,0.8472672053185935,B,1209.8263999996561,Correct
13,113,460,A,51.400349704766384,64.38021679588589,2.570017485238319,1.0112820806123666,B,4779.495599999791,Incorrect
13,113,461,B,58.1168835522633,31.460773667358744,2.905844177613165,0.4941846771481272,B,893.189600000369,Correct
13,113,462,A,54.650990837990776,75.43212354408519,2.7325495418995387,1.1848850258538783,A,826.4170000002196,Correct
13,113,463,B,43.011834343943825,18.109117896430824,2.1505917171971913,0.2844573587320926,B,1233.8798999999199,Correct
13,113,464,A,35.418506797357594,59.820982531308495,1.7709253398678797,0.9396657962544105,A,1013.7818999992305,Correct
13,113,465,B,87.94808958609035,61.753718608932346,4.397404479304518,0.9700251435683658,A,1038.903499999833,Incorrect
13,113,466,A,32.46006787917173,61.9709011587172,1.6230033939585866,0.9734366390828258,A,707.9151999996611,Correct
13,113,467,B,68.13361026573607,50.35272389950436,3.4066805132868034,0.7909387374545906,A,734.9723999996058,Incorrect
13,113,468,A,65.90067194033095,84.12417254226483,3.2950335970165474,1.321419412240497,A,798.1471999992209,Correct
13,113,469,A,51.87193387934009,63.56768984873026,2.5935966939670045,0.9985189371722274,A,3141.8948999998975,Correct
13,113,470,B,39.22327316787836,18.02197020888274,1.9611636583939178,0.2830884460572006,B,793.7790999994832,Correct
13,113,471,B,37.163453061174124,23.63792889850048,1.8581726530587062,0.3713037188680348,B,943.588400000408,Correct
13,113,472,B,77.31750988209531,52.89872029771132,3.865875494104765,0.8309311553579559,A,1003.7340999997468,Incorrect
13,113,473,B,41.48189626134493,24.263608987510935,2.0740948130672465,0.3811318787236982,B,3189.136099999814,Correct
13,113,474,B,58.044242449387326,31.889598159059915,2.902212122469366,0.5009206365121661,B,678.8391000000047,Correct
13,113,475,A,52.841321676633555,79.78591079385052,2.642066083831678,1.2532741560496568,A,631.6759000001184,Correct
13,113,476,A,37.84466810417541,58.24977864698183,1.8922334052087706,0.9149853833529487,A,1586.9743999992352,Correct
13,113,477,B,79.72910068136247,49.74433190686171,3.9864550340681233,0.7813821383816456,B,4662.012599999798,Correct
13,113,478,A,22.968820342880644,37.06957519627339,1.1484410171440322,0.5822875255415345,A,613.0218999996941,Correct
13,113,479,A,31.588988307079617,52.15292659126523,1.5794494153539806,0.8192162552116331,A,2375.7856000001993,Correct
13,113,480,A,43.72239517841008,57.90499624510637,2.186119758920504,0.9095695540488536,A,837.0469000001322,Correct
13,113,481,B,65.09453384132377,39.7419058641538,3.254726692066188,0.6242643975124135,B,1035.9306000000288,Correct
13,113,482,A,29.526116362791512,45.71230788641371,1.4763058181395758,0.7180472531729603,A,713.184999999612,Correct
13,113,483,A,24.182137781584522,35.221418855067995,1.209106889079226,0.5532567536204531,A,718.7458999997034,Correct
13,113,484,A,42.83294816689946,57.90599290284578,2.1416474083449732,0.9095852095120149,A,1188.8458000003084,Correct
13,113,485,B,81.9519407037062,65.9424759137927,4.09759703518531,1.0358219894514653,B,911.3250000000335,Correct
13,113,486,A,58.579810431946235,81.94761920183653,2.9289905215973118,1.2872301923183176,B,708.858699999837,Incorrect
13,113,487,B,70.31032574372564,40.69556439037452,3.5155162871862817,0.639244430612455,B,813.7038000004395,Correct
13,113,488,B,43.3022191521823,29.35463375835341,2.1651109576091154,0.46110150882031004,B,1134.5357999998669,Correct
13,113,489,A,51.90466520215078,73.78193180894851,2.5952332601075394,1.1589638746932787,B,1828.9168000001155,Incorrect
13,113,490,A,42.56461136772277,66.8303164498056,2.1282305683861384,1.0497681559789518,A,2674.1855999998734,Correct
13,113,491,A,56.233793114219026,81.14259753687686,2.811689655710951,1.2745849415752282,A,771.5746000003492,Correct
13,113,492,B,43.79264262186271,33.23747959097996,2.1896321310931355,0.5220931085343167,B,842.5093999994715,Correct
13,113,493,A,68.94645748484496,84.51778660884824,3.4473228742422477,1.3276022875401372,A,851.6313000000082,Correct
13,113,494,B,41.638275381839954,18.958257976884695,2.0819137690919978,0.29779561992520526,B,1460.485399999925,Correct
13,113,495,A,42.85103794244953,53.71821722526039,2.1425518971224764,0.8438037829940935,A,1920.9029000003284,Correct
13,113,496,B,82.00467651668163,56.437891608056525,4.100233825834081,0.886524328299837,B,818.5672999998133,Correct
13,113,497,A,55.09569591357461,67.24831693632507,2.7547847956787304,1.0563340922671844,A,854.4822000003478,Correct
13,113,498,A,42.06542485807221,52.3068090780601,2.103271242903611,0.8216334356617875,A,1029.3997999997373,Correct
13,113,499,A,31.26814194835325,54.12224761864905,1.5634070974176626,0.8501502775725777,A,1034.37379999923,Correct
13,113,500,A,47.50012317517597,67.95602510045502,2.375006158758799,1.0674507461137654,A,2321.5503000001263,Correct
13,113,501,A,43.41196404201796,50.73318514639561,2.1705982021008983,0.7969150087456363,A,1283.7898999996469,Correct
13,113,502,A,53.15286268181574,79.27210000331911,2.6576431340907867,1.2452032350253137,A,916.3775999995778,Correct
13,113,503,A,46.281087445366964,72.10213805613421,2.314054372268348,1.1325777361263414,A,720.248999999967,Correct
13,113,504,A,43.41185689923847,65.91860799379049,2.1705928449619236,1.035447073040788,A,729.6479000006002,Correct
13,113,505,A,50.41740716766204,71.0914170837616,2.5208703583831022,1.1167013682181668,A,1006.3301000000138,Correct
13,113,506,A,44.958553788944684,68.81827631053227,2.247927689447234,1.0809949564494032,A,584.5743999998376,Correct
13,113,507,B,53.409881316025576,25.986876822963033,2.670494065801279,0.4082009065838177,B,759.2029999996157,Correct
13,113,508,B,59.67229740500168,47.814236331495344,2.9836148702500838,0.7510642679801598,B,1136.3271999998688,Correct
13,113,509,B,45.38879968139912,33.07771835467441,2.269439984069956,0.519583584902787,B,497.1998999999414,Correct
13,113,510,B,60.0026773633729,46.0360805133429,3.0001338681686445,0.7231330617039314,B,566.4231000000655,Correct
13,113,511,B,49.172457739101866,34.162736579463996,2.4586228869550935,0.5366270113228369,B,662.4420000007376,Correct
13,113,512,A,41.04842568091115,63.57975380530829,2.0524212840455576,0.9987084373590212,A,1657.2194999998828,Correct
13,113,513,A,54.92991894869041,65.77709415417321,2.7464959474345205,1.0332241788461733,A,1142.7653999999166,Correct
13,113,514,A,37.976748038785104,56.10008084987,1.898837401939255,0.8812180093187252,A,798.7272999998822,Correct
13,113,515,B,59.16281036270944,43.63179677884485,2.958140518135472,0.6853666611167089,B,726.2589000001753,Correct
13,113,516,B,46.84471173957185,33.35232314165142,2.3422355869785925,0.5238970668098248,B,1759.644599999774,Correct
13,113,517,B,55.701405582754,32.31927105208739,2.7850702791377002,0.507669922533075,B,527.4010000002818,Correct
13,113,518,B,70.7796620343563,59.81876896873264,3.5389831017178155,0.9396310256947777,B,468.90609999991284,Correct
13,113,519,A,60.37973828389086,71.02304163193566,3.0189869141945427,1.1156273291324554,A,1262.5975999999355,Correct
13,113,520,B,84.20024347977342,68.56816462399131,4.2100121739886704,1.0770662112643332,A,1216.2638000008883,Incorrect
13,113,521,A,52.64494208373496,62.019495554338654,2.632247104186748,0.9741999580642758,A,613.8029000003371,Correct
13,113,522,A,16.32803368545834,33.846504056639475,0.8164016842729169,0.5316596424701785,A,904.3236999996225,Correct
13,113,523,B,50.99035218935208,20.601035417090692,2.549517609467604,0.3236003076133763,B,697.9910000000018,Correct
13,113,524,A,37.803315145367435,60.9992543143078,1.8901657572683717,0.9581740461414243,A,729.9921000003451,Correct
13,113,525,B,43.767414408876476,23.93066776638746,2.1883707204438236,0.3759020502519046,B,1033.1748999997217,Correct
13,113,526,A,48.040457302067445,66.89138926334572,2.402022865103372,1.0507274854907103,B,913.76930000024,Incorrect
13,113,527,A,43.50559005392463,55.87476198823935,2.1752795026962315,0.877678708916655,A,572.7924000002531,Correct
13,113,528,B,57.581475309950896,38.78883526233438,2.879073765497545,0.609293599507272,B,668.0170999998154,Correct
13,113,529,A,55.09954663364057,76.1463779425579,2.7549773316820283,1.196104507709059,A,693.6789999999746,Correct
13,113,530,B,86.07175924585763,61.60377022324297,4.303587962292881,0.9676697598338688,B,802.3834999994506,Correct
13,113,531,A,44.734138888310696,67.23726052251833,2.236706944415535,1.056160418525233,A,689.2983000007007,Correct
13,113,532,A,60.78071209862419,82.80055870339604,3.0390356049312093,1.300628134678597,A,1119.384199999331,Correct
13,113,533,B,45.19554511137749,23.165876175148295,2.2597772555688747,0.3638887320290835,B,749.209399999927,Correct
13,113,534,B,70.78883046536882,53.03275654309698,3.539441523268441,0.8330365917770476,B,1249.3594000006851,Correct
13,113,535,B,35.52749243832021,18.346886817524254,1.7763746219160106,0.2881922242108881,B,726.6102999992654,Correct
13,113,536,B,77.98753123275381,59.67287532648267,3.8993765616376903,0.937339333721288,B,1484.7019999997428,Correct
13,113,537,A,27.87205723461662,55.523845658047215,1.393602861730831,0.8721665280918732,A,697.426099999575,Correct
13,113,538,B,61.47455730756276,53.4443704044801,3.073727865378138,0.839502207192232,B,587.1037999995679,Correct
13,113,539,A,33.04491894388226,53.13014248267324,1.652245947194113,0.8345663265387262,A,715.9148999999161,Correct
13,113,540,A,63.80413288039955,88.60222298541959,3.1902066440199777,1.3917604641135943,B,784.9208999996335,Incorrect
13,113,541,A,66.53786020188844,83.4942713133295,3.3268930100944214,1.311524946873945,A,595.6940000005488,Correct
13,113,542,A,15.505999545875067,38.98159396391823,0.7752999772937534,0.6123214461113287,A,539.972100000341,Correct
13,113,543,B,62.77000168400017,50.78966268725414,3.1385000842000084,0.7978021558829064,B,1518.7541000004785,Correct
13,113,544,B,32.95225807890708,20.19516532375826,1.647612903945354,0.31722491509575146,A,1412.3227999998562,Incorrect
13,113,545,A,51.939349379298044,66.46052387388492,2.596967468964902,1.0439594677796296,B,1957.441800000197,Incorrect
13,113,546,B,37.17025667325025,14.238024253523033,1.8585128336625127,0.2236503619825063,B,1477.4240999995527,Correct
13,113,547,A,36.79695172884311,49.04716000535589,1.8398475864421555,0.7704309877613459,A,1220.9073000003627,Correct
13,113,548,A,29.013997808640035,41.67639278475686,1.4506998904320016,0.654651247003574,B,1696.5361000002304,Incorrect
13,113,549,A,20.6134506457684,41.1650018729777,1.0306725322884198,0.646618337345784,A,563.8676000007763,Correct
