subject,day,trial,cat,x,y,xt,yt,resp,rt,fb
18,318,0,B,48.34930048110126,40.03227387223808,2.4174650240550632,0.6288254875175888,B,823.4522000002471,Correct
18,318,1,A,52.381728137712635,68.53592781374888,2.619086406885632,1.0765598366331692,B,542.3659999996744,Incorrect
18,318,2,B,50.14381018054925,42.644986856180225,2.5071905090274624,0.6698658870990454,B,452.1883000015805,Correct
18,318,3,B,72.15173848157879,40.58568946862506,3.607586924078939,0.6375185193775457,B,576.0490000011487,Correct
18,318,4,A,37.98791302879136,45.22866375264406,1.899395651439568,0.7104501888849477,A,385.45979999980773,Correct
18,318,5,B,60.24005244907947,31.894990412880674,3.0120026224539735,0.5010053378371141,B,514.310900000055,Correct
18,318,6,A,38.798403195269664,64.1609483640397,1.9399201597634832,1.0078378201391058,A,452.26309999998193,Correct
18,318,7,A,29.64667069995555,47.274923830354986,1.4823335349977775,0.7425927670223014,A,499.97520000033546,Correct
18,318,8,A,68.33474411305882,86.16413164101985,3.4167372056529413,1.353463014831859,B,451.74539999970875,Incorrect
18,318,9,A,45.72716478671464,57.58923919757542,2.286358239335732,0.9046096539446414,A,277.68810000088706,Correct
18,318,10,A,51.58483777324455,64.92609221035823,2.579241888662228,1.0198566715717745,A,596.0958999985451,Correct
18,318,11,B,58.74906381061161,49.161909405527105,2.9374531905305803,0.7722334671242544,B,515.7703999993828,Correct
18,318,12,B,79.27018046982643,64.42934795820206,3.963509023491321,1.0120538311053406,A,329.33389999925566,Incorrect
18,318,13,A,42.97570979134965,53.34492145579563,2.1487854895674827,0.8379400667592604,A,539.267000000109,Correct
18,318,14,B,60.78147531553714,47.153187216958855,3.039073765776857,0.7406805327707104,B,552.2443999998359,Correct
18,318,15,B,74.06945284377001,53.165754648739465,3.7034726421885007,0.8351257211351865,B,428.4146999998484,Correct
18,318,16,B,52.45509779209733,37.039792000196606,2.6227548896048667,0.5818196921915582,A,628.9610999992874,Incorrect
18,318,17,B,42.82921577679052,20.77411009781191,2.141460788839526,0.3263189583407572,B,265.69130000098085,Correct
18,318,18,B,57.719211284165475,32.07389764365841,2.8859605642082737,0.5038156060465412,B,455.50960000036866,Correct
18,318,19,B,62.39939555433694,35.66525440777233,3.119969777716847,0.5602285061793427,B,872.0769999999902,Correct
18,318,20,A,52.328561545909196,74.06258146399226,2.6164280772954602,1.1633723091658683,A,532.7668999998423,Correct
18,318,21,B,72.13232268631066,59.96551487648636,3.6066161343155327,0.941936105023495,B,502.1369999994931,Correct
18,318,22,B,72.71715851932147,42.496206144302974,3.6358579259660733,0.6675288451418981,B,714.2934999992576,Correct
18,318,23,A,36.51401757207485,69.13023700299392,1.8257008786037425,1.085895223547635,A,432.6703999995516,Correct
18,318,24,A,41.40902151094594,55.98023076556882,2.070451075547297,0.8793354085968618,A,478.50389999985055,Correct
18,318,25,B,73.51935147525232,45.39011311846279,3.675967573762616,0.712986229592862,B,503.3112000000983,Correct
18,318,26,B,59.3118077333407,48.05881257657882,2.965590386667035,0.754906062654144,B,486.7837999991025,Correct
18,318,27,B,75.38534406505384,50.976717748918475,3.769267203252692,0.8007404099206135,B,513.0221999988862,Correct
18,318,28,B,73.15358236827971,59.85996599189231,3.657679118413986,0.9402781470213186,B,457.3182000003726,Correct
18,318,29,B,89.12207988075093,64.51839100192161,4.456103994037546,1.0134525159653538,B,342.0338999985688,Correct
18,318,30,B,67.6711179367281,53.5185208020046,3.3835558968364046,0.8406669589128509,B,346.4741000007052,Correct
18,318,31,B,65.69091388553748,41.771454736656175,3.2845456942768743,0.656144476652188,B,355.3100999997696,Correct
18,318,32,B,42.391565953031105,34.2752839019439,2.119578297651555,0.5383949005302573,B,312.2927999993408,Correct
18,318,33,A,42.01668333936343,68.97182338188544,2.1008341669681716,1.0834068682061202,B,699.3518999988737,Incorrect
18,318,34,B,49.303054245430424,34.69638702274058,2.465152712271521,0.5450095728837503,B,385.43059999938123,Correct
18,318,35,A,48.90412230209697,64.47605743100065,2.4452061151048485,1.012787541788326,B,524.4711999985157,Incorrect
18,318,36,B,54.72472444234386,25.977952562283015,2.736236222117193,0.4080607246248623,A,645.0284000002284,Incorrect
18,318,37,B,69.33203976171944,43.96792833310426,3.466601988085972,0.6906466032242143,B,454.4547999994393,Correct
18,318,38,A,50.76920908236756,71.1189166483472,2.5384604541183777,1.117133330368562,B,543.8326999992569,Incorrect
18,318,39,A,20.285746645681904,42.70835462195985,1.0142873322840953,0.6708612656362838,A,320.9705999997823,Correct
18,318,40,A,12.160469853646312,38.70397558702082,0.6080234926823156,0.6079606268445166,A,513.2826999997633,Correct
18,318,41,A,38.30592019987258,62.53830546364292,1.9152960099936291,0.9823494050626751,A,464.17680000013206,Correct
18,318,42,B,52.59404440913871,45.70876246096243,2.629702220456936,0.7179915617602025,A,447.419500000251,Incorrect
18,318,43,A,21.522188639080973,53.446398174731605,1.0761094319540487,0.8395340593328586,A,589.9728000003961,Correct
18,318,44,A,53.624267557909334,74.03595454238096,2.6812133778954665,1.1629540544592594,A,572.072400000252,Correct
18,318,45,B,80.9832160728665,62.81621009626791,4.049160803643325,0.9867147208239413,B,481.30570000103035,Correct
18,318,46,A,64.46172246609883,87.85701689548699,3.2230861233049417,1.3800547942258814,B,388.1106999997428,Incorrect
18,318,47,A,20.83931323195355,43.43169966672839,1.0419656615976776,0.6822235430295609,A,357.24649999974645,Correct
18,318,48,B,55.23262287908362,40.48617346462689,2.7616311439541814,0.6359553256421692,A,410.76280000015686,Incorrect
18,318,49,A,33.09867004897491,46.53585877467506,1.6549335024487453,0.7309835602750564,A,407.4588000003132,Correct
18,318,50,A,47.12150489899926,54.399239413596774,2.356075244949963,0.8545012545131397,A,388.1567000007635,Correct
18,318,51,B,76.6366336165453,50.537657997232145,3.8318316808272646,0.7938436754686898,B,499.6171000002505,Correct
18,318,52,B,84.42936483079163,56.87171615136351,4.221468241539582,0.8933388282908379,A,456.03099999971164,Incorrect
18,318,53,B,38.78251194688958,13.58542074908567,1.9391255973444788,0.21339929010626943,A,341.61149999999907,Incorrect
18,318,54,B,44.08735643719112,14.703210377487284,2.204367821859556,0.2309574885304963,B,296.37560000082885,Correct
18,318,55,A,17.26675871269105,39.94794840081939,0.8633379356345526,0.6275009061099915,A,532.8276999989612,Correct
18,318,56,A,51.809536773374646,76.46077129610443,2.5904768386687325,1.2010429869582548,A,466.59159999944677,Correct
18,318,57,B,81.34044394430028,63.345869221591144,4.067022197215014,0.9950345869090527,B,518.2270000004792,Correct
18,318,58,A,54.69456503326205,83.55241045801385,2.7347282516631024,1.3124381944230767,A,424.9499999987165,Correct
18,318,59,B,57.86354640581555,47.5836754493955,2.893177320290777,0.7474426261131094,A,446.2366000007023,Incorrect
18,318,60,A,24.158829487278567,42.107112085616166,1.2079414743639283,0.6614169699602687,B,264.213500000551,Incorrect
18,318,61,B,75.61618225343591,53.59945691781824,3.7808091126717955,0.841938300447102,B,521.3449000002583,Correct
18,318,62,B,34.568764258130756,21.77400638778995,1.7284382129065379,0.3420252925354907,A,480.22780000064813,Incorrect
18,318,63,B,42.46355551685606,27.56264913872389,2.123177775842803,0.43295308023844004,B,331.27779999995255,Correct
18,318,64,A,41.953920796518304,67.18025833626251,2.097696039825915,1.0552650302773339,B,413.79179999967164,Incorrect
18,318,65,B,84.60300517637073,56.42135178522764,4.2301502588185365,0.8862645213703826,A,459.8805000005086,Incorrect
18,318,66,A,46.18630490933046,75.0933489471584,2.309315245466523,1.1795635669292384,B,679.2177000006632,Incorrect
18,318,67,B,52.56987161655063,44.02258059287988,2.6284935808275316,0.6915050789132802,A,341.5947999983473,Incorrect
18,318,68,A,18.537900684337103,35.45499807517993,0.9268950342168552,0.5569258074301277,B,314.82820000019274,Incorrect
18,318,69,A,33.26344752314161,42.556919119985565,1.6631723761570805,0.6684825223338083,A,637.5887000012881,Correct
18,318,70,A,64.126103122942,76.63244256952495,3.2063051561471,1.2037395930153065,B,464.0727000005427,Incorrect
18,318,71,A,23.277789142173646,54.40333250210988,1.1638894571086822,0.854565548597156,A,370.88849999963713,Correct
18,318,72,A,30.002949242222876,53.316913152816596,1.500147462111144,0.8375001133648682,A,421.92040000009,Correct
18,318,73,A,34.19730763760943,64.25678579647554,1.7098653818804712,1.0093432310075026,A,429.3852999999217,Correct
18,318,74,A,33.78111049373415,60.243643998927034,1.6890555246867074,0.9463049470625401,A,469.35450000091805,Correct
18,318,75,B,74.83001269659903,64.57483314397058,3.7415006348299515,1.0143391070594232,B,502.22519999988435,Correct
18,318,76,A,36.16666054651666,59.54071207195125,1.808333027325833,0.9352633181737358,A,458.39499999965483,Correct
18,318,77,A,17.9162758459665,34.1932876321175,0.8958137922983249,0.5371069061357153,A,545.3082000003633,Correct
18,318,78,A,30.450703182529423,59.28873474505161,1.522535159126471,0.9313052675784403,A,457.0343999985198,Correct
18,318,79,B,82.89537997478591,68.83459865866912,4.144768998739296,1.0812513472943837,B,470.5831000010221,Correct
18,318,80,B,67.26378210264501,39.87215271690523,3.3631891051322502,0.6263103102911989,B,560.2197000007436,Correct
18,318,81,B,80.60237916529007,61.0945968321041,4.030118958264504,0.9596716829088425,B,385.92220000100497,Correct
18,318,82,B,72.63177283460821,53.520042884584825,3.631588641730411,0.8406908677301118,B,383.71969999934663,Correct
18,318,83,A,16.188839295412606,33.2898891546435,0.8094419647706304,0.5229163560352327,A,405.2698999985296,Correct
18,318,84,A,33.06559759425448,59.69950555364364,1.653279879712724,0.9377576403513495,A,538.5263999996823,Correct
18,318,85,B,32.7795209490534,11.713289010027552,1.6389760474526698,0.18399191351638305,A,468.2085000004008,Incorrect
18,318,86,A,59.33570972131194,69.84714459356374,2.9667854860655973,1.0971563816468195,B,748.228200000085,Incorrect
18,318,87,B,31.98015259863839,15.974437418441049,1.5990076299319196,0.25092587619502155,A,440.9240000004502,Incorrect
18,318,88,B,51.48917563509363,22.79891975067409,2.5744587817546813,0.35812459399250485,B,385.4988000002777,Correct
18,318,89,B,45.64359483858383,24.618431419945615,2.2821797419291916,0.38670541645902645,B,407.3433000012301,Correct
18,318,90,B,75.25863410952394,45.17553040374737,3.762931705476197,0.7096155721921755,B,484.55189999913273,Correct
18,318,91,A,31.99692972320808,64.95696902366898,1.599846486160404,1.020341683421091,A,543.3330000014394,Correct
18,318,92,A,20.526179533847518,50.23668213170791,1.0263089766923759,0.789115957628496,A,660.6007999998837,Correct
18,318,93,A,64.46062825617571,87.58509342665656,3.2230314128087856,1.3757834303657994,B,498.12699999893084,Incorrect
18,318,94,A,47.23992597054702,69.00819553921062,2.361996298527351,1.0839782007173602,B,518.0146000002424,Incorrect
18,318,95,A,16.85681604896286,43.07495617837074,0.8428408024481429,0.6766198294183591,A,470.0376000000688,Correct
18,318,96,A,18.54343599814086,49.60531457944052,0.9271717999070431,0.779198459308905,A,395.79000000048836,Correct
18,318,97,A,12.69810521563167,40.0242152177169,0.6349052607815835,0.6286989024683811,A,465.9130999989429,Correct
18,318,98,B,59.70202199917646,34.42684384107182,2.9851010999588232,0.5407755984869712,B,521.3698000006843,Correct
18,318,99,B,43.45401796856209,20.863876784262203,2.1727008984281047,0.32772901015420386,A,293.56519999964803,Incorrect
18,318,100,B,56.55868890845136,36.4205839094944,2.827934445422568,0.5720931942475912,B,337.409600000683,Correct
18,318,101,B,38.76674540777777,16.677521545054752,1.9383372703888884,0.2619698958301475,B,479.1927999995096,Correct
18,318,102,A,53.81233695772814,72.58743825609807,2.690616847886407,1.1402008138413018,A,559.7821000010299,Correct
18,318,103,A,69.57895357000345,86.00177035106721,3.4789476785001727,1.3509126496531463,A,527.5406999990082,Correct
18,318,104,B,53.39440602845663,26.472636243635456,2.6697203014228315,0.4158311977208002,A,389.34510000035516,Incorrect
18,318,105,B,56.39437740384088,32.2491369370908,2.8197188701920437,0.5065682584308785,B,390.7369999997172,Correct
18,318,106,B,69.80571285386081,49.845519104595496,3.4902856426930406,0.7829715831668345,B,378.60230000114825,Correct
18,318,107,B,40.017533602385456,14.411820833834497,2.0008766801192728,0.2263803522821339,B,296.14459999902465,Correct
18,318,108,A,25.503192356575198,50.761178715378755,1.2751596178287599,0.7973547306989626,A,318.5120999987703,Correct
18,318,109,B,64.64781268529102,48.35633351192477,3.2323906342645508,0.759579510578004,A,320.9965000005468,Incorrect
18,318,110,B,87.70265828950839,62.82863819753,4.385132914475419,0.9869099409820565,B,291.522100000293,Correct
18,318,111,B,43.34844461721032,20.012726194849268,2.1674222308605158,0.3143591679602124,B,330.956600000718,Correct
18,318,112,A,38.52780059513502,68.40437752009485,1.926390029756751,1.074493449452564,B,331.26220000121975,Incorrect
18,318,113,B,40.8454041045993,24.477041878737175,2.042270205229965,0.38448447473925207,A,237.2111999993649,Incorrect
18,318,114,B,70.0053361374977,54.32605501248885,3.5002668068748846,0.8533516766287497,B,309.49060000057216,Correct
18,318,115,A,12.265410751216368,34.325843558112226,0.6132705375608184,0.5391890897521894,B,303.19779999990715,Incorrect
18,318,116,B,33.06326223962365,15.798712713285788,1.6531631119811823,0.24816559898117146,A,289.37260000020615,Incorrect
18,318,117,A,24.874409799832303,45.711919983458614,1.2437204899916152,0.7180411600075902,B,331.02730000064184,Incorrect
18,318,118,B,83.11282429268518,61.70554381067194,4.155641214634259,0.9692684156068506,A,306.52679999911925,Incorrect
18,318,119,A,55.06279882041283,69.54869549737788,2.7531399410206414,1.0924683542065794,B,367.79349999960687,Incorrect
18,318,120,A,51.84899160415053,65.55467162817877,2.5924495802075262,1.0297303739778882,A,303.5626000000775,Correct
18,318,121,A,25.678648226267576,44.56135113757795,1.2839324113133788,0.6999680668392503,A,342.99019999889424,Correct
18,318,122,B,31.817928023471108,16.061717335004072,1.5908964011735554,0.2522968659184231,A,396.80779999980587,Incorrect
18,318,123,B,41.43350070053638,22.609212936758844,2.0716750350268187,0.35514468632784446,B,360.41260000092734,Correct
18,318,124,A,33.28912533542635,51.67209310448553,1.6644562667713174,0.8116633404632978,B,281.7519000000175,Incorrect
18,318,125,A,33.48882342842113,42.72023015907054,1.6744411714210565,0.6710478061370057,B,491.17480000131764,Incorrect
18,318,126,A,50.807828330939316,81.35597619385304,2.540391416546966,1.2779366856811738,A,338.1253999996261,Correct
18,318,127,B,45.10658620914717,28.112284481197367,2.255329310457358,0.4415867320087799,A,413.4209000003466,Incorrect
18,318,128,B,34.67170704017876,22.28323482919701,1.7335853520089382,0.35002423418810763,B,327.94990000002144,Correct
18,318,129,A,42.088246170629205,64.38979200932944,2.10441230853146,1.0114324877134206,A,667.7920000001905,Correct
18,318,130,B,56.045086201614374,25.405434418881935,2.802254310080719,0.39906763065808387,A,763.8016999990214,Incorrect
18,318,131,A,17.885599530543214,37.37951423965548,0.8942799765271607,0.5871560366502836,A,558.5731999999552,Correct
18,318,132,B,52.31449848162176,21.65460473031495,2.6157249240810883,0.34014973568574114,A,588.4120999999141,Incorrect
18,318,133,A,61.94107279077453,86.65290230334236,3.0970536395387263,1.3611406064420721,B,310.0938000006863,Incorrect
18,318,134,B,42.31430569244312,32.78721610061708,2.1157152846221563,0.515020386166798,A,43.61659999995027,Incorrect
18,318,135,B,33.841152699073575,22.473828620038095,1.6920576349536787,0.35301807445373856,B,246.91180000081658,Correct
18,318,136,A,48.04027012761624,64.54735761601387,2.4020135063808117,1.0139075224755119,B,295.5074000001332,Incorrect
18,318,137,B,68.4713137272364,46.32194579770473,3.4235656863618202,0.7276234230902687,B,541.861699999572,Correct
18,318,138,B,53.8986063701799,34.69460133072504,2.694930318508995,0.5449815232991623,B,582.1517000003951,Correct
18,318,139,B,36.685187409823925,20.960432338103896,1.8342593704911963,0.3292457012472657,B,289.74609999932,Correct
18,318,140,B,73.1282047712136,44.0609327174277,3.6564102385606803,0.692107512676925,B,279.58159999980126,Correct
18,318,141,A,58.507998476311684,80.75419883647955,2.925399923815584,1.2684839890560677,B,304.41700000119454,Incorrect
18,318,142,A,20.274965243681383,46.161504538224335,1.013748262184069,0.7251032176796873,A,299.7380000015255,Correct
18,318,143,B,85.46538175859455,64.23551668083631,4.2732690879297275,1.0090091365203,B,445.95699999990757,Correct
18,318,144,B,64.67696136455602,36.35288597040188,3.233848068227801,0.57102979750701,B,320.73700000000827,Correct
18,318,145,B,63.939032147278475,42.824442324181206,3.196951607363924,0.6726847669986373,B,545.2993999988394,Correct
18,318,146,B,74.10813606022413,61.795506108444016,3.7054068030112064,0.9706815400757546,B,330.6771999996272,Correct
18,318,147,B,86.35513485758291,68.62982298092152,4.317756742879146,1.078034738470155,B,392.7715999998327,Correct
18,318,148,A,10.59108708732905,33.277002327391955,0.5295543543664525,0.522713930226125,A,477.4619999989227,Correct
18,318,149,B,45.750292212713,19.724511258028958,2.28751461063565,0.3098318983193647,B,365.49839999861433,Correct
18,318,150,A,48.4290355657139,79.28450968115807,2.421451778285695,1.2453981657889752,A,328.26050000039686,Correct
18,318,151,A,21.932393606629613,34.23771371403038,1.0966196803314807,0.5378047493985417,B,297.4231999996846,Incorrect
18,318,152,A,52.766904334923574,72.36793751295599,2.6383452167461785,1.1367529042307385,A,83.62360000137414,Correct
18,318,153,B,57.534601800127604,29.434240985639512,2.87673009000638,0.46235197622238344,B,251.3665000005858,Correct
18,318,154,A,24.39300222019512,43.11952753052185,1.219650111009756,0.6773199545807513,A,280.0748999998177,Correct
18,318,155,B,63.46200586575905,43.21561078237347,3.173100293287953,0.6788292267715016,B,323.09929999973974,Correct
18,318,156,B,70.87513320298834,45.382444754856955,3.5437566601494166,0.7128657752190163,A,3363.102199999048,Incorrect
18,318,157,A,30.50022124931415,58.833032020277706,1.5250110624657076,0.9241471059165874,B,299.97499999990396,Incorrect
18,318,158,A,60.647419638571975,81.19382306069303,3.032370981928599,1.2753895902217136,B,434.0513999995892,Incorrect
18,318,159,B,66.6514920772224,56.68061334948578,3.3325746038611204,0.8903369924985405,A,206.22089999960735,Incorrect
18,318,160,B,37.94132850880335,15.382350263963794,1.8970664254401675,0.24162539292106835,B,342.2246999998606,Correct
18,318,161,B,37.82271719046787,16.308047465279532,1.8911358595233936,0.2561662105565791,B,384.6840999995038,Correct
18,318,162,A,45.60139036286646,56.38657007264409,2.280069518143323,0.8857181715067237,B,342.2277000008762,Incorrect
18,318,163,A,23.55856786681484,53.79626235859099,1.177928393340742,0.8450297130816927,A,440.45659999937925,Correct
18,318,164,B,53.08430095065887,30.992527377035593,2.6542150475329436,0.48682948161937784,A,446.55799999964074,Incorrect
18,318,165,B,45.36710751574081,36.49236378983042,2.2683553757870407,0.5732207099712872,B,276.9138000003295,Correct
18,318,166,A,41.10703719124632,60.795523529095675,2.055351859562316,0.9549738504507619,B,281.07920000002196,Incorrect
18,318,167,B,66.1940215021144,50.90441733319985,3.30970107510572,0.799604717646248,B,302.5649999999587,Correct
18,318,168,B,64.68609929383962,45.75822437585273,3.234304964691981,0.7187685077024617,B,304.56709999998566,Correct
18,318,169,B,67.160599764882,43.14550907006788,3.3580299882441,0.6777280716495852,B,562.2129000003042,Correct
18,318,170,B,52.27665218781587,36.921389116708184,2.6138326093907938,0.5799598240469028,B,500.7363000004261,Correct
18,318,171,A,15.315140039679765,33.96539963072074,0.7657570019839882,0.5335272497805688,B,325.8410999987973,Incorrect
18,318,172,A,19.843438963080402,35.54642999239926,0.9921719481540201,0.558362016627327,A,416.053799999645,Correct
18,318,173,A,64.93173715937868,86.31510373089226,3.2465868579689343,1.3558344788740604,A,697.1807999998418,Correct
18,318,174,A,19.937555390874184,47.362877467963806,0.9968777695437092,0.7439743395311432,A,193.4782999996969,Correct
18,318,175,A,25.019050813878742,37.14461215469444,1.2509525406939372,0.583466203328151,A,311.5643999990425,Correct
18,318,176,B,84.90379943160968,60.07078626503631,4.245189971580484,0.9435897041280035,B,545.4976999990322,Correct
18,318,177,B,71.84214540894953,52.91245802262077,3.592107270447477,0.8311469470362187,B,453.4393000012642,Correct
18,318,178,B,59.72697167057112,45.877832145010736,2.9863485835285557,0.7206473021469569,B,350.7731999998214,Correct
18,318,179,B,74.1306044570015,48.66861746662575,3.7065302228500747,0.7644848554676167,B,332.6006999996025,Correct
18,318,180,B,71.75369059908229,60.4054878817989,3.5876845299541147,0.9488471848298334,B,311.90779999997176,Correct
18,318,181,B,45.1695176054417,23.48945462727867,2.258475880272085,0.3689714904694472,A,823.8982000002579,Incorrect
18,318,182,B,76.11578759952451,59.17981736099267,3.805789379976226,0.9295943973104013,B,130.977000000712,Correct
18,318,183,A,54.05268987934609,80.52846309447246,2.702634493967304,1.2649381403123572,B,380.3718999988632,Incorrect
18,318,184,B,75.2186029404995,55.26965030904122,3.760930147024975,0.8681736368868036,A,379.2856000000029,Incorrect
18,318,185,A,66.7877849272354,85.10571639141239,3.3393892463617703,1.336837466968788,A,714.7334000001138,Correct
18,318,186,B,62.35885083166091,34.71537710422546,3.1179425415830457,0.5453078683861701,B,354.7913000002154,Correct
18,318,187,B,72.22820897109474,62.728657136739926,3.6114104485547376,0.9853394421516756,B,403.0654999987746,Correct
18,318,188,A,56.08232128770965,80.46265115983724,2.8041160643854823,1.2639043688605145,B,376.598599999852,Incorrect
18,318,189,A,60.15092023628402,75.56538536611019,3.0075460118142012,1.1869782976592673,A,457.4635000008129,Correct
18,318,190,A,22.423242551832114,43.509295442386446,1.1211621275916057,0.6834424146233457,A,491.12090000016906,Correct
18,318,191,A,48.987587279145835,74.76953311998477,2.449379363957292,1.1744770798104145,A,490.86159999933443,Correct
18,318,192,B,32.60435039589488,15.016656418068646,1.630217519794744,0.23588108742243238,A,453.3482999995613,Incorrect
18,318,193,B,49.911847416957016,34.80308558347742,2.495592370847851,0.5466855899565475,B,39.298199999393546,Correct
18,318,194,A,30.016778521390304,43.96260847459878,1.5008389260695152,0.6905630390822195,B,320.95590000062657,Incorrect
18,318,195,B,54.92941427330449,25.803631532309172,2.746470713665224,0.4053224962892021,A,287.3216999996657,Incorrect
18,318,196,A,33.43456661929989,63.13899646377716,1.6717283309649946,0.9917850372281711,B,192.45930000033695,Incorrect
18,318,197,A,41.80059407490792,53.86903771088872,2.0900297037453957,0.8461728656423977,A,333.9857999999367,Correct
18,318,198,B,56.80062910350852,29.92598191339863,2.840031455175426,0.4700762246529708,A,362.13499999939813,Incorrect
18,318,199,B,39.40969801687523,28.65356528496963,1.9704849008437617,0.45008915099208063,B,138.988500000778,Correct
18,318,200,B,57.84720828342763,25.424508248940775,2.8923604141713817,0.39936724168002713,B,348.38399999898684,Correct
18,318,201,A,61.99585088254912,72.04602243723171,3.099792544127456,1.1316962740458627,B,288.5260000002745,Incorrect
18,318,202,A,42.63060227656385,72.85232465159429,2.1315301138281924,1.144361639611936,A,354.7285999993619,Correct
18,318,203,A,28.29444954100599,49.64095873319999,1.4147224770502993,0.7797583563668756,A,247.43560000024445,Correct
18,318,204,A,63.923444566821736,80.29149944440118,3.196172228341087,1.2612159240011984,A,307.3508999987098,Correct
18,318,205,A,41.14796458259161,73.56956642882807,2.0573982291295807,1.1556280471029627,B,327.7804000008473,Incorrect
18,318,206,A,26.582310861636476,41.951844179944935,1.3291155430818238,0.6589780274012935,A,241.98689999866474,Correct
18,318,207,B,46.489712138143744,23.020031579677106,2.3244856069071873,0.36159781048059314,A,731.658000000607,Incorrect
18,318,208,A,33.821566030105785,42.08725239683943,1.691078301505289,0.6611050146984508,B,211.93250000033004,Incorrect
18,318,209,B,59.60411683770908,51.78816991133198,2.980205841885454,0.8134866706815026,A,229.61380000015197,Incorrect
18,318,210,B,70.50912695699982,48.335022234227516,3.5254563478499907,0.7592447538107423,B,227.16500000024098,Correct
18,318,211,A,39.91051934330917,56.847296149653715,1.9955259671654586,0.8929552398009771,B,420.2452000008634,Incorrect
18,318,212,B,84.43692076749393,63.512160805325266,4.2218460383746965,0.9976466889981171,A,330.06960000057006,Incorrect
18,318,213,B,84.14034456162328,56.939457326243044,4.207017228081164,0.8944029041775734,B,514.1153999993548,Correct
18,318,214,B,53.44207784955302,46.73604655915113,2.6721038924776512,0.7341281026402985,B,721.5534999995725,Correct
18,318,215,A,37.66769845122348,65.61155927189712,1.883384922561174,1.0306239629958165,B,644.0187999996851,Incorrect
18,318,216,B,42.107732079666135,24.115004454855796,2.1053866039833067,0.3787976041833005,A,416.2235999992845,Incorrect
18,318,217,B,81.30912869523321,55.670360633254816,4.065456434761661,0.8744679799406387,B,1020.9080000004178,Correct
18,318,218,B,55.49271103875999,30.444450683798834,2.7746355519379993,0.4782203130539958,A,1868.3921000010741,Incorrect
18,318,219,B,50.00584606147867,33.094008843706945,2.5002923030739335,0.5198394753061268,A,2348.958099999436,Incorrect
18,318,220,B,46.90856209083242,18.066150663883672,2.3454281045416208,0.28378243102151657,B,2363.3348000003025,Correct
18,318,221,B,83.65316270433412,64.14180273099203,4.182658135216706,1.0075370812384514,A,294.101800000135,Incorrect
18,318,222,B,85.89073796043814,57.374399893222005,4.294536898021907,0.9012349660433464,B,619.9307000006229,Correct
18,318,223,A,61.73839943825782,79.03664913505312,3.086919971912891,1.241504781435185,B,576.6707000002498,Incorrect
18,318,224,B,41.57112714456586,20.53058339214411,2.0785563572282926,0.3224936497933627,A,475.4192999989755,Incorrect
18,318,225,A,34.58747834592342,43.00269108628267,1.729373917296171,0.6754846920062845,B,260.2621999994881,Incorrect
18,318,226,B,80.98460918889904,55.18365947123161,4.049230459444953,0.8668228959651101,B,398.48130000063975,Correct
18,318,227,A,18.062543206548895,36.055371100029966,0.9031271603274448,0.5663564448515394,A,563.9912000006007,Correct
18,318,228,A,43.47358833999904,75.38740643929167,2.173679416999952,1.184182611214333,B,475.18850000051316,Incorrect
18,318,229,A,23.81337681072604,38.17878433307183,1.190668840536302,0.5997109419188378,A,348.02420000050915,Correct
18,318,230,B,51.862161942238416,27.54065426942815,2.5931080971119207,0.43260758563945917,A,474.10219999983383,Incorrect
18,318,231,A,14.793646818898601,36.96310060718853,0.73968234094493,0.5806150266072195,B,205.41969999976573,Incorrect
18,318,232,A,43.76559013416669,70.49367100523038,2.188279506708335,1.1073119947730379,A,449.0446999989217,Correct
18,318,233,B,71.33859341236102,44.46207185946842,3.5669296706180513,0.6984085915854373,B,514.440699998886,Correct
18,318,234,B,66.75527564307869,57.12377344906899,3.3377637821539343,0.8972981350646142,B,483.8347999993857,Correct
18,318,235,B,32.0654026256458,16.4212384487794,1.60327013128229,0.257944210367658,A,465.9321999988606,Incorrect
18,318,236,B,46.96835867204333,22.73551325493344,2.3484179336021667,0.3571286070864613,B,299.29190000075323,Correct
18,318,237,B,43.344197905500806,30.37146392120235,2.1672098952750405,0.47707383966808375,B,519.4721999996545,Correct
18,318,238,A,49.462243377216275,77.75988748733579,2.4731121688608138,1.2214494563709148,B,446.92980000036187,Incorrect
18,318,239,A,59.7431300267972,69.59805616181865,2.98715650133986,1.0932437097104966,A,256.35650000003807,Correct
18,318,240,A,27.49716570188682,43.62568399172612,1.374858285094341,0.6852706416811831,A,392.8855000012845,Correct
18,318,241,A,22.996876560164967,54.323563977762305,1.1498438280082484,0.8533125475467658,B,252.7695999997377,Incorrect
18,318,242,B,70.4529320935852,51.3865980078504,3.5226466046792604,0.8071787939721735,A,614.9954000011348,Incorrect
18,318,243,B,56.59808224193032,28.569670864450202,2.829904112096516,0.4487713405161756,B,271.5735000001587,Correct
18,318,244,B,59.33007204013196,31.302871668543872,2.9665036020065982,0.4917043583508075,B,249.53570000070613,Correct
18,318,245,A,17.826577105003835,44.03220713094379,0.8913288552501918,0.6916562922195856,A,469.4103999991057,Correct
18,318,246,B,34.57495896785957,12.975233337353114,1.7287479483929786,0.20381448865620955,B,398.83019999979297,Correct
18,318,247,A,48.89524510936683,63.49007225622101,2.444762255468342,0.9972997228801452,B,604.3241999996098,Incorrect
18,318,248,A,36.37950244802991,48.280317508826315,1.8189751224014956,0.7583854539935571,A,349.4296000008035,Correct
18,318,249,B,73.8066639141345,41.4597079869781,3.6903331957067254,0.6512475701593423,B,489.06409999835887,Correct
18,318,250,A,56.23926976248722,80.13543565584854,2.811963488124361,1.2587644797431568,B,465.07220000057714,Incorrect
18,318,251,B,45.87482048184022,35.77319739397106,2.293741024092011,0.5619240706415851,A,452.07850000042527,Incorrect
18,318,252,A,66.1602308498109,88.26595652152133,3.308011542490545,1.3864784028504373,B,332.93679999951564,Incorrect
18,318,253,A,29.606359883262897,62.217786919634236,1.4803179941631448,0.9773147115466901,A,719.4591999996192,Correct
18,318,254,A,59.191864042240766,75.23592451955982,2.959593202112038,1.1818031387834265,B,553.9143999994849,Incorrect
18,318,255,A,43.634532480670146,67.22299179753502,2.1817266240335074,1.0559362859173147,A,465.95870000055584,Correct
18,318,256,B,88.54434943920401,61.79640364859158,4.4272174719602,0.9706956386034239,B,521.4433000001009,Correct
18,318,257,B,58.899918920381765,29.49866169376225,2.9449959460190884,0.4633638943392706,A,447.79530000050727,Incorrect
18,318,258,B,77.03534020055555,55.60712035867181,3.8517670100277774,0.873474604030434,B,486.7209999993065,Correct
18,318,259,A,26.30465170073427,47.31122323955533,1.3152325850367135,0.7431629568086685,A,516.7755000002217,Correct
18,318,260,A,60.54887378302503,75.7055735941119,3.0274436891512515,1.1891803691953167,B,494.473000000653,Incorrect
18,318,261,A,28.880211881525156,61.906744298630876,1.4440105940762578,0.9724288654812028,A,472.6970000010624,Correct
18,318,262,B,59.81697119249326,46.702431789405445,2.990848559624663,0.7336000830718729,B,439.84480000108306,Correct
18,318,263,A,43.38164179812831,54.68432355790001,2.169082089906415,0.8589793457801297,B,539.2087000000174,Incorrect
18,318,264,A,64.9211827843095,81.36006238362222,3.246059139215475,1.2780008713999744,A,379.75209999967774,Correct
18,318,265,B,58.462077171507,47.48003073781976,2.9231038585753497,0.7458145787907606,A,383.6369000000559,Incorrect
18,318,266,A,20.900787714976847,51.56712573187433,1.0450393857488423,0.8100145168299879,A,504.2178999992757,Correct
18,318,267,B,40.044988279053086,26.996635684929394,2.0022494139526543,0.4240621616970712,A,524.9308000002202,Incorrect
18,318,268,A,64.42162695237178,77.26324393509097,3.221081347618589,1.2136481976949898,B,459.8171999987244,Incorrect
18,318,269,B,52.906218534971124,28.032038626676986,2.6453109267485564,0.44032623307356866,A,467.3014999989391,Incorrect
18,318,270,A,40.57989132612675,49.30526222606582,2.0289945663063373,0.7744852479636336,B,390.8656000003248,Incorrect
18,318,271,B,58.36242589513707,44.41126673720409,2.918121294756854,0.6976105465910855,A,360.0222999994003,Incorrect
18,318,272,A,40.64742593505181,69.12961258299765,2.0323712967525904,1.0858854151812696,B,385.94519999969634,Incorrect
18,318,273,B,81.48070170277165,57.54686555128745,4.074035085138583,0.9039440502652211,B,421.2798999997176,Correct
18,318,274,B,42.97018593516467,33.998963507078024,2.1485092967582333,0.5340544699175189,A,814.9606000006315,Incorrect
18,318,275,A,49.23780407945799,57.98986368180661,2.4618902039728994,0.9109026486271862,B,296.91289999937,Incorrect
18,318,276,A,29.756213971381797,49.335754963513715,1.4878106985690898,0.7749642267634043,A,312.6374000003125,Correct
18,318,277,A,43.87451807668802,68.15177060823534,2.193725903834401,1.0705255093598447,A,343.2616999998572,Correct
18,318,278,B,67.242255949205,58.982320177472744,3.36211279746025,0.9264921188061469,B,379.4460999997682,Correct
18,318,279,A,14.352529968755626,33.17389361148255,0.7176264984377813,0.5210943023040148,A,357.09849999875587,Correct
18,318,280,B,59.2852875525943,39.12649502093449,2.964264377629715,0.6145975465924272,B,410.96050000123796,Correct
18,318,281,A,37.90167624262679,62.5600925508055,1.8950838121313396,0.9826916358275406,B,389.6800999991683,Incorrect
18,318,282,A,41.318484117263644,51.428081246509755,2.065924205863182,0.8078304111612703,A,326.2546999994811,Correct
18,318,283,B,32.79792161629314,20.8073095439506,1.639896080814657,0.3268404540212199,B,408.49420000085956,Correct
18,318,284,B,54.06430264729925,21.994424927127294,2.7032151323649622,0.34548761885497664,A,235.809199999494,Incorrect
18,318,285,B,48.31752930749704,20.446208259368397,2.415876465374852,0.32116828830699357,B,345.3544999993028,Correct
18,318,286,B,53.427646495113066,30.140400840643775,2.6713823247556534,0.47344430928609055,A,648.7938999998732,Incorrect
18,318,287,B,80.05406454713426,60.41332471194526,4.002703227356713,0.9489702854699098,B,1391.4220000006026,Correct
18,318,288,A,26.24351418102768,49.10298935523822,1.3121757090513841,0.7713079531385711,A,1003.6161999996693,Correct
18,318,289,A,38.53368860752104,64.77623104971205,1.9266844303760522,1.0175026579650521,B,442.19039999916276,Incorrect
18,318,290,A,52.32176856201366,74.10683485599051,2.616088428100683,1.164067439821859,A,213.04239999881247,Correct
18,318,291,A,48.23467622423497,73.36148804779377,2.4117338112117483,1.1523595595368217,A,414.14500000064436,Correct
18,318,292,A,65.03871565906786,78.25158143821405,3.2519357829533933,1.2291729668903835,A,348.2298999988416,Correct
18,318,293,B,78.57147502170366,65.22507278513069,3.9285737510851835,1.0245530474581306,A,99.13339999911841,Incorrect
18,318,294,A,60.607327508323046,85.34682288412583,3.0303663754161523,1.3406247588999949,B,340.5466999993223,Incorrect
18,318,295,B,58.805399734450866,46.107470787777636,2.940269986722543,0.7242544575124411,B,430.1773000006506,Correct
18,318,296,A,30.146036297785308,59.601372825095915,1.5073018148892654,0.9362161750559382,A,494.24589999944146,Correct
18,318,297,B,75.86827810991579,45.28402027321587,3.793413905495789,0.7113197270767311,B,457.82669999971404,Correct
18,318,298,B,52.771321199901465,34.15531105034387,2.6385660599950733,0.5365103713841729,A,349.1632000004756,Incorrect
18,318,299,A,33.32642520551877,59.875154032032,1.6663212602759385,0.940516720197945,B,289.86339999937627,Incorrect
18,318,300,B,58.84832402566357,31.745915518199055,2.9424162012831787,0.4986636748672818,A,271.9405999996525,Incorrect
18,318,301,A,32.42751466947016,62.78259676265629,1.6213757334735082,0.9861867238142566,B,276.92859999842767,Incorrect
18,318,302,B,46.684193607160225,32.56179748449483,2.3342096803580112,0.5114795188248379,A,222.87689999939175,Incorrect
18,318,303,B,45.145457751230076,32.70985614308059,2.257272887561504,0.5138052187954048,A,329.9115999998321,Incorrect
18,318,304,B,73.51240024275671,49.93136709545113,3.6756200121378355,0.784320080253822,B,492.97889999979816,Correct
18,318,305,B,86.31428893591244,66.19920472442706,4.315714446795622,1.039854676178734,B,393.6593000016728,Correct
18,318,306,A,49.67287598423124,65.51744966272918,2.483643799211562,1.0291456927118452,B,350.9070000000065,Incorrect
18,318,307,A,18.830176952019563,45.93280724570252,0.9415088476009782,0.7215108490092752,A,218.21730000010575,Correct
18,318,308,B,53.84148966490974,29.92341468717663,2.692074483245487,0.47003589875777513,A,373.5650999988138,Incorrect
18,318,309,A,35.75307020691283,48.59320094916579,1.7876535103456417,0.7633002155815589,B,310.1431999984925,Incorrect
18,318,310,A,46.045485168374825,54.273367141811676,2.3022742584187412,0.8525240574914862,A,271.8483999997261,Correct
18,318,311,B,55.72347140450871,37.9561680537706,2.7861735702254355,0.5962140935807265,A,299.13009999836504,Incorrect
18,318,312,A,42.47000687888216,66.89304527643712,2.123500343944108,1.0507534980835214,B,206.49760000014794,Incorrect
18,318,313,B,61.17054272533588,42.707228973103845,3.0585271362667936,0.670843583985401,A,3038.4842999992543,Incorrect
18,318,314,A,25.819735481129573,45.074974078338606,1.2909867740564787,0.7080360371262946,B,307.7800000010029,Incorrect
18,318,315,A,26.666497694260457,52.730454678964094,1.3333248847130228,0.8282880451994158,A,522.1065000005183,Correct
18,318,316,A,44.58070429414775,64.54644981463977,2.2290352147073875,1.013893262764873,B,383.63120000030904,Incorrect
18,318,317,A,17.768847884246135,35.34207782040642,0.8884423942123066,0.5551520602159379,A,244.34050000127172,Correct
18,318,318,A,20.036414841210288,45.6208758469756,1.0018207420605143,0.7166110420559529,A,308.6229000000458,Correct
18,318,319,A,15.777229808263936,40.76634989690443,0.7888614904131969,0.64035632674893,A,195.54069999867352,Correct
18,318,320,B,45.04071707906049,30.55221039154734,2.2520358539530245,0.47991299858507436,A,527.9393999990134,Incorrect
18,318,321,A,14.020674774182119,33.60322967087077,0.7010337387091059,0.5278382973544908,B,362.1690999989369,Incorrect
18,318,322,A,63.63366394674986,75.10130822063583,3.181683197337493,1.179688590904661,B,525.7872000001953,Incorrect
18,318,323,B,67.23342438024929,46.98524942148915,3.3616712190124645,0.738042572048172,B,302.6148999997531,Correct
18,318,324,A,21.881624237893856,41.94210055033051,1.0940812118946928,0.6588249748252136,A,485.5885000015405,Correct
18,318,325,B,77.44345264404456,60.73861735612061,3.872172632202228,0.95407997037595,B,437.5756999997975,Correct
18,318,326,A,26.783221037603397,46.03846468991705,1.3391610518801698,0.7231705122619824,A,430.41679999987537,Correct
18,318,327,B,69.11635967626518,48.16068911325623,3.455817983813259,0.7565063355501386,B,506.5694999993866,Correct
18,318,328,A,44.89500137420696,56.54323209492065,2.2447500687103483,0.8881790127981266,A,334.7069999999803,Correct
18,318,329,B,38.96565655731208,12.30330710055189,1.9482828278656041,0.19325989600976476,A,500.78860000030545,Incorrect
18,318,330,A,18.276977082848294,43.35882624368992,0.9138488541424147,0.6810788499772629,B,389.08939999964787,Incorrect
18,318,331,A,26.224836930085537,37.62726314402629,1.3112418465042768,0.5910476673398148,A,1128.4275999987585,Correct
18,318,332,B,60.83456877183595,44.85868319655882,3.0417284385917975,0.7046385479001054,B,423.34630000004836,Correct
18,318,333,A,51.28444661846799,74.23456454334574,2.5642223309233994,1.1660738130590615,A,364.6103999999468,Correct
18,318,334,B,38.44254033105393,26.255781860673487,1.9221270165526962,0.4124248570387399,B,306.1437999986083,Correct
18,318,335,A,32.836342252974404,59.9617687197427,1.6418171126487204,0.9418772605309697,A,329.336400000102,Correct
18,318,336,A,38.3218522414463,46.93314479860859,1.916092612072315,0.7372241145458738,A,700.3497000005154,Correct
18,318,337,A,56.03259598659234,84.56695971887925,2.8016297993296173,1.3283746969462749,A,342.61049999986426,Correct
18,318,338,B,72.17568916126572,52.51295379870866,3.608784458063286,0.8248715493616168,B,490.7416000005469,Correct
18,318,339,A,42.56359378675491,59.73607743765836,2.1281796893377454,0.9383321101620925,A,337.64940000037313,Correct
18,318,340,B,57.296894762117205,43.644288075971865,2.86484473810586,0.6855628739531491,A,425.94839999947,Incorrect
18,318,341,A,39.52446509889052,63.66056089760781,1.976223254944526,0.9999777521966516,B,303.7581999997201,Incorrect
18,318,342,B,62.86707517859484,39.74273521144909,3.143353758929742,0.6242774248692642,A,232.6154000002134,Incorrect
18,318,343,A,23.727764166457437,40.699091504002,1.1863882083228718,0.6392998343837571,B,330.5495000004157,Incorrect
18,318,344,B,70.60505391578313,53.084417882205244,3.5302526957891565,0.8338480861941332,A,293.59259999910137,Incorrect
18,318,345,A,36.785771468445745,49.132082597231836,1.8392885734222872,0.7717649487151522,A,541.0415000005742,Correct
18,318,346,B,57.80038705007492,50.93811009842065,2.890019352503746,0.8001339623647318,A,352.6602999991155,Incorrect
18,318,347,B,73.28865366009231,59.49130250801525,3.6644326830046157,0.9344871945583436,B,473.78629999911936,Correct
18,318,348,B,72.0718139534129,62.7337569221444,3.6035906976706453,0.9854195493934835,B,351.32549999980256,Correct
18,318,349,B,60.41003310480206,52.58690854993006,3.020501655240103,0.8260332278772926,B,398.23450000039884,Correct
18,318,350,A,39.19668528815538,52.63712053388871,1.9598342644077689,0.8268219558769262,B,414.5215999997163,Incorrect
18,318,351,A,53.80768931551213,78.83282866389465,2.6903844657756064,1.2383031769609714,A,194.42739999976766,Correct
18,318,352,A,23.707762352984318,35.32088177836108,1.1853881176492158,0.5548191135660637,A,527.6692999996158,Correct
18,318,353,A,58.65783788173687,70.75674277206129,2.932891894086844,1.1114443164232524,A,324.87679999940156,Correct
18,318,354,A,48.23860668384431,64.29778106325065,2.411930334192215,1.0099871831521658,A,367.14970000139147,Correct
18,318,355,A,41.35119119644658,74.03467771835885,2.0675595598223286,1.1629339981544207,A,416.5190000003349,Correct
18,318,356,B,46.642307701960476,36.52352216723336,2.3321153850980236,0.5737101446190214,A,326.3618000000861,Incorrect
18,318,357,A,44.54627162849913,52.38296323072533,2.2273135814249567,0.8228296622945548,B,309.8181999994267,Incorrect
18,318,358,B,62.518780796950374,34.88319350890597,3.125939039847519,0.5479439223066508,A,280.0138999991759,Incorrect
18,318,359,A,55.973679713209705,84.06330888370634,2.7986839856604853,1.3204633681275073,B,338.2155999988754,Incorrect
18,318,360,B,74.90913882353784,62.22432554607012,3.745456941176892,0.9774174200505679,A,228.7298000010196,Incorrect
18,318,361,A,29.542290446336533,43.18179051820206,1.4771145223168267,0.6782979793041848,A,518.6668000005739,Correct
18,318,362,A,15.50652542746538,41.44839828606496,0.7753262713732689,0.6510699177928273,A,456.63129999957164,Correct
18,318,363,B,57.58899962035527,43.849980456207504,2.879449981017763,0.6887938823063875,A,530.8770999999979,Incorrect
18,318,364,B,51.24638113545951,39.20964663038141,2.5623190567729757,0.61590368901929,B,394.6094000002631,Correct
18,318,365,B,84.89350879307918,64.52554825230854,4.2446754396539585,1.0135649417915311,B,506.6136999994342,Correct
18,318,366,A,61.318280870465664,71.71332825454968,3.065914043523283,1.126470326044833,A,482.63520000000426,Correct
18,318,367,A,35.618791167189954,61.902011119131096,1.7809395583594978,0.9723545168714796,A,455.05989999946905,Correct
18,318,368,B,48.26974245708823,22.098436883478552,2.4134871228544115,0.3471214348447697,A,331.2236000001576,Incorrect
18,318,369,B,57.95294839977021,34.01081639184953,2.8976474199885103,0.534240654596129,B,296.7512000013812,Correct
18,318,370,A,58.24291038360579,70.09732277104175,2.9121455191802896,1.1010861712690863,A,242.16789999991306,Correct
18,318,371,B,70.9292346855624,52.385282626036656,3.54646173427812,0.8228660952709088,B,544.5139999992534,Correct
18,318,372,A,36.928207646251984,51.2923538800988,1.8464103823125992,0.8056984106752316,A,416.5333000000828,Correct
18,318,373,B,53.53161509599658,24.560258538962827,2.676580754799829,0.38579163898135804,B,289.6215000000666,Correct
18,318,374,A,51.6105245071836,80.97049486858143,2.5805262253591796,1.2718815591833275,B,409.66519999892625,Incorrect
18,318,375,B,56.748528668245925,34.75652266275499,2.837426433412296,0.5459541813081911,A,319.4285999998101,Incorrect
18,318,376,B,65.01164519041336,53.10733039928631,3.2505822595206677,0.8342079951708189,B,346.2462000006781,Correct
18,318,377,B,54.80800813423096,45.2931256228239,2.7404004067115477,0.7114627535739159,B,455.52350000070874,Correct
18,318,378,B,59.41659500730959,44.68565880063436,2.9708297503654797,0.701920687044465,B,429.31379999936325,Correct
18,318,379,A,35.61549448412583,43.17709283940629,1.7807747242062917,0.6782241883382163,B,433.42349999875296,Incorrect
18,318,380,A,62.73932539296424,75.20689387403218,3.136966269648212,1.1813471264698334,A,288.3674000004248,Correct
18,318,381,B,66.72685795198517,40.04631952782221,3.336342897599258,0.6290461161595787,B,459.1569000003801,Correct
18,318,382,A,28.352727150823476,59.352655733090906,1.417636357541174,0.9323093361106125,A,301.34849999922153,Correct
18,318,383,B,37.69873244510194,27.3869281991807,1.884936622255097,0.4301928621746862,A,549.9136999987968,Incorrect
18,318,384,B,83.17127470939191,67.88713829183246,4.1585637354695955,1.0663686746542758,B,222.78189999997267,Correct
18,318,385,B,38.798955863658236,15.051920208455943,1.9399477931829119,0.23643500974652468,B,494.54329999935,Correct
18,318,386,A,31.022658854201357,64.06869475280541,1.551132942710068,1.0063887038025021,B,255.87500000074215,Incorrect
18,318,387,B,69.81621374025372,36.82927553409765,3.4908106870126856,0.5785129072747774,A,436.0629999991943,Incorrect
18,318,388,A,29.417908256004225,38.284401787643475,1.4708954128002114,0.6013699770157035,B,419.26690000036615,Incorrect
18,318,389,A,53.51303767628119,72.58045624661828,2.6756518838140595,1.1400911406928569,B,660.3746999990108,Incorrect
18,318,390,A,39.38211205962858,53.30082721024326,1.9691056029814291,0.8372474359697958,A,434.73640000047453,Correct
18,318,391,B,56.08259005177287,26.82347264266878,2.8041295025886432,0.42134212298987517,A,678.0765000003157,Incorrect
18,318,392,B,58.480503102395225,26.14286556975284,2.924025155119761,0.41065117208860535,B,404.9785000006523,Correct
18,318,393,A,56.9032180036735,68.92842038053915,2.845160900183675,1.0827250954552539,B,343.74619999834977,Incorrect
18,318,394,B,40.52429478741822,20.55111044637995,2.026214739370911,0.32281608800729855,A,401.70410000064294,Incorrect
18,318,395,A,60.909466721235525,87.24688409163866,3.0454733360617765,1.370470850554461,B,276.4771000001929,Incorrect
18,318,396,A,49.56827373712487,62.48169135485206,2.478413686856243,0.9814601127213405,A,381.57219999993686,Correct
18,318,397,B,58.39607791200859,40.68823134557767,2.9198038956004297,0.6391292434141437,A,393.494500000088,Incorrect
18,318,398,B,63.63527287400719,38.855866671260756,3.18176364370036,0.6103465264164863,B,211.69740000004822,Correct
18,318,399,B,43.927057072184525,29.990360227476458,2.1963528536092265,0.4710874768457578,A,418.0424000005587,Incorrect
18,318,400,A,35.155546235313004,58.43968890212476,1.7577773117656503,0.9179684866649404,B,398.18900000136637,Incorrect
18,318,401,B,48.553798032096395,33.20632270564966,2.4276899016048197,0.5216036973240046,A,256.98989999909827,Incorrect
18,318,402,A,28.200623273185045,38.23511032609609,1.4100311636592522,0.6005957085482936,B,319.60849999995844,Incorrect
18,318,403,A,63.16401845149433,73.9537981041498,3.158200922574716,1.1616635441452987,A,355.7534999999916,Correct
18,318,404,B,46.948853917115706,23.952528937195062,2.3474426958557855,0.3762454447199447,B,482.1234999999433,Correct
18,318,405,A,33.35538280461018,50.651526343254474,1.6677691402305088,0.7956323152653907,A,481.3199000000168,Correct
18,318,406,A,38.183145353790586,51.0914306327789,1.9091572676895294,0.8025423156866536,B,373.99770000047283,Incorrect
18,318,407,A,15.994994731957881,40.0861540777809,0.7997497365978942,0.6296718358071249,A,401.0491999997612,Correct
18,318,408,B,63.16227026436237,42.14738844267593,3.1581135132181184,0.6620496294975303,B,456.5361999993911,Correct
18,318,409,A,26.690262880969353,56.98303651052064,1.3345131440484677,0.895087444403453,A,401.36899999924935,Correct
18,318,410,B,55.65220896886253,34.71136891823149,2.7826104484431267,0.5452449079478057,B,534.9258000005648,Correct
18,318,411,B,68.86351550641115,46.043197451065915,3.443175775320557,0.7232448543002649,B,508.180299999367,Correct
18,318,412,A,51.461116648842044,75.72262881490698,2.573055832442102,1.189448271977093,B,456.0467000010249,Incorrect
18,318,413,A,30.959594834454855,52.132756417298516,1.5479797417227428,0.8188994228598558,A,564.1594000007899,Correct
18,318,414,A,23.808302450988446,41.83642431581137,1.1904151225494224,0.657165016415092,B,317.84069999957865,Incorrect
18,318,415,B,47.75451408167458,32.076490892673284,2.387725704083729,0.5038563407068115,A,254.47069999972882,Incorrect
18,318,416,A,32.3291901222457,62.2748310534377,1.616459506112285,0.978210758705127,B,328.6525999992591,Incorrect
18,318,417,B,57.2799190106103,42.21605138426122,2.863995950530515,0.6631281844618213,A,337.2347999993508,Incorrect
18,318,418,A,48.082267635029396,66.26662749650573,2.4041133817514697,1.040913750605969,B,287.8438999996433,Incorrect
18,318,419,B,32.10057489995509,12.212538943947212,1.6050287449977545,0.19183411313991908,A,346.92180000092776,Incorrect
18,318,420,A,62.94979667997853,77.82180972121066,3.1474898339989266,1.2224221285460908,B,342.78210000047693,Incorrect
18,318,421,B,45.26819185649721,25.21751142358395,2.2634095928248605,0.39611574315074016,B,351.1048000000301,Correct
18,318,422,A,21.023864694509857,41.24354676040234,1.0511932347254929,0.6478521175523355,A,380.059799999799,Correct
18,318,423,B,51.552730079478906,44.18157117508939,2.5776365039739453,0.6940024971385769,B,246.53070000022126,Correct
18,318,424,B,51.43090621363284,35.346538007775976,2.571545310681642,0.5552221206753071,A,313.0583000001934,Incorrect
18,318,425,B,71.04811720297938,59.11557131493326,3.552405860148969,0.9285852227787893,B,380.6950999987748,Correct
18,318,426,A,53.84743786095587,60.924377275787016,2.6923718930477936,0.9569978803707271,B,368.81590000120923,Incorrect
18,318,427,B,43.969924677991095,31.56399393542216,2.198496233899555,0.4958060573273752,A,307.31980000018666,Incorrect
18,318,428,B,39.032569914675975,18.88355258866636,1.9516284957337988,0.2966221504311538,B,181.26630000006116,Correct
18,318,429,A,16.02587042639316,36.21800946630553,0.8012935213196579,0.5689111623349552,B,405.8217000001605,Incorrect
18,318,430,B,82.12098966402672,67.75440538328789,4.106049483201336,1.06428371100241,B,378.28059999992547,Correct
18,318,431,A,48.28018226273261,63.06855596411987,2.4140091131366304,0.9906785604469786,B,385.4642000005697,Incorrect
18,318,432,B,67.00170665541161,38.9918707677966,3.350085332770581,0.612482873769162,B,663.7916999989102,Correct
18,318,433,A,35.91499045805771,57.2771900653986,1.7957495229028853,0.8997079976386126,A,541.9098999991547,Correct
18,318,434,B,67.1380128640092,35.31300178244541,3.3569006432004596,0.5546953348796689,B,450.61619999978575,Correct
18,318,435,B,84.52944056994278,62.34280433245485,4.226472028497139,0.9792784804751303,B,538.3846999993693,Correct
18,318,436,A,37.46495660180992,60.27483654948659,1.8732478300904958,0.946794918500963,B,393.27070000035746,Incorrect
18,318,437,B,68.2175096804842,37.70175970205731,3.4108754840242104,0.5922178565369548,B,387.7513000006729,Correct
18,318,438,A,54.77263695101884,84.03046260521944,2.738631847550942,1.319947419991546,B,368.4964999993099,Incorrect
18,318,439,A,44.392025013216234,68.1752995765764,2.2196012506608116,1.070895101530279,B,408.4459000005154,Incorrect
18,318,440,A,38.42775270376621,64.66794012516426,1.9213876351883103,1.0158016281000033,A,404.0906000009272,Correct
18,318,441,B,78.69495572050663,58.77254541298474,3.9347477860253317,0.9231969845110268,B,460.64509999996517,Correct
18,318,442,A,43.7281887454197,57.77697064789165,2.186409437270985,0.9075585326704476,B,647.9780000008759,Incorrect
18,318,443,A,44.02456482561596,53.19882708606269,2.201228241280798,0.8356452217658413,B,493.80459999883897,Incorrect
18,318,444,A,44.73696226023941,74.2909254334744,2.2368481130119706,1.1669591278509515,A,201.63529999990715,Correct
18,318,445,A,34.02667296749133,45.62373795526957,1.7013336483745665,0.7166559999479035,B,176.03450000024168,Incorrect
18,318,446,A,58.12137026763264,84.03573508723804,2.906068513381632,1.3200302399454251,A,191.73760000012408,Correct
18,318,447,B,45.742987256581564,17.527032499720658,2.287149362829078,0.2753139827017598,B,124.45480000133102,Correct
18,318,448,A,29.565589343210302,42.26228409882363,1.478279467160515,0.6638544062439452,A,360.8648000008543,Correct
18,318,449,A,25.49264238954096,57.049619343956316,1.274632119477048,0.8961333251053367,B,255.2986000009696,Incorrect
18,318,450,B,52.203934157708495,36.72493737099505,2.610196707885425,0.5768739672413165,A,280.65179999975953,Incorrect
18,318,451,B,57.66688461883614,40.77260137560061,2.883344230941807,0.6404545247466599,B,34.87409999979718,Correct
18,318,452,B,74.3073665183626,60.419518941662794,3.7153683259181296,0.9490675842027858,B,521.4873000004445,Correct
18,318,453,A,58.33988477248266,77.27190440630062,2.916994238624133,1.2137842360586342,B,369.7486000000936,Incorrect
18,318,454,A,47.06764762131398,55.74708279022188,2.3533823810656993,0.8756731287641153,A,309.0810000012425,Correct
18,318,455,A,32.45624270828912,61.87334858143127,1.622812135414456,0.9719042867821246,B,343.07839999928547,Incorrect
18,318,456,B,49.50954423764044,37.10738897651804,2.4754772118820223,0.5828815030126396,A,3231.0734000002412,Incorrect
18,318,457,A,45.50075821964356,59.60188351647268,2.275037910982178,0.936224196977326,B,280.7884000012564,Incorrect
18,318,458,A,45.38438591947165,65.14695002863058,2.269219295973582,1.0233258980686362,A,391.0952999995061,Correct
18,318,459,B,32.95323220792396,10.679610842618185,1.647661610396198,0.16775493483183596,B,322.7133000000322,Correct
18,318,460,B,56.055007182762765,48.28561556954671,2.8027503591381384,0.7584686757367443,A,330.1613000003272,Incorrect
18,318,461,B,80.29134296508758,55.991968718986854,4.014567148254379,0.879519787937993,B,354.1765999998461,Correct
18,318,462,A,17.659734158930863,40.61151937581198,0.8829867079465431,0.6379242546108522,A,565.80010000107,Correct
18,318,463,B,84.12140880599307,66.73244262589198,4.206070440299653,1.048230757548023,B,495.45620000026247,Correct
18,318,464,A,47.287282669531756,68.24153196892654,2.3643641334765877,1.0719354775164631,B,484.4660999988264,Incorrect
18,318,465,A,55.7304272052207,66.72100020599923,2.7865213602610353,1.048051020436651,A,373.0410000007396,Correct
18,318,466,A,23.614669384744868,48.378104573528546,1.1807334692372435,0.7599214896139803,A,606.1413999996148,Correct
18,318,467,A,29.866001395597674,45.997432357541896,1.4933000697798837,0.7225259778922353,A,472.0741999990423,Correct
18,318,468,A,17.80582329533068,39.83743032384582,0.890291164766534,0.6257648922164465,A,410.83359999902314,Correct
18,318,469,A,49.201616454615156,72.06249847605281,2.460080822730758,1.1319550790584658,A,394.8990999997477,Correct
18,318,470,A,39.910291192925825,70.2404477213072,1.9955145596462913,1.103334372730583,A,316.2486000001081,Correct
18,318,471,B,37.9151268579029,20.077414514957596,1.8957563428951447,0.3153752897163394,A,277.68420000029437,Incorrect
18,318,472,A,21.0583228931067,53.08863619164309,1.0529161446553348,0.8339143472438356,B,362.095300000874,Incorrect
18,318,473,A,16.918412221915858,45.651607145333934,0.8459206110957929,0.717093768161742,A,388.0418999997346,Correct
18,318,474,A,23.815231955512907,41.23609018000708,1.1907615977756452,0.6477349898613822,A,503.3640999990894,Correct
18,318,475,B,67.88511006001285,58.92296222978459,3.3942555030006423,0.9255597263442005,B,445.7464000006439,Correct
18,318,476,B,61.431942011804054,52.3736825953262,3.0715971005902025,0.8226838824146019,B,405.463699999018,Correct
18,318,477,B,63.40454157343378,42.35842921556371,3.170227078671689,0.665364650206091,B,346.1425000004965,Correct
18,318,478,B,67.92957644699709,59.48493014969929,3.3964788223498545,0.9343870977879865,B,442.9822999991302,Correct
18,318,479,B,84.26269786463635,56.97531525379496,4.213134893231818,0.8949661591864235,B,277.2246999993513,Correct
18,318,480,A,39.73444080192674,59.898690736803175,1.9867220400963368,0.940886433891939,A,451.57950000066194,Correct
18,318,481,A,15.943606619634405,37.36048555251081,0.7971803309817203,0.5868571347315779,A,548.422899999423,Correct
18,318,482,A,51.89505611028371,65.5496773442474,2.5947528055141857,1.0296519239493447,A,408.29590000066673,Correct
18,318,483,A,54.74373672898609,62.65442281393683,2.737186836449305,0.9841733721358633,B,344.07310000096913,Incorrect
18,318,484,A,39.3707987301685,52.880346152629286,1.968539936508425,0.8306425349619272,A,221.31029999945895,Correct
18,318,485,B,63.322624235964156,31.236208682971537,3.166131211798208,0.49065721862210543,A,364.4992000008642,Incorrect
18,318,486,A,16.567431468839473,31.81073734403423,0.8283715734419737,0.49968189372646216,B,238.68380000021716,Incorrect
18,318,487,A,31.475993063872913,57.4545709543618,1.5737996531936458,0.9024942901268826,A,365.38410000139265,Correct
18,318,488,B,63.967682498228186,53.924666704700826,3.1983841249114096,0.8470466838338312,A,321.5263000001869,Incorrect
18,318,489,A,31.956720389466284,50.05141209582783,1.597836019473314,0.7862057427102401,B,340.5583999992814,Incorrect
18,318,490,B,45.62690419789202,18.424143158119108,2.281345209894601,0.2894057639711682,A,361.00879999867175,Incorrect
18,318,491,B,79.35570553812734,48.114252861655686,3.967785276906367,0.755776916615696,B,512.1901000002254,Correct
18,318,492,A,14.276592782886553,32.63495552335891,0.7138296391443276,0.51262868261207,A,443.52210000033665,Correct
18,318,493,B,86.12849285864516,61.79780326788656,4.3064246429322575,0.9707176237718986,A,418.4328999999707,Incorrect
18,318,494,B,35.25849716048772,16.803704839492685,1.762924858024386,0.2639519783842073,A,418.9734999999928,Incorrect
18,318,495,B,44.90218715654531,37.23590690420118,2.245109357827266,0.5849002578999595,B,241.32559999998193,Correct
18,318,496,A,42.94730724583487,69.32309150186339,2.1473653622917435,1.0889245749319352,A,486.04490000070655,Correct
18,318,497,B,51.413138127259614,34.135372491999604,2.5706569063629807,0.5361971772420853,A,427.331699998831,Incorrect
18,318,498,B,49.80995461728533,22.073391625843513,2.4904977308642664,0.34672802485780224,B,226.2141999999585,Correct
18,318,499,A,26.53646816442901,47.943336526906045,1.3268234082214505,0.753092169107556,A,402.5123999999778,Correct
18,318,500,B,51.355577432094854,29.29930909349401,2.5677788716047427,0.460232471016887,B,502.1171000007598,Correct
18,318,501,A,30.403466423347723,63.338961105478155,1.520173321167386,0.9949260744748991,A,301.5777000000526,Correct
18,318,502,B,59.28516298384625,51.04537594650631,2.9642581491923123,0.8018188903663669,A,411.66010000051756,Incorrect
18,318,503,B,52.64750213420558,30.636017415669173,2.632375106710279,0.4812294362415761,B,504.9218000003748,Correct
18,318,504,B,69.96286284913238,42.642779457206125,3.4981431424566187,0.6698312133570424,A,210.29099999941536,Incorrect
18,318,505,A,37.457444764089566,63.24241612216916,1.8728722382044782,0.9934095494233767,B,288.6789999993198,Incorrect
18,318,506,B,49.74913171987826,38.6218632398797,2.487456585993913,0.6066708091117787,A,342.73899999971036,Incorrect
18,318,507,A,23.718936886613537,55.29223493144399,1.1859468443306769,0.8685283953059268,B,344.9934000000212,Incorrect
18,318,508,A,36.393545565569724,58.4276080726444,1.8196772782784862,0.9177787214392167,A,395.7477000003564,Correct
18,318,509,B,54.06697297709086,27.579293918386156,2.703348648854543,0.4332145358259781,B,634.4114000003174,Correct
18,318,510,B,60.5339566184486,49.12435656828974,3.02669783092243,0.7716435885363226,A,344.199999999546,Incorrect
18,318,511,A,32.467032266103494,46.582901649883695,1.6233516133051749,0.7317225080308523,B,312.2235999999248,Incorrect
18,318,512,B,37.12728081934001,22.6101396804223,1.8563640409670004,0.3551592435832689,A,295.9649000003992,Incorrect
18,318,513,B,43.190172566348544,20.051483230313707,2.159508628317427,0.3149679620496624,B,104.25270000087039,Correct
18,318,514,A,68.59116639651099,82.84755550926589,3.4295583198255493,1.3013663587789115,B,657.0890000002692,Incorrect
18,318,515,A,23.91150995249246,45.94006077759093,1.195575497624623,0.7216247872217413,A,425.41540000092937,Correct
18,318,516,A,31.01969815586212,52.22112062015679,1.550984907793106,0.8202874445125553,A,338.7980999996216,Correct
18,318,517,B,89.76634040445511,67.02987880280858,4.488317020222755,1.0529028740895883,B,420.44929999974556,Correct
18,318,518,A,41.37440689333159,68.13682107084222,2.068720344666579,1.0702906825756007,B,392.30049999969197,Incorrect
18,318,519,A,28.500022864611857,61.296899879594164,1.4250011432305927,0.9628494517478104,A,254.71400000060385,Correct
18,318,520,B,73.95727628103556,46.67279711700831,3.697863814051778,0.7331345827264009,B,466.57909999885305,Correct
18,318,521,B,44.37698126697865,17.100706404020272,2.2188490633489324,0.2686172680503301,A,486.436600000161,Incorrect
18,318,522,A,24.54866787434232,47.33564136551869,1.2274333937171162,0.7435465158343731,B,114.62539999956789,Incorrect
18,318,523,B,32.94409090947577,16.374149181413195,1.6472045454737883,0.2572045338855551,A,194.04480000048352,Incorrect
18,318,524,A,28.421635465980316,57.73086557585359,1.421081773299016,0.9068343158924075,B,261.6643000001204,Incorrect
18,318,525,A,39.72711456459885,72.10465103326199,1.9863557282299424,1.1326172098787577,A,195.47219999913068,Correct
18,318,526,B,53.60928668764813,42.00168743780682,2.6804643343824064,0.6597609634649431,B,249.55010000121547,Correct
18,318,527,A,53.81433815663354,68.97226062572192,2.690716907831677,1.0834137364162426,A,284.35439999884693,Correct
18,318,528,B,52.58994863852207,35.90591713663793,2.6294974319261035,0.564008827484328,B,285.17790000114474,Correct
18,318,529,A,59.8114684578803,79.33669402476636,2.990573422894015,1.246217875541536,A,3381.1823000014556,Correct
18,318,530,B,79.10121612447877,48.74160659249118,3.9550608062239383,0.7656313659756705,B,284.90160000001197,Correct
18,318,531,A,55.64263473412777,82.90497370550331,2.7821317367063885,1.302268281696321,B,422.32419999891135,Incorrect
18,318,532,B,78.32629677123963,46.909273785701885,3.9163148385619815,0.7368491495519665,A,276.95649999986927,Incorrect
18,318,533,A,41.450876459986965,56.50523213749175,2.0725438229993483,0.8875821108626498,B,550.6019000004017,Incorrect
18,318,534,B,75.39388366101907,49.52560031084476,3.7696941830509534,0.7779463105058713,A,289.12970000055793,Incorrect
18,318,535,B,70.26145013718116,55.56573815271338,3.513072506859058,0.8728245738592922,B,104.56349999913073,Correct
18,318,536,A,50.01629422083451,75.20531728751504,2.5008147110417256,1.1813223615067336,A,344.0491999990627,Correct
18,318,537,A,28.69347353009465,56.000513429384604,1.4346736765047325,0.8796540079350561,B,309.32620000021416,Incorrect
18,318,538,A,20.364945120100508,48.838945256072705,1.0182472560050255,0.7671603581277605,A,243.63610000000335,Correct
18,318,539,A,30.35925215240843,45.09275671857943,1.5179626076204216,0.7083153661860047,B,128.35110000014538,Incorrect
18,318,540,A,63.16891236285426,74.61368101234179,3.158445618142713,1.172028960628326,A,266.04459999907704,Correct
18,318,541,A,22.276914222955522,37.309883576119915,1.1138457111477762,0.586062280745144,B,299.7319999994943,Incorrect
18,318,542,A,40.30459613704643,71.69663348283486,2.0152298068523216,1.1262080851839698,A,304.1460000004008,Correct
18,318,543,B,73.16648521573451,56.59748349112965,3.6583242607867255,0.8890311917370125,B,366.53540000042995,Correct
18,318,544,B,49.677422150826224,22.703376420141495,2.483871107541311,0.35662380286600126,A,345.2500000003056,Incorrect
18,318,545,B,44.578300358273985,34.59554297679219,2.228915017913699,0.5434255183142015,B,33.29669999948237,Correct
18,318,546,B,32.29408320446848,11.430253521758992,1.614704160223424,0.17954600246313457,A,328.7454000001162,Incorrect
18,318,547,A,35.48826350841664,62.10674811042485,1.7744131754208319,0.9755705180103126,B,275.2720999997109,Incorrect
18,318,548,B,33.96339920290502,10.170948389056111,1.6981699601452511,0.1597648836954981,A,281.0647999995126,Incorrect
18,318,549,B,42.5110697706611,15.677779202037641,2.125553488533055,0.24626597982862153,B,214.8723999998765,Correct
