subject,day,trial,cat,x,y,xt,yt,resp,rt,fb
10,110,0,B,53.737267703876014,41.7504401989637,2.6868633851938006,0.6558143810660216,A,1053.990899999917,Incorrect
10,110,1,B,84.31146902850082,66.31969647216263,4.215573451425041,1.0417473561262551,A,1310.2784999996402,Incorrect
10,110,2,B,65.59486781578255,43.45768009943483,3.2797433907891276,0.6826316427121991,B,1291.5474999999788,Correct
10,110,3,B,38.630521788270514,18.52228049766169,1.9315260894135258,0.2909473016959173,A,2546.4547999999922,Incorrect
10,110,4,B,73.03675442142946,44.0384816159264,3.651837721071473,0.6917548515992177,B,1569.1299999998591,Correct
10,110,5,B,74.35711827132666,61.314400534007405,3.717855913566333,0.9631243513844987,B,834.8206000000573,Correct
10,110,6,B,59.305130297371655,49.50046739742434,2.965256514868583,0.7775515236250469,B,682.8235000002678,Correct
10,110,7,A,31.067899945069076,50.4597748707686,1.5533949972534538,0.7926202901790074,A,1181.8923000000723,Correct
10,110,8,A,12.108921231130232,33.25180106712314,0.6054460615565116,0.5223180697555164,A,1049.493199999688,Correct
10,110,9,B,72.41053319680563,62.68506347610935,3.620526659840282,0.9846546745317751,B,591.8556999999964,Correct
10,110,10,A,18.234163899506036,42.984703616490904,0.9117081949753018,0.6752021454915123,A,796.2861999999404,Correct
10,110,11,A,60.635097590546835,85.46107520081998,3.0317548795273415,1.3424194300939047,B,671.0533999998916,Incorrect
10,110,12,A,61.04620929002837,83.20301807800361,3.052310464501419,1.3069499517517744,A,1347.529300000133,Correct
10,110,13,A,21.04718803281244,41.677202191201076,1.052359401640622,0.6546639611302687,A,1573.4408000002986,Correct
10,110,14,A,56.17358289639493,74.37205071101488,2.8086791448197466,1.1682334407306596,B,1180.1313000000846,Incorrect
10,110,15,B,67.40664182979889,38.51109419335827,3.3703320914899444,0.6049308529977944,B,948.150700000042,Correct
10,110,16,A,57.74546235491801,72.61746588467612,2.8872731177459006,1.1406724867280296,A,1569.9247000002288,Correct
10,110,17,B,32.87798038724935,20.92284237268955,1.6438990193624676,0.3286552394512936,B,1160.0360000002183,Correct
10,110,18,A,42.55590092670099,57.81916189551711,2.1277950463350495,0.9082212712383773,B,2393.7129999999343,Incorrect
10,110,19,A,30.885011531315584,62.70048232496466,1.544250576565779,0.9848968732432283,A,1416.9020000003911,Correct
10,110,20,A,55.80020712769685,66.32564287744468,2.7900103563848426,1.0418407620420018,A,1588.2848999999624,Correct
10,110,21,B,64.355931560442,41.366988137679066,3.2177965780221003,0.6497911301723434,B,744.1647999999077,Correct
10,110,22,B,50.7244237734685,28.7847928030267,2.536221188673425,0.45215046802546516,B,1088.18889999975,Correct
10,110,23,B,83.56302953172636,55.57084003277039,4.178151476586318,0.8729047140038252,A,1684.0606000000662,Incorrect
10,110,24,A,21.634559013314156,44.01834496825903,1.0817279506657078,0.6914385458773189,A,806.2580000000708,Correct
10,110,25,A,48.72281929393621,76.27252380241474,2.4361409646968104,1.198086002242094,B,767.6849999998012,Incorrect
10,110,26,A,45.00708910563352,53.94857643171855,2.250354455281676,0.8474222569475723,B,786.4487000001645,Incorrect
10,110,27,A,33.97707936111283,58.35049675643494,1.6988539680556414,0.9165674597166552,A,1063.7001999998574,Correct
10,110,28,A,24.04548358227177,48.16591056710311,1.2022741791135885,0.7565883539553705,A,1068.7169999996513,Correct
10,110,29,A,29.9362573374695,49.60671637731843,1.496812866873475,0.7792204786984802,A,1648.0526999998801,Correct
10,110,30,B,35.97880331081481,26.023429258345736,1.7989401655407407,0.40877507089616316,B,711.7999000001873,Correct
10,110,31,A,31.769404698889183,49.15454811582022,1.5884702349444593,0.772117836255934,A,1678.7144999998418,Correct
10,110,32,A,29.336950088111497,44.00033986324293,1.4668475044055749,0.6911557223490906,A,1482.289800000217,Correct
10,110,33,B,41.88116563410087,14.07111976515841,2.0940582817050433,0.22102863241001905,B,888.1426000002648,Correct
10,110,34,B,53.33401209237925,36.587057563574575,2.6667006046189625,0.5747081562909638,B,698.6402000002272,Correct
10,110,35,B,38.50317266475332,20.240339968675325,1.925158633237666,0.3179345167587513,B,1082.3761000001468,Correct
10,110,36,A,50.93129401755664,69.75180248896774,2.546564700877832,1.0956587513699365,A,861.7178999998032,Correct
10,110,37,A,30.5175459210599,46.09457377555834,1.525877296052995,0.724051871718234,A,1691.2664999999834,Correct
10,110,38,B,33.676944847363636,13.589503149904594,1.6838472423681818,0.21346341630837812,B,1155.7773999998062,Correct
10,110,39,B,80.92328798093328,66.86351330047785,4.046164399046664,1.0502896108899231,A,1482.4569000002157,Incorrect
10,110,40,A,54.009583854616125,71.30699794429076,2.7004791927308065,1.1200877044566317,A,1277.7909999999792,Correct
10,110,41,B,76.45975384538566,63.927374552094264,3.822987692269283,1.004168851280712,B,723.8924000002953,Correct
10,110,42,A,48.176828963675185,76.63718745583759,2.4088414481837592,1.203814125515216,A,634.2500999999174,Correct
10,110,43,B,69.14912374504219,39.1553620054767,3.4574561872521095,0.6150509881252725,B,590.4153000001315,Correct
10,110,44,A,55.689626112673764,67.83867226231688,2.784481305633688,1.0656073720429018,A,883.6499999997613,Correct
10,110,45,A,17.76169652000222,39.01383335793585,0.8880848260001111,0.6128278613283384,A,1165.3581999999005,Correct
10,110,46,B,48.42476288480791,28.24639830655088,2.4212381442403954,0.4436933870511571,B,4519.64659999976,Correct
10,110,47,A,21.571829948934813,33.32495029874386,1.0785914974467405,0.5234670951988935,A,696.9579999999951,Correct
10,110,48,A,65.29214409834366,88.5145277133701,3.264607204917183,1.3903829500014684,A,940.6047000002218,Correct
10,110,49,A,58.917098008549274,81.63886321834293,2.9458549004274635,1.2823802646708407,A,922.1440999999686,Correct
10,110,50,B,46.905631661390956,35.22331811093254,2.3452815830695477,0.5532865870618099,B,735.1462000001447,Correct
10,110,51,A,18.681912326700314,35.13086004698055,0.9340956163350157,0.5518342591894263,A,1045.4733999999917,Correct
10,110,52,B,46.668695516530754,20.412838000376325,2.3334347758265377,0.3206441095045041,B,724.415599999702,Correct
10,110,53,B,47.864634146401634,39.989561403896694,2.3932317073200817,0.6281545616337989,B,948.710299999675,Correct
10,110,54,A,64.35546739695336,76.07420142028172,3.2177733698476683,1.1949707615483365,A,1200.0161000000844,Correct
10,110,55,A,55.98138819675367,66.92099573090302,2.799069409837683,1.0511925427955942,A,1476.9665000003442,Correct
10,110,56,B,79.08036259503851,53.11592462930483,3.9540181297519257,0.834342993020266,A,1713.1823999998232,Incorrect
10,110,57,B,32.863981427657855,16.52645666184442,1.6431990713828926,0.2595969741936026,B,1162.3153999998976,Correct
10,110,58,A,24.66401285555972,43.48180098139649,1.233200642777986,0.6830105326400433,A,1280.1291999999194,Correct
10,110,59,A,34.82252369182946,52.39528731010785,1.7411261845914732,0.8230232484808067,B,2161.2472000001617,Incorrect
10,110,60,A,48.48410982531323,59.136763125640165,2.4242054912656616,0.9289181029629546,B,1550.2449000000524,Incorrect
10,110,61,B,75.8254130688721,49.91216954401743,3.7912706534436045,0.7840185258210669,B,835.8226999998806,Correct
10,110,62,A,47.1462942348401,66.18062692907812,2.357314711742005,1.0395628568517932,A,785.0586999998086,Correct
10,110,63,B,34.70228256196495,15.285013474968732,1.7351141280982474,0.2400964302149138,A,1123.813700000028,Incorrect
10,110,64,A,33.792516770873675,62.37700051771732,1.6896258385436838,0.9798156328971374,A,2598.5693000002357,Correct
10,110,65,A,49.21195107425484,75.24271508511433,2.4605975537127422,1.1819098047377254,A,814.3697000000429,Correct
10,110,66,A,52.88188023381331,75.71468274862438,2.6440940116906653,1.189323455459801,A,922.2399999998743,Correct
10,110,67,B,38.21851271933018,23.609806970814947,1.910925635966509,0.3708619806609267,B,603.3778999999413,Correct
10,110,68,A,34.75408358962033,65.74408133948279,1.7377041794810166,1.0327056147656446,A,3912.642799999958,Correct
10,110,69,B,82.90141942069803,55.08692992169795,4.145070971034902,0.8653034717541103,B,1667.6876000001357,Correct
10,110,70,A,14.737226334144538,33.876567986071215,0.7368613167072269,0.5321318855693826,A,872.4283000001378,Correct
10,110,71,B,56.118889644640156,38.155896626619175,2.805944482232008,0.5993514226665918,B,1574.5049000001927,Correct
10,110,72,B,55.78649307082112,37.879158126698464,2.789324653541056,0.59500442447501,B,1313.856400000077,Correct
10,110,73,B,74.29017815104844,61.86630263968769,3.714508907552422,0.9717936093880285,A,1190.520899999683,Incorrect
10,110,74,B,80.87181731770414,53.469758119212564,4.043590865885207,0.839900996482707,B,544.2613000000165,Correct
10,110,75,B,71.22941882432411,40.888476774728595,3.5614709412162058,0.6422746912598211,B,778.4514999998464,Correct
10,110,76,A,45.21298699451651,53.573085574619036,2.2606493497258255,0.8415240603568025,A,1935.1628999997956,Correct
10,110,77,B,67.980676634759,57.718510710451426,3.3990338317379503,0.9066402461204899,B,1284.3981000000895,Correct
10,110,78,A,32.174783088095,41.14269910989777,1.60873915440475,0.6462680063625508,B,1024.5660999999018,Incorrect
10,110,79,A,33.18995531091056,61.30058514811292,1.659497765545528,0.9629073398103358,A,1246.107700000266,Correct
10,110,80,B,44.725963569629386,29.194384019535164,2.2362981784814693,0.45858431180925463,B,637.3457999998209,Correct
10,110,81,A,34.10401938540809,60.935742460831946,1.7052009692704044,0.9571764042799463,A,824.8733000000357,Correct
10,110,82,B,44.34545588126929,25.725863632380815,2.2172727940634642,0.404100920973702,B,607.0376000002398,Correct
10,110,83,B,45.87415831649867,16.389042331710723,2.2937079158249336,0.25743847494337274,B,646.4876000000004,Correct
10,110,84,B,77.64163282395825,63.782042401877476,3.8820816411979124,1.0018859792034547,B,654.2293000002246,Correct
10,110,85,A,35.80154484485795,54.18885967537951,1.7900772422428974,0.8511966173129023,B,751.8546999999671,Incorrect
10,110,86,A,29.03142381284597,44.100559160736026,1.4515711906422986,0.6927299633928518,B,468.58019999990574,Incorrect
10,110,87,A,28.344542953992498,55.22036964596822,1.417227147699625,0.8673995380414329,A,480.75690000041504,Correct
10,110,88,A,17.767849997477043,33.2279420466257,0.8883924998738522,0.5219432931379335,A,466.1647000002631,Correct
10,110,89,A,24.60883102140687,48.721015932736364,1.2304415510703435,0.765307928648579,A,1686.598799999956,Correct
10,110,90,A,36.58789992148007,61.40804535957936,1.8293949960740037,0.9645953208648165,A,1227.0378999996865,Correct
10,110,91,A,41.200292529193945,50.852353898651685,2.0600146264596972,0.7987869071287621,B,791.7013999999654,Incorrect
10,110,92,B,59.83587218428102,41.78666252380518,2.991793609214051,0.6563833600141114,B,519.2259000000377,Correct
10,110,93,A,18.842427474373665,40.94291959215575,0.9421213737186832,0.6431298770361705,A,724.7329000001628,Correct
10,110,94,A,14.807535406480078,38.46435256737919,0.7403767703240038,0.6041966372538308,A,552.6637999996638,Correct
10,110,95,A,53.049707265409744,80.1904732979809,2.6524853632704875,1.2596290090041264,A,1074.3380999997498,Correct
10,110,96,A,59.70798304593213,80.06367120233165,2.9853991522966066,1.257637206343369,A,833.4947999996984,Correct
10,110,97,A,53.01646320082338,72.67194126776036,2.650823160041169,1.1415281840445244,A,583.8208999998642,Correct
10,110,98,A,57.04570920221516,76.28008895820852,2.8522854601107577,1.198204835431419,A,616.9772999996894,Correct
10,110,99,B,66.84800465484903,43.74696193821628,3.3424002327424516,0.6871756712098629,B,681.2889000002542,Correct
10,110,100,A,59.97867863682084,69.47352031484802,2.9989339318410417,1.091287505200739,B,943.0704999999762,Incorrect
10,110,101,B,55.95466142870704,29.37713276058833,2.797733071435352,0.4614549223209817,B,677.1648999997524,Correct
10,110,102,A,63.014560510654306,78.91573048661778,3.150728025532715,1.2396053957471527,A,695.0830000000678,Correct
10,110,103,B,56.45100607245497,34.63219244473481,2.8225503036227484,0.5440012068104341,B,643.8480000001618,Correct
10,110,104,B,63.725532283224695,32.92219445871132,3.186276614161235,0.5171406212577103,B,665.8913000001121,Correct
10,110,105,A,40.31454427240973,62.70557307513873,2.0157272136204862,0.9849768385599689,B,1083.848400000079,Incorrect
10,110,106,B,73.86230071095389,52.84096120940238,3.6931150355476943,0.8300238777204088,B,679.1958999997405,Correct
10,110,107,B,69.24774502739938,46.3029619393723,3.462387251369969,0.727325225340899,B,600.5969000002551,Correct
10,110,108,B,52.719622777091494,36.4284601167341,2.6359811388545746,0.5722169134216031,B,650.7959999999002,Correct
10,110,109,B,41.66942032856167,26.93948839076378,2.0834710164280836,0.423164494099455,B,582.4094999998124,Correct
10,110,110,A,39.26373124089008,58.33279388317352,1.9631865620445041,0.9162893836337277,B,930.8452999998735,Incorrect
10,110,111,B,76.49529712577896,53.75069002303576,3.8247648562889482,0.8443138645087566,B,855.833199999779,Correct
10,110,112,A,59.82995655473373,74.17235324566003,2.991497827736686,1.1650966002801633,A,658.3114999998543,Correct
10,110,113,A,64.93743956968737,87.43144704188462,3.2468719784843687,1.3733699585975487,A,651.4495000001261,Correct
10,110,114,B,44.88805700359781,33.5550329168494,2.24440285017989,0.5270812245126888,B,666.6662000002361,Correct
10,110,115,A,25.987212815723105,53.96725458969448,1.299360640786155,0.847715652766971,A,882.9692000003888,Correct
10,110,116,A,21.810747531811614,33.670156753848175,1.0905373765905808,0.5288895855155309,A,850.4269999998542,Correct
10,110,117,A,59.35712441938848,87.19399899463502,2.967856220969424,1.3696401333933061,A,939.5478999999796,Correct
10,110,118,A,27.912590050663376,54.78398535190597,1.3956295025331686,0.8605448295795932,A,655.4492000000209,Correct
10,110,119,A,50.57345357928279,70.41027208598328,2.5286726789641394,1.1060019676129178,A,775.4549000001134,Correct
10,110,120,B,63.47231461393094,39.63020813847148,3.173615730696547,0.6225098537402822,B,614.0446000003976,Correct
10,110,121,B,73.2091999006459,61.560891423613,3.660459995032295,0.9669962212243076,A,566.1098000000493,Incorrect
10,110,122,B,47.31300192007875,34.24662999289343,2.3656500960039377,0.5379448059794093,B,484.75809999990815,Correct
10,110,123,B,66.71419591368317,34.870743546138996,3.3357097956841586,0.5477483587488199,B,573.8787999998749,Correct
10,110,124,B,65.24772609333037,53.37117270683686,3.2623863046665185,0.8383524204463537,B,611.9464999997035,Correct
10,110,125,B,79.18615935896817,50.06495064927849,3.9593079679484084,0.7864184058105441,B,463.5630000002493,Correct
10,110,126,B,48.73289378992656,33.202260353728015,2.436644689496328,0.521539886049238,B,547.9978999997002,Correct
10,110,127,A,16.406563612122582,37.34147097370911,0.8203281806061291,0.5865584544262052,A,715.4593000000204,Correct
10,110,128,A,68.21980455604118,87.89197651163819,3.4109902278020594,1.380603938592246,A,780.8705000002192,Correct
10,110,129,A,35.64729236534042,64.19144619432754,1.7823646182670212,1.0083168789370194,A,820.043799999894,Correct
10,110,130,B,45.59547077011792,33.52191978990754,2.279773538505896,0.5265610847309992,B,536.4519999998265,Correct
10,110,131,B,67.41348248524504,40.33424447889935,3.3706741242622518,0.6335688307150243,B,464.50340000001233,Correct
10,110,132,B,54.34167318611998,36.12746205124996,2.7170836593059993,0.5674888468652545,B,466.97489999996833,Correct
10,110,133,B,42.735253209373326,26.64531809650355,2.1367626604686665,0.4185436779226936,B,445.75410000015836,Correct
10,110,134,A,24.922591677169244,54.86908532372362,1.246129583858462,0.8618815768110082,B,750.0420999999733,Incorrect
10,110,135,B,38.617643847514685,12.946659258889355,1.9308821923757342,0.20336564808128538,B,730.1622999998472,Correct
10,110,136,B,85.10463863897617,62.41857272647299,4.255231931948808,0.9804686476252389,B,920.8727000000181,Correct
10,110,137,A,37.820858216380564,59.4329926956728,1.8910429108190283,0.9335712661679076,A,496.8724000000293,Correct
10,110,138,B,67.80769655018251,53.299365277867565,3.3903848275091257,0.8372244719897383,B,835.3658000000905,Correct
10,110,139,B,80.54725678139049,55.37907324505057,4.027362839069524,0.8698924483463096,B,1087.2355999999854,Correct
10,110,140,B,45.53512191948238,25.875845650626005,2.276756095974119,0.4064568330071503,B,545.4776000001402,Correct
10,110,141,B,66.17344694081847,33.1754938321716,3.308672347040923,0.5211194385118189,B,624.3990000002668,Correct
10,110,142,A,29.16665190786184,62.242102894783805,1.4583325953930921,0.9776966659911641,A,677.1115999999893,Correct
10,110,143,B,32.66650018800609,20.02095263659765,1.6333250094003047,0.3144883886050219,B,1140.5927000000702,Correct
10,110,144,B,81.03352012111209,62.27726756362944,4.0516760060556045,0.9782490313177208,B,1458.3984999999302,Correct
10,110,145,B,63.15473817618297,46.19115502157655,3.1577369088091483,0.7255689663830609,B,575.4113999996662,Correct
10,110,146,B,35.278060445326346,13.513862891238869,1.7639030222663172,0.21227526190367874,B,610.7153999996626,Correct
10,110,147,B,39.12450853053063,26.204794160401185,1.9562254265265318,0.4116239441157454,B,504.5220000001791,Correct
10,110,148,B,82.1341877154859,56.02838682213645,4.106709385774295,0.8800918421645552,B,439.97140000010404,Correct
10,110,149,B,63.86659819783329,46.780326669856876,3.1933299098916645,0.7348236529927651,B,367.728900000202,Correct
10,110,150,A,37.865475751035525,65.94993632745299,1.8932737875517762,1.0359391773552047,B,843.0396000003384,Incorrect
10,110,151,B,65.97890682177837,57.41431975402465,3.2989453410889182,0.901862025750496,B,547.913299999891,Correct
10,110,152,B,33.12054610375037,17.093481824636598,1.6560273051875185,0.26850378462274493,B,502.40359999997963,Correct
10,110,153,A,65.01376939025842,82.93934946323549,3.250688469512921,1.3028082548360858,A,615.7975999999508,Correct
10,110,154,A,17.338581176723622,34.57190249429272,0.8669290588361811,0.5430541744834633,A,675.686499999756,Correct
10,110,155,A,55.99784783515504,83.70366508172702,2.799892391757752,1.3148140964964705,A,968.1329999998525,Correct
10,110,156,B,66.29231860213358,34.94509376442846,3.314615930106679,0.5489162492466746,B,549.936500000058,Correct
10,110,157,A,43.14651396447575,66.52586460641082,2.157325698223788,1.0449858376060472,A,696.6867000001002,Correct
10,110,158,A,67.55423264740337,82.40218542250217,3.3777116323701684,1.294370501815384,A,974.5191000001796,Correct
10,110,159,B,44.25888367862321,23.03220381664781,2.2129441839311603,0.3617890115318178,B,537.8450999996858,Correct
10,110,160,B,76.24326802944263,52.18409185867803,3.8121634014721315,0.8197057980873892,B,787.522799999806,Correct
10,110,161,B,57.24108124631765,30.833421555990263,2.8620540623158828,0.48433025322668094,B,679.959499999768,Correct
10,110,162,A,50.754171821197,63.865312935228395,2.53770859105985,1.0031939896826334,B,682.1445000000494,Incorrect
10,110,163,B,80.56903465020162,50.625980956453496,4.028451732510081,0.7952310492678553,B,895.1663000002554,Correct
10,110,164,B,87.91426370563278,63.87004241081838,4.395713185281639,1.0032682801114776,B,720.8448999999746,Correct
10,110,165,B,44.96095445244116,37.1509567057653,2.248047722622058,0.5835658633033236,B,554.7889999998006,Correct
10,110,166,B,49.68678233337057,38.681614296387586,2.4843391166685285,0.6076093765126257,B,602.2423999997955,Correct
10,110,167,B,44.99101928061357,18.63809344113443,2.2495509640306786,0.2927664871579401,B,545.1585000000705,Correct
10,110,168,A,52.73523766077115,74.48803086460076,2.6367618830385573,1.1700552527229975,A,912.0804000003773,Correct
10,110,169,A,41.33044060781407,68.49488297652519,2.0665220303907033,1.0759151058377205,A,678.4229999998388,Correct
10,110,170,B,38.93934740510829,28.136510017581923,1.9469673702554147,0.4419672658444549,B,635.4432000002816,Correct
10,110,171,B,37.490918720602835,11.675504067476762,1.874545936030142,0.18339838902671374,B,625.7703000001129,Correct
10,110,172,B,70.42410906748822,40.10129032469386,3.5212054533744106,0.6299095954176485,B,427.4843999996847,Correct
10,110,173,B,42.10967470372451,32.15521508621595,2.1054837351862257,0.5050929374472786,B,827.2197000001142,Correct
10,110,174,A,48.11081384005111,62.05874872602117,2.405540692002555,0.9748165454432152,B,541.1491999998361,Incorrect
10,110,175,B,59.53666342099125,37.718379929837724,2.9768331710495626,0.5924789264644343,B,632.4623999998948,Correct
10,110,176,A,29.837044982659418,50.218961993684026,1.4918522491329709,0.7888376103513137,A,866.4502999999968,Correct
10,110,177,B,72.54925836579878,45.97998000147663,3.6274629182899387,0.722251836924223,B,540.906200000336,Correct
10,110,178,A,45.631609930187665,75.42373963242564,2.2815804965093833,1.1847533316774883,B,982.8696999998101,Incorrect
10,110,179,B,76.11060973356088,55.51628678450687,3.8055304866780437,0.8720477935839545,B,580.7156000000759,Correct
10,110,180,A,44.68083766812421,65.6962351619954,2.234041883406211,1.031954048767161,A,523.0681000002733,Correct
10,110,181,A,32.570962463058194,54.98683444938677,1.6285481231529098,0.8637311757517582,B,614.9646999997458,Incorrect
10,110,182,B,73.0048645017512,47.627580923900304,3.65024322508756,0.7481322916938928,B,710.6794999999693,Correct
10,110,183,B,64.37403025933006,46.04732605161874,3.218701512966503,0.7233097062060967,B,832.9079000000092,Correct
10,110,184,B,61.19406450176597,32.31476693875828,3.0597032250882985,0.5075991720863468,B,691.4333999998235,Correct
10,110,185,A,66.22205984371689,78.4031732110934,3.311102992185845,1.2315541648904955,A,1052.554500000042,Correct
10,110,186,B,54.355561132637135,31.248273362247353,2.717778056631857,0.4908467301610095,B,665.2650000000904,Correct
10,110,187,A,33.58844147860077,59.64319332936575,1.6794220739300385,0.936873090000856,A,1025.000000000091,Correct
10,110,188,B,76.0042681973951,57.28599554813557,3.8002134098697553,0.8998463138380013,B,870.5076999999619,Correct
10,110,189,A,50.55098582244838,63.54499478199187,2.527549291122419,0.9981624438975368,B,646.7972000000373,Incorrect
10,110,190,B,35.736987045039946,14.678983157056983,1.7868493522519973,0.23057692824189266,B,467.2645000000557,Correct
10,110,191,A,40.76083071301725,68.3639570510382,2.0380415356508625,1.0738585262093487,A,1426.4162999998007,Correct
10,110,192,B,63.78828923374601,50.3612543973465,3.1894144616873006,0.7910727342013522,B,658.2024000003912,Correct
10,110,193,B,70.91548429260659,42.969641867769376,3.5457742146303297,0.6749655560958433,B,553.3826000000772,Correct
10,110,194,A,21.19075126542382,48.99082174307154,1.059537563271191,0.7695460284068034,A,702.65339999969,Correct
10,110,195,A,43.62635027725768,69.97097376593072,2.1813175138628838,1.0991014857378605,A,1178.248899999744,Correct
10,110,196,B,50.384995934744516,32.11061921370518,2.519249796737226,0.5043924271199773,B,730.00809999985,Correct
10,110,197,B,77.70252054369939,65.53878337511547,3.8851260271849695,1.0294808018823782,B,1044.7790999996869,Correct
10,110,198,A,63.95282152655746,86.22429310471047,3.197641076327873,1.3544080288936573,A,760.6475999996292,Correct
10,110,199,A,59.80654328837315,70.3174937713933,2.9903271644186575,1.104544609255276,B,855.009500000051,Incorrect
10,110,200,B,48.74615437964596,36.53899755399677,2.437307718982298,0.5739532314258584,B,373.6462000001666,Correct
10,110,201,A,59.678778565245615,86.43857353841162,2.9839389282622806,1.357773938075275,A,777.2703000000547,Correct
10,110,202,B,60.966416882557816,27.885457028616145,3.0483208441278906,0.4380237347154718,B,918.4926000002633,Correct
10,110,203,B,67.99074327881296,44.797410067506554,3.3995371639406478,0.7036760718396401,B,711.6308999998182,Correct
10,110,204,A,27.26002939252993,51.175731789151165,1.3630014696264965,0.8038665151543948,A,816.4818000000196,Correct
10,110,205,B,85.71440108531759,56.60681151975591,4.285720054265879,0.8891777160680361,B,811.2756999998965,Correct
10,110,206,B,59.52693590040886,36.51362045485431,2.9763467950204427,0.5735546088846816,B,1010.4804000002332,Correct
10,110,207,B,53.71029793529527,42.07425318167691,2.6855148967647637,0.6609008235041658,B,875.0003999998626,Correct
10,110,208,B,43.74218402649565,20.01801807993675,2.187109201324782,0.3144422926967847,B,613.5579000001599,Correct
10,110,209,B,63.15161003333234,37.05435376485189,3.157580501666617,0.5820484278558798,B,735.4866000000584,Correct
10,110,210,B,36.962750788040424,21.45546341511744,1.848137539402021,0.3370216312214876,B,516.7492000000493,Correct
10,110,211,A,33.87449455363202,45.19940246673277,1.693724727681601,0.7099905536806802,B,787.9456000000573,Incorrect
10,110,212,B,31.45663059219884,16.055984143551534,1.5728315296099422,0.2522068091576785,B,731.666099999984,Correct
10,110,213,A,31.374541761853077,46.75085616292107,1.5687270880926538,0.7343607313523298,B,921.1881000001085,Incorrect
10,110,214,A,54.12830946656119,82.840037360298,2.706415473328059,1.301248263971081,A,2609.5313000000715,Correct
10,110,215,B,63.24216042328802,50.61692570981006,3.1621080211644013,0.795088809786198,B,834.9167000001216,Correct
10,110,216,B,71.581771434663,60.92522869023382,3.5790885717331498,0.9570112543575833,B,802.3646999999983,Correct
10,110,217,B,57.51682392581995,28.735431598277174,2.8758411962909975,0.45137510403439784,B,495.37450000025274,Correct
10,110,218,A,42.404045316449,64.90006977194663,2.12020226582245,1.0194479120650626,B,466.69999999994616,Incorrect
10,110,219,A,53.53538822481842,69.09514259969293,2.6767694112409206,1.0853439619496723,B,636.0654000000068,Incorrect
10,110,220,A,29.06582900565717,50.9805492881868,1.4532914502828587,0.8008005955986999,A,661.7693000002873,Correct
10,110,221,A,52.96870166803356,76.05445322481715,2.6484350834016777,1.1946605576193705,A,821.7861000002813,Correct
10,110,222,B,33.8299644166549,19.451952863498466,1.691498220832745,0.30555056106970857,B,544.8231000000305,Correct
10,110,223,B,63.35091432382843,40.58420534347829,3.1675457161914213,0.6374952067942551,B,906.2206999997215,Correct
10,110,224,B,88.2700632829046,62.01868319179043,4.41350316414523,0.974187197503208,B,904.3725999999879,Correct
10,110,225,A,14.548931998097647,33.895792792381386,0.7274465999048823,0.5324338681207361,A,643.3975999998438,Correct
10,110,226,B,76.46105522248517,44.193255739723284,3.823052761124259,0.694186037850648,B,808.9365000000726,Correct
10,110,227,A,54.35096710772132,80.74952649081925,2.7175483553860658,1.2684105960220609,A,902.193499999612,Correct
10,110,228,A,13.387533652703393,31.056801582558602,0.6693766826351697,0.4878390984788098,A,655.8826000000408,Correct
10,110,229,B,80.41374265885702,56.208800764151775,4.020687132942851,0.8829257777387579,B,847.6083000000472,Correct
10,110,230,B,65.18522765425533,53.0104983113817,3.2592613827127663,0.8326869602908544,B,610.3926999999203,Correct
10,110,231,B,57.76691158192502,37.291197779283124,2.888345579096251,0.5857687649347993,B,444.31829999984984,Correct
10,110,232,A,37.57983996902146,70.18380604520434,1.878991998451073,1.1024446473629244,A,731.7941999999675,Correct
10,110,233,A,35.92048689455572,66.03609059321086,1.7960243447277862,1.0372924853971064,B,1246.2738999997782,Incorrect
10,110,234,B,46.596977432297045,29.98840764533962,2.3298488716148524,0.4710568057572747,B,627.2644999999102,Correct
10,110,235,B,59.91687691684048,45.97672899880234,2.995843845842024,0.7222007702936313,B,555.5475999999544,Correct
10,110,236,B,79.03908975519087,51.897539915311555,3.951954487759543,0.8152046506866293,B,576.8315999998777,Correct
10,110,237,B,39.18814561449953,23.766211064511673,1.9594072807249767,0.3733187704196716,B,677.5410000000193,Correct
10,110,238,B,41.48887000146492,16.85659382604678,2.074443500073246,0.2647827566422781,B,483.34669999985636,Correct
10,110,239,A,24.556531448980152,37.54730343272247,1.2278265724490076,0.5897916631317386,B,592.0507999999245,Incorrect
10,110,240,A,47.14275422699899,58.26970013096846,2.3571377113499494,0.9152983092916535,B,890.8280000000559,Incorrect
10,110,241,B,33.55405104284766,22.33613019412227,1.6777025521423832,0.3508551126373984,B,579.1151999997055,Correct
10,110,242,A,65.89600816757664,88.29585622567203,3.2948004083788316,1.3869480663049591,A,874.3111999997382,Correct
10,110,243,B,44.924380579048936,27.198574907774002,2.246219028952447,0.42723421559187247,B,744.3951999998717,Correct
10,110,244,A,21.3888045401354,43.1929745273531,1.06944022700677,0.6784736573091178,A,770.0667999997677,Correct
10,110,245,B,47.14609756982726,34.939598416916084,2.357304878491363,0.5488299285298056,B,598.7949999998818,Correct
10,110,246,A,60.96072917518475,84.00410898462476,3.0480364587592375,1.3195334582872673,A,808.1867999999304,Correct
10,110,247,A,42.242028468775075,50.25050783016814,2.1121014234387534,0.789333131192063,B,815.0874000002659,Incorrect
10,110,248,A,25.637296055121688,40.026805654836146,1.2818648027560844,0.6287395929594981,B,596.6586999998071,Incorrect
10,110,249,A,49.55096941796177,61.753423131456294,2.477548470898088,0.9700205022190255,B,689.8815999998078,Incorrect
10,110,250,B,48.044472365939924,32.18550176830014,2.402223618296996,0.505568679536965,B,536.4822999999888,Correct
10,110,251,A,59.70281257962747,68.34687098976288,2.9851406289813736,1.073590138986442,A,710.6271999996352,Correct
10,110,252,B,87.51496614847511,62.24634786575429,4.3757483074237555,0.9777633458392418,B,879.2003000003206,Correct
10,110,253,A,54.904795997052105,74.54256337859924,2.7452397998526057,1.1709118474497948,A,641.9762000000446,Correct
10,110,254,B,85.68160163990875,68.31651084813126,4.284080081995437,1.0731132429968828,B,688.3373000000574,Correct
10,110,255,B,75.31139005385846,63.08238034178042,3.765569502692923,0.9908957132634727,B,474.0137000003415,Correct
10,110,256,B,75.75324359232759,54.647570353229604,3.7876621796163796,0.8584020277911873,B,600.6311999999525,Correct
10,110,257,A,58.96856936445835,74.75008170905615,2.948428468222917,1.1741715377620379,A,818.8814999998613,Correct
10,110,258,A,59.76627992619877,81.14125850725952,2.9883139963099388,1.274563908147184,A,467.15739999990546,Correct
10,110,259,B,67.24250636794007,43.12519947639788,3.3621253183970032,0.6774090492982299,B,692.0305000003282,Correct
10,110,260,B,76.64010506721142,60.93116790405398,3.8320052533605713,0.9571045473101109,B,604.0275999998812,Correct
10,110,261,B,32.07125229746008,11.322796501650505,1.603562614873004,0.17785807153838715,B,1658.9177000000745,Correct
10,110,262,A,31.537940631250173,48.0155833666445,1.5768970315625086,0.7542270198123932,B,1000.2159000000574,Incorrect
10,110,263,B,56.10763994420611,41.94477785579327,2.8053819972103056,0.6588670298410799,B,601.9019999998818,Correct
10,110,264,A,43.966248111026765,69.83116262991051,2.1983124055513383,1.0969053375488047,B,1008.2394999999451,Incorrect
10,110,265,B,83.12515710050397,65.25178959349256,4.156257855025199,1.0249727141025156,B,768.800199999987,Correct
10,110,266,A,44.50771560769151,76.37510575036508,2.225385780384576,1.1996973557124524,A,720.8456999996997,Correct
10,110,267,B,80.06639898665281,64.2356792884418,4.00331994933264,1.009011690754594,B,899.0429000000404,Correct
10,110,268,B,82.26895883922893,55.48666674889475,4.1134479419614465,0.871582523152564,B,813.3374999997613,Correct
10,110,269,B,45.86288338786092,31.6274737966471,2.2931441693930457,0.49680319665575107,B,680.9155000000828,Correct
10,110,270,A,44.256820618235935,72.1135015177105,2.2128410309117967,1.1327562329633787,B,896.3653999999224,Incorrect
10,110,271,B,83.79924805865488,68.40949478221029,4.1899624029327445,1.0745738312179056,B,747.6892999998199,Correct
10,110,272,B,42.453331798520004,15.16148455336139,2.122666589926,0.23815604245177632,B,806.4761999999064,Correct
10,110,273,A,46.81538383868675,67.36434084536418,2.3407691919343376,1.0581565915685747,A,1028.3007999996698,Correct
10,110,274,A,59.62073797240221,68.69504084708268,2.9810368986201103,1.0790591783162287,A,1117.1153000000231,Correct
10,110,275,A,20.217942479756648,42.24996478793558,1.0108971239878324,0.6636608949610293,A,842.6524000001336,Correct
10,110,276,A,17.13937914161283,46.775806242211814,0.8569689570806416,0.734752646281361,A,740.6295999999202,Correct
10,110,277,B,36.27316876892996,26.578141165674978,1.8136584384464982,0.41748846516078486,B,1546.9576999998935,Correct
10,110,278,B,46.4909133137439,28.22101474254065,2.3245456656871952,0.44329466296007475,B,684.9349999997685,Correct
10,110,279,B,84.82150976576654,60.38389748189948,4.2410754882883275,0.9485080436212733,B,921.3798999999199,Correct
10,110,280,B,74.34107903464236,47.51583087159067,3.717053951732118,0.7463769259770219,B,563.3097999998427,Correct
10,110,281,B,55.58281085424028,44.93002729192605,2.779140542712014,0.7057592183295189,B,594.8107999997774,Correct
10,110,282,A,62.218860736483734,88.53510828401548,3.110943036824187,1.3907062288491991,A,886.6482999997061,Correct
10,110,283,B,38.458195034296466,14.064419736299588,1.9229097517148233,0.2209233886028104,B,609.9856999999247,Correct
10,110,284,A,45.71571837709575,56.29782872553905,2.2857859188547875,0.8843242256860495,B,771.9437000000653,Incorrect
10,110,285,A,53.09344358089725,74.82664925319374,2.654672179044862,1.1753742579328679,A,672.9293000003054,Correct
10,110,286,A,28.651461035489213,59.15435294369803,1.4325730517744606,0.9291944031788973,A,533.6542000000009,Correct
10,110,287,A,41.50122086471926,70.5588694699205,2.0750610432359626,1.1083361298615166,A,1341.0868999999366,Correct
10,110,288,A,48.73281641752489,62.38602404593561,2.436640820876244,0.9799573741469375,B,1233.2667999999103,Incorrect
10,110,289,B,72.99892413060317,47.33623568535809,3.6499462065301587,0.7435558513885799,B,619.7597999998834,Correct
10,110,290,A,32.81277890055775,65.99379573063612,1.6406389450278878,1.0366281192493596,A,1338.1024999998772,Correct
10,110,291,A,36.25021384860081,58.79917132743505,1.8125106924300405,0.9236152233971877,B,1174.591799999689,Incorrect
10,110,292,A,47.42983267163893,66.24281861700965,2.3714916335819463,1.0405397616013934,B,1007.968300000357,Incorrect
10,110,293,A,12.605605601669506,39.46407312420834,0.6302802800834754,0.6199002110387166,A,653.5131000000547,Correct
10,110,294,B,70.59029912346006,49.96179929739405,3.529514956173003,0.7847981081641042,B,635.0482000002557,Correct
10,110,295,A,68.20186298355688,88.24984051031188,3.410093149177844,1.386225253138334,B,980.7284000003165,Incorrect
10,110,296,A,45.17151652023563,70.47265857556233,2.258575826011781,1.106981932299642,B,881.9951000000401,Incorrect
10,110,297,B,54.14044768523507,29.468394587766017,2.7070223842617533,0.46288845975005466,B,425.9947000000466,Correct
10,110,298,B,85.43800315839862,56.102021901298315,4.271900157919931,0.8812484992832623,B,560.3579999997237,Correct
10,110,299,B,59.70637984674209,32.087813614592676,2.9853189923371044,0.5040341976068144,B,568.3811000003516,Correct
10,110,300,A,29.561898333307415,38.93137325101222,1.4780949166653707,0.6115325809977108,B,504.9598999999034,Incorrect
10,110,301,B,74.59439418284798,53.68690165125841,3.729719709142399,0.8433118791079557,B,515.451899999789,Correct
10,110,302,A,55.941944465034595,67.70579951439127,2.7970972232517295,1.0635202117991749,A,1433.2483000002867,Correct
10,110,303,A,13.439073015466533,38.23734929209775,0.6719536507733267,0.6006308781440058,A,709.9828000000343,Correct
10,110,304,B,63.27109536908866,37.52787216808798,3.1635547684544334,0.5894864375406104,B,647.9115000001912,Correct
10,110,305,B,32.42573494035699,11.97564195281382,1.6212867470178494,0.1881129439049081,B,1238.2930000003398,Correct
10,110,306,B,69.54256907814236,37.644120575195466,3.4771284539071186,0.5913124632494122,B,682.1500000000924,Correct
10,110,307,B,72.70402657362044,55.98836278113336,3.6352013286810223,0.8794631459986438,B,837.7777000000606,Correct
10,110,308,A,48.30546291885295,55.33820133237536,2.4152731459426477,0.8692504338433166,B,1026.766900000439,Incorrect
10,110,309,A,49.87202631925465,64.44041554481514,2.4936013159627324,1.0122276803493238,B,660.9404999999242,Incorrect
10,110,310,A,43.98980915721511,58.185276638426856,2.199490457860756,0.9139721881718581,B,527.7561000002606,Incorrect
10,110,311,A,39.40500199893877,67.90189288088382,1.9702500999469386,1.0666004391971282,B,632.3295999995935,Incorrect
10,110,312,A,39.811439162287584,58.32526124884236,1.990571958114379,0.9161710612903431,A,860.2292999999008,Correct
10,110,313,A,64.02821614798893,74.45287946465496,3.2014108073994465,1.1695030958238317,B,725.0663999998324,Incorrect
10,110,314,A,15.771944330943889,34.869748619682476,0.7885972165471944,0.5477327304805865,A,664.1041000002588,Correct
10,110,315,A,55.50553726376635,63.77077527026562,2.7752768631883176,1.0017089955139606,B,1128.9586999996573,Incorrect
10,110,316,A,28.818805056179983,53.48080882428563,1.4409402528089992,0.8400745805520794,B,817.5870999998551,Incorrect
10,110,317,B,62.948119381511454,44.787183221405925,3.1474059690755727,0.7035154289167445,B,815.360800000235,Correct
10,110,318,B,62.376993950681936,39.46201937816967,3.1188496975340967,0.6198679508713795,A,640.1717999997345,Incorrect
10,110,319,B,46.260530700999794,28.97570613098309,2.31302653504999,0.45514932756836607,B,469.75090000023556,Correct
10,110,320,A,27.700006774205065,47.22677472235831,1.3850003387102532,0.741836442602505,A,3337.842399999772,Correct
10,110,321,B,37.82454461679599,27.096845286412314,1.8912272308397997,0.42563625043626074,B,790.2962000002844,Correct
10,110,322,A,38.94557007610607,63.91202022211388,1.9472785038053035,1.0039276660293763,A,1323.5983999998098,Correct
10,110,323,A,51.024401029479165,74.63385516673023,2.5512200514739583,1.1723458555044215,A,921.131399999922,Correct
10,110,324,B,77.81329249448193,61.59151922706095,3.890664624724096,0.9674773216358459,B,924.7342999997272,Correct
10,110,325,A,59.83236586951432,74.45661380661029,2.991618293475716,1.169561754730096,A,921.9892999999502,Correct
10,110,326,B,60.96625395635042,36.68303057840297,3.048312697817521,0.5762156968826025,B,706.0003999999935,Correct
10,110,327,A,40.4763518538739,58.378147360519115,2.0238175926936948,0.917001794389946,A,907.3704000002181,Correct
10,110,328,B,82.81927397421518,53.711493238073025,4.14096369871076,0.8436981628503404,B,1265.7702999999856,Correct
10,110,329,B,40.194250292681794,21.0613495178443,2.00971251463409,0.3308309045997329,B,937.5175000000127,Correct
10,110,330,A,28.986520842060536,56.36495159789711,1.449326042103027,0.8853785892994891,B,856.4159000002292,Incorrect
10,110,331,A,45.955758096814,67.41360570880258,2.2977879048407,1.0589304422338655,A,1047.6026000001184,Correct
10,110,332,B,75.51484504382361,59.269983311299384,3.7757422521911805,0.931010720745839,B,847.654700000021,Correct
10,110,333,A,47.8994171663976,77.65643127901417,2.39497085831988,1.2198243700507578,A,779.246300000068,Correct
10,110,334,B,51.51707146540648,25.832453359940857,2.575853573270324,0.40577522849895586,B,532.9117000001133,Correct
10,110,335,A,41.778313506523034,52.77157761837961,2.0889156753261515,0.8289340028212246,A,772.6762000002054,Correct
10,110,336,B,43.2229216436219,15.529477064246084,2.1611460821810953,0.2439364552956334,B,501.5014999999039,Correct
10,110,337,A,52.94767900805218,69.43223083723765,2.647383950402609,1.0906389316030825,A,566.6439999999966,Correct
10,110,338,B,62.818003898061804,44.608737920831985,3.1409001949030904,0.700712416689991,B,590.1023999999779,Correct
10,110,339,A,23.885894841450565,35.47815985874894,1.1942947420725283,0.5572896318756498,A,651.3476000000082,Correct
10,110,340,A,52.49933938645128,79.56805598950145,2.6249669693225646,1.2498521007851955,A,692.7679000000353,Correct
10,110,341,B,72.90811804547357,60.878271770233596,3.6454059022736782,0.9562736567830437,B,753.1675000000178,Correct
10,110,342,B,68.80714402741242,37.72878565465953,3.4403572013706207,0.5926423792077118,B,2981.924999999592,Correct
10,110,343,B,35.83399487199077,11.27940626484408,1.7916997435995383,0.17717649929244425,B,732.0196999999098,Correct
10,110,344,A,34.657896269135506,46.41580348529659,1.7328948134567752,0.7290977361993765,B,1104.152200000044,Incorrect
10,110,345,B,56.68316923035462,43.93777878626888,2.834158461517731,0.6901730152499788,B,580.8556000001772,Correct
10,110,346,A,60.37255267475109,86.87341921645199,3.0186276337375544,1.3646044780131596,A,808.1910999999309,Correct
10,110,347,A,60.982635378370425,80.17985150528915,3.0491317689185213,1.2594621622746847,A,971.245799999906,Correct
10,110,348,B,61.87592539030315,35.56879094277827,3.093796269515158,0.558713261614517,B,657.9170999998496,Correct
10,110,349,A,61.36598214839521,75.75682552296576,3.0682991074197603,1.189985432611165,A,1023.4410000002754,Correct
10,110,350,A,12.651066762763982,31.114115329684374,0.6325533381381991,0.48873938071341,A,875.0299000002997,Correct
10,110,351,B,81.33685077563739,50.99167845653342,4.066842538781869,0.8009754121662916,B,565.7857999999578,Correct
10,110,352,B,78.9331455971864,60.95023095988448,3.94665727985932,0.9574039890908711,B,675.0369999999748,Correct
10,110,353,B,53.17463415819722,28.40267082539334,2.6587317079098614,0.44614811003692434,B,694.3711999997504,Correct
10,110,354,B,44.048934423504534,32.734094983939144,2.2024467211752268,0.5141859616172685,B,457.4437000001126,Correct
10,110,355,A,46.87432118598495,63.25227089506034,2.3437160592992474,0.9935643478339652,A,714.2911999999342,Correct
10,110,356,A,21.3545831864107,51.855052573907706,1.0677291593205351,0.8145372610885048,A,764.5163000001958,Correct
10,110,357,B,54.90544437708127,27.630978330853694,2.7452722188540633,0.43402639267854365,B,639.8480000002564,Correct
10,110,358,B,50.3012755577546,35.90607855259072,2.51506377788773,0.5640113630001852,B,659.4577999999274,Correct
10,110,359,B,37.80599728355462,15.357787803893594,1.890299864177731,0.24123956670051513,B,548.2661999999436,Correct
10,110,360,A,63.773444394555256,88.1530394701003,3.188672219727763,1.3847047059543909,A,532.8804999999193,Correct
10,110,361,B,85.58390815600437,63.468356852315324,4.279195407800219,0.996958618113246,B,531.7910000003394,Correct
10,110,362,B,41.77829767977387,24.83858234646895,2.0889148839886933,0.39016353912625995,B,394.44559999992634,Correct
10,110,363,B,71.70839849342077,49.58717646789414,3.5854199246710383,0.7789135465189844,B,1846.2652999996862,Correct
10,110,364,A,15.661373332475197,37.395153491632925,0.7830686666237598,0.5874016974458836,A,699.0155999997114,Correct
10,110,365,A,24.8863373388611,49.71219220393038,1.2443168669430549,0.7808772891085574,A,888.8182000000597,Correct
10,110,366,A,60.66214793521881,69.8010965251867,3.0331073967609403,1.0964330602801928,A,686.3297999998395,Correct
10,110,367,B,32.48076803904884,11.448831242821097,1.6240384019524419,0.17983782062318032,B,660.417900000084,Correct
10,110,368,B,47.18241746495063,23.86706409393544,2.3591208732475315,0.3749029661013215,B,511.2312999999631,Correct
10,110,369,A,36.49777547300504,49.45357245116873,1.8248887736502521,0.7768148995318113,A,811.3745999999082,Correct
10,110,370,B,79.12608141357168,49.60839163587539,3.956304070678584,0.7792467935983575,B,476.478699999916,Correct
10,110,371,A,57.76693301564788,81.80374630735079,2.8883466507823936,1.2849702421764821,A,996.7875000002095,Correct
10,110,372,A,21.801677177553653,45.636356715656014,1.0900838588776827,0.7168542149725408,A,1144.1187999998874,Correct
10,110,373,B,48.599321228817956,20.101902070581858,2.429966061440898,0.31575993934060703,B,610.080200000084,Correct
10,110,374,B,40.4671043903378,24.610759160398764,2.02335521951689,0.38658490088788233,B,888.7005999999928,Correct
10,110,375,A,38.064033564251346,59.773438994110414,1.9032016782125674,0.9389189841184749,A,1989.4435000001067,Correct
10,110,376,B,42.689102452876696,30.654071874088196,2.1344551226438346,0.48151303501124487,B,635.5373999999756,Correct
10,110,377,B,44.45295589983927,19.566347982844686,2.222647794991963,0.3073474754024316,B,1653.1648000000132,Correct
10,110,378,A,44.84732165240937,66.38494851860162,2.2423660826204683,1.0427723328748773,A,799.4379000001572,Correct
10,110,379,B,50.708295669964016,34.9886217106251,2.535414783498201,0.5495999846266607,B,627.5648000000729,Correct
10,110,380,B,76.43072595326989,64.39483833328981,3.821536297663494,1.0115117551848285,A,621.7986000001474,Incorrect
10,110,381,A,62.993057662182885,83.15791337560809,3.1496528831091446,1.3062414487433338,A,850.206800000251,Correct
10,110,382,A,27.12484442286914,37.70365627742784,1.3562422211434568,0.5922476478732099,A,759.2185000003155,Correct
10,110,383,A,63.837263364180956,79.57305115940223,3.1918631682090477,1.2499305647305141,A,691.1212999998497,Correct
10,110,384,A,65.85750790690808,81.5362141032948,3.2928753953454044,1.280767856142177,A,528.393000000051,Correct
10,110,385,B,56.655588403743714,28.89185184409905,2.832779420187186,0.4538321475101315,B,664.6808999998939,Correct
10,110,386,B,44.67092414585753,23.643356789926305,2.2335462072928767,0.3713889799871742,B,630.756399999882,Correct
10,110,387,A,35.56753693915259,46.61493239195042,1.7783768469576295,0.7322256457506815,A,624.9860000002627,Correct
10,110,388,A,54.63045850800139,84.01035425976383,2.7315229254000695,1.31963155883975,A,3238.8107000001582,Correct
10,110,389,B,74.56742054543612,59.747499060181724,3.728371027271806,0.9385115205891498,A,879.3579999996837,Incorrect
10,110,390,B,70.39295491181441,57.6649676279833,3.5196477455907207,0.905799193347828,A,715.5299999999443,Incorrect
10,110,391,B,44.21568554407448,25.889398909237713,2.2107842772037243,0.40666972709558397,B,564.3780999998853,Correct
10,110,392,A,11.240410154496146,32.259104225194335,0.5620205077248073,0.5067248242262898,A,659.5720000000256,Correct
10,110,393,A,46.00007700299935,72.49989069759397,2.3000038501499676,1.138825620008121,A,817.9217999995672,Correct
10,110,394,A,18.597375796892862,43.305082113294986,0.9298687898446432,0.6802346391511513,A,1747.9158000001007,Correct
10,110,395,A,45.044193168635566,61.15456777421997,2.252209658431778,0.9606137042647428,A,637.2922000000472,Correct
10,110,396,A,50.40893114232401,63.88653592143121,2.5204465571162005,1.0035273595703436,A,656.3259999998081,Correct
10,110,397,A,63.233180622140814,78.95757536500712,3.1616590311070407,1.240262693559844,A,708.4793999997601,Correct
10,110,398,A,42.26412357282692,67.8213552128704,2.113206178641346,1.0653353564662873,B,999.267200000304,Incorrect
10,110,399,B,55.80629666167743,39.05088578274414,2.790314833083871,0.6134098794562155,B,665.4475000000275,Correct
10,110,400,B,79.7657049586052,61.13169888913704,3.9882852479302597,0.9602544806578812,B,652.5295000001279,Correct
10,110,401,A,33.674798091532125,54.79547349954308,1.6837399045766062,0.8607252849806936,B,692.7800000003117,Incorrect
10,110,402,B,72.86047778913023,49.38932598301594,3.6430238894565115,0.7758057183699718,B,479.33019999982207,Correct
10,110,403,A,25.421827616572024,39.7020239928199,1.271091380828601,0.6236379345424434,B,557.1623000000727,Incorrect
10,110,404,B,46.35689432324105,38.48631372314976,2.3178447161620523,0.6045416022819966,B,594.9606999997741,Correct
10,110,405,A,48.207620771270996,59.2653536332407,2.41038103856355,0.9309379979329506,B,474.97359999988475,Incorrect
10,110,406,A,25.264171108380495,39.20444367352246,1.2632085554190247,0.6158219611640651,B,503.9200000001074,Incorrect
10,110,407,B,51.461938651440505,28.434614425470357,2.5730969325720254,0.44664987893358016,B,534.8779999999351,Correct
10,110,408,A,22.084857066989247,53.67818730848851,1.1042428533494624,0.8431749945318218,A,797.257300000183,Correct
10,110,409,A,31.187859228311694,62.25779767097931,1.5593929614155848,0.9779431989591417,A,726.3476000002811,Correct
10,110,410,A,39.28269588159612,69.87859148448342,1.964134794079806,1.097650348254277,A,1555.345799999941,Correct
10,110,411,B,41.945457246501185,28.022984855032014,2.097272862325059,0.44018401676113306,B,470.91790000013134,Correct
10,110,412,B,71.49738071777793,39.98615501610142,3.5748690358888964,0.6281010542194343,B,572.4639000000025,Correct
10,110,413,A,38.26343068633064,48.297880438185,1.9131715343165323,0.7586613318428007,A,688.3787000001576,Correct
10,110,414,B,57.89045514078426,37.36462162164757,2.8945227570392134,0.5869221039536517,B,379.68739999996615,Correct
10,110,415,B,74.07468030278852,63.431846028094334,3.703734015139426,0.9963851074275002,B,556.4959999996972,Correct
10,110,416,B,41.170592140789985,25.111451070404392,2.058529607039499,0.39444975101880997,B,412.2599000002083,Correct
10,110,417,B,35.52833740372573,22.010253402400593,1.7764168701862866,0.34573625196315727,B,430.7827000002362,Correct
10,110,418,B,40.380934420301955,28.951169701047895,2.0190467210150977,0.45476391022821744,B,583.9219999998022,Correct
10,110,419,B,71.08774465079523,55.6258248484044,3.5543872325397614,0.8737684134680991,B,670.5363999999463,Correct
10,110,420,B,63.733601604674305,34.64818830944679,3.186680080233715,0.5442524692657689,B,454.77279999977327,Correct
10,110,421,B,54.99634084787122,41.0612010264043,2.749817042393561,0.644987837460627,B,513.0585000001702,Correct
10,110,422,B,71.5111999739599,50.30323561444087,3.575559998697995,0.7901613772906194,B,603.2820000000356,Correct
10,110,423,A,59.22854871358585,82.80163014628593,2.9614274356792922,1.3006449648641552,A,721.663400000125,Correct
10,110,424,A,23.586675134118487,49.723198071898516,1.1793337567059243,0.7810501688783327,A,754.7387999998136,Correct
10,110,425,B,68.79347599933844,37.37388714017477,3.439673799966922,0.5870676463783355,B,565.7946999999695,Correct
10,110,426,B,49.84162147118763,30.363490464565416,2.4920810735593815,0.4769485929041123,B,565.8434000001762,Correct
10,110,427,B,62.528675389759904,40.479381159276926,3.126433769487995,0.6358486323592274,B,532.2069999997439,Correct
10,110,428,A,55.766531418070514,83.24487380471106,2.7883265709035254,1.3076074199694485,A,830.439600000318,Correct
10,110,429,A,23.86092604221449,49.651769688260444,1.1930463021107245,0.7799281744518569,A,566.439199999877,Correct
10,110,430,B,40.19688807046953,21.31997530903065,2.009844403523476,0.3348933890278323,B,630.4555000001528,Correct
10,110,431,A,58.735909166103646,83.7857766310465,2.9367954583051823,1.3161039016970553,A,657.5126999996428,Correct
10,110,432,B,38.81150732031249,27.444692610164296,1.9405753660156244,0.4311002234206112,B,559.0690999997605,Correct
10,110,433,A,61.54689495555603,71.30626671266606,3.077344747777801,1.1200762182971307,B,719.8994000000312,Incorrect
10,110,434,A,28.673954617094118,39.84710484266681,1.433697730854706,0.6259168592027217,B,613.1806999997025,Incorrect
10,110,435,B,55.9959116477167,45.01146215337194,2.799795582385835,0.7070383941418414,B,489.02250000037384,Correct
10,110,436,A,35.51909771774255,68.88050468882722,1.7759548858871272,1.0819724375298845,A,600.5094000001918,Correct
10,110,437,A,26.72696260880587,51.88638836120151,1.3363481304402935,0.8150294824842882,B,774.8741000000336,Incorrect
10,110,438,B,50.00522038479004,30.926618035829975,2.500261019239502,0.4857941801087053,B,855.9823000000506,Correct
10,110,439,A,29.67108367844452,55.46784595801474,1.4835541839222262,0.8712868868607471,A,638.1200999999237,Correct
10,110,440,B,61.72659753219586,37.86580802142607,3.0863298766097933,0.5947947215117679,B,675.6058999999368,Correct
10,110,441,A,55.6491609637779,79.20575417976008,2.7824580481888948,1.2441610772658664,A,908.1971000000522,Correct
10,110,442,A,12.861939756896412,41.02235637313368,0.6430969878448206,0.644377667073896,A,797.5896000002649,Correct
10,110,443,A,24.1924118113247,40.985028568252076,1.209620590566235,0.6437913232859427,A,1155.384099999992,Correct
10,110,444,B,59.00488545228652,49.05453559032023,2.950244272614326,0.7705468431790455,B,1039.5659000000705,Correct
10,110,445,B,73.94162491607504,48.39518806963653,3.6970812458037523,0.7601898365433327,B,650.0180000002729,Correct
10,110,446,B,61.341611858029225,48.480013546165,3.0670805929014615,0.7615222720128282,B,607.8432000003886,Correct
10,110,447,A,27.301485269168055,50.811588597163066,1.3650742634584025,0.7981465672703719,A,639.3547999996372,Correct
10,110,448,B,64.61801892003686,32.37627310460082,3.230900946001843,0.5085653086801537,B,870.2407000000676,Correct
10,110,449,B,55.077623100405674,36.860266702167934,2.7538811550202835,0.5789997154044564,B,497.02819999993153,Correct
10,110,450,A,35.9845672009171,47.3218207787726,1.799228360045855,0.743329422565424,B,1233.3322999998018,Incorrect
10,110,451,A,37.44288907623918,57.20495790382651,1.872144453811959,0.8985733774978737,A,840.5254999997851,Correct
10,110,452,B,89.53423080707833,66.06597865980781,4.476711540353916,1.0377619660493613,A,765.5073000000812,Incorrect
10,110,453,A,14.148430126337555,37.76025503193823,0.7074215063168778,0.5931366990300708,A,635.0425000000541,Correct
10,110,454,B,62.72753753690203,50.415852223526876,3.1363768768451012,0.7919303548495032,B,664.2551999998432,Correct
10,110,455,A,43.75362233398566,56.458114761130744,2.187681116699283,0.886841992845489,A,800.0129000001834,Correct
10,110,456,B,64.70986711158191,32.27863884388771,3.2354933555790955,0.5070316732991789,B,392.9004999999961,Correct
10,110,457,A,55.286837652970426,67.92977998199395,2.7643418826485213,1.0670384887570157,B,1178.0077000003075,Incorrect
10,110,458,B,44.5508232846988,34.704037257756006,2.22754116423494,0.5451297424943636,B,384.09230000024763,Correct
10,110,459,B,70.2363916091951,52.866871273063026,3.511819580459755,0.8304308720486603,B,1039.5399999997608,Correct
10,110,460,B,63.39976675775638,37.16543568570781,3.169988337887819,0.5837932985884179,B,620.0035000001662,Correct
10,110,461,A,32.8087113071476,53.654436000873034,1.6404355653573799,0.8428019098642322,A,750.4826999997931,Correct
10,110,462,B,32.3003447100646,13.359453673495793,1.61501723550323,0.20984980758313782,B,925.1448999998502,Correct
10,110,463,B,54.465623037291394,40.08663095125842,2.7232811518645694,0.6296793265181934,B,598.2653999999457,Correct
10,110,464,A,34.060498074608255,46.140881820718825,1.7030249037304128,0.7247792767906256,B,609.040300000288,Incorrect
10,110,465,B,59.23443375155494,52.31653470005226,2.9617216875777466,0.8217862053747983,B,599.9205000002803,Correct
10,110,466,B,43.62861097295013,24.616634394719167,2.1814305486475063,0.3866771888527778,B,844.3790000001172,Correct
10,110,467,A,20.188250155244138,37.74912746144602,1.009412507762207,0.5929619075615177,A,656.5310999999383,Correct
10,110,468,B,56.108070661851386,44.33431886609927,2.8054035330925693,0.6964018522582242,B,586.2016000000949,Correct
10,110,469,A,36.60160420732549,48.87321584920886,1.8300802103662743,0.767698679345914,B,687.4640999999428,Incorrect
10,110,470,A,49.665309484061424,65.420671419751,2.4832654742030713,1.0276255036260076,B,640.0607000000491,Incorrect
10,110,471,A,65.96342309538562,86.79490722864108,3.298171154769281,1.3633712145925323,B,707.6382999998714,Incorrect
10,110,472,B,54.77400046056233,32.63028850773262,2.7387000230281164,0.5125553733020413,B,461.06959999997343,Correct
10,110,473,B,69.77832785873305,39.44473019697217,3.4889163929366527,0.6195963730481964,B,463.83590000004915,Correct
10,110,474,B,59.92749993261075,46.08787776913063,2.9963749966305375,0.7239466910952257,B,489.7910999998203,Correct
10,110,475,A,47.37782982808169,60.98481900106671,2.3688914914040846,0.957947296771272,B,566.1958999999115,Incorrect
10,110,476,A,47.98421203383388,76.81307135943199,2.399210601691694,1.2065769034123004,A,767.8452000000107,Correct
10,110,477,A,60.92644927308382,87.70517758812092,3.0463224636541906,1.3776697079631441,A,837.3909000001731,Correct
10,110,478,A,26.61889936381646,48.82083291779966,1.3309449681908232,0.7668758501834708,A,701.704200000222,Correct
10,110,479,A,44.21942340480408,64.25513693019691,2.210971170240204,1.0093173306765642,A,809.5948999998654,Correct
10,110,480,B,46.19223717624787,28.630669976927052,2.309611858812394,0.4497295123343394,B,681.0378999998647,Correct
10,110,481,B,80.42271833703577,60.726899588840055,4.021135916851789,0.9538959081179248,A,748.9239999999882,Incorrect
10,110,482,B,69.16227784559192,53.1949518509944,3.458113892279596,0.8355843497157339,B,566.8908999996347,Correct
10,110,483,A,51.168307260218626,79.24142337401993,2.558415363010931,1.2447213676590976,A,656.543099999908,Correct
10,110,484,A,40.74997009849231,72.5454730509981,2.0374985049246157,1.1395416259410596,A,898.5175000002528,Correct
10,110,485,A,37.51854179699248,60.007780254327145,1.875927089849624,0.9426000080261242,B,532.7245999997103,Incorrect
10,110,486,A,45.95366920267092,58.98039144206555,2.2976834601335465,0.9264618223012172,B,782.089399999677,Incorrect
10,110,487,B,55.23033823652928,40.102387794477416,2.761516911826464,0.6299268344326961,B,451.67440000022907,Correct
10,110,488,B,60.81115410947303,44.64113805870701,3.0405577054736517,0.7012213568656082,B,1116.7820999999094,Correct
10,110,489,B,45.51553510702715,32.24054881132716,2.2757767553513575,0.5064333564668426,B,821.0701999996672,Correct
10,110,490,A,67.28061517166135,79.60126739908654,3.3640307585830675,1.2503737843870348,B,1966.4905999998155,Incorrect
10,110,491,A,23.621045950717118,53.409369516851584,1.181052297535856,0.8389524145350178,A,569.5196000001488,Correct
10,110,492,B,39.95394182442983,28.911174458432253,1.9976970912214915,0.4541356664263182,B,771.4702999996916,Correct
10,110,493,A,38.97394773088055,50.84077970784708,1.9486973865440276,0.798605100164747,A,903.9054000004398,Correct
10,110,494,B,48.4972848311108,27.13206094826306,2.42486424155554,0.42618941675906874,B,682.41050000006,Correct
10,110,495,A,13.712272387099507,30.249836025009383,0.6856136193549753,0.47516331314232674,A,652.3691000002145,Correct
10,110,496,A,28.774222063849635,56.43896419154849,1.4387111031924817,0.8865411764019308,A,643.2870000003277,Correct
10,110,497,B,56.290154244993495,45.73656472306309,2.8145077122496747,0.7184282786720454,A,528.5288000000037,Incorrect
10,110,498,B,47.766786905476266,19.90066288434539,2.3883393452738133,0.3125988815951327,B,548.9649000001009,Correct
10,110,499,A,38.06113404747239,47.318007895142614,1.9030567023736196,0.7432695299294194,A,680.5190999998558,Correct
10,110,500,A,59.36918698595733,87.12424161242171,2.968459349297866,1.3685443869958311,A,665.6951999998455,Correct
10,110,501,A,20.19435672131951,51.78887929916022,1.0097178360659755,0.8134978137194513,A,878.9775000000191,Correct
10,110,502,A,23.562996988849928,39.9320000429004,1.1781498494424965,0.627250389889616,B,779.9053000003369,Incorrect
10,110,503,A,64.82447797901722,89.21063480931304,3.241223898950861,1.4013173746950986,A,599.8354999996991,Correct
10,110,504,B,37.499741428891326,19.48952680360357,1.8749870714445662,0.3061407711407117,B,627.1440999998958,Correct
10,110,505,A,65.72863914535061,89.75466925572385,3.2864319572675305,1.4098630477958185,A,635.13359999979,Correct
10,110,506,B,44.69931350790278,33.63527370084697,2.2349656753951392,0.5283416438003141,A,871.5786999996453,Incorrect
10,110,507,A,50.80498916105871,70.24448406898588,2.5402494580529353,1.1033977755316564,A,858.3801999998286,Correct
10,110,508,A,28.85989697538342,47.17706503570497,1.4429948487691713,0.741055604670493,A,1728.1965000001946,Correct
10,110,509,A,44.208700929946936,58.52807090547929,2.210435046497347,0.9193567879271811,B,1197.9911999997057,Incorrect
10,110,510,B,76.516849378324,48.3047520070141,3.8258424689161994,0.7587692701935617,B,642.9839999996148,Correct
10,110,511,A,49.50440747567905,62.40085470997272,2.4752203737839524,0.9801903336728717,B,570.1565999997911,Incorrect
10,110,512,B,59.50804043495455,34.29733481919485,2.9754020217477275,0.5387412755284599,B,547.8186999998798,Correct
10,110,513,A,27.819174371900296,39.261256651663594,1.3909587185950147,0.6167143773378487,A,1321.4035999999396,Correct
10,110,514,A,52.92109935296392,64.75252904603971,2.6460549676481957,1.0171303477619902,A,1068.7254000004032,Correct
10,110,515,B,57.00752691909514,36.095898657613986,2.850376345954757,0.5669930502374089,B,561.7326999999932,Correct
10,110,516,A,52.224012538968445,61.93938729188322,2.6112006269484223,0.9729416204201666,B,553.4772000000885,Incorrect
10,110,517,A,48.38633244568161,55.76181630282329,2.4193166222840805,0.8759045622388661,B,638.9878999998473,Incorrect
10,110,518,B,55.5273180365788,36.47904070021421,2.77636590182894,0.5730114313689801,B,622.2015000003012,Correct
10,110,519,B,42.708488951415546,15.552128418278482,2.1354244475707773,0.24429226193274364,B,598.4460999998191,Correct
10,110,520,B,83.84815115955409,65.93321943982032,4.192407557977705,1.0356765890983164,A,711.6120000000592,Incorrect
10,110,521,A,38.5000964511457,70.89409914195608,1.9250048225572851,1.1136019052361783,A,565.6810000000405,Correct
10,110,522,A,14.084402139598097,33.67411952233977,0.7042201069799049,0.5289518325374364,A,561.5508000000773,Correct
10,110,523,B,64.2968932073372,42.64211870509184,3.2148446603668606,0.669820834287102,B,3310.2803000001586,Correct
10,110,524,B,63.745996189837086,39.906778254822285,3.1872998094918548,0.6268542069689329,A,904.8044999999547,Incorrect
10,110,525,A,41.34427619177144,62.12651346025016,2.067213809588572,0.9758809913993465,B,688.2489999998143,Incorrect
10,110,526,A,68.35932734552208,83.32816622199539,3.4179663672761036,1.3089157742006492,A,586.445800000547,Correct
10,110,527,A,62.8288958231397,85.55526345159507,3.141444791156985,1.343898935677352,A,505.67189999947004,Correct
10,110,528,B,76.19388492506803,47.20199999376566,3.8096942462534016,0.7414472820757982,B,403.06730000065727,Correct
10,110,529,A,29.694055740847006,60.544094566839796,1.4847027870423504,0.9510244135471482,A,586.5106999999625,Correct
10,110,530,B,51.89268155527787,27.331063064193884,2.594634077763893,0.42931533468635424,B,593.1742000002487,Correct
10,110,531,A,44.333453273363034,69.54365832563869,2.2166726636681515,1.0923892304979257,A,777.1915000002991,Correct
10,110,532,B,65.46773845047946,53.638634620825286,3.273386922523973,0.8425537023668593,B,759.8379000000932,Correct
10,110,533,B,33.13280221195296,18.96885761161476,1.6566401105976483,0.2979621185981988,B,1536.6681000004974,Correct
10,110,534,A,52.945238170049606,73.97709199429538,2.64726190850248,1.1620294437160732,A,807.0046000002549,Correct
10,110,535,B,46.3740288358053,34.13512169983762,2.3187014417902647,0.536193237808017,B,743.8804000003074,Correct
10,110,536,A,22.149351213297148,35.11887997067301,1.1074675606648574,0.5516460765908402,A,1001.5675000004194,Correct
10,110,537,A,21.436414388634653,47.83874133626554,1.0718207194317326,0.751449191694971,A,529.5835999995688,Correct
10,110,538,B,44.65950120094033,29.31625995843202,2.2329750600470164,0.4604987345806933,B,447.92770000003657,Correct
10,110,539,A,57.21364376609077,65.68902801380902,2.8606821883045384,1.0318408391481828,B,955.5442000000767,Incorrect
10,110,540,A,58.18157677356944,80.17065237797503,2.909078838678472,1.259317662720737,A,656.2533999995139,Correct
10,110,541,B,86.079786781335,65.06949440632631,4.303989339066749,1.0221092279985842,B,691.8337000006431,Correct
10,110,542,A,23.56181856493887,40.696583637137806,1.1780909282469436,0.6392604409031737,A,2770.7375999998476,Correct
10,110,543,A,53.52636138312289,62.235470052330655,2.6763180691561446,0.9775924775455478,A,779.3529999999009,Correct
10,110,544,A,29.555839559690938,53.47013696527325,1.4777919779845468,0.8399069473827123,A,677.0034999999552,Correct
10,110,545,A,26.94683761037858,59.15161993568469,1.3473418805189288,0.9291514731894129,A,610.3273999997327,Correct
10,110,546,A,36.201642284918655,44.74480960374066,1.8100821142459327,0.7028498256869284,B,915.432800000417,Incorrect
10,110,547,A,35.23690898647908,54.21302646211925,1.761845449323954,0.8515762283113144,B,703.8224999996601,Incorrect
10,110,548,B,41.391517738917386,32.75663071055517,2.0695758869458696,0.5145399519831696,B,651.7129000003479,Correct
10,110,549,A,43.288678201245645,66.7470137770537,2.1644339100622823,1.048459640655243,A,684.838099999979,Correct
