subject,day,trial,cat,x,y,xt,yt,resp,rt,fb
13,313,0,A,64.26943105309789,88.07853711057118,3.2134715526548945,1.383534425627532,A,524.9879999998939,Correct
13,313,1,B,37.317861996239316,24.052849290219765,1.8658930998119658,0.3778212731402844,B,353.6979999998948,Correct
13,313,2,A,49.89185197981637,60.96079113492776,2.4945925989908186,0.9575698679325543,A,923.6341000000721,Correct
13,313,3,B,61.33739965543862,29.054928423723403,3.066869982771931,0.45639374843273356,B,489.4423000000643,Correct
13,313,4,B,58.55555491428131,41.0534085838785,2.9277777457140655,0.6448654340596642,B,520.367399999941,Correct
13,313,5,B,57.14150912381706,42.17138559221847,2.857075456190853,0.6624265758410799,B,504.38670000039565,Correct
13,313,6,A,22.50888356367538,53.969864921170185,1.125444178183769,0.8477566557579086,A,375.0476999998682,Correct
13,313,7,A,62.13820343257643,81.2888266185056,3.106910171628822,1.2768819026181577,A,551.3190000001487,Correct
13,313,8,B,60.17529500077053,32.026395014196424,3.0087647500385266,0.5030694364878213,B,400.7171999996899,Correct
13,313,9,B,74.2036409944272,52.565065335589054,3.71018204972136,0.8256901154687702,A,572.0499999997628,Incorrect
13,313,10,A,46.28794176302165,53.02101021447273,2.3143970881510825,0.8328520808784845,B,346.11869999980627,Incorrect
13,313,11,A,53.215002120164016,75.83958890513702,2.6607501060082006,1.1912854767782424,A,443.2593999999881,Correct
13,313,12,B,45.024808072451826,26.471919491861282,2.2512404036225915,0.4158199390102593,B,460.6258000003436,Correct
13,313,13,A,34.1938030569062,55.503459788328584,1.70969015284531,0.8718463075991478,A,534.327299999859,Correct
13,313,14,A,47.41272125192735,67.14046622611971,2.3706360625963674,1.0546399772728565,A,509.5163999999386,Correct
13,313,15,B,54.17031044997038,41.63065426893103,2.7085155224985193,0.6539327880770516,B,473.38619999982257,Correct
13,313,16,B,64.28482794719756,47.303593489921816,3.2142413973598774,0.7430431089816818,B,569.1246999999748,Correct
13,313,17,A,62.6400661124103,85.49241331591969,3.132003305620515,1.3429116880547776,A,501.2955000001966,Correct
13,313,18,A,44.283396976788396,70.53852502512368,2.2141698488394197,1.1080165600699414,A,653.8697999999386,Correct
13,313,19,A,32.22542490401208,42.747382124573576,1.611271245200604,0.67147430821378,B,613.6087999998381,Incorrect
13,313,20,A,21.935676656464885,53.50456149469772,1.0967838328232444,0.8404476866264283,A,440.93930000008186,Correct
13,313,21,B,42.533304366509455,17.02243752019472,2.126665218325473,0.26738782329817495,B,392.3902999999882,Correct
13,313,22,B,87.9972773986453,69.35218398256622,4.399863869932265,1.0893815585501887,A,357.66100000000733,Incorrect
13,313,23,B,49.64749219357365,27.32855923856279,2.4823746096786823,0.4292760046853117,B,390.2256999999736,Correct
13,313,24,A,51.93041155427448,70.57718247338137,2.596520577713724,1.1086237898472062,A,409.81909999982236,Correct
13,313,25,B,54.97370219065207,25.060116056509735,2.7486851095326035,0.393643382506193,B,393.8448000003518,Correct
13,313,26,B,52.5132524814426,31.216800197757316,2.62566262407213,0.4903523508492739,B,619.506900000033,Correct
13,313,27,A,16.04603750310531,42.10514465254721,0.8023018751552655,0.6613860655938893,A,388.3623000001535,Correct
13,313,28,B,41.20064492199516,14.941748531868303,2.060032246099758,0.23470443709751768,B,369.8961000000054,Correct
13,313,29,B,87.73257332898095,64.59819071879852,4.386628666449047,1.014706006986849,A,359.72110000011526,Incorrect
13,313,30,B,75.59165325766509,61.16981609723068,3.7795826628832545,0.9608532243624928,B,416.56019999982163,Correct
13,313,31,A,11.765879991839594,30.79902815435518,0.5882939995919797,0.4837900029371372,A,350.09479999962423,Correct
13,313,32,B,56.97801993150082,34.691605895825525,2.848900996575041,0.5449344711177891,B,408.27859999990324,Correct
13,313,33,B,60.6132714470196,34.74621053825712,3.03066357235098,0.545792198835364,B,381.0232000000724,Correct
13,313,34,A,54.1208153875412,73.66680467910807,2.70604076937706,1.1571554619666005,B,330.54549999997107,Incorrect
13,313,35,B,48.88540998709954,32.484080701283794,2.444270499354977,0.5102587464488557,B,591.2406000002193,Correct
13,313,36,A,44.452908005707634,55.597238569920314,2.2226454002853817,0.8733193812557037,A,638.7260000001334,Correct
13,313,37,B,61.91262515044654,31.99744182074846,3.0956312575223266,0.5026146407886508,B,575.0287999999273,Correct
13,313,38,B,48.960857090228146,25.425916679094023,2.4480428545114075,0.39938936524913987,B,466.0743999997976,Correct
13,313,39,A,17.702246977964446,34.71916431751714,0.8851123488982223,0.5453673577934437,A,405.3917999999612,Correct
13,313,40,A,54.62442307087756,79.27740431192126,2.731221153543878,1.2452865549099978,A,440.98140000005515,Correct
13,313,41,B,81.47357915253568,67.13571366650866,4.073678957626783,1.0545653242410573,B,618.4097999998812,Correct
13,313,42,A,62.034979457274915,85.33308407452994,3.1017489728637457,1.3404089501835172,A,454.5376999999462,Correct
13,313,43,B,50.184885504153925,24.912857526581455,2.5092442752076964,0.39133025092718743,B,312.2029000001021,Correct
13,313,44,B,66.94235895677078,34.98862014912492,3.3471179478385387,0.5495999600986733,B,514.1787000002296,Correct
13,313,45,B,67.99848343162145,36.61673021047829,3.399924171581073,0.57517425313859,B,499.84470000026704,Correct
13,313,46,B,37.5366041610188,20.620369338220737,1.87683020805094,0.32390400413631243,B,347.5992999997288,Correct
13,313,47,B,32.70791170355139,11.875552214746836,1.6353955851775694,0.1865407379758533,B,592.5763000000188,Correct
13,313,48,A,15.639339193130887,39.56342704308411,0.7819669596565444,0.621460858746944,A,443.88729999991483,Correct
13,313,49,A,44.55380704113038,63.973440947828244,2.227690352056519,1.0048924605327882,A,778.2925000001342,Correct
13,313,50,A,53.357054158928925,66.95952937043839,2.6678527079464462,1.0517978277899962,B,454.41550000032294,Incorrect
13,313,51,A,29.401053480956364,62.24540124981434,1.4700526740478181,0.9777484764308284,A,364.23400000012407,Correct
13,313,52,B,74.0014263355983,47.887409474972415,3.7000713167799146,0.7522136690300981,B,457.459000000199,Correct
13,313,53,A,20.830125929137278,39.57587820949473,1.041506296456864,0.6216564412115652,A,539.982499999951,Correct
13,313,54,B,49.09842048275826,37.57875649851595,2.4549210241379127,0.5902857267338871,B,829.0941000000203,Correct
13,313,55,A,56.87690186473736,83.05012939972455,2.843845093236868,1.3045483820092818,A,505.00970000030065,Correct
13,313,56,B,80.66981910848168,63.74200234977057,4.033490955424083,1.0012570315357128,B,655.6332000000111,Correct
13,313,57,B,35.11711421657152,24.117324522315638,1.755855710828576,0.37883404771773893,B,462.54940000017086,Correct
13,313,58,B,66.99249535510013,52.10967689941362,3.3496247677550066,0.8185368906406779,B,465.61679999967964,Correct
13,313,59,B,41.52334912373944,27.507051865667684,2.076167456186972,0.432079760315475,B,407.4095999999372,Correct
13,313,60,A,59.765431711700856,83.57095914632944,2.988271585585043,1.3127295565378065,A,426.1814999999842,Correct
13,313,61,B,63.815311428537655,56.02741639277855,3.1907655714268826,0.8800765986958472,A,688.525799999752,Incorrect
13,313,62,B,50.17200324680905,42.54135407794556,2.5086001623404526,0.6682380272251798,B,453.823199999988,Correct
13,313,63,B,35.522949092389275,17.34121347691972,1.7761474546194638,0.2723951443171165,B,578.7891999998465,Correct
13,313,64,B,77.29424609083947,55.71448522520119,3.8647123045419733,0.8751610874101456,B,477.3067000000992,Correct
13,313,65,A,53.028817106384146,81.14300024237782,2.651440855319207,1.274591267258445,B,340.749599999981,Incorrect
13,313,66,B,61.26597049419585,51.10187055003839,3.063298524709792,0.8027063055234861,B,452.7845000002344,Correct
13,313,67,A,12.403538768090552,31.58285682950603,0.6201769384045277,0.4961023549747718,A,430.73039999990215,Correct
13,313,68,B,58.67557330397227,51.23930425534352,2.9337786651986137,0.8048651091181971,B,479.0210000001025,Correct
13,313,69,B,44.316793708541724,33.616344014589934,2.215839685427086,0.5280442969839148,B,427.7284999998301,Correct
13,313,70,B,48.7459648427747,33.55369641485394,2.437298242138735,0.5270602307884366,B,467.47199999981603,Correct
13,313,71,A,33.98399624994885,57.63302089371845,1.6991998124974428,0.9052973752194646,A,757.6603000002251,Correct
13,313,72,A,37.11179301518572,50.16499898045537,1.855589650759286,0.7879899613216903,A,450.13479999988704,Correct
13,313,73,B,67.47149571298141,51.83389670087826,3.3735747856490708,0.814204945412057,B,477.15789999983826,Correct
13,313,74,A,25.086246447841695,51.47287193616344,1.2543123223920847,0.8085339816690966,A,455.666199999996,Correct
13,313,75,B,59.43984375677776,34.02003708481261,2.9719921878388877,0.534385492902498,B,426.43520000001445,Correct
13,313,76,A,17.135444398743427,38.89999259094934,0.8567722199371715,0.6110396547421191,A,413.7701999998171,Correct
13,313,77,A,21.10177020360898,43.52522096457196,1.055088510180449,0.6836925721408585,A,486.3319999999476,Correct
13,313,78,B,52.465952536961204,21.28180573623654,2.6232976268480606,0.3342938227804291,B,374.3487000001551,Correct
13,313,79,A,40.060709750597375,48.15803676372899,2.0030354875298686,0.7564646725411909,A,504.0318000001207,Correct
13,313,80,B,64.9669055688706,40.57128579046741,3.2483452784435305,0.6372922669301219,B,386.5083999999115,Correct
13,313,81,A,12.748834113755578,39.65555348226074,0.6374417056877789,0.6229079774695374,A,381.8536999997377,Correct
13,313,82,A,65.69947241501978,84.5090094611974,3.284973620750989,1.3274644164272404,A,518.1492000001526,Correct
13,313,83,A,28.45896882552022,46.376411767519805,1.422948441276011,0.7284789725434774,A,620.233300000109,Correct
13,313,84,A,54.365180066124125,65.90175046137583,2.7182590033062066,1.0351822755408302,B,408.1108000000313,Incorrect
13,313,85,A,32.38954556910679,49.460633752018296,1.6194772784553393,0.7769258181861802,A,602.3388000003251,Correct
13,313,86,A,27.297995637353175,55.5104411726092,1.364899781867659,0.8719559709269873,A,382.5031000001218,Correct
13,313,87,A,23.94628866224644,50.94878809254915,1.1973144331123222,0.8003016919042777,A,376.72199999997247,Correct
13,313,88,A,53.42798190073672,65.91491881290194,2.6713990950368363,1.035389123522902,B,393.5598999996728,Incorrect
13,313,89,B,78.437439562576,52.744214684959715,3.9218719781288,0.8285041868681615,B,631.3832999999249,Correct
13,313,90,B,67.27451411862931,42.560021809670765,3.363725705931466,0.6685312592694153,B,601.0228000000097,Correct
13,313,91,A,51.79924150781589,62.65635549875917,2.589962075390795,0.9842037306780612,B,398.5821000001124,Incorrect
13,313,92,A,32.267830084709985,55.654681163704765,1.6133915042354994,0.8742216874088857,A,464.80320000000575,Correct
13,313,93,A,38.43715150655042,55.60136045396627,1.921857575327521,0.8733841276588924,A,465.3817999997045,Correct
13,313,94,A,33.58354179280973,62.05903287796579,1.6791770896404867,0.9748210088915239,A,439.16760000001887,Correct
13,313,95,B,43.326829300341586,32.01972799738082,2.166341465017079,0.502964711232575,B,633.1464999998389,Correct
13,313,96,B,85.9052559152554,66.17641191664481,4.29526279576277,1.039496647591317,B,531.8978999998762,Correct
13,313,97,A,32.240918357031944,54.423817879898046,1.6120459178515971,0.8548873321589827,A,729.4535999999425,Correct
13,313,98,A,45.13516946171484,70.66023794402847,2.2567584730857417,1.1099284221293328,A,555.1181999999244,Correct
13,313,99,B,41.30678175628781,18.510966320449505,2.0653390878143907,0.29076957901586126,B,458.5743000002367,Correct
13,313,100,A,20.799629996004988,45.973355800658105,1.0399814998002495,0.7221477842210859,A,422.45439999987866,Correct
13,313,101,A,43.200530377896,53.187317844779514,2.1600265188948002,0.8354644350265231,B,379.43940000013754,Incorrect
13,313,102,B,62.8575701478695,40.45841580295072,3.142878507393475,0.6355193093121557,B,536.4008000001377,Correct
13,313,103,A,48.78798777394032,67.43002098663287,2.4393993886970162,1.0591882928150569,A,538.1029000000126,Correct
13,313,104,A,48.08118885575217,79.6953409842231,2.4040594427876085,1.251851488806844,A,415.3579999997419,Correct
13,313,105,B,39.164330923016266,20.85026858314703,1.9582165461508134,0.3275152530309439,B,390.55480000024545,Correct
13,313,106,B,48.33008711851789,20.29029619331207,2.4165043559258943,0.3187192273003507,B,439.89559999999983,Correct
13,313,107,A,54.07448521825344,62.659574005249226,2.7037242609126726,0.9842542868597846,A,442.9912000000513,Correct
13,313,108,A,14.821825010190608,41.0681763419402,0.7410912505095304,0.6450974054608474,A,464.24370000022464,Correct
13,313,109,A,28.803034770712106,58.08629512545237,1.4401517385356053,0.9124173902018489,A,368.2691999997587,Correct
13,313,110,B,83.52754240541681,56.84694608408941,4.17637712027084,0.8929497409839517,B,433.36950000002616,Correct
13,313,111,B,61.17815831055603,46.870361286245604,3.058907915527801,0.7362379134398434,B,346.0040999998455,Correct
13,313,112,A,17.65538879471214,45.95804981356062,0.8827694397356071,0.7219073583379791,A,303.7778000002618,Correct
13,313,113,B,52.508318449401486,32.15336036719831,2.6254159224700744,0.5050638035890771,B,406.40799999982846,Correct
13,313,114,B,53.3795402916334,42.5142760669203,2.6689770145816696,0.6678126868226261,B,370.014799999808,Correct
13,313,115,A,29.995545319286588,58.59898061119201,1.4997772659643294,0.9204706349798577,A,437.09229999967647,Correct
13,313,116,B,49.220126484348384,26.712873398590425,2.4610063242174194,0.41960483412642946,B,463.8252999998258,Correct
13,313,117,A,42.76604746670232,72.44375362772888,2.138302373335116,1.1379438209767099,A,402.0575999998073,Correct
13,313,118,B,66.45042697941119,54.351338011419124,3.3225213489705596,0.8537488210472498,B,371.9802000000527,Correct
13,313,119,A,27.64826634266848,40.14283462700621,1.382413317133424,0.6305621717923634,B,377.8007000000798,Incorrect
13,313,120,A,40.793865115608384,72.82891647296398,2.0396932557804193,1.1439939448018417,A,463.04700000018784,Correct
13,313,121,B,54.79581111715308,36.85586803676603,2.7397905558576543,0.5789306213298953,B,449.5742000003702,Correct
13,313,122,B,75.98904808981563,48.54754972269792,3.7994524044907814,0.7625831277930648,A,373.18210000012186,Incorrect
13,313,123,A,51.42174701963919,73.62726440715602,2.5710873509819594,1.1565343648271729,A,433.878199999981,Correct
13,313,124,A,62.83847081991193,81.10144196658835,3.141923540995597,1.2739384713888644,A,395.27240000006714,Correct
13,313,125,A,46.997601152067176,58.09803915697564,2.3498800576033587,0.9126018650176341,B,470.6111000000419,Incorrect
13,313,126,B,59.42621731466862,51.96554940975897,2.971310865733431,0.8162729413272811,B,990.8558000001904,Correct
13,313,127,A,43.40515313385151,65.78220709451384,2.1702576566925758,1.033304492725235,A,409.1062000002239,Correct
13,313,128,B,51.334058264739696,31.44644139064746,2.566702913236985,0.4939595462720003,B,456.31269999967117,Correct
13,313,129,B,72.58719450305537,44.014026461578325,3.6293597251527685,0.6913707109330061,B,411.35780000013256,Correct
13,313,130,A,46.65009081323218,56.17871258347323,2.332504540661609,0.8824531537018597,A,533.296899999641,Correct
13,313,131,A,32.609232785523545,63.0539710226655,1.6304616392761773,0.9904494607223481,A,472.3727999999028,Correct
13,313,132,A,63.455734530241834,82.56527218878153,3.1727867265120917,1.2969322627495887,B,616.381100000126,Incorrect
13,313,133,A,18.375416105091368,48.97331968323121,0.9187708052545684,0.7692711066937179,A,454.7098999996706,Correct
13,313,134,A,18.76209519285798,35.2189387150262,0.9381047596428991,0.5532177956717773,A,361.2332000002425,Correct
13,313,135,A,58.019770095169186,84.8517557713379,2.9009885047584594,1.3328482628771525,A,593.821299999945,Correct
13,313,136,B,44.57354339248644,30.107440133723134,2.228677169624322,0.47292656371249553,B,538.1207999998878,Correct
13,313,137,A,40.709876073467605,73.38741060113558,2.03549380367338,1.1527667500525263,A,382.264700000178,Correct
13,313,138,B,80.06934783441032,58.97942368174331,4.003467391720516,0.9264466207576234,A,442.4134000000777,Incorrect
13,313,139,B,59.08342486026476,48.70884372366493,2.9541712430132385,0.765116728035595,B,739.529400000265,Correct
13,313,140,B,45.82320031496694,23.51238994540769,2.2911600157483467,0.3693317576041566,A,456.23769999974684,Incorrect
13,313,141,B,50.275941196771505,34.80104139337036,2.5137970598385753,0.5466534798934332,B,500.111399999696,Correct
13,313,142,A,52.73767480023214,76.25487652025183,2.6368837400116067,1.1978087993820996,A,424.82749999999214,Correct
13,313,143,B,62.553977615501026,32.99873307997522,3.127698880775051,0.5183428871091031,B,498.2463999999709,Correct
13,313,144,B,69.79942362851861,39.39662141602742,3.489971181425931,0.6188406820842504,B,422.0943000000261,Correct
13,313,145,B,75.7452009983922,43.58509710055913,3.78726004991961,0.6846331042855718,B,458.2364000002599,Correct
13,313,146,B,58.87810782295401,40.479117732492135,2.9439053911477004,0.6358444944609681,B,528.3587000003536,Correct
13,313,147,A,41.736190059131445,53.16761046467765,2.086809502956572,0.8351548722237755,A,440.3573000004144,Correct
13,313,148,B,57.07146187555921,31.255289856830913,2.85357309377796,0.4909569450001979,B,434.3061999998099,Correct
13,313,149,B,64.6580020831306,53.331594750576656,3.23290010415653,0.8377307313631979,A,509.0971999998146,Incorrect
13,313,150,A,32.273812518529766,56.908121363525574,1.6136906259264885,0.8939106800262416,A,456.94289999983084,Correct
13,313,151,B,84.8077261842464,68.89579325371976,4.240386309212321,1.082212589745636,A,521.2526999998772,Incorrect
13,313,152,B,81.06460556631228,67.20539053226321,4.053230278315613,1.0556598058889557,B,349.13159999996424,Correct
13,313,153,A,51.59351911943827,78.01798863114723,2.5796759559719136,1.2255036996573208,A,447.3886000000675,Correct
13,313,154,B,35.308810729520076,22.72809137681691,1.7654405364760037,0.35701202449762764,B,538.1298000002062,Correct
13,313,155,A,28.902562883797074,50.35461655657616,1.4451281441898538,0.7909684672423531,A,401.05080000012094,Correct
13,313,156,A,15.510379467712998,43.83325567342074,0.7755189733856498,0.6885311700327085,A,388.3816000002298,Correct
13,313,157,B,70.3439993306756,37.41791298869768,3.5171999665337803,0.5877592027897737,B,405.75730000000476,Correct
13,313,158,B,63.27767484283067,42.49926374384644,3.163883742141534,0.6675768738032152,B,415.1604000003317,Correct
13,313,159,B,71.41687636584336,57.6635284565677,3.570843818292168,0.9057765868960953,B,364.937800000007,Correct
13,313,160,B,46.00889058787424,30.918297274681237,2.300444529393712,0.48566347789821945,A,573.5230999998748,Incorrect
13,313,161,A,33.355180625481744,47.88607197719955,1.6677590312740873,0.7521926596642108,B,324.7180000003027,Incorrect
13,313,162,B,45.0184384625729,23.240145403868766,2.250921923128645,0.36505535034576353,B,977.4532999999792,Correct
13,313,163,B,72.81517960891496,60.93895206526234,3.6407589804457476,0.9572268206284436,A,589.8690999997598,Incorrect
13,313,164,A,50.26274088700842,57.469440978614685,2.513137044350421,0.9027278679216405,B,510.71870000032504,Incorrect
13,313,165,B,76.2796658949226,45.2924617314606,3.8139832947461296,0.7114523251927672,B,559.284800000114,Correct
13,313,166,B,47.95848120270369,40.88048532016035,2.3979240601351846,0.6421491617850058,B,1287.8489999998237,Correct
13,313,167,A,66.82210080094531,84.35823304875565,3.3411050400472653,1.3250960260789324,A,415.32269999970595,Correct
13,313,168,B,63.52728185696294,33.22451553089443,3.176364092848147,0.5218894695546896,B,571.4646999999786,Correct
13,313,169,B,66.02437753036162,50.40843764656324,3.3012188765180808,0.7918138869469113,B,532.0345000000088,Correct
13,313,170,A,26.390027762838958,39.08432850156031,1.319501388141948,0.6139351964549601,A,489.90219999996043,Correct
13,313,171,B,50.023685740691846,35.94064391387366,2.5011842870345924,0.5645543144255609,B,505.31939999973474,Correct
13,313,172,A,17.253084386140156,43.20513695318361,0.8626542193070078,0.6786647042473126,A,497.6111999999375,Correct
13,313,173,A,38.45490608983183,62.91477786659497,1.9227453044915916,0.9882630197396424,A,615.9745999998449,Correct
13,313,174,A,53.28251404932014,75.3477190818777,2.664125702466007,1.183559203661872,A,587.0571999998901,Correct
13,313,175,B,62.84800123584968,38.75056939855385,3.142400061792484,0.6086925207245911,B,441.3958999998613,Correct
13,313,176,A,45.48066362910678,75.26444674159994,2.274033181455339,1.182251164799553,A,439.4674000000123,Correct
13,313,177,A,33.30015822154469,42.633699804961196,1.6650079110772344,0.6696885905130934,A,708.1602000002931,Correct
13,313,178,A,65.32062190960804,79.74969682594022,3.2660310954804017,1.2527053083719353,B,544.0638000000035,Incorrect
13,313,179,A,38.787278259178606,52.94408123245522,1.9393639129589304,0.8316436832547129,A,971.1585999998533,Correct
13,313,180,B,79.35120206460006,61.984256609618406,3.967560103230003,0.9736464260150087,A,387.40710000001854,Incorrect
13,313,181,A,24.96946129181037,40.72577147605412,1.2484730645905184,0.6397189224047418,A,510.73700000006284,Correct
13,313,182,B,68.96313284626333,55.79454348821187,3.4481566423131667,0.8764186396648133,B,595.7264000003306,Correct
13,313,183,B,54.29648537851438,29.26044836083982,2.714824268925719,0.4596220480557894,A,586.6403999998511,Incorrect
13,313,184,A,48.07613272107071,58.23541547780054,2.4038066360535355,0.9147597672190375,A,846.5095999999903,Correct
13,313,185,B,65.24470805320063,51.75119348303503,3.262235402660031,0.8129058463040342,B,646.5444999998908,Correct
13,313,186,B,51.75543979601823,43.09341759179995,2.5877719898009115,0.6769098206223794,A,599.123999999847,Incorrect
13,313,187,B,75.69747025041323,55.51632463926466,3.7848735125206616,0.8720483882050994,A,602.4191000001338,Incorrect
13,313,188,B,85.05769131080129,69.68488276751967,4.252884565540064,1.0946075788435288,B,1294.5752999999058,Correct
13,313,189,A,48.01573252845593,59.802334726368855,2.4007866264227964,0.9393728772193909,A,466.45810000018173,Correct
13,313,190,B,65.85067026634522,48.391589676350826,3.292533513317261,0.7601333131137772,B,434.21319999970365,Correct
13,313,191,B,57.52525573829523,48.95119679650494,2.8762627869147614,0.7689236012016405,B,406.65770000032353,Correct
13,313,192,B,67.83594376551179,44.2352512778538,3.3917971882755893,0.69484570222102,B,445.0040000001536,Correct
13,313,193,A,21.282562262581724,50.00752976523103,1.064128113129086,0.7855164406731135,A,398.39690000007977,Correct
13,313,194,B,67.72041942102807,50.75596887886492,3.386020971051403,0.797272894778371,B,516.4672000000792,Correct
13,313,195,B,53.436219271865475,31.47672184268771,2.671810963593274,0.4944351905003854,B,396.78170000024693,Correct
13,313,196,B,75.56760570782966,59.76140957634793,3.778380285391483,0.9387300264661268,B,823.5461999997824,Correct
13,313,197,A,46.40233433306281,61.64916793898433,2.3201167166531405,0.9683828654851827,A,431.0091000002103,Correct
13,313,198,B,81.7750470481181,60.810478514371056,4.088752352405905,0.9552087628101402,B,428.83130000018355,Correct
13,313,199,A,48.263312819677935,71.72503642719558,2.413165640983897,1.1266542375906896,A,513.2398999999168,Correct
13,313,200,A,21.05379091380339,36.04286103575769,1.0526895456901695,0.5661599372214708,A,462.796199999957,Correct
13,313,201,B,30.970909827009123,13.022027108730605,1.548545491350456,0.20454952349817598,A,660.8894000000873,Incorrect
13,313,202,A,59.457056819385244,68.21081914313731,2.972852840969262,1.071453041577111,A,578.9519999998447,Correct
13,313,203,A,50.153735023936015,80.68814407055075,2.507686751196801,1.2674464032191852,B,753.8844000000609,Incorrect
13,313,204,B,63.390240985453744,41.05322603248777,3.169512049272687,0.6448625665491242,B,555.8125000002292,Correct
13,313,205,B,82.57214927115254,66.88420022179125,4.128607463557627,1.0506145602900407,B,633.3538999997472,Correct
13,313,206,B,68.37479435024436,53.30898507784365,3.418739717512218,0.8373755794544075,A,607.4447000000873,Incorrect
13,313,207,B,31.00441120364886,12.655664552283564,1.550220560182443,0.19879471391875403,B,474.7640999999021,Correct
13,313,208,A,47.35397366797021,56.82788882587273,2.36769868339851,0.8926503902718963,B,511.4886999999726,Incorrect
13,313,209,B,55.052404635149394,42.75011768379465,2.7526202317574695,0.6715172782775418,B,549.840800000311,Correct
13,313,210,B,85.35014890169221,68.2032336358927,4.26750744508461,1.071333888707944,B,698.5397999997076,Correct
13,313,211,A,49.59544626367119,78.89665787630705,2.4797723131835596,1.2393058038849676,A,460.7679000000644,Correct
13,313,212,B,73.6404336191521,59.874859956546146,3.682021680957605,0.9405121008710152,B,447.82219999979134,Correct
13,313,213,A,55.20219958536738,67.28837329164125,2.7601099792683694,1.056963296025139,A,489.47610000004715,Correct
13,313,214,B,56.646816108905426,24.696300034544084,2.8323408054452717,0.38792857379686524,B,410.6334000002789,Correct
13,313,215,B,43.12711391667224,20.190217934113246,2.156355695833612,0.3171472016809353,B,462.21809999997276,Correct
13,313,216,B,54.123672228693074,27.14227547362838,2.706183611434654,0.4263498661483068,B,663.610499999777,Correct
13,313,217,A,49.99483929879372,60.825624439063944,2.499741964939686,0.9554466744388752,B,602.3850000001403,Incorrect
13,313,218,A,31.255681332255566,59.9231786632263,1.5627840666127784,0.941271089340702,A,563.5159000003114,Correct
13,313,219,A,20.5073948115354,33.90948384149986,1.0253697405767699,0.5326489266173888,A,442.95580000016344,Correct
13,313,220,A,65.67991354292627,84.27559734144995,3.2839956771463137,1.3237979874239534,B,443.0050000000847,Incorrect
13,313,221,B,80.67180144516485,51.281638828753195,4.033590072258242,0.8055300990422808,B,777.0728000000418,Correct
13,313,222,B,61.71537334461558,33.48543778523742,3.085768667230779,0.5259880267416999,B,515.5711000002157,Correct
13,313,223,B,89.61469870602134,65.15312533604991,4.480734935301067,1.023422899570747,B,752.2758999998587,Correct
13,313,224,A,58.44657103323064,78.99444160859697,2.922328551661532,1.2408417871599808,A,654.0795000000799,Correct
13,313,225,B,57.632020612634314,38.4740578885404,2.8816010306317157,0.6043490880821347,B,662.9355000000032,Correct
13,313,226,B,76.23120137074716,57.786354760737055,3.811560068537358,0.9077059379703256,B,836.482199999864,Correct
13,313,227,B,38.43028001919106,17.966619802683706,1.921514000959553,0.2822190039097601,B,535.801999999876,Correct
13,313,228,A,46.10983911881111,72.70732157549774,2.3054919559405556,1.142083936618872,A,495.821199999682,Correct
13,313,229,A,42.662988191205734,71.81919406542767,2.1331494095602865,1.1281332623134364,B,561.4996000003885,Incorrect
13,313,230,A,55.72776052225438,77.20141511516334,2.786388026112719,1.212676992862666,A,474.069899999904,Correct
13,313,231,A,35.71127633560113,63.64332519283073,1.7855638167800563,0.9997070143791161,A,798.2326000001194,Correct
13,313,232,A,26.243846063937568,55.28568775479762,1.3121923031968783,0.8684255524956569,A,518.4988000000885,Correct
13,313,233,B,59.66314307199003,34.85105739280844,2.9831571535995014,0.5474391293754163,B,513.2785000000695,Correct
13,313,234,B,37.69370157875938,21.65141495730277,1.884685078937969,0.34009963084843275,B,687.3774000000594,Correct
13,313,235,A,50.29963074308879,76.82716632036042,2.5149815371544393,1.2067983065408272,B,401.0417999998026,Incorrect
13,313,236,A,42.60470288023069,54.18117641187633,2.1302351440115346,0.8510759288920163,A,648.2379000003675,Correct
13,313,237,B,38.160682046215,18.917382399140838,1.90803410231075,0.29715354785144854,B,755.5591000000277,Correct
13,313,238,A,63.84580874895592,74.25172202922987,3.1922904374477956,1.1663433222170998,A,559.1682999997829,Correct
13,313,239,B,33.706362032366066,15.282480471351818,1.6853181016183032,0.24005664188714174,B,724.4362000001274,Correct
13,313,240,A,62.25715866284054,76.26271945705581,3.1128579331420267,1.1979319959453296,A,694.3639999999505,Correct
13,313,241,B,54.24240865853832,35.96513271674307,2.7121204329269157,0.5649389836415096,A,723.0893000000833,Incorrect
13,313,242,A,68.29562790648352,84.75858171104993,3.4147813953241757,1.3313846881606233,A,2101.318999999876,Correct
13,313,243,A,25.50764795231793,56.910204171674025,1.2753823976158967,0.8939433967001317,A,886.4377999998396,Correct
13,313,244,B,45.73747870257248,15.977473236431873,2.286873935128624,0.25097356271250953,B,451.4326999997138,Correct
13,313,245,B,77.68886923187688,62.155459533856096,3.884443461593844,0.9763356752602997,B,624.6937000000798,Correct
13,313,246,B,79.3428887165961,50.329284930274994,3.967144435829805,0.7905705589868971,B,394.64170000019294,Correct
13,313,247,B,36.19396011559604,13.90270052303796,1.809698005779802,0.21838310914117515,B,491.7645000000448,Correct
13,313,248,B,58.00152831581643,35.22527518557431,2.900076415790821,0.5533173287183955,B,514.6665000002031,Correct
13,313,249,B,59.07866561135232,51.113870827479076,2.9539332805676164,0.8028948054407296,B,423.12440000023344,Correct
13,313,250,B,70.76959729378385,50.960889667760355,3.538479864689192,0.8004917830031797,B,357.7288999999837,Correct
13,313,251,B,71.93836651767127,54.94057829376481,3.5969183258835637,0.8630045857583318,B,423.7097999998696,Correct
13,313,252,B,50.28831736131672,22.75749546395684,2.514415868065836,0.35747390281834923,B,485.7698999999229,Correct
13,313,253,A,43.190349704217,74.1211402743294,2.15951748521085,1.164292148807659,A,487.1662999998989,Correct
13,313,254,A,54.67290697797027,74.55089640161245,2.7336453488985137,1.1710427422691971,A,445.5560000001242,Correct
13,313,255,A,21.46341190082866,48.43872566836926,1.073170595041433,0.760873723545001,A,496.5959999999541,Correct
13,313,256,B,42.361848422111024,34.54567835424704,2.118092421105551,0.5426422466548921,B,448.32739999992555,Correct
13,313,257,B,74.29726807100775,59.615432395412554,3.7148634035503876,0.9364370222700354,B,483.6526999997659,Correct
13,313,258,A,49.66354526779221,68.59376141087992,2.4831772633896105,1.077468284652557,A,502.44729999985793,Correct
13,313,259,A,21.533442886910297,49.55660049263432,1.0766721443455147,0.7784332602227214,B,462.14429999963613,Incorrect
13,313,260,A,38.37547414422245,50.10965481962215,1.9187737072111224,0.7871206172762266,A,452.53439999987677,Correct
13,313,261,B,53.69050093061894,38.32583135126619,2.684525046530947,0.6020207510792961,B,421.09409999966374,Correct
13,313,262,B,44.007597747006564,14.635149817611278,2.200379887350328,0.22988839575596792,B,541.6645999998764,Correct
13,313,263,B,47.82248136720018,28.444234436047005,2.391124068360009,0.4468009897063554,A,444.574300000113,Incorrect
13,313,264,B,80.4733853844047,53.74974627966145,4.0236692692202345,0.8442990402224988,A,544.7368000000097,Incorrect
13,313,265,A,31.72786411176135,46.02476535829566,1.5863932055880674,0.7229553236640784,A,554.4165999999677,Correct
13,313,266,A,49.80899350930524,71.1591609321648,2.4904496754652623,1.1177654861005135,A,615.6452000000172,Correct
13,313,267,B,47.94950802201112,35.58684768753398,2.397475401100556,0.5589968962978784,A,447.68489999978556,Incorrect
13,313,268,B,63.20881328035772,36.05949352164003,3.160440664017886,0.5664211996987653,B,428.7030999998933,Correct
13,313,269,B,68.06641779035354,38.17775157934157,3.4033208895176768,0.5996947194611779,B,479.4328999996651,Correct
13,313,270,B,70.76333096986772,50.857886286658534,3.5381665484933866,0.7988738096763577,B,473.1069999997999,Correct
13,313,271,A,54.03262855999786,76.73921435523653,2.701631427999893,1.2054167603033175,A,520.299199999954,Correct
13,313,272,B,76.7624768694859,45.34129528441423,3.838123843474295,0.7122194008488063,B,458.5266999997657,Correct
13,313,273,A,60.11288401217706,73.78915482745859,3.0056442006088533,1.1590773336027185,A,476.7369000001054,Correct
13,313,274,B,62.68834234710079,37.45579458817297,3.13441711735504,0.5883542455628626,B,374.95259999968766,Correct
13,313,275,B,49.334599084572304,34.4512449816034,2.466729954228615,0.5411588907061373,B,521.4689999997972,Correct
13,313,276,B,50.62120331490647,38.419754550896755,2.5310601657453233,0.6034960932491014,B,411.40919999998005,Correct
13,313,277,A,28.656759083123717,37.776150669279716,1.4328379541561858,0.5933863871175515,B,371.7274999999063,Incorrect
13,313,278,B,59.858198932120665,29.296636051684438,2.992909946606033,0.46019048297432846,B,639.0419999997903,Correct
13,313,279,B,75.94340581181496,53.15052436845126,3.797170290590748,0.8348864844518589,B,487.88299999978335,Correct
13,313,280,A,54.315491262839366,83.1643721376781,2.7157745631419683,1.3063429027406859,A,455.91300000023693,Correct
13,313,281,A,55.66965541122087,84.25657544716233,2.783482770561044,1.3234991922071966,A,438.2792999999765,Correct
13,313,282,B,45.08497791610774,27.78001379691867,2.254248895805387,0.4363674363051139,B,629.4444000000112,Correct
13,313,283,B,73.25686549751536,60.5836269304979,3.6628432748757684,0.9516453864633847,B,581.1950000002071,Correct
13,313,284,A,35.897623143667374,49.312227562429655,1.7948811571833687,0.7745946592113856,B,392.489100000148,Incorrect
13,313,285,A,60.85633294464901,82.60011935764234,3.0428166472324505,1.2974796407980462,A,614.0720999997029,Correct
13,313,286,A,59.376669342160596,85.914661041347,2.9688334671080296,1.349544339815765,A,353.6859999999251,Correct
13,313,287,B,86.07399602424216,66.33546823066003,4.303699801212108,1.0419950983294035,B,479.7507000002952,Correct
13,313,288,B,72.9053506666219,51.882827914554916,3.645267533331095,0.8149735551191458,B,377.12680000004184,Correct
13,313,289,A,26.62797174985999,37.96722865559133,1.3313985874929994,0.596387833107848,A,1273.16860000019,Correct
13,313,290,B,64.47602594391772,44.871622903704946,3.2238012971958856,0.7048418043446547,A,423.26009999987946,Incorrect
13,313,291,B,53.361911070180945,29.13409497033129,2.668095553509047,0.45763729363890066,B,519.2721999997048,Correct
13,313,292,A,23.324885322371564,50.43905400685489,1.1662442661185781,0.7922948076097707,A,483.95739999978105,Correct
13,313,293,B,56.53539061330796,42.93478687194149,2.826769530665398,0.6744180551016743,B,639.8130000002311,Correct
13,313,294,B,43.26373131324689,21.790100122110236,2.1631865656623446,0.34227809232303785,B,785.7798000000003,Correct
13,313,295,B,67.12111961254736,39.03816017467934,3.356055980627368,0.6132099860721714,B,521.543500000007,Correct
13,313,296,B,76.2895490315547,44.591077261456654,3.8144774515777353,0.7004350037012355,A,384.7292999998899,Incorrect
13,313,297,B,88.11240447362778,62.456216357214075,4.405620223681389,0.9810599523941921,B,565.7258000001093,Correct
13,313,298,A,35.50742029005731,52.90338182512595,1.7753710145028656,0.8310043784593573,A,498.7020999997185,Correct
13,313,299,A,20.14770807585157,38.78779001090021,1.0073854037925785,0.6092771807361382,A,412.36399999979767,Correct
13,313,300,B,40.75326398091422,28.13579875258491,2.0376631990457112,0.44195609332000807,B,439.69090000018696,Correct
13,313,301,A,44.680546194450706,59.69222560342162,2.2340273097225354,0.9376432871606696,B,330.4600000001301,Incorrect
13,313,302,A,41.17551558528879,72.95597082834077,2.0587757792644394,1.145989709949133,A,356.41420000001744,Correct
13,313,303,A,37.7417603618789,45.528837511778335,1.887088018093945,0.7151653072674312,A,387.29609999973036,Correct
13,313,304,B,39.60600456661835,28.74388004748962,1.9803002283309177,0.45150781196429807,B,545.117499999833,Correct
13,313,305,B,68.86944313116632,38.147330468423206,3.4434721565583164,0.5992168657683021,B,418.54419999981474,Correct
13,313,306,A,50.802733545995295,70.38592031121034,2.5401366772997647,1.1056194508292752,A,454.41329999994196,Correct
13,313,307,B,74.9522726709763,48.56646451605738,3.747613633548815,0.7628802406723761,B,412.81590000016877,Correct
13,313,308,B,31.528447254077832,17.55543447695971,1.5764223627038916,0.275760119916968,A,598.991599999863,Incorrect
13,313,309,B,64.14552933929043,32.06111844697402,3.2072764669645215,0.5036148708944289,B,735.0335000000996,Correct
13,313,310,A,28.21839942080659,46.80550663876561,1.4109199710403295,0.7352191790194718,A,458.06320000019696,Correct
13,313,311,B,47.54079008903659,29.301140932537148,2.3770395044518295,0.4602612454772894,B,384.1541000001598,Correct
13,313,312,A,43.29721953625156,72.54209761024947,2.164860976812578,1.1394886046417672,A,389.9458999999297,Correct
13,313,313,A,53.96602776088178,69.08945696592261,2.6983013880440887,1.0852546522232531,B,433.8032000000567,Incorrect
13,313,314,B,77.57323129213715,60.89413598673785,3.878661564606858,0.9565228513131673,B,458.35459999989325,Correct
13,313,315,A,40.97175767796287,59.62914068535315,2.0485878838981435,0.9366523515848886,A,403.258199999982,Correct
13,313,316,A,38.60035409111672,46.31737893770243,1.930017704555836,0.7275516870211027,B,597.1964000000298,Incorrect
13,313,317,A,47.97364801834684,61.96011777162096,2.398682400917342,0.9732672540344138,B,365.7776999998532,Incorrect
13,313,318,B,61.123878139051456,28.574209843459084,3.0561939069525725,0.448842638631721,B,689.3749999999272,Correct
13,313,319,A,55.73786306519528,82.39607767310014,2.786893153259764,1.294274561512127,A,462.6284000000851,Correct
13,313,320,A,61.78735048698087,85.07534768755255,3.0893675243490435,1.3363604364840627,A,610.7895000000099,Correct
13,313,321,A,43.77534386734569,60.89170253971961,2.1887671933672848,0.9564846268167903,B,454.1085999999268,Incorrect
13,313,322,B,34.4325022235678,10.889274354223367,1.7216251111783902,0.17104832157075936,B,536.8978999999854,Correct
13,313,323,A,31.947304916275986,59.01645966507374,1.5973652458137995,0.92702838062337,A,429.3182000001252,Correct
13,313,324,B,32.55503196749489,19.02403476524973,1.6277515983747446,0.2988288393007269,A,541.8934000003901,Incorrect
13,313,325,B,36.37181472558312,12.451475754606872,1.8185907362791562,0.19558732378512186,B,307.94990000003963,Correct
13,313,326,A,35.368805862323676,53.90557677477063,1.7684402931161838,0.8467468199157,A,619.7030999996969,Correct
13,313,327,B,68.91090466308039,37.307187839572556,3.4455452331540193,0.5860199362144781,B,618.0616999999984,Correct
13,313,328,A,65.84919955750772,83.0236607523351,3.292459977875386,1.3041326134683362,A,472.4012000001494,Correct
13,313,329,A,21.737594963533255,37.10186697101544,1.0868797481766628,0.5827947635530394,B,354.68449999962104,Incorrect
13,313,330,A,37.99226274183388,59.59941466654412,1.8996131370916942,0.936185416373334,A,492.88109999997687,Correct
13,313,331,A,41.6350652359084,73.41348445534014,2.08175326179542,1.1531763171966254,A,529.8625000000357,Correct
13,313,332,A,38.44457058111884,53.19893459137404,1.922228529055942,0.835646910455323,A,457.06399999971836,Correct
13,313,333,A,34.113209710264194,50.1365963055622,1.7056604855132096,0.7875438131477567,A,576.2334999999439,Correct
13,313,334,A,61.920055449216406,72.2691864342269,3.0960027724608206,1.1352017259133917,A,1139.5668999998634,Correct
13,313,335,A,42.82072119555323,61.11087958864876,2.1410360597776616,0.9599274518505468,A,361.92909999999756,Correct
13,313,336,B,53.33797426892659,31.714665309238327,2.6668987134463293,0.498172797732811,A,439.4600000000537,Incorrect
13,313,337,A,50.08969447873048,81.04704393603474,2.5044847239365238,1.2730839891230799,A,1033.6896999997407,Correct
13,313,338,A,56.54682999743907,66.19708381051305,2.8273414998719533,1.0398213609408782,A,763.3786999999757,Correct
13,313,339,B,58.75893652900028,44.21257892256822,2.937946826450014,0.6944895656969962,B,797.5995000001603,Correct
13,313,340,A,44.5122077144767,71.53780337963956,2.2256103857238347,1.1237131877571336,A,383.8061999999809,Correct
13,313,341,B,81.35676920211617,60.5154198337135,4.067838460105809,0.950573991892482,A,331.99910000030286,Incorrect
13,313,342,A,19.812775643985244,48.51356047829072,0.9906387821992623,0.7620492259904112,A,399.8387999999977,Correct
13,313,343,B,54.762686565291595,29.379368462406852,2.73813432826458,0.461490040643025,B,436.83780000037586,Correct
13,313,344,B,49.58362454941747,38.137788886061344,2.4791812274708733,0.5990669869430438,B,363.19940000021234,Correct
13,313,345,A,46.79927246212466,77.81461176487821,2.3399636231062333,1.2223090633124163,A,481.84020000007877,Correct
13,313,346,A,53.84207336265418,74.91713493172489,2.692103668132709,1.176795603647511,A,332.88549999997485,Correct
13,313,347,A,12.290431723914441,31.30625661231215,0.6145215861957221,0.49175752892318364,B,388.35519999975077,Incorrect
13,313,348,B,64.65561555709289,44.97203901825542,3.2327807778546447,0.7064191369835239,B,618.9831000001504,Correct
13,313,349,B,56.04193191159682,31.180281455115882,2.8020965955798407,0.48977871578127063,B,757.4624999997468,Correct
13,313,350,A,14.524970253087542,37.16166548387697,0.7262485126543772,0.5837340763965464,A,415.15179999987595,Correct
13,313,351,B,53.987948789228795,32.978414922589664,2.6993974394614395,0.5180237302392184,B,936.5397999999914,Correct
13,313,352,A,38.53285337188254,55.39366702289149,1.926642668594127,0.8701216868725754,B,466.51420000034705,Incorrect
13,313,353,B,88.94883832287256,69.2889732820547,4.447441916143628,1.0883886471884126,B,871.2239999999838,Correct
13,313,354,A,62.054811747699134,79.18266782853233,3.102740587384957,1.24379843770879,A,684.7238000000289,Correct
13,313,355,B,61.2627842841886,28.784707479594434,3.06313921420943,0.4521491277681252,B,438.6813999999504,Correct
13,313,356,A,28.387363441501396,44.35021005615235,1.4193681720750697,0.6966514704878619,A,468.7928000003012,Correct
13,313,357,A,38.66811536691098,61.7209805147479,1.933405768345549,0.9695108947874538,A,584.108500000184,Correct
13,313,358,B,78.37533932101549,48.01008083064141,3.9187669660507742,0.754140586178976,B,416.68429999981527,Correct
13,313,359,B,54.552713572778806,37.274583965983204,2.7276356786389404,0.5855077957657436,B,434.6286999998483,Correct
13,313,360,B,72.34477370872105,53.89331256662763,3.6172386854360523,0.8465541741846792,B,404.307400000107,Correct
13,313,361,A,33.06114290956819,41.80799721818064,1.6530571454784095,0.6567184846096941,B,450.66570000017236,Incorrect
13,313,362,A,41.63843041731426,52.79072446577367,2.081921520865713,0.8292347607967876,A,794.6812999998656,Correct
13,313,363,A,34.057996516502016,43.322811741078425,1.7028998258251007,0.6805131354931281,A,937.0327000001453,Correct
13,313,364,A,56.01013052708872,63.44514322926892,2.800506526354436,0.9965939793751171,A,647.4119999998038,Correct
13,313,365,A,38.34333800058036,55.10061848475917,1.917166900029018,0.8655184911998668,A,476.63569999986066,Correct
13,313,366,B,83.65671794408757,61.02896287412224,4.182835897204379,0.9586407071077333,B,449.1027999997641,Correct
13,313,367,A,47.07854528602884,67.29302381665666,2.3539272643014417,1.0570363463012578,A,429.26219999981186,Correct
13,313,368,B,33.22974640497577,18.90081840054646,1.6614873202487885,0.29689336116995774,B,445.26479999967705,Correct
13,313,369,B,68.01480320907667,48.90484914038699,3.4007401604538336,0.7681955739217846,A,866.768399999728,Incorrect
13,313,370,A,25.233433078826287,46.78539023418716,1.2616716539413144,0.7349031912752703,A,576.3308000000507,Correct
13,313,371,A,27.09071207344789,39.37908082777902,1.3545356036723946,0.6185651551683462,A,483.66699999996854,Correct
13,313,372,A,32.21750056382045,41.9456143078816,1.6108750281910227,0.6588801687997586,A,472.0692000000781,Correct
13,313,373,B,51.36993618581223,22.069470209643903,2.5684968092906115,0.3466664273961804,B,1389.0565000001516,Correct
13,313,374,A,57.48444200562116,74.24109226635306,2.874222100281058,1.166176350292284,B,1423.3158000001822,Incorrect
13,313,375,A,42.088316672665755,73.16542399043246,2.104415833633288,1.1492797925256253,A,802.6355000001786,Correct
13,313,376,A,28.24662522683699,55.250911092003776,1.4123312613418495,0.8678792819539093,A,635.5624000002535,Correct
13,313,377,B,62.676843977887046,36.63351146066675,3.1338421988943526,0.5754378524001409,B,490.40100000001985,Correct
13,313,378,A,18.507686073429472,39.835742995423956,0.9253843036714735,0.6257383877235748,A,476.35889999992287,Correct
13,313,379,B,76.53456633371792,52.0665366624977,3.826728316685896,0.817859245383832,A,555.5327000001853,Incorrect
13,313,380,B,87.5434283739366,61.01492224142157,4.37717141869683,0.9584201573650124,A,766.3082999997641,Incorrect
13,313,381,B,42.78405453568949,19.710854423139423,2.139202726784475,0.3096173772585635,B,1747.0045999998547,Correct
13,313,382,B,67.2990363393696,41.928894005755915,3.3649518169684796,0.6586175269081396,B,551.9813000000795,Correct
13,313,383,A,64.05255624963621,83.66149124568048,3.2026278124818104,1.3141516314289832,A,728.5722999999962,Correct
13,313,384,A,44.58539376300623,52.97515995173916,2.229269688150312,0.8321318666356399,B,592.5701000001027,Incorrect
13,313,385,A,16.850324558606722,42.165376746250644,0.8425162279303362,0.6623321891093346,A,502.68529999993916,Correct
13,313,386,A,43.28793392324084,54.89466388490724,2.164396696162042,0.8622833639105276,B,606.4151000000493,Incorrect
13,313,387,A,54.50177719154793,75.94764777105658,2.7250888595773968,1.192982861474883,A,869.0621000000647,Correct
13,313,388,A,64.66796538569469,86.76832429015306,3.2333982692847343,1.3629536507712083,A,469.6128000000499,Correct
13,313,389,A,18.966492350983245,40.23474394302615,0.9483246175491622,0.6320058799523871,A,739.9782999996205,Correct
13,313,390,A,64.7503771901556,79.34384231307746,3.2375188595077806,1.2463301605917556,B,915.462099999786,Incorrect
13,313,391,A,58.49689208329316,83.47973585291528,2.924844604164658,1.3112966243956756,A,634.6441000000596,Correct
13,313,392,B,80.1172402008697,59.82523731394443,4.005862010043485,0.9397326302237689,A,581.4151999998103,Incorrect
13,313,393,B,52.82500556115839,21.30937469593394,2.6412502780579192,0.33472687498669146,B,554.1312000000289,Correct
13,313,394,A,39.89577395372812,71.30093063291305,1.9947886976864058,1.1199923993523753,A,644.3648999998004,Correct
13,313,395,B,39.03841079921763,22.250329210041155,1.9519205399608814,0.3495073539310984,B,488.78289999993285,Correct
13,313,396,A,20.243837283931335,38.157964232075265,1.0121918641965666,0.5993839005371489,B,748.1090999999651,Incorrect
13,313,397,B,76.06419590309825,55.85309200787049,3.803209795154913,0.8773383176610037,B,516.6451000000052,Correct
13,313,398,B,67.44607027924862,42.73023882342391,3.3723035139624304,0.6712050218690295,B,487.7377000002525,Correct
13,313,399,A,42.3173288531449,72.99613896591067,2.1158664426572447,1.146620669578623,A,424.0317999997387,Correct
13,313,400,B,79.96438644311324,53.67544476191514,3.9982193221556623,0.8431319147109867,A,500.4696999999396,Incorrect
13,313,401,B,83.81087616956576,54.85776711236072,4.190543808478288,0.861703790762661,B,411.6479999997864,Correct
13,313,402,B,77.03183897128328,62.07266121776788,3.8515919485641636,0.9750350823525382,B,795.9475999996357,Correct
13,313,403,A,38.53177484664174,67.20212460500451,1.9265887423320869,1.0556085048235402,A,509.91220000014437,Correct
13,313,404,B,82.52436221387165,65.77995938533859,4.126218110693583,1.0332691857920735,B,905.4934000000685,Correct
13,313,405,B,36.789171939703905,13.94203451862748,1.8394585969851953,0.219000966099077,A,976.9640999998046,Incorrect
13,313,406,B,56.311150148047645,42.10694650551511,2.8155575074023824,0.6614143690341234,B,596.8506999997771,Correct
13,313,407,B,71.00802897722913,50.10735207784178,3.5504014488614564,0.7870844458929249,B,549.9411000000691,Correct
13,313,408,B,83.59155893322813,68.91343038955398,4.179577946661407,1.0824896332274718,B,418.3943000002728,Correct
13,313,409,B,73.85500798712854,57.787121948389185,3.6927503993564272,0.9077179889257849,B,514.1438999999082,Correct
13,313,410,A,39.90278434515429,57.569884491517556,1.9951392172577145,0.9043056309328227,A,494.56670000017766,Correct
13,313,411,A,45.09123949245312,54.76147352311007,2.254561974622656,0.8601912145997727,A,494.02580000014495,Correct
13,313,412,A,29.656476054391753,46.05810900539528,1.4828238027195877,0.7234790844479387,A,451.2564999999995,Correct
13,313,413,B,66.98872489671434,47.98981914389995,3.3494362448357173,0.7538223163478944,B,519.4424999999683,Correct
13,313,414,A,34.758449584621786,64.90417993114329,1.7379224792310892,1.0195124742947492,A,796.4064000002509,Correct
13,313,415,A,35.64076707129822,67.42553569959583,1.7820383535649111,1.059117838091033,A,524.9708999999712,Correct
13,313,416,A,33.54332078471565,48.956757370209544,1.6771660392357826,0.7690109464891413,A,590.1024999998299,Correct
13,313,417,A,60.889377517485464,77.40673640633345,3.0444688758742733,1.2159021721624936,B,650.8114999996906,Incorrect
13,313,418,B,56.264443389920544,47.87756096347074,2.813222169496027,0.7520589689731858,A,485.0289999999404,Incorrect
13,313,419,B,43.1018437345428,31.702239932877188,2.1550921867271398,0.4979776203773397,B,496.3684999997895,Correct
13,313,420,A,20.97912973570395,40.87221564396406,1.0489564867851975,0.6420192620150765,A,508.5231999996722,Correct
13,313,421,A,41.638778883835485,56.992753287332064,2.081938944191774,0.8952400751766897,A,483.43430000022636,Correct
13,313,422,B,67.0995716610171,48.65618117303592,3.3549785830508547,0.7642895066247183,B,624.9677999999221,Correct
13,313,423,A,50.839849866878055,64.13307289021228,2.541992493343903,1.007399953220148,A,543.9108000000488,Correct
13,313,424,B,72.56450723919065,50.548134215576376,3.6282253619595326,0.7940082355216279,B,492.60129999993296,Correct
13,313,425,A,25.922637123553635,48.14471810986624,1.2961318561776818,0.7562554636155364,A,610.9433999999965,Correct
13,313,426,B,63.014523447644905,53.83151282336412,3.1507261723822455,0.8455834260875273,B,439.1209999998864,Correct
13,313,427,B,62.13717510620378,35.290083587564524,3.106858755310189,0.5543353367163122,B,338.16969999998037,Correct
13,313,428,A,53.441714695227965,79.95609212577773,2.672085734761398,1.25594735816046,A,328.52550000006886,Correct
13,313,429,A,48.428579953154006,58.45906938044343,2.4214289976577006,0.9182729145064854,B,403.5803000001579,Incorrect
13,313,430,B,30.25384690933957,13.870768464989649,1.5126923454669785,0.2178815215462823,A,456.8099000002803,Incorrect
13,313,431,A,48.25190074067803,71.1714691312241,2.4125950370339013,1.1179588228392316,A,896.0191999999552,Correct
13,313,432,A,34.09111382225561,57.24828462318952,1.7045556911127804,0.8992539520141485,A,859.6301000002313,Correct
13,313,433,A,14.74348405338003,43.27759661100416,0.7371742026690015,0.679802897890766,A,559.7865999998248,Correct
13,313,434,B,65.80954845003075,35.47577281644976,3.2904774225015374,0.5572521363028953,B,412.772700000005,Correct
13,313,435,B,57.24595772736146,32.724655202397216,2.8622978863680726,0.5140376818755505,B,503.8413000002038,Correct
13,313,436,B,57.14548000187209,47.66459414628091,2.8572740000936045,0.7487136940314758,B,1569.481800000176,Correct
13,313,437,A,35.596628744950934,63.488852291906355,1.7798314372475466,0.9972805597255026,B,687.8467999999884,Incorrect
13,313,438,B,40.86699645324937,26.09894462861243,2.043349822662469,0.40996126355847806,A,550.5583000003753,Incorrect
13,313,439,B,38.72361245952109,17.98989598185471,1.9361806229760545,0.28258462527719647,B,915.4613999999128,Correct
13,313,440,B,37.94339786215477,25.007211491377014,1.8971698931077383,0.3928123595403814,B,559.3760000001566,Correct
13,313,441,A,52.2716095310757,60.0326093875121,2.6135804765537847,0.9429900231381683,A,671.9336000001022,Correct
13,313,442,B,52.36574091209446,28.896410507766696,2.618287045604723,0.45390375483157386,B,488.7611000003744,Correct
13,313,443,A,47.71172627298209,75.21411980823846,2.385586313649105,1.1814606311789222,B,494.29460000010295,Incorrect
13,313,444,A,59.63080791910409,67.99322068286499,2.981540395955205,1.068035012955991,B,544.5227999998679,Incorrect
13,313,445,B,80.6823633026292,57.91264555922168,4.03411816513146,0.9096897091940019,A,939.0241999999489,Incorrect
13,313,446,A,68.52246687886446,86.11662170966528,3.4261233439432233,1.3527167305752787,A,721.3936000002832,Correct
13,313,447,B,38.65817375119374,20.844027082973685,1.9329086875596873,0.32741721177548405,B,621.0119000002123,Correct
13,313,448,B,75.68554017931733,54.537269257634414,3.7842770089658666,0.8566694222331637,B,769.1569000003255,Correct
13,313,449,B,44.62472732855149,23.09438176537803,2.2312363664275745,0.36276570046654855,A,634.5200999999179,Incorrect
13,313,450,A,36.099602194535606,57.53892509291893,1.8049801097267804,0.9038193218368376,A,1250.5754000003435,Correct
13,313,451,B,46.65719035338603,28.824679243665773,2.332859517669301,0.4527770027699129,B,476.22080000019196,Correct
13,313,452,A,42.95381283537431,57.83930174361964,2.1476906417687154,0.9085376272325939,B,409.20550000009825,Incorrect
13,313,453,B,83.78014309487817,55.01064913830813,4.1890071547439085,0.8641052560105726,B,590.2144000001499,Correct
13,313,454,A,46.32361567187934,75.19604605186699,2.3161807835939667,1.1811767292777253,A,487.8720000001522,Correct
13,313,455,A,39.99301337343957,58.44686486216242,1.9996506686719784,0.9180812063816245,A,780.8835999999246,Correct
13,313,456,B,57.61735376118502,33.89042986104382,2.8808676880592508,0.5323496273922771,B,343.0970999997953,Correct
13,313,457,B,64.27227328832785,39.801526725121725,3.213613664416392,0.6252009198065013,B,464.7610000001805,Correct
13,313,458,B,40.32218766131824,15.509369697279293,2.016109383065912,0.2436206095139039,B,709.4532999999501,Correct
13,313,459,A,21.942270863762197,43.669532828520616,1.0971135431881098,0.6859594175988933,A,524.357400000099,Correct
13,313,460,A,41.743897813786,57.09618251925507,2.0871948906893,0.8968647377525686,A,499.24349999992046,Correct
13,313,461,A,58.24127263897492,76.46937291852912,2.912063631948746,1.2011781009273468,A,612.4210000002677,Correct
13,313,462,A,61.81781535972538,83.14284124295203,3.0908907679862687,1.306004696237203,A,499.8830999998063,Correct
13,313,463,A,47.29000769707668,61.10700755158371,2.364500384853834,0.9598666300345571,A,572.1899999998641,Correct
13,313,464,B,72.75303130765195,42.28414315491928,3.6376515653825976,0.6641977674941677,B,488.05810000021665,Correct
13,313,465,B,48.55438486567361,19.0136656288382,2.427719243283681,0.29866596128685424,B,573.308100000304,Correct
13,313,466,A,52.186805449346274,77.77222460518664,2.6093402724673136,1.2216432473649483,A,462.15299999994386,Correct
13,313,467,B,53.92271024779633,25.35429845270305,2.6961355123898163,0.39826438877967474,B,510.72389999990264,Correct
13,313,468,B,57.26004084104571,39.026677281753024,2.863002042052285,0.6130296132118749,B,366.45880000014586,Correct
13,313,469,A,37.21727894059422,47.07814573340174,1.8608639470297108,0.7395017839034229,A,466.60419999989244,Correct
13,313,470,A,21.20338796173683,46.68776223701244,1.0601693980868416,0.7333696542817263,A,458.34560000002966,Correct
13,313,471,A,46.217646749120426,77.62987037460786,2.3108823374560212,1.2194071523399799,A,454.50620000019626,Correct
13,313,472,B,36.881833358454,17.16698723211585,1.8440916679227002,0.2696584048634247,B,362.94120000002295,Correct
13,313,473,A,21.849905500387113,45.562553491440056,1.0924952750193555,0.7156949166375003,A,438.81229999988136,Correct
13,313,474,A,16.904226655854828,45.8325572820925,0.8452113327927414,0.7199361262632759,A,427.7959999999439,Correct
13,313,475,B,48.1494340684953,18.305359580331313,2.4074717034247652,0.28753991589444194,B,693.7526000001526,Correct
13,313,476,B,68.97018337236551,54.703332965817204,3.4485091686182754,0.8592779448614384,A,700.1080999998521,Incorrect
13,313,477,B,40.93021263246415,17.14866215839648,2.046510631623207,0.26937055527855835,B,620.9874000001037,Correct
13,313,478,A,26.672618671151028,48.341214484877455,1.3336309335575516,0.7593420214564975,A,481.1211999999614,Correct
13,313,479,B,61.72775957689724,39.91435801693467,3.0863879788448623,0.6269732695937742,B,423.4784000000218,Correct
13,313,480,B,46.60620109091831,22.32337407525171,2.3303100545459157,0.35065473999073804,B,581.0099999998783,Correct
13,313,481,B,45.14616137294471,22.29177367673851,2.2573080686472355,0.35015836209164014,B,382.6872999998159,Correct
13,313,482,B,70.75777349233495,57.4278065359904,3.537888674616747,0.9020738756262167,A,434.00930000007065,Incorrect
13,313,483,A,38.740830228013074,53.414817175946425,1.9370415114006536,0.839037986163976,A,586.3079999999172,Correct
13,313,484,B,46.43784265026824,33.15852813237615,2.321892132513412,0.520852941922617,B,529.775200000131,Correct
13,313,485,A,37.6816947265777,64.98234689297725,1.884084736328885,1.0207403180600043,B,338.6190000001079,Incorrect
13,313,486,A,53.222041262697104,73.0271167774449,2.6611020631348548,1.1471072679043244,A,354.9192000000403,Correct
13,313,487,A,21.251631445541268,37.55447388782079,1.0625815722770633,0.5899042963770376,A,567.0523000003413,Correct
13,313,488,A,24.784296677021604,41.44599198180026,1.2392148338510802,0.6510321196538259,A,422.2175999998399,Correct
13,313,489,A,27.18576322824121,49.64880146927436,1.3592881614120607,0.7798815497770523,A,386.40080000004673,Correct
13,313,490,B,84.42169344547084,67.82876486258372,4.221084672273542,1.0654517469718128,B,364.90309999999226,Correct
13,313,491,B,47.33912448899664,30.53871782312614,2.366956224449832,0.4797010578159238,A,620.9052999997766,Incorrect
13,313,492,B,34.37405506035297,20.738169819271846,1.7187027530176489,0.32575440976561,B,426.99240000001737,Correct
13,313,493,B,50.75428775511011,38.262845480449066,2.5377143877555057,0.601031371334101,B,445.21090000034746,Correct
13,313,494,A,42.67202284271795,74.72864792355983,2.1336011421358974,1.1738348566467687,A,398.0847999996513,Correct
13,313,495,A,48.58971626113917,59.292898693632985,2.4294858130569588,0.9313706747298061,A,1007.7381999999488,Correct
13,313,496,A,59.66413717267604,74.56032667754144,2.9832068586338023,1.1711908726970963,B,635.3359999998247,Incorrect
13,313,497,B,71.83232997704312,47.14561651602246,3.5916164988521557,0.7405616124784888,B,421.8510000000606,Correct
13,313,498,B,67.761054068164,34.804971243878114,3.3880527034082,0.5467152098408574,B,423.7790000001951,Correct
13,313,499,A,40.75768566831168,65.64604020333704,2.0378842834155844,1.0311655882003192,A,507.65169999976933,Correct
13,313,500,A,34.38996598669041,43.169401505115644,1.7194982993345207,0.6781033731416973,B,423.80950000006123,Incorrect
13,313,501,A,33.5350626549831,50.384526644313816,1.6767531327491552,0.7914382938018774,A,481.48399999990943,Correct
13,313,502,A,66.7662765876424,86.49740587134889,3.3383138293821197,1.3586980742000216,B,494.2083000000821,Incorrect
13,313,503,B,76.39828496363722,53.13784254247662,3.8199142481818615,0.8346872787952786,B,509.12990000006175,Correct
13,313,504,B,59.069471345575515,28.050205188917346,2.9534735672787757,0.4406115927659451,B,482.66319999993357,Correct
13,313,505,B,33.677305175384305,17.67656869122109,1.6838652587692153,0.2776628917050776,A,424.1508000000067,Incorrect
13,313,506,A,44.48383828413604,74.19147263790745,2.224191914206802,1.165396926991291,A,564.6277000000737,Correct
13,313,507,A,30.96780309348884,42.65776580318548,1.548390154674442,0.6700666183292069,A,578.4308999996028,Correct
13,313,508,B,57.21272367075673,31.767925377903833,2.860636183537837,0.4990094049350572,A,463.95220000022164,Incorrect
13,313,509,A,57.75683806677158,67.45593210258127,2.887841903338579,1.059595303672606,A,916.9329000001198,Correct
13,313,510,A,36.43664402818105,63.80586419655869,1.8218322014090524,1.002260171079284,A,527.1625000000313,Correct
13,313,511,A,42.02321877855541,49.453943547109745,2.101160938927771,0.7768207286932216,B,1865.6646999997974,Incorrect
13,313,512,B,63.728741175314475,54.97198257167376,3.1864370587657236,0.8634978830021822,A,513.9666000000034,Incorrect
13,313,513,B,67.16087321609574,46.86064189061918,3.3580436608047872,0.7360852415303566,B,818.5385000001588,Correct
13,313,514,A,48.03663080975846,77.2827405875345,2.401831540487923,1.2139544503954207,B,454.4240999998692,Incorrect
13,313,515,A,40.457870705911134,66.6841969518672,2.022893535295557,1.0474729162726044,A,465.4654000000846,Correct
13,313,516,B,61.95325518751724,45.23949529690201,3.0976627593758623,0.7106203303842867,B,577.7444999998806,Correct
13,313,517,B,62.51922411028116,31.138619030612112,3.1259612055140575,0.48912428394751173,A,406.4688999997088,Incorrect
13,313,518,B,49.27487787199784,37.432740073316715,2.463743893599892,0.5879921060903402,B,559.6065999998245,Correct
13,313,519,A,27.24835833536965,45.0266035016141,1.3624179167684827,0.7072762338838564,A,454.5075999999426,Correct
13,313,520,A,54.17485581812437,66.6002229991038,2.7087427909062183,1.0461538565071324,A,604.5966000001499,Correct
13,313,521,A,42.87421989985332,50.341314111765904,2.143710994992666,0.7907595129278996,B,500.8916000001591,Incorrect
13,313,522,B,43.36156428967783,26.693802895212492,2.1680782144838915,0.4193052753598676,B,652.875799999947,Correct
13,313,523,A,14.554751661634615,37.401395515673215,0.7277375830817308,0.587499746930226,A,445.4513999999108,Correct
13,313,524,A,40.75947691583351,65.99869342738326,2.0379738457916754,1.036705052089961,A,588.3939000000282,Correct
13,313,525,A,24.031199713618804,38.29746189904698,1.2015599856809402,0.601575124765905,A,490.447199999835,Correct
13,313,526,B,54.73623646840043,44.68047070716604,2.7368118234200214,0.7018391926628339,B,534.6260000001166,Correct
13,313,527,A,35.59734428287531,48.492567775769494,1.7798672141437657,0.7617194733903129,A,387.600300000031,Correct
13,313,528,A,53.30650042912587,70.34198457993988,2.6653250214562934,1.1049293099763282,A,407.74389999978666,Correct
13,313,529,A,39.34267728171071,72.40392325574564,1.9671338640855356,1.1373181669566483,A,347.916400000031,Correct
13,313,530,A,47.85854645580652,75.65961573335476,2.392927322790326,1.18845846480667,A,411.36299999971015,Correct
13,313,531,A,48.196915769328506,68.94733981750242,2.4098457884664253,1.0830222812761232,A,275.94249999992826,Correct
13,313,532,A,49.04812846537233,58.36181660602971,2.4524064232686165,0.9167452714982888,A,339.1220999997131,Correct
13,313,533,B,34.69783881710535,17.279463123205133,1.7348919408552674,0.271425172029185,A,430.1934000000074,Incorrect
13,313,534,A,40.39925129752497,48.59577325368052,2.0199625648762485,0.7633406212463902,B,421.3820999998461,Incorrect
13,313,535,B,58.06522710244408,37.17383947265861,2.9032613551222037,0.5839253049651526,B,463.3176000002095,Correct
13,313,536,B,46.771634200517596,38.66003841061046,2.33858171002588,0.6072704632913652,B,610.3567000000112,Correct
13,313,537,A,67.79994783175395,87.21118105105027,3.389997391587698,1.3699100285043444,A,427.2344000000885,Correct
13,313,538,A,26.713813915566384,46.473951272670234,1.3356906957783192,0.7300111195075542,A,574.2549000001418,Correct
13,313,539,A,16.713261256252224,32.59759834039432,0.8356630628126112,0.5120418773542681,A,530.6989999999132,Correct
13,313,540,A,57.102418921803576,67.62154416656993,2.855120946090179,1.0621967318904693,A,559.1429999999491,Correct
13,313,541,B,47.267924597621125,34.94211681323872,2.3633962298810562,0.5488694874067358,A,466.1798000001909,Incorrect
13,313,542,B,54.90342704372621,47.949060132355186,2.7451713521863104,0.7531820752917114,A,320.5593000002409,Incorrect
13,313,543,A,62.58429601903637,76.43144731834181,3.129214800951819,1.2005823669926896,A,502.6386999998067,Correct
13,313,544,B,73.13335600694569,63.33671499684725,3.6566678003472846,0.9948907926830289,B,387.34440000007453,Correct
13,313,545,A,31.094406545765096,55.60325490412257,1.5547203272882546,0.8734138856123606,A,507.6358999999684,Correct
13,313,546,A,60.920194351332796,76.5165340513833,3.0460097175666396,1.2019189062698952,A,467.90370000007897,Correct
13,313,547,B,40.057910128466204,17.382798668995765,2.00289550642331,0.2730483629867376,B,381.31769999972676,Correct
13,313,548,B,79.87659533982351,66.85574850012748,3.9938297669911753,1.0501676416912364,A,435.6524999998328,Incorrect
13,313,549,B,67.08270005699922,42.976499619708676,3.3541350028499606,0.6750732774114065,B,369.2057999996905,Correct
