subject,day,trial,cat,x,y,xt,yt,resp,rt,fb
14,214,0,A,24.41276818142162,49.09295940392204,1.2206384090710811,0.7711504030317172,A,673.4739000003174,Correct
14,214,1,B,53.78991746386945,31.254431414184147,2.6894958731934726,0.49094346061463484,B,506.6088999992644,Correct
14,214,2,A,36.91930168314262,58.51766936443799,1.8459650841571311,0.9191934009025745,A,638.4951000000001,Correct
14,214,3,B,51.03708745117332,32.15837927667689,2.5518543725586658,0.5051426404348119,B,599.6072999987518,Correct
14,214,4,A,39.195246851242025,47.94596858096156,1.9597623425621011,0.7531335133159793,B,535.891100000299,Incorrect
14,214,5,B,54.91539831543439,27.973206958012625,2.7457699157717195,0.43940210738319674,B,572.5820000006934,Correct
14,214,6,B,63.55975855207044,32.45535320503666,3.1779879276035223,0.5098074959930256,B,570.1278999986243,Correct
14,214,7,B,63.94369322591769,35.073929416367044,3.1971846612958847,0.5509399949349282,B,581.7298999991181,Correct
14,214,8,A,39.62320469424932,61.05196781913358,1.981160234712466,0.9590020679389527,A,722.1938999991835,Correct
14,214,9,B,37.1325346674071,27.054721827982906,1.856626733370355,0.4249745766985325,A,490.45740000110527,Incorrect
14,214,10,A,56.73632419129477,66.29275415483077,2.8368162095647387,1.041324147195253,B,579.297399999632,Incorrect
14,214,11,A,49.66210261108707,68.44852407762801,2.4831051305543537,1.075186901956701,A,748.6854999988282,Correct
14,214,12,A,19.668295855243045,45.515400966029745,0.9834147927621523,0.7149542465003642,A,544.8618000009446,Correct
14,214,13,B,48.542292284902835,41.71517633217312,2.427114614245142,0.6552604575417894,A,1003.620100000262,Incorrect
14,214,14,A,50.579337386348506,63.272083818857254,2.528966869317425,0.9938755685131977,B,437.86139999974694,Incorrect
14,214,15,A,21.182275721642572,53.09064054350115,1.0591137860821285,0.8339458315291981,A,471.26870000101917,Correct
14,214,16,A,61.85939250739423,76.29731130386712,3.092969625369711,1.1984753634044123,B,552.9465999989043,Incorrect
14,214,17,A,53.25338950489575,64.64037531655757,2.6626694752447873,1.015368641098921,B,676.0063000001537,Incorrect
14,214,18,B,56.335401318369804,41.84375301179495,2.81677006591849,0.657280135302404,A,1307.195999999749,Incorrect
14,214,19,B,85.85370131767793,58.17115425555909,4.292685065883896,0.9137503543005154,B,586.3802000003489,Correct
14,214,20,B,45.565301824619844,36.15043652074527,2.2782650912309923,0.5678497289881874,B,1376.7139000010502,Correct
14,214,21,B,37.95450592410442,15.381547230116546,1.8977252962052207,0.24161277889489285,A,489.58610000045155,Incorrect
14,214,22,B,66.72987327276896,37.47653527023408,3.3364936636384477,0.5886800394348307,B,783.9244999995572,Correct
14,214,23,B,81.30873728527055,59.66663849500169,4.065436864263528,0.9372413658014764,B,660.9392999998818,Correct
14,214,24,B,60.88410561030572,49.935337061854135,3.044205280515286,0.7843824403402553,B,555.260700000872,Correct
14,214,25,B,76.76522097513222,59.74440155637375,3.8382610487566113,0.9384628651131118,B,669.2583999993076,Correct
14,214,26,B,52.685514634190284,37.317243622786954,2.634275731709514,0.5861778920878402,B,1089.0921000009257,Correct
14,214,27,A,27.589332812473877,44.9866458112358,1.379466640623694,0.7066485799511223,A,519.7678000004089,Correct
14,214,28,A,42.65739219944232,62.7186346906563,2.132869609972116,0.9851820099367389,A,614.3855999998777,Correct
14,214,29,A,29.79298274990094,63.100185313108895,1.489649137495047,0.9911753930990874,A,501.84229999831587,Correct
14,214,30,B,83.02937292213659,62.18678135364517,4.15146864610683,0.9768276772550321,B,579.1266999985965,Correct
14,214,31,B,68.54237635592142,43.25355751038134,3.427118817796071,0.6794252925811881,B,799.539099998583,Correct
14,214,32,A,17.556774520524485,40.7090137153081,0.8778387260262243,0.6394556921144903,A,567.2954999990907,Correct
14,214,33,B,45.116934524403185,27.225183035746063,2.255846726220159,0.42765217508868647,A,1328.707900000154,Incorrect
14,214,34,B,83.18325598148405,68.49779362977763,4.159162799074203,1.0759608262720959,B,659.4638999995368,Correct
14,214,35,A,14.864630775685217,36.614246056266154,0.7432315387842608,0.575135232135474,A,499.49999999989814,Correct
14,214,36,A,28.173574183227036,52.1516820735952,1.408678709161352,0.8191967063737858,A,443.7692999999854,Correct
14,214,37,B,81.4499502652047,63.617494210597414,4.0724975132602355,0.9993012622590202,B,512.4911999992037,Correct
14,214,38,A,63.20193337922758,81.28830700607942,3.160096668961379,1.2768737405652542,B,545.8901000001788,Incorrect
14,214,39,B,59.26105897149779,40.38184998701798,2.9630529485748895,0.6343166162879039,A,558.3216000013635,Incorrect
14,214,40,A,40.344277358200024,50.38646241229048,2.017213867910001,0.7914687007741501,A,594.7780999995302,Correct
14,214,41,A,37.1532300710563,54.69510081600707,1.857661503552815,0.8591486345546044,A,950.0936999993428,Correct
14,214,42,B,55.406493141114545,34.07471373718238,2.7703246570557276,0.5352443517495368,B,571.5935999996873,Correct
14,214,43,B,57.95162066029835,37.276418152045665,2.8975810330149177,0.5855366070930392,A,499.637700000676,Incorrect
14,214,44,A,38.77919352553121,69.70377126939715,1.9389596762765606,1.0949042787372067,B,503.20970000029774,Incorrect
14,214,45,A,31.544608603988493,59.84035063793757,1.5772304301994244,0.9399700297619098,A,536.6374000004726,Correct
14,214,46,B,59.92593054668029,33.713734520806725,2.9962965273340147,0.529574103478215,B,575.7927999984531,Correct
14,214,47,B,48.55046531588605,35.636347369522404,2.4275232657943024,0.5597744354843277,B,458.5982000007789,Correct
14,214,48,B,68.1151406911485,47.693157204868015,3.405757034557425,0.7491623615065822,B,689.7774999997637,Correct
14,214,49,A,24.92993412509955,57.42735654399174,1.2464967062549774,0.9020668071684311,A,462.49320000060834,Correct
14,214,50,A,56.574170112363525,69.26077499089314,2.8287085056181764,1.0879457094666278,B,516.2782999996125,Incorrect
14,214,51,B,70.15115969379373,44.81508062741887,3.5075579846896865,0.703953640345667,B,503.892699998687,Correct
14,214,52,A,29.54176286663941,47.0507401202339,1.4770881433319705,0.7390712975384468,A,502.26150000162306,Correct
14,214,53,B,67.28733538931345,37.92420993470198,3.364366769465673,0.595712096620284,B,1247.101199998724,Correct
14,214,54,A,20.727626953457275,47.0348207734488,1.0363813476728638,0.7388212370238967,A,678.3157999998366,Correct
14,214,55,A,32.96808093974593,46.09038822682015,1.6484040469872965,0.7239861252723984,A,1188.1192000000738,Correct
14,214,56,A,48.16688471374265,69.12030655285037,2.4083442356871325,1.085739236401546,A,857.370699999592,Correct
14,214,57,B,37.37838666977001,27.80272896458345,1.8689193334885004,0.4367242453244176,A,530.7584000001953,Incorrect
14,214,58,B,62.93428360512833,34.81303243168925,3.1467141802564162,0.5468418346828908,B,564.7246999997151,Correct
14,214,59,A,19.510022122667017,49.54254109233434,0.9755011061333508,0.77821241567924,A,830.1145999994333,Correct
14,214,60,B,45.945235657964886,36.371490988179254,2.2972617828982442,0.5713220444428565,A,479.7818000006373,Incorrect
14,214,61,B,45.77847764325059,30.739705644604648,2.2889238821625297,0.48285816713301327,B,460.20299999872805,Correct
14,214,62,A,62.61624911940071,77.44276461376467,3.1308124559700357,1.2164681019214332,A,648.8804999989952,Correct
14,214,63,A,13.792587381951538,36.84296078887478,0.6896293690975769,0.578727874754129,A,535.8381000005465,Correct
14,214,64,A,47.26029645044212,68.53813692440175,2.363014822522106,1.0765945372621593,B,522.3409999998694,Incorrect
14,214,65,B,84.49239119046152,54.98336007979397,4.2246195595230756,0.8636766004818152,B,608.1575000007433,Correct
14,214,66,A,40.677887010452146,66.79886583086655,2.033894350522607,1.049274130811903,A,575.8874999992258,Correct
14,214,67,A,56.00160626661241,80.87140267486272,2.8000803133306205,1.2703250226442533,B,490.95239999951445,Incorrect
14,214,68,B,37.7926465220806,13.412957037224437,1.88963232610403,0.21069023645529902,A,611.4774999987276,Incorrect
14,214,69,B,57.995520179021895,38.84193663993842,2.899776008951095,0.6101277139961537,B,448.7826999993558,Correct
14,214,70,A,32.47721424852091,61.316167095660774,1.6238607124260453,0.9631521004700605,A,462.57909999985714,Correct
14,214,71,B,35.0232694580562,13.668661959120016,1.75116347290281,0.21470683997586854,B,651.8250000008265,Correct
14,214,72,A,58.013442116671385,69.27054525366574,2.9006721058335696,1.088099180395378,A,420.9338000000571,Correct
14,214,73,B,43.676338306639266,35.92098567593818,2.1838169153319633,0.5642455235461579,B,546.4861000000383,Correct
14,214,74,B,74.70475577840517,55.33464735799848,3.7352377889202586,0.8691946081443493,A,860.6933999999455,Incorrect
14,214,75,B,67.38428571837339,51.05327707736644,3.3692142859186696,0.801943001039693,B,383.486400000038,Correct
14,214,76,B,47.815799428886756,32.25857681643337,2.3907899714443377,0.5067165397088454,B,560.3313999999955,Correct
14,214,77,A,21.423422090292206,45.42816130006864,1.0711711045146104,0.7135838890319389,A,440.6097999999474,Correct
14,214,78,A,53.53097725672583,79.4027157929221,2.6765488628362912,1.2472549430506115,A,452.50689999920723,Correct
14,214,79,A,23.86724534340474,44.69759416681549,1.1933622671702369,0.7021081673380277,A,562.8524999992806,Correct
14,214,80,A,22.92095980076409,35.38807821955767,1.1460479900382046,0.5558746327961167,A,547.722999999678,Correct
14,214,81,A,31.64467533639261,55.86188668346183,1.5822337668196302,0.877476464102146,B,604.0165000013076,Incorrect
14,214,82,B,78.20314583263104,55.601952163408384,3.9101572916315517,0.8733934222090743,B,690.3512999997474,Correct
14,214,83,B,72.55053121385849,54.762143436444546,3.6275265606929246,0.8602017375738235,A,338.91980000043986,Incorrect
14,214,84,A,33.01015970481066,53.28929431907884,1.650507985240533,0.8370662777390119,A,484.020199999577,Correct
14,214,85,B,58.94411526714387,42.238937787878186,2.9472057633571933,0.6634876832491721,B,449.31329999963054,Correct
14,214,86,B,47.609767607115394,36.715268896407814,2.3804883803557697,0.5767220951976432,A,505.8859999990091,Incorrect
14,214,87,B,47.45387041606242,25.09694681693611,2.372693520803121,0.39422191873810114,B,460.11469999939436,Correct
14,214,88,A,66.06122088823044,86.5134072767825,3.3030610444115216,1.3589494236888082,A,567.1741000005568,Correct
14,214,89,A,37.82853591170225,49.79988970366956,1.8914267955851125,0.7822548382131513,B,438.33550000090327,Incorrect
14,214,90,B,43.040123887721705,24.246088889151665,2.152006194386085,0.38085667366221987,A,683.8695999995252,Incorrect
14,214,91,B,70.51936175862261,56.49173698211115,3.5259680879311306,0.887370129457636,B,659.0840000008029,Correct
14,214,92,A,30.97836443020642,51.03799167515181,1.548918221510321,0.8017028985031696,A,720.8675999991101,Correct
14,214,93,A,48.157524183640724,62.261220764610115,2.4078762091820365,0.977996968788157,B,424.8711000000185,Incorrect
14,214,94,A,26.703590028844474,38.210410280954164,1.3351795014422236,0.6002077211464876,A,450.54700000036974,Correct
14,214,95,A,36.605576220101405,56.99166068435425,1.83027881100507,0.8952229126092476,B,499.3894999988697,Incorrect
14,214,96,B,44.1604039395702,27.395202530789383,2.20802019697851,0.4303228350716622,A,884.281300001021,Incorrect
14,214,97,B,75.55492078114598,51.96918008141503,3.777746039057299,0.8163299717842925,B,455.85420000134036,Correct
14,214,98,B,51.20655235913947,33.90548443148644,2.5603276179569736,0.5325861040318045,B,472.160299999814,Correct
14,214,99,A,36.19277075608822,47.07723607987501,1.8096385378044113,0.7394874950992384,A,854.7835999997915,Correct
14,214,100,B,68.92059193409867,57.69780079802435,3.4460295967049333,0.906314935576803,B,514.6748000006482,Correct
14,214,101,A,41.45845589593978,68.26060974682645,2.072922794796989,1.0722351505509489,A,744.7665999989113,Correct
14,214,102,B,55.59827692405818,26.376558045908546,2.7799138462029087,0.4143220049200552,B,605.7338000009622,Correct
14,214,103,B,74.65343077787219,48.661460386749695,3.7326715388936096,0.7643724323198179,B,618.7138000004779,Correct
14,214,104,A,33.217039527897114,42.612481274190884,1.6608519763948555,0.6693552906111535,B,491.00609999914013,Incorrect
14,214,105,A,50.27529644473693,60.85913182253813,2.5137648222368467,0.955973007187693,B,785.0926999999501,Incorrect
14,214,106,B,72.3462380558288,43.66607740400603,3.61731190279144,0.6859051399175431,B,858.4745999996812,Correct
14,214,107,A,13.244550466755175,35.52668837408318,0.6622275233377587,0.5580519160119681,A,546.7871000000741,Correct
14,214,108,B,34.2307258053921,11.538341147464969,1.711536290269605,0.18124383891744386,B,701.5687000002799,Correct
14,214,109,B,86.73569357811297,62.48076912603683,4.336784678905649,0.9814456263849862,B,707.3796000004222,Correct
14,214,110,A,45.289516878018304,53.941165625399684,2.2644758439009154,0.8473058482741296,B,512.61599999998,Incorrect
14,214,111,A,21.539999623763432,36.08684494567815,1.0769999811881716,0.5668508348628822,A,574.7313000010763,Correct
14,214,112,B,40.949664796765624,14.81052682004669,2.0474832398382814,0.2326432112682664,B,603.9438999996491,Correct
14,214,113,A,26.680924111145416,58.051905993863755,1.3340462055572708,0.9118772069860382,A,708.8420999989467,Correct
14,214,114,A,46.381863569751125,72.45091577197732,2.3190931784875564,1.1380563236754844,B,468.29389999948035,Incorrect
14,214,115,B,46.284778990387586,37.88116165109272,2.3142389495193796,0.5950358957626014,B,551.341099999263,Correct
14,214,116,A,33.344405770774024,59.68965024097748,1.667220288538701,0.9376028334619954,A,703.3573999997316,Correct
14,214,117,B,73.5838025952518,61.819798226439616,3.6791901297625897,0.97106311977293,B,442.68559999909485,Correct
14,214,118,A,16.61638755599321,37.7839230170286,0.8308193777996605,0.5935084748704967,A,632.2331999999733,Correct
14,214,119,B,42.69368536191409,32.803909946540074,2.1346842680957048,0.5152826124853572,A,580.926399999953,Incorrect
14,214,120,A,33.743000995845854,66.33835710243551,1.6871500497922927,1.0420404766211382,B,513.343900000109,Incorrect
14,214,121,A,67.46502173133268,80.39401908117867,3.373251086566634,1.2628262986899428,A,934.6344000005047,Correct
14,214,122,A,46.021232893052456,77.06249971753854,2.3010616446526226,1.210494914899423,B,553.1458999994356,Incorrect
14,214,123,B,41.05487391349277,17.86832732346901,2.0527436956746383,0.28067502925674004,A,432.8509999995731,Incorrect
14,214,124,B,70.17696907994939,61.11446303891128,3.5088484539974694,0.9599837405556432,B,665.1560999998765,Correct
14,214,125,B,75.63822538728336,53.84534047483267,3.7819112693641674,0.8458006303288772,B,475.38840000015625,Correct
14,214,126,A,33.611284316570696,48.22468237698605,1.680564215828535,0.7575115393862026,A,585.1824000001216,Correct
14,214,127,A,16.015550053272065,33.520671199794094,0.8007775026636033,0.5265414719233604,A,530.0279000002774,Correct
14,214,128,A,58.401212401232996,84.5871849934057,2.92006062006165,1.3286923948156208,B,504.37090000013995,Incorrect
14,214,129,B,61.58578420642966,30.58942632496353,3.079289210321483,0.48049758510015833,B,500.8103999989544,Correct
14,214,130,B,77.0852362435657,61.58596480543953,3.8542618121782852,0.967390072985042,B,470.70460000031744,Correct
14,214,131,A,36.960811654931724,67.22589097780542,1.8480405827465862,1.0559818261345093,A,471.84459999880346,Correct
14,214,132,B,56.008524896675574,35.31419354758405,2.800426244833779,0.5547140550826906,B,541.6724999995495,Correct
14,214,133,A,50.242042732001735,60.80705116775741,2.5121021366000864,0.9551549261754266,B,478.506200000993,Incorrect
14,214,134,B,40.43418915904887,18.38559851786598,2.0217094579524435,0.2888003061778957,B,465.301799998997,Correct
14,214,135,A,38.20049140126524,60.338719945544305,1.910024570063262,0.9477983965396697,B,440.4902000005677,Incorrect
14,214,136,A,50.45460638812578,59.231826458143765,2.522730319406289,0.9304113542980501,B,432.2492000010243,Incorrect
14,214,137,A,30.25617678020715,59.68630812369344,1.5128088390103573,0.9375503356064605,A,587.0145999997476,Correct
14,214,138,B,73.85572864072473,51.052897186080926,3.692786432036237,0.8019370337213344,B,424.8110999997152,Correct
14,214,139,B,46.03435470156519,34.71517379303586,2.3017177350782596,0.5453046747814719,B,555.3154000008362,Correct
14,214,140,B,32.95387305847943,14.380937624582089,1.6476936529239714,0.22589523996560068,B,504.56859999940207,Correct
14,214,141,B,60.62315513627083,41.59248464664899,3.0311577568135415,0.6533332210522936,A,537.6816999996663,Incorrect
14,214,142,B,79.54190217307558,52.583411227616565,3.977095108653779,0.8259782920668564,B,1072.3682999996527,Correct
14,214,143,B,73.90797272175394,61.069808894523476,3.6953986360876967,0.9592823148958378,B,521.4584999994258,Correct
14,214,144,B,65.97910904184094,44.78324644580371,3.298955452092047,0.7034535901901908,B,455.2975000005972,Correct
14,214,145,A,15.91694521012996,40.24582090287302,0.795847260506498,0.6321798764307821,A,707.1132999990368,Correct
14,214,146,B,77.97468317977808,50.482958412256025,3.898734158988904,0.7929844563971129,B,474.3336999999883,Correct
14,214,147,A,30.59094246559129,62.10758818876651,1.5295471232795645,0.9755837139300455,A,557.9472999997961,Correct
14,214,148,B,57.74970626433227,46.115828415222495,2.8874853132166134,0.724385738817352,B,426.6562000011618,Correct
14,214,149,B,47.644640065169995,26.58154643189316,2.3822320032585,0.4175419549574576,A,407.0573000008153,Incorrect
14,214,150,B,73.77957278466653,42.22460851629508,3.6889786392333264,0.6632625995774882,B,408.1929999993008,Correct
14,214,151,A,59.1772204765829,78.19899539730952,2.958861023829145,1.228346947291448,A,562.3996000012994,Correct
14,214,152,B,52.25144463326437,31.848314647467877,2.6125722316632185,0.5002721566285064,B,458.97880000120495,Correct
14,214,153,A,39.04813518324026,53.58090837842872,1.9524067591620133,0.8416469406716973,B,356.65760000119917,Incorrect
14,214,154,B,51.77514676005862,20.266868278258247,2.588757338002931,0.3183512224712406,A,455.14170000024023,Incorrect
14,214,155,B,79.87852863825657,60.82745053693416,3.9939264319128283,0.9554753587171444,B,499.59359999957087,Correct
14,214,156,B,72.67921723521066,44.33697435218783,3.6339608617605332,0.6964435645361619,B,1934.8945999990974,Correct
14,214,157,B,51.765793680968365,41.82560094773944,2.588289684048418,0.6569950033469826,B,507.06800000079966,Correct
14,214,158,B,74.39478481408904,50.85238977021581,3.7197392407044516,0.7987874705979736,B,359.2269999990094,Correct
14,214,159,B,40.37544298525445,31.158776033742562,2.0187721492627224,0.48944090941227664,A,446.9862000005378,Incorrect
14,214,160,B,67.77207857974372,46.4245217209902,3.388603928987186,0.7292346819254131,B,496.3599999991857,Correct
14,214,161,B,32.19528026853513,15.809843010168958,1.6097640134267563,0.2483404332757737,A,464.9217000005592,Incorrect
14,214,162,A,55.41249908528809,80.95231240691042,2.7706249542644046,1.271595949743278,B,310.17830000018876,Incorrect
14,214,163,A,46.366758886911214,68.23570749570156,2.3183379443455605,1.07184398690499,B,480.12460000063584,Incorrect
14,214,164,A,48.12791137638784,75.53691541120827,2.406395568819392,1.1865310926534276,A,398.82760000000417,Correct
14,214,165,B,32.790991354956255,11.388063816325456,1.6395495677478127,0.17888328811989898,B,550.7789999992383,Correct
14,214,166,B,44.08025071352783,35.697125408370894,2.2040125356763918,0.5607291346860578,B,502.24189999971713,Correct
14,214,167,A,17.406946143588172,38.33517773541758,0.8703473071794086,0.6021675637382343,A,471.36719999980414,Correct
14,214,168,B,38.249509306965365,25.985667846405363,1.9124754653482683,0.40818191602445786,B,384.4744999987597,Correct
14,214,169,B,66.61665410543793,37.548809028639674,3.3308327052718965,0.5898153129771024,B,621.7440000000352,Correct
14,214,170,A,50.45585085049731,75.37318278100747,2.522792542524866,1.1839591865124688,A,659.546799999589,Correct
14,214,171,B,39.92311347510244,30.059477470659903,1.996155673755122,0.47217316796286524,B,401.1001999988366,Correct
14,214,172,A,26.396641688248124,42.2777099776396,1.319832084412406,0.6640967153817624,B,406.6473999992013,Incorrect
14,214,173,B,75.02411871029408,47.27667081651408,3.751205935514704,0.742620208616718,B,501.52110000090033,Correct
14,214,174,B,51.033427222206704,23.52683045760446,2.551671361110335,0.3695585886393138,A,614.934400000493,Incorrect
14,214,175,B,55.36112024902302,43.903255035732776,2.768056012451151,0.689630717444686,B,472.3385999986931,Correct
14,214,176,B,47.957983513240094,23.242816271251186,2.3978991756620047,0.36509730423250014,A,783.5219999997207,Incorrect
14,214,177,B,63.48996874440448,50.14908530927346,3.174498437220224,0.7877399899593066,B,420.79310000008263,Correct
14,214,178,B,51.25796843227289,29.374907739106646,2.5628984216136446,0.461419971765277,B,546.8731000000844,Correct
14,214,179,A,56.772321732313664,80.37912056432287,2.838616086615683,1.262592273334425,A,470.45320000142965,Correct
14,214,180,B,40.5498395252159,25.741035875671294,2.0274919762607952,0.40433924601400123,B,419.7105000002921,Correct
14,214,181,A,54.634852169861844,81.70204667921118,2.7317426084930925,1.283372748153301,B,454.20480000029784,Incorrect
14,214,182,A,38.231085903626294,51.89328709045265,1.911554295181315,0.8151378474699604,A,457.27400000032503,Correct
14,214,183,B,80.94634830198481,53.52300585011928,4.047317415099241,0.8407374098838911,B,445.416300000943,Correct
14,214,184,A,45.80914877110235,63.62692464729214,2.2904574385551175,0.9994493952122218,B,502.2996999996394,Incorrect
14,214,185,A,56.91619883178125,82.04174496966095,2.8458099415890628,1.2887087164218713,A,439.95319999885396,Correct
14,214,186,A,58.37095849793367,76.87371023384638,2.9185479248966835,1.2075294166242116,B,427.80169999969075,Incorrect
14,214,187,B,67.8427422450521,56.72930767897107,3.3921371122526045,0.8911018812374526,A,546.1559999985184,Incorrect
14,214,188,A,66.28711602134906,79.86045683795359,3.314355801067453,1.2544451225721989,B,484.37080000076094,Incorrect
14,214,189,B,54.50440919732475,25.727409492964384,2.7252204598662377,0.40412520329496604,B,1270.0603000012052,Correct
14,214,190,B,39.77674902045489,17.51290067874202,1.9888374510227447,0.2750920005769182,A,492.9766999994172,Incorrect
14,214,191,B,44.26815222528835,35.05753451919457,2.2134076112644174,0.5506824644923612,B,600.008200000957,Correct
14,214,192,B,38.30987782466788,12.513890466572928,1.9154938912333939,0.19656773178806428,B,578.8183999993635,Correct
14,214,193,B,63.538720272764394,48.71515828949097,3.17693601363822,0.7652159170036438,B,546.0275000004913,Correct
14,214,194,A,46.11811625377067,60.069859395260764,2.3059058126885335,0.9435751448916152,B,491.6804999993474,Incorrect
14,214,195,B,46.34346382790521,37.16202132025185,2.317173191395261,0.5837396658612525,B,682.602400000178,Correct
14,214,196,A,48.612925417305796,69.45711302822195,2.43064627086529,1.09102978014509,B,526.9876000002114,Incorrect
14,214,197,A,35.09392697328175,48.03386426523617,1.7546963486640874,0.7545141754959761,A,550.7774999987305,Correct
14,214,198,B,74.03779574420858,45.486022133563935,3.701889787210429,0.7144927648791358,B,480.11200000109966,Correct
14,214,199,B,61.05818335399945,44.03164405499759,3.0529091676999722,0.6916474474433056,B,536.7138999990857,Correct
14,214,200,A,43.63892256914165,71.40040991825357,2.1819461284570822,1.1215550163124262,B,524.0716999996948,Incorrect
14,214,201,B,57.202143411759636,37.67495010466148,2.8601071705879817,0.5917967323658325,A,425.318800000241,Incorrect
14,214,202,A,46.226809172734775,54.72467902641901,2.3113404586367388,0.8596132479972869,B,473.0442000000039,Incorrect
14,214,203,B,70.18902087017327,43.42033594527232,3.5094510435086637,0.6820450421103418,B,845.4895000013494,Correct
14,214,204,A,31.675463436825545,52.06233794639246,1.583773171841277,0.8177932921054784,A,556.9445999990421,Correct
14,214,205,A,60.590979173614045,86.39971337939096,3.0295489586807025,1.357163524124792,B,490.7223000009253,Incorrect
14,214,206,A,38.782972993298486,56.20233374401663,1.9391486496649242,0.8828241940240218,A,561.3830999991478,Correct
14,214,207,B,81.79683588463445,50.716624257940346,4.089841794231722,0.7966548709180963,B,488.5838000009244,Correct
14,214,208,A,17.126818112138434,37.739146473272626,0.8563409056069218,0.5928051265659122,A,664.3382999991445,Correct
14,214,209,B,52.235219385977814,42.34697817072176,2.611760969298891,0.6651847776143341,B,496.0458999994444,Correct
14,214,210,B,41.43473643102381,32.131700505734614,2.07173682155119,0.5047235712808166,A,479.84850000102597,Incorrect
14,214,211,B,85.63315287219359,67.19271933513456,4.281657643609679,1.055460767189898,B,511.5350000014587,Correct
14,214,212,B,47.138880879681885,20.951005204826625,2.3569440439840945,0.3290976201840243,B,477.33440000047267,Correct
14,214,213,B,77.07076409763299,57.94388831879793,3.8535382048816498,0.910180469313815,A,719.8674000010215,Incorrect
14,214,214,A,51.24273189645408,71.85248693298306,2.562136594822704,1.1286562254540808,B,475.43860000041605,Incorrect
14,214,215,A,24.398404919352224,46.74672552169671,1.2199202459676113,0.7342958473917045,A,520.2091999999539,Correct
14,214,216,B,62.85059668041638,44.58099572002707,3.1425298340208188,0.7002766432187753,B,436.02459999965504,Correct
14,214,217,B,85.81961217830522,67.6765648608102,4.290980608915261,1.0630609949345724,A,527.9040000004898,Incorrect
14,214,218,B,32.65078732424266,17.45814647123865,1.6325393662121328,0.27423192349668957,A,576.4663999998447,Incorrect
14,214,219,B,85.04599743029326,56.43508685775367,4.252299871514663,0.8864802713851041,B,483.54569999901287,Correct
14,214,220,B,70.6220372608999,52.4247008126298,3.531101863044995,0.823485274698003,A,527.4159999989934,Incorrect
14,214,221,B,61.42051628758809,36.266431885196226,3.0710258143794045,0.5696717799122355,B,400.22660000067845,Correct
14,214,222,B,66.8628340757348,44.70919379680461,3.3431417037867397,0.7022903738998186,B,627.0275999995647,Correct
14,214,223,A,36.456376821008014,57.15014258943285,1.8228188410504007,0.897712340552857,A,628.1352999994851,Correct
14,214,224,A,40.08963430296704,61.07101852079962,2.0044817151483523,0.9593013156609514,B,566.0839000011038,Incorrect
14,214,225,B,36.43870648654133,26.383695469198145,1.8219353243270664,0.414434119302916,A,575.2105999999912,Incorrect
14,214,226,B,67.44728784766842,34.656434381737824,3.372364392383421,0.5443819982664214,B,515.0756999992154,Correct
14,214,227,B,40.40548295457657,31.49165995328812,2.0202741477288284,0.49466983779298923,A,793.7364999997953,Incorrect
14,214,228,B,62.86051560196333,50.66064369766947,3.1430257800981667,0.7957755303336423,B,829.870800000208,Correct
14,214,229,A,46.33348371099194,75.95939880673826,2.316674185549597,1.1931674463117312,A,952.3964999989403,Correct
14,214,230,A,61.09479447696171,84.85085680436143,3.0547397238480856,1.332834141936907,B,573.9338999992469,Incorrect
14,214,231,A,52.80317521033844,81.18057952585778,2.640158760516922,1.275181561262984,A,483.7950000001001,Correct
14,214,232,B,59.34336473213096,47.338738934243494,2.9671682366065477,0.7435951723301224,A,414.251799998965,Incorrect
14,214,233,B,48.710309483587466,41.63435248876602,2.4355154741793736,0.6539908795783762,B,772.271499999988,Correct
14,214,234,B,70.38206263674057,57.01212372436784,3.5191031318370283,0.8955443452901317,A,454.2770999996719,Incorrect
14,214,235,A,13.627337106155938,40.167021573251645,0.6813668553077968,0.6309420994555504,A,836.0873000001448,Correct
14,214,236,B,37.08736709885396,23.095023016543156,1.8543683549426981,0.36277577321629584,A,567.4271999996563,Incorrect
14,214,237,A,40.67446078370814,65.8710210551863,2.033723039185407,1.0346995791571594,B,615.7239000003756,Incorrect
14,214,238,B,72.37503253489369,53.79788035162547,3.6187516267446846,0.8450551284568464,B,683.309799998824,Correct
14,214,239,A,36.330774793390155,46.74134004450197,1.8165387396695079,0.734211252513749,A,662.0720999999321,Correct
14,214,240,B,46.837926211156834,30.075227344687654,2.3418963105578414,0.47242056640556795,B,702.9179000001022,Correct
14,214,241,A,51.997798931217964,64.1957502846836,2.5998899465608982,1.0083844874302343,A,357.8453999998601,Correct
14,214,242,B,54.53549705672957,44.67906745414764,2.7267748528364786,0.7018171504159653,B,604.4619000003877,Correct
14,214,243,A,30.42578350021015,58.12416721499663,1.5212891750105075,0.9130122835932906,A,846.1348000000726,Correct
14,214,244,A,24.779115449160635,49.990798569668605,1.2389557724580316,0.78525362766779,A,1175.8190000000468,Correct
14,214,245,B,61.89394129544909,44.265755358854484,3.0946970647724545,0.6953248592049013,B,550.7188999999926,Correct
14,214,246,A,64.3369029039954,83.93416005294557,3.2168451451997697,1.3184347030378185,A,678.2185000010941,Correct
14,214,247,A,30.481450131535894,44.913017566958715,1.5240725065767946,0.7054920301945341,A,723.7516999994114,Correct
14,214,248,A,36.89745597762049,47.21978394340454,1.8448727988810245,0.7417266317034849,B,1308.040500000061,Incorrect
14,214,249,B,58.57930354686355,43.134402580733365,2.9289651773431773,0.6775536113230828,A,555.7769999995799,Incorrect
14,214,250,A,64.52064177929378,88.19406247264524,3.226032088964689,1.3853490937715078,B,1061.45959999958,Incorrect
14,214,251,A,27.36872814211688,53.70119415764586,1.368436407105844,0.8435363852732967,A,488.19209999965096,Correct
14,214,252,A,64.46221921204031,84.73896264099977,3.2231109606020154,1.3310765125289241,B,448.5144999998738,Incorrect
14,214,253,B,85.11975441248529,56.40344666708325,4.2559877206242644,0.8859832684322623,B,627.5950999988709,Correct
14,214,254,A,50.07920258539486,59.222146381633586,2.503960129269743,0.930259300011797,A,742.0698000005359,Correct
14,214,255,A,56.91598694484847,79.7890991387676,2.8457993472424232,1.2533242384544998,B,334.05780000066443,Incorrect
14,214,256,B,74.11715421628477,57.24490726282538,3.705857710814239,0.8992009005616061,B,560.8338999991247,Correct
14,214,257,A,34.63705605665678,51.841410247985536,1.731852802832839,0.8143229679340299,A,677.0290999993449,Correct
14,214,258,A,61.81859651932403,79.82307607786528,3.0909298259662017,1.2538579469658038,B,430.9900000007474,Incorrect
14,214,259,B,66.89275881711804,57.286009403319525,3.3446379408559017,0.899846531474722,A,532.7848000015365,Incorrect
14,214,260,A,51.72922891623455,72.9106287171947,2.5864614458117274,1.1452774777327592,B,502.4002999998629,Incorrect
14,214,261,B,86.09548587473189,61.272378124480106,4.304774293736594,0.9624642649192133,B,512.1165000000474,Correct
14,214,262,A,43.28820194528448,59.918152097728495,2.164410097264224,0.9411921322344985,A,620.0141999997868,Correct
14,214,263,A,49.74851149168791,79.30357557279696,2.487425574584395,1.2456976521145093,B,475.47190000113915,Incorrect
14,214,264,B,81.53653940720125,67.47996794056803,4.076826970360062,1.0599728577328162,A,740.052299999661,Incorrect
14,214,265,B,50.033462262316434,36.519545415966924,2.501673113115822,0.5736476779562024,B,496.4428000002954,Correct
14,214,266,A,27.88187313821048,43.05150660659235,1.3940936569105242,0.6762514844062149,A,516.8738000011217,Correct
14,214,267,B,78.81015529387629,57.28706001684375,3.9405077646938143,0.8998630344733695,B,514.6769000002678,Correct
14,214,268,B,83.7223303346573,62.147934150030174,4.186116516732865,0.9762174668075849,B,572.0882999994501,Correct
14,214,269,B,74.54670864415868,44.97102291598087,3.7273354322079344,0.7064031760863186,B,531.2634000001708,Correct
14,214,270,A,13.525034602800776,36.07628634391011,0.6762517301400388,0.566684980734149,A,562.1956000013597,Correct
14,214,271,B,71.25364797768498,47.24417275028929,3.562682398884249,0.7421097301861797,B,469.2489999997633,Correct
14,214,272,B,59.80744925694103,50.275724429816776,2.990372462847051,0.7897292326130864,B,576.8571999997221,Correct
14,214,273,B,80.66907993685587,52.404267931642195,4.033453996842793,0.8231643157539916,B,694.3781999998464,Correct
14,214,274,A,26.624134572490398,47.21425145462104,1.3312067286245197,0.7416397275728934,B,597.2643000004609,Incorrect
14,214,275,B,66.50607286499213,55.79515568908577,3.3253036432496064,0.8764282560936532,B,600.6163000001834,Correct
14,214,276,A,66.8592019740359,85.80403611581657,3.342960098701795,1.3478066475490131,B,946.5673000013339,Incorrect
14,214,277,A,26.312733586877336,59.12666041496454,1.3156366793438667,0.928759409954755,A,559.0142000000924,Correct
14,214,278,A,38.969800913649756,46.26483845544174,1.9484900456824876,0.7267263830556716,B,431.2873999988369,Incorrect
14,214,279,A,50.77737700155274,73.79874418294692,2.538868850077637,1.1592279628464925,B,474.07680000105756,Incorrect
14,214,280,B,64.77331879214138,48.91634708791065,3.2386659396070687,0.7683761832591428,B,491.2088000000949,Correct
14,214,281,B,67.29651245211544,45.682941935997015,3.364825622605772,0.7175859739024865,B,1221.9824000003427,Correct
14,214,282,B,61.27658774836552,36.434391784735894,3.0638293874182763,0.572310087844693,B,477.7164000006451,Correct
14,214,283,A,46.843882362784576,54.154983468705794,2.3421941181392287,0.8506644911028141,B,451.2323999988439,Incorrect
14,214,284,A,47.19147139471415,73.29777233342993,2.359573569735707,1.1513587154360032,A,591.9360000007146,Correct
14,214,285,B,34.644560892407284,13.399903656431682,1.7322280446203644,0.21048519442928387,B,461.4962999985437,Correct
14,214,286,A,64.91334583401088,76.32143483743637,3.2456672917005442,1.1988542949836112,B,693.1951000005938,Incorrect
14,214,287,A,27.102935326252926,38.29599598130686,1.3551467663126462,0.6015520981838893,A,511.45329999962996,Correct
14,214,288,A,54.04621772123582,68.13728557755815,2.7023108860617913,1.0702979790300322,B,723.0389000014839,Incorrect
14,214,289,A,68.21726200624721,87.81672483487998,3.4108631003123606,1.3794218880178764,B,456.8426999994699,Incorrect
14,214,290,A,39.76573060726112,54.06882798808883,1.988286530363056,0.8493111639779503,A,471.4693999994779,Correct
14,214,291,A,37.030139863212355,53.099072058170556,1.8515069931606178,0.8340782734519182,B,681.9992000000639,Incorrect
14,214,292,A,51.69455353897449,68.80043709816526,2.5847276769487246,1.0807147387568132,B,615.2481000008265,Incorrect
14,214,293,B,48.55055762025016,36.44380542411248,2.4275278810125083,0.5724579569462382,B,830.717700000605,Correct
14,214,294,B,52.966522221923874,40.087019356741514,2.648326111096194,0.6296854275772549,B,730.8807999997953,Correct
14,214,295,B,71.51942016724988,38.60040790160574,3.5759710083624943,0.60633378944627,B,481.47179999978107,Correct
14,214,296,B,57.06614707670464,41.49806581828386,2.853307353835232,0.6518500935645315,B,450.358199999755,Correct
14,214,297,A,27.513798505612634,48.2893390325496,1.3756899252806318,0.7585271637568234,A,709.9271000006411,Correct
14,214,298,A,61.23043065275163,69.89150055272786,3.061521532637581,1.097853123424084,B,452.0511999999144,Incorrect
14,214,299,A,29.421479158037346,43.79273567259655,1.4710739579018672,0.6878946833481449,B,512.4555000002147,Incorrect
14,214,300,A,28.38979659644501,59.65624307038289,1.4194898298222507,0.9370780748534094,A,587.2612000002846,Correct
14,214,301,B,53.52321534088774,25.6332167679465,2.676160767044387,0.40264562743027715,B,987.2481000002153,Correct
14,214,302,B,48.47000441035972,31.335807581180838,2.423500220517986,0.4922217144567054,A,672.239499999705,Incorrect
14,214,303,B,66.20708546161595,54.02634683866069,3.3103542730807978,0.8486438716431528,B,520.8290999999008,Correct
14,214,304,B,77.4880944171577,53.14928566820683,3.8744047208578847,0.8348670269939192,B,503.4773999996105,Correct
14,214,305,B,41.38911520311959,19.045207745912947,2.0694557601559795,0.2991614237032577,A,754.762299999129,Incorrect
14,214,306,B,85.69910239770985,61.51366550565661,4.284955119885493,0.9662543982397533,B,530.7984000010038,Correct
14,214,307,B,56.669197933440564,44.597837597889914,2.8334598966720286,0.7005411948176081,B,601.9734000001336,Correct
14,214,308,B,82.90542587324339,63.17645450265112,4.145271293662169,0.9923734267268928,B,513.4453000009671,Correct
14,214,309,A,37.83983584399194,50.24469791704604,1.8919917921995972,0.789241869290151,A,622.6707000005263,Correct
14,214,310,B,51.421141690667305,36.679362142720876,2.5710570845333653,0.5761580732296574,B,524.8104000002058,Correct
14,214,311,B,69.99819124615522,49.60787183072461,3.499909562307761,0.7792386285181425,B,523.9669999991747,Correct
14,214,312,A,61.70487387914668,71.35468771449742,3.085243693957334,1.1208368136152949,B,639.5923000000039,Incorrect
14,214,313,A,54.74822016482572,65.99003046259789,2.7374110082412857,1.036568974557321,B,451.48779999908584,Incorrect
14,214,314,A,20.809019641712702,48.28926377462389,1.040450982085635,0.7585259816080907,A,523.73279999847,Correct
14,214,315,A,22.909214305090345,42.82870577231551,1.1454607152545173,0.6727517370853259,A,463.94450000116194,Correct
14,214,316,A,33.871211461113035,63.07725162067508,1.6935605730556518,0.9908151515007385,A,913.5592000002362,Correct
14,214,317,A,29.06851245473574,47.79673093001467,1.453425622736787,0.7507892937767106,A,521.0653000012826,Correct
14,214,318,B,39.48114162412168,22.2202795960129,1.974057081206084,0.3490353356977265,B,681.0779000006733,Correct
14,214,319,B,64.52453943703968,56.713675706976915,3.226226971851984,0.890856334795563,A,566.3081000002421,Incorrect
14,214,320,A,21.17914522435124,44.33137459797434,1.0589572612175622,0.6963556038026667,A,737.6352000010229,Correct
14,214,321,B,72.55410486893238,55.68922619201581,3.627705243446619,0.8747643194446858,B,1048.2964999991964,Correct
14,214,322,B,35.6639203151604,24.041995156428715,1.7831960157580198,0.37765077680538917,A,1179.6199000000342,Incorrect
14,214,323,A,13.839229401138208,32.29003063017234,0.6919614700569104,0.5072106150596941,A,606.9592999992892,Correct
14,214,324,B,57.38819708429067,38.47336432052491,2.869409854214533,0.6043381935412235,B,856.6284000007727,Correct
14,214,325,A,61.903857960095095,78.34727814047396,3.0951928980047545,1.2306761671743458,B,892.5233999998454,Incorrect
14,214,326,A,54.34236450027361,73.75004332256378,2.7171182250136803,1.1584629715204768,B,534.6838999994361,Incorrect
14,214,327,B,31.57224963786758,13.879369481778603,1.5786124818933789,0.21801662600207017,B,625.7640000003448,Correct
14,214,328,A,68.04228436526502,82.35481587973524,3.4021142182632507,1.2936264227775813,A,530.0237999999808,Correct
14,214,329,A,30.271309493795513,40.507805761410765,1.5135654746897758,0.6362951249654518,B,745.2601000004506,Incorrect
14,214,330,A,54.28389726815868,62.35333279352919,2.714194863407934,0.9794438611549541,B,1110.2396000005683,Incorrect
14,214,331,A,41.67850248665309,58.38547140087863,2.083925124332654,0.9171168401468863,A,539.2047000004823,Correct
14,214,332,A,42.169422269072506,71.91635545808504,2.1084711134536254,1.1296594699003608,B,392.7698000006785,Incorrect
14,214,333,B,38.426353260943145,22.147837509825106,1.9213176630471571,0.3478974180688351,B,417.3055999999633,Correct
14,214,334,B,50.03101984346447,22.767814637651327,2.5015509921732235,0.35763599601969787,B,448.49580000118294,Correct
14,214,335,B,86.23557338770078,65.73661025962407,4.311778669385039,1.032588259317652,B,439.7095000003901,Correct
14,214,336,B,88.21821712326982,63.82070182750981,4.4109108561634915,1.0024932400412476,B,481.07809999964957,Correct
14,214,337,A,47.62203022526786,56.740845816024155,2.3811015112633926,0.8912831218704631,B,508.9731000007305,Incorrect
14,214,338,A,22.230050634058966,44.06146490674067,1.1115025317029483,0.6921158722871048,A,478.38409999894793,Correct
14,214,339,B,67.3543506900538,36.097416383177666,3.3677175345026904,0.567016890614814,B,485.02319999897736,Correct
14,214,340,B,62.60851026279881,41.10890756289769,3.1304255131399406,0.6457372099835064,B,450.5669999998645,Correct
14,214,341,A,66.65112554388574,83.54953353587399,3.3325562771942874,1.3123930038357787,B,600.3363999989233,Incorrect
14,214,342,A,27.10704156744902,55.03889446683265,1.355352078372451,0.8645489325935268,A,634.5777999995335,Correct
14,214,343,B,56.77277254604937,49.642260135219765,2.8386386273024686,0.7797787987419994,A,4468.520600001284,Incorrect
14,214,344,A,15.060945078296726,32.30283968671698,0.7530472539148363,0.5074118192493944,A,733.390800000052,Correct
14,214,345,A,48.756004883887414,71.92836551784283,2.4378002441943707,1.1298481234778823,B,886.4943999997195,Incorrect
14,214,346,B,77.05302176838083,56.45055548079084,3.8526510884190417,0.8867232519475776,A,1191.343999998935,Incorrect
14,214,347,A,44.753003508321335,70.4212688051602,2.237650175416067,1.1061747036738168,B,592.1663000008266,Incorrect
14,214,348,B,69.25868577375797,38.76372150577234,3.4629342886878987,0.6088991135416753,A,475.5044000012276,Incorrect
14,214,349,B,80.86308096030464,53.1383120454849,4.043154048015232,0.8346946537312869,B,580.9355000001233,Correct
14,214,350,B,76.40636929000674,44.86231145052315,3.820318464500337,0.704695540380104,B,461.2038000013854,Correct
14,214,351,B,45.68691843852788,20.125455732242084,2.284345921926394,0.3161299193927916,B,509.7413999992568,Correct
14,214,352,A,65.88723422310936,81.03435452050249,3.294361711155468,1.2728846642500073,B,880.5331000003207,Incorrect
14,214,353,A,51.14120421754943,72.29353849962128,2.557060210877472,1.1355842472621052,A,543.4524000011152,Correct
14,214,354,A,51.467104199904966,75.28218814695565,2.573355209995248,1.1825298461432023,A,492.4252000000706,Correct
14,214,355,B,39.11220202595438,21.480621357925052,1.9556101012977192,0.33741681126300677,B,376.8611999985296,Correct
14,214,356,A,25.780684081868802,43.930509612603544,1.2890342040934402,0.6900588313370555,B,412.4900000006164,Incorrect
14,214,357,B,60.69720080940598,31.540051881059444,3.034860040470299,0.4954299764168864,A,1486.4479000007123,Incorrect
14,214,358,A,20.968209526725957,38.109316346536424,1.0484104763362978,0.5986197413380412,A,565.8653999998933,Correct
14,214,359,B,86.90835143755619,60.473332472800735,4.345417571877809,0.9499128851732194,B,502.4503000004188,Correct
14,214,360,A,45.91954454633888,61.165421868442394,2.2959772273169436,0.9607841999780954,B,718.2074000011198,Incorrect
14,214,361,A,41.94561077612455,72.39876851343173,2.0972805388062277,1.137237196453726,A,582.7742999990733,Correct
14,214,362,B,85.510486295508,67.93869641459503,4.2755243147754,1.0671785477527949,B,579.2074000000866,Correct
14,214,363,B,50.71063694933231,24.992563001964236,2.5355318474666153,0.3925822616067545,B,637.455999998565,Correct
14,214,364,A,38.111948443921335,48.95405149213918,1.9055974221960668,0.7689684426558044,B,454.5727999993687,Incorrect
14,214,365,B,57.6670483384628,42.15163159633975,2.88335241692314,0.6621162807994219,B,430.26370000006864,Correct
14,214,366,A,23.99800747050087,36.86827522963682,1.1999003735250435,0.5791255130597679,A,524.3563999993057,Correct
14,214,367,A,36.64640177459394,63.58210158892783,1.8323200887296969,0.9987453162578779,B,438.3120999991661,Incorrect
14,214,368,A,44.34693555514602,69.36291768843851,2.217346777757301,1.0895501632077598,A,576.2768000004144,Correct
14,214,369,A,36.52624273431822,49.108621886157195,1.8263121367159107,0.7713964287273518,B,482.48980000062147,Incorrect
14,214,370,A,62.614651830554564,79.63011799580747,3.130732591527728,1.2508269685005857,A,636.6992000002938,Correct
14,214,371,B,46.87593075703529,29.813298204796148,2.3437965378517647,0.4683061930973467,B,762.5390000011976,Correct
14,214,372,B,38.226679143429344,21.367933405706346,1.9113339571714674,0.33564671304881494,A,447.19570000052045,Incorrect
14,214,373,A,62.66245902985365,74.35348989920685,3.1331229514926826,1.1679418881805557,B,353.72909999932745,Incorrect
14,214,374,A,17.9700894085912,37.56988811225974,0.89850447042956,0.5901464224483285,A,500.5099000009068,Correct
14,214,375,A,58.14309541083503,80.35686327661762,2.9071547705417515,1.2622426566767067,B,599.2698000009113,Incorrect
14,214,376,B,42.29755215288435,26.599071803258266,2.1148776076442175,0.41781724284711785,A,631.0136000010971,Incorrect
14,214,377,B,46.63398372965429,28.724840750427777,2.3316991864827146,0.4512087433854032,B,500.8400000006077,Correct
14,214,378,A,65.7787689640847,82.34933625979633,3.288938448204235,1.2935403491088584,A,438.7876000000688,Correct
14,214,379,A,42.767980848846925,68.13102427419611,2.1383990424423462,1.070199626706812,A,998.5618999999133,Correct
14,214,380,B,49.77461533301784,30.964648029183664,2.488730766650892,0.4863915538473853,B,377.58560000111174,Correct
14,214,381,A,35.825090781036494,57.67564942223036,1.7912545390518246,0.9059669825794964,A,431.12440000004426,Correct
14,214,382,B,66.48102365846346,41.096837049373974,3.324051182923173,0.6455476068004505,A,1650.414499999897,Incorrect
14,214,383,A,47.85917471702276,65.46143060226382,2.392958735851138,1.0282657473677506,B,344.80579999944894,Incorrect
14,214,384,B,41.54577370800979,31.924772768746088,2.0772886854004895,0.5014731579890809,A,1015.1487000002817,Incorrect
14,214,385,A,23.86721567726666,46.357631544389136,1.1933607838633329,0.7281839734883768,B,352.0822999998927,Incorrect
14,214,386,A,45.89308814534,67.36216712692105,2.294654407267,1.0581224468791153,A,516.9970999995712,Correct
14,214,387,A,61.95402628993065,74.4752697453878,3.0977013144965326,1.1698548015311425,A,700.7111999992048,Correct
14,214,388,B,62.71207056750599,46.77794219599379,3.135603528375299,0.7347861977649105,A,598.3831000012287,Incorrect
14,214,389,B,52.80355904589358,32.14636925003547,2.6401779522946787,0.5049539873774813,B,831.5151000006153,Correct
14,214,390,A,33.31805322002235,57.97057871929927,1.6659026610011176,0.910599721144497,B,481.18630000135454,Incorrect
14,214,391,A,57.516799567551715,68.91906533824988,2.875839978377586,1.0825781467946038,A,555.1236999999674,Correct
14,214,392,B,54.517279327355936,22.711458688992337,2.725863966367797,0.356750758848232,B,530.5855999995401,Correct
14,214,393,B,52.63726186650824,23.276794392819717,2.6318630933254124,0.36563103131801256,B,611.4229999984673,Correct
14,214,394,B,67.67319833061259,52.147031172547685,3.38365991653063,0.8191236501909689,A,877.6925000001938,Incorrect
14,214,395,A,29.419119221240855,39.96881730071961,1.4709559610620428,0.6278287140230667,A,595.5030999994051,Correct
14,214,396,B,72.72828715752578,52.010265963081366,3.636414357876289,0.8169753473043384,B,711.0745999998471,Correct
14,214,397,A,38.42386981170188,53.72249013300328,1.9211934905850938,0.8438709016719662,A,541.6988999986643,Correct
14,214,398,A,32.51794606404121,41.16522357861172,1.6258973032020605,0.6466218198897397,B,506.9782999999006,Incorrect
14,214,399,A,35.09895584609486,61.494567517829836,1.7549477923047432,0.9659544077484787,A,470.5900999997539,Correct
14,214,400,B,65.50281588360292,55.90193073566921,3.275140794180146,0.8781054746033192,A,679.1362999992998,Incorrect
14,214,401,B,70.00306802875657,50.43971755749279,3.5001534014378284,0.7923052306388173,B,683.2893999999214,Correct
14,214,402,A,66.43178183519062,80.22375715464833,3.321589091759531,1.260151830602074,B,1113.3769000007305,Incorrect
14,214,403,A,13.520604635340565,35.91918635276434,0.6760302317670281,0.564217259843836,A,426.2244000001374,Correct
14,214,404,B,40.338044354559344,31.4907619455197,2.016902217727967,0.49465573191994855,A,507.93290000001434,Incorrect
14,214,405,A,44.499159996891095,61.514842828656555,2.2249579998445546,0.966272891586191,B,541.3114999992104,Incorrect
14,214,406,A,10.899597683260751,32.26169880894596,0.5449798841630376,0.506765579852556,A,424.37020000033954,Correct
14,214,407,B,37.36940348516923,19.13491468986883,1.8684701742584615,0.3005705370837966,A,653.898599999593,Incorrect
14,214,408,A,25.11330029620786,43.68243254329647,1.255665014810393,0.6861620458447594,A,1937.5005999991117,Correct
14,214,409,A,52.699463494146826,82.65851817647513,2.634973174707341,1.298396967299163,A,1987.1901000005892,Correct
14,214,410,B,56.99589952004391,43.41543865159715,2.8497949760021957,0.6819681156011798,B,525.4217000001518,Correct
14,214,411,B,85.13810259388205,58.218126514796054,4.256905129694103,0.914488192823222,B,453.479800000423,Correct
14,214,412,A,23.300571210326698,37.18733061746512,1.1650285605163349,0.5841372233722161,A,467.79119999882823,Correct
14,214,413,A,57.62405306173407,86.28840126796133,2.8812026530867034,1.3554150375671776,B,383.94240000161517,Incorrect
14,214,414,B,81.90070978965966,54.65109784361637,4.095035489482983,0.8584574374806108,A,453.2058999993751,Incorrect
14,214,415,A,28.868101765392296,48.478729910468246,1.4434050882696148,0.7615021087104541,B,767.3979999999574,Incorrect
14,214,416,B,58.74732962174387,44.9618195606003,2.9373664810871936,0.7062586101180587,A,470.0568000007479,Incorrect
14,214,417,A,61.467437605138514,71.54435666675259,3.073371880256926,1.1238161265503892,B,384.2895999987377,Incorrect
14,214,418,B,36.08411437780204,22.751874930947725,1.804205718890102,0.35738561569229577,A,394.5074000002933,Incorrect
14,214,419,B,51.194445332421445,37.2053049069553,2.559722266621072,0.5844195628512953,B,448.56029999937164,Correct
14,214,420,B,58.992189190680996,43.75433985106371,2.9496094595340496,0.6872915631938644,B,463.47879999848374,Correct
14,214,421,B,57.29451897617933,37.94967385613094,2.864725948808967,0.5961120829627481,A,731.9246000006387,Incorrect
14,214,422,A,53.28071413556804,71.61096378637728,2.664035706778402,1.124862388738838,B,368.3197000009386,Incorrect
14,214,423,B,64.70023611241362,50.22535414813987,3.235011805620681,0.7889380180787093,B,1799.2797999995673,Correct
14,214,424,B,61.15475915957479,43.44694215960965,3.0577379579787394,0.6824629715478515,B,478.17639999993844,Correct
14,214,425,B,50.60860386609424,34.729110791348596,2.530430193304712,0.5455235966390338,A,458.06830000037735,Incorrect
14,214,426,B,66.28196836870997,50.85929297087153,3.3140984184354982,0.7988959058203051,B,210.66570000039064,Correct
14,214,427,B,30.240957102843115,14.780937790266446,1.512047855142156,0.2321784278753441,A,535.3230000000622,Incorrect
14,214,428,B,51.15191316622265,31.1097775166331,2.5575956583111323,0.48867124250533733,B,238.82699999921897,Correct
14,214,429,B,58.52450294599552,40.60486031491178,2.9262251472997765,0.637819654326833,B,267.7888999987772,Correct
14,214,430,A,46.080895199281414,53.35595896563893,2.304044759964071,0.8381134435584486,A,217.5935000013851,Correct
14,214,431,A,15.942435575226867,44.863539498470836,0.7971217787613434,0.7047148305121574,B,332.8956000004837,Incorrect
14,214,432,A,52.72923811158678,64.49269805488636,2.636461905579339,1.0130489320970786,A,688.79890000062,Correct
14,214,433,A,55.45073472382822,73.31485043341894,2.7725367361914106,1.151626977603317,B,723.8581000001432,Incorrect
14,214,434,A,32.90115899466989,65.56217771646027,1.6450579497334945,1.0298482793369,B,451.87129999976605,Incorrect
14,214,435,A,24.017384608793492,43.662615904978296,1.2008692304396746,0.6858507668179634,A,409.38249999999243,Correct
14,214,436,B,42.354907642117695,17.27195073902727,2.117745382105885,0.2713071677744644,A,491.0591999996541,Incorrect
14,214,437,B,60.092366727783585,35.06107531355518,3.0046183363891794,0.5507380831601171,B,458.8166000012279,Correct
14,214,438,A,16.70826749846797,41.47872913951659,0.8354133749233984,0.651546353724731,A,424.92079999829,Correct
14,214,439,A,23.73425382660256,51.33189091279403,1.186712691330128,0.8063194569325318,A,604.2332999986684,Correct
14,214,440,B,50.43522121261047,25.23690481391182,2.521761060630524,0.3964203738136513,B,435.13680000069144,Correct
14,214,441,B,56.68434715166956,24.687150063850353,2.834217357583478,0.38778484639330535,A,370.0427000003401,Incorrect
14,214,442,A,32.615744773524064,64.70605637825568,1.630787238676203,1.0164003568034752,B,593.0146999999124,Incorrect
14,214,443,B,77.54491880564045,51.712507445114525,3.8772459402820227,0.8122981674413964,A,568.45869999961,Incorrect
14,214,444,A,51.60631162712209,65.97307340166726,2.5803155813561047,1.0363026136670903,B,546.9296000010218,Incorrect
14,214,445,B,80.76294678748803,65.44840877479521,4.038147339374402,1.028061200980192,B,459.1977999989467,Correct
14,214,446,A,57.50086394434395,84.77109379715553,2.8750431972171975,1.3315812275495753,B,529.5663999986573,Incorrect
14,214,447,B,55.49987740885713,25.73471671384859,2.7749938704428563,0.404239984852206,B,600.2035000001342,Correct
14,214,448,A,66.1500907973475,84.44500326329553,3.307504539867375,1.3264590094216766,B,565.1937000002363,Incorrect
14,214,449,A,63.58802190594302,74.51579781890521,3.1794010952971514,1.1704914150212746,A,755.019700000048,Correct
14,214,450,B,71.19088403985889,55.501803083535094,3.559544201992944,0.8718202841411059,B,612.9457999995793,Correct
14,214,451,B,58.66948697392668,30.918073755160968,2.933474348696334,0.4856599668618054,B,4114.773299999797,Correct
14,214,452,B,71.6277280197292,39.279397972363654,3.58138640098646,0.6169993405370374,B,876.4809000003879,Correct
14,214,453,A,45.13811071796496,72.14269193213885,2.256905535898248,1.1332147549209952,B,414.67369999918446,Incorrect
14,214,454,A,46.68709997157745,66.78289929214705,2.3343549985788727,1.049023329008181,A,513.7242000000697,Correct
14,214,455,A,43.55794635898099,54.09352841169276,2.1778973179490495,0.8496991573246238,B,759.8354000001564,Incorrect
14,214,456,B,56.758577203383396,46.61638363094028,2.83792886016917,0.7322484417594273,A,457.4585999998817,Incorrect
14,214,457,B,74.36803934603319,45.9658101128623,3.7184019673016593,0.7220292568343583,B,311.81370000012976,Correct
14,214,458,A,44.7322848105332,53.728316185386575,2.2366142405266602,0.8439624170888002,B,463.0044000005,Incorrect
14,214,459,B,78.09580661839884,65.7428162252598,3.9047903309199423,1.0326857423979003,B,642.0908000000054,Correct
14,214,460,A,66.64379534321827,80.05501959080748,3.3321897671609135,1.2575013071473387,B,3580.0070999994205,Incorrect
14,214,461,A,40.420405570813095,71.31319992641674,2.021020278540655,1.120185124964055,B,1294.281200000114,Incorrect
14,214,462,B,77.59251271321716,47.15459495529548,3.879625635660858,0.740702645472793,B,611.2668999994639,Correct
14,214,463,A,64.34909123968055,86.42564467529218,3.2174545619840274,1.3575708519682987,B,6022.279700000581,Incorrect
14,214,464,B,80.26201002422917,66.30859047928556,4.013100501211459,1.0415729035980879,A,413.26000000117347,Incorrect
14,214,465,B,69.12105146002222,51.44372516168929,3.4560525730011107,0.8080761452062772,B,400.58309999949415,Correct
14,214,466,A,23.842047487776547,37.85899756314186,1.1921023743888273,0.5946877430832018,A,546.2404999998398,Correct
14,214,467,A,49.4870355982601,76.53854429200678,2.474351779913005,1.2022646423211274,A,623.7553999999363,Correct
14,214,468,A,55.763456168234214,84.8309795638703,2.7881728084117103,1.3325219109734041,B,976.055200000701,Incorrect
14,214,469,B,35.94708714848457,11.168675386526154,1.7973543574242286,0.17543714272319855,A,359.23670000011043,Incorrect
14,214,470,A,37.40192301401858,63.527528974503966,1.8700961507009288,0.9978880916350719,B,536.0937999994349,Incorrect
14,214,471,A,40.439789639321646,57.279332149980064,2.021989481966082,0.8997416454245352,A,347.9852000000392,Correct
14,214,472,B,33.38656624383347,21.06128157498261,1.6693283121916735,0.33082983735575716,B,681.248199998663,Correct
14,214,473,A,51.77524320097986,63.45512027942511,2.5887621600489927,0.9967506985124931,B,617.2876999989967,Incorrect
14,214,474,A,21.55590721552127,44.298615998762436,1.0777953607760635,0.6958410329295368,A,584.1725999998744,Correct
14,214,475,B,60.80263827434527,48.380497627386404,3.0401319137172633,0.7599590796160777,A,688.4505999987596,Incorrect
14,214,476,B,64.15796481526439,31.802725788468308,3.2078982407632197,0.49955604850591345,B,529.5808999999281,Correct
14,214,477,A,12.833455138582849,35.85008128417001,0.6416727569291425,0.5631317599647272,A,510.8572999997705,Correct
14,214,478,A,42.60486734927079,74.21982603434209,2.1302433674635397,1.1658423011010077,B,614.5441999997274,Incorrect
14,214,479,A,33.488781031621016,60.41514040175649,1.6744390515810508,0.9489988062587703,A,365.4588999997941,Correct
14,214,480,A,23.580681421817484,34.81210578885401,1.1790340710908742,0.5468272790112724,B,342.3380000003817,Incorrect
14,214,481,A,15.194759172509588,34.18852950586053,0.7597379586254794,0.5370321656632466,A,847.7101999997103,Correct
14,214,482,B,71.80784272654728,44.56314786616403,3.590392136327364,0.6999962897858829,B,588.9803000009124,Correct
14,214,483,B,68.56940560424337,58.07885583898419,3.4284702802121685,0.9123005341632668,B,969.157699999414,Correct
14,214,484,A,18.604479596438164,37.79773143408798,0.9302239798219083,0.593725376978454,A,459.61979999992764,Correct
14,214,485,A,55.41451307991592,73.45282078470744,2.7707256539957963,1.153794210813423,B,434.837000000698,Incorrect
14,214,486,A,43.342598289414504,55.84747402290032,2.167129914470725,0.8772500705594524,B,550.9419999998499,Incorrect
14,214,487,B,48.55871295574134,40.35284014113158,2.427935647787067,0.6338609306943114,B,522.079999998823,Correct
14,214,488,B,71.87813003205125,38.90377585655224,3.593906501602562,0.6110990821392424,B,477.653800000553,Correct
14,214,489,B,38.37195440579398,28.29610414760362,1.918597720289699,0.44447416457661604,B,485.0803999997879,Correct
14,214,490,B,87.70236477191193,62.456215465346574,4.385118238595596,0.98105993838477,B,557.6752999986638,Correct
14,214,491,A,50.48450279308429,74.28392627843213,2.5242251396542144,1.1668491853806409,B,596.8241000009584,Incorrect
14,214,492,B,32.65751728697302,20.1364876706016,1.632875864348651,0.31630320867531714,A,537.3125999994954,Incorrect
14,214,493,B,40.37610867482744,22.29839597796331,2.018805433741372,0.3502623849560286,B,385.56989999960933,Correct
14,214,494,B,40.54208459108389,27.150810208916795,2.027104229554195,0.42648392945671887,B,865.051399998265,Correct
14,214,495,B,79.56581751199991,57.55614970271831,3.9782908755999955,0.904089885374871,B,468.1197999998403,Correct
14,214,496,B,53.029742385234606,30.9616358613969,2.65148711926173,0.48634423882643396,B,1275.5699000008462,Correct
14,214,497,B,39.49075413341697,23.557225703841908,1.9745377066708485,0.3700360360507319,B,326.9034000004467,Correct
14,214,498,B,67.24059947556141,39.94036469346604,3.3620299737780703,0.6273817815134503,B,444.97100000080536,Correct
14,214,499,B,45.718547170883014,25.578572654507127,2.285927358544151,0.4017872797035618,B,331.6134999986389,Correct
14,214,500,A,28.367205421191628,59.6666944315106,1.4183602710595813,0.9372422444501036,B,351.23290000046836,Incorrect
14,214,501,A,39.06554419575505,67.0744059531332,1.9532772097877527,1.0536023049313137,A,532.4966000007407,Correct
14,214,502,B,45.29768304599434,37.93997321486578,2.264884152299717,0.5959597056460793,B,468.2128999993438,Correct
14,214,503,B,84.9907705533889,59.25865664800765,4.249538527669444,0.9308328019349038,B,555.7024999998248,Correct
14,214,504,A,52.05078693223787,69.46286909422153,2.6025393466118936,1.0911201962183792,B,453.06279999931576,Incorrect
14,214,505,B,86.90714796613463,66.95476932572308,4.3453573983067315,1.0517230571824543,A,608.9307000002009,Incorrect
14,214,506,B,48.710343546781246,20.40980973677598,2.4355171773390625,0.32059654165110424,B,699.455100000705,Correct
14,214,507,A,35.17762313094264,48.226561379207354,1.758881156547132,0.7575410546840754,B,564.0172000003076,Incorrect
14,214,508,B,35.78927044905939,14.685301747178062,1.7894635224529694,0.23067618042341978,B,720.9816999984469,Correct
14,214,509,A,51.48341494285228,67.55332677175491,2.574170747142614,1.0611251755584794,B,589.9939000009908,Incorrect
14,214,510,B,59.11257535558523,48.62608355814843,2.9556287677792614,0.7638167343956125,B,473.8928999995551,Correct
14,214,511,A,24.589109491002308,40.97730098456594,1.2294554745501154,0.6436699386852508,B,464.7705000006681,Incorrect
14,214,512,A,64.87556731364121,81.36684931173305,3.243778365682061,1.2781074802174412,B,583.4185999992769,Incorrect
14,214,513,A,68.74645293835258,85.69625520429875,3.4373226469176292,1.3461136289499054,B,441.3243999988481,Incorrect
14,214,514,A,55.42567583017745,76.79902123812919,2.771283791508872,1.2063562046229657,B,682.5097000000824,Incorrect
14,214,515,B,41.6482936364157,28.12516914733752,2.082414681820785,0.44178912387122926,B,646.3595999994141,Correct
14,214,516,B,46.645866674974826,32.2004093909616,2.3322933337487415,0.5058028479261438,B,531.9073999999091,Correct
14,214,517,A,40.448048984707356,52.17088194785476,2.0224024492353676,0.8194982972934044,B,609.9918999989313,Incorrect
14,214,518,A,58.79688053510613,71.24514829511357,2.9398440267553063,1.1191161724392207,A,474.258700000064,Correct
14,214,519,A,27.351514462451316,55.90356819163885,1.3675757231225658,0.8781311957015431,A,1112.65529999946,Correct
14,214,520,A,27.22938153831321,44.07669772679204,1.3614690769156603,0.692355148864939,A,560.1169000001391,Correct
14,214,521,A,43.74636641077211,57.01330726739429,2.1873183205386058,0.8955629363405173,B,597.9091999997763,Incorrect
14,214,522,A,38.58503309957631,59.24839739698302,1.9292516549788155,0.9306716499966523,B,664.1636999993352,Incorrect
14,214,523,B,59.764970460983086,46.82987024037367,2.9882485230491547,0.7356018815786061,B,574.4947000002867,Correct
14,214,524,A,35.76047666202997,57.89329094070544,1.7880238331014988,0.9093856875572837,B,675.7557000000816,Incorrect
14,214,525,A,17.97220405384403,46.41093919268287,0.8986102026922015,0.7290213280696756,B,514.384500000233,Incorrect
14,214,526,A,17.061733683460904,31.0250847469456,0.8530866841730451,0.4873408915900252,A,438.5400999999547,Correct
14,214,527,A,47.195871043311875,53.86818332848886,2.359793552165594,0.8461594450350438,B,486.0038999995595,Incorrect
14,214,528,B,64.24101801543154,41.48377390218185,3.212050900771577,0.6516255966713724,A,661.223199998858,Incorrect
14,214,529,A,45.17569854878258,66.23394893473774,2.258784927439129,1.040400436958068,B,666.7451999983314,Incorrect
14,214,530,A,32.27642044111638,60.26329063220424,1.6138210220558191,0.9466135556563972,A,541.5072999985568,Correct
14,214,531,B,45.48089575771668,22.15272730733434,2.274044787885834,0.3479742268284978,B,1450.4985999992641,Correct
14,214,532,B,46.01175398639299,23.048362792244735,2.3005876993196495,0.36204283612694194,B,571.3534999995318,Correct
14,214,533,A,39.7340909242577,68.16310305906215,1.9867045462128852,1.0707035190811678,A,939.643799998521,Correct
14,214,534,A,37.066599365070715,69.87251896115707,1.8533299682535358,1.0975549612809228,B,998.4167999991769,Incorrect
14,214,535,A,24.10128152493531,42.410714822991636,1.2050640762467655,0.6661859506070114,A,514.5362999992358,Correct
14,214,536,A,42.4256830753283,59.48023341679889,2.121284153766415,0.9343133216801077,B,484.2318000009982,Incorrect
14,214,537,A,54.934826809735526,76.22919140340159,2.746741340486776,1.1974053385100834,A,527.2912999989785,Correct
14,214,538,A,36.49021502923235,60.85152895730532,1.8245107514616177,0.9558535816598847,B,503.5698000010598,Incorrect
14,214,539,A,68.21021636436382,81.02880774780643,3.410510818218191,1.2727975357482417,B,577.5182000015775,Incorrect
14,214,540,A,39.438305758915334,64.08075537052817,1.9719152879457666,1.00657815154268,A,1063.3507000002282,Correct
14,214,541,A,49.84825954121631,75.47822988224274,2.492412977060815,1.1856092625200771,B,529.5399000006,Incorrect
14,214,542,B,55.21501020809798,36.959547989851835,2.7607505104048986,0.5805592222245897,B,343.1050999988656,Correct
14,214,543,B,51.34460549369749,28.077477861810898,2.5672302746848747,0.4410399909099759,A,821.7203999993217,Incorrect
14,214,544,A,46.23947977753284,65.22893423104883,2.311973988876642,1.0246137029087738,B,294.3078999996942,Incorrect
14,214,545,A,36.82274108964477,69.14430658022573,1.8411370544822387,1.0861162279499879,A,278.01410000029136,Correct
14,214,546,A,12.72259655373075,33.20427660759373,0.6361298276865375,0.5215715572908994,A,545.1012999983504,Correct
14,214,547,A,56.944373074078136,67.73373761104283,2.847218653703907,1.0639590623951538,B,582.8836000000592,Incorrect
14,214,548,B,62.0040142323446,46.60195596178656,3.10020071161723,0.7320218124623187,A,456.3153999988572,Incorrect
14,214,549,B,49.353926000163625,37.761157992290066,2.467696300008181,0.5931508826981098,B,463.7687999984337,Correct
