subject,day,trial,cat,x,y,xt,yt,resp,rt,fb
16,416,0,B,64.07877126928686,55.35010901808152,3.2039385634643427,0.8694374793329953,A,2645.9939999999733,Incorrect
16,416,1,B,33.04614429920629,19.428687301197613,1.6523072149603144,0.3051851064716787,B,904.5689000001857,Correct
16,416,2,A,58.47465967267549,83.26494895564008,2.9237329836337747,1.3079227597028398,A,428.1601000000137,Correct
16,416,3,B,66.94675063883548,51.90510329312946,3.347337531941774,0.8153234559475744,A,1566.3635999999315,Incorrect
16,416,4,B,49.19693369471043,18.652797321452056,2.4598466847355214,0.2929974551698657,B,630.145500000026,Correct
16,416,5,B,43.17426796540377,27.96032316803799,2.1587133982701885,0.4391997292835232,B,857.7222999999776,Correct
16,416,6,A,53.374294835949755,65.10681156090587,2.6687147417974875,1.0226954044919845,A,2383.5306999999375,Correct
16,416,7,A,29.15750308716568,49.95492139208498,1.457875154358284,0.7846900702801488,A,482.29459999993196,Correct
16,416,8,B,54.92254866905809,45.298606229587904,2.746127433452904,0.7115488427436509,A,1465.7833999999639,Incorrect
16,416,9,B,43.00728827565743,32.68103994205022,2.1503644137828717,0.5133525749680979,B,925.6420000001526,Correct
16,416,10,B,46.43752526356497,18.38501080096851,2.3218762631782486,0.2887910743424583,B,874.3701000000783,Correct
16,416,11,B,59.72266204350408,39.62618295135743,2.986133102175204,0.622446626248948,B,696.7416999998477,Correct
16,416,12,A,24.95890313831582,38.20196826848537,1.2479451569157909,0.6000751143247202,A,500.07239999990816,Correct
16,416,13,B,85.81058195443381,60.1301489525526,4.2905290977216906,0.9445221710429962,B,619.7993999999198,Correct
16,416,14,B,38.11701177119771,21.725689484560935,1.9058505885598855,0.3412663323943483,B,1540.0841000000582,Correct
16,416,15,B,33.9006079082015,13.49384992721474,1.695030395410075,0.21196089899990495,B,554.1242000001603,Correct
16,416,16,A,31.26116316296519,62.591115368587616,1.5630581581482597,0.9831789411097303,A,383.1637000000683,Correct
16,416,17,B,47.32008665259553,34.342360160216245,2.3660043326297764,0.5394485319313507,B,2574.363200000107,Correct
16,416,18,A,66.75315988005417,82.78980318044852,3.3376579940027087,1.30045918731921,A,824.5531000000028,Correct
16,416,19,A,48.01418740509989,60.70955396964455,2.4007093702549946,0.953623443768742,B,1650.5353000000014,Incorrect
16,416,20,B,43.55646300399558,15.750573574787332,2.1778231501997793,0.24740943116188702,B,428.51150000001326,Correct
16,416,21,A,11.52367431783681,33.830991217932706,0.5761837158918405,0.531415967369591,A,502.37680000009277,Correct
16,416,22,B,56.94066822038067,27.305058330066657,2.847033411019033,0.42890685327789096,B,421.06730000000425,Correct
16,416,23,B,46.499597542864755,29.432917878473578,2.324979877143238,0.46233119290362135,B,1110.759200000075,Correct
16,416,24,A,66.44624382573247,79.42441140626853,3.3223121912866236,1.247595736948133,A,775.5988999999772,Correct
16,416,25,A,50.43168540035191,75.97256173974782,2.5215842700175957,1.1933742091799435,A,514.1389999998864,Correct
16,416,26,A,37.94200575565333,64.22426252515423,1.8971002877826664,1.0088323566562338,A,1302.5129999998626,Correct
16,416,27,B,56.061959782611964,38.733202777980715,2.803097989130598,0.6084197264865399,B,1618.3931000000484,Correct
16,416,28,A,35.2934106974489,67.48589862739962,1.764670534872445,1.0600660167437208,A,1478.5546000000522,Correct
16,416,29,A,16.88914349093338,41.59386364418374,0.844457174546669,0.6533548822949161,A,693.7396999999237,Correct
16,416,30,B,84.55164719018244,57.85514302141843,4.227582359509122,0.9087864614423746,B,535.4290000000219,Correct
16,416,31,B,55.59377815038963,35.191615637470534,2.7796889075194815,0.5527886057731656,B,760.2512000000843,Correct
16,416,32,A,22.192303667558193,46.38971745087592,1.1096151833779095,0.72868797772889,A,518.6282999998184,Correct
16,416,33,B,58.419921300531804,49.64445579206411,2.92099606502659,0.7798132880390592,B,634.779299999991,Correct
16,416,34,A,34.435341215411285,50.84927512516527,1.7217670607705642,0.798738545867927,A,435.32219999997324,Correct
16,416,35,B,63.421563191044214,42.062683510230634,3.171078159552211,0.6607190875300655,B,636.1991999999645,Correct
16,416,36,B,39.64903981352308,27.600740581323635,1.982451990676154,0.43355141921962004,B,649.7122999999192,Correct
16,416,37,B,39.89048043602419,23.745131301204687,1.9945240218012095,0.37298765027194847,A,749.3289000001369,Incorrect
16,416,38,A,13.18230199866408,30.602750261741896,0.659115099933204,0.4807068770096573,A,497.20449999995253,Correct
16,416,39,B,64.88804569578639,34.072770982684645,3.2444022847893192,0.5352138350332478,B,558.4519999999884,Correct
16,416,40,A,31.773620210493455,63.219919062102626,1.5886810105246727,0.9930561664302148,A,899.1559999999481,Correct
16,416,41,B,79.13687656681773,49.83252311049026,3.956843828340886,0.7827674425687988,B,434.8638999999821,Correct
16,416,42,A,37.83512873847345,54.20384778944465,1.8917564369236726,0.8514320500580935,A,584.7246999999243,Correct
16,416,43,B,85.17018775064184,59.921611121559565,4.258509387532092,0.9412464664537799,B,467.2020999998949,Correct
16,416,44,A,43.81278599657127,74.97545770771347,2.1906392998285638,1.1777117356704243,A,489.880200000016,Correct
16,416,45,A,58.32162992329242,84.38443975044547,2.916081496164621,1.3255076799864498,B,491.2578000000849,Incorrect
16,416,46,B,42.189244337287455,24.997292790860016,2.109462216864373,0.3926565569569946,B,578.7123999998585,Correct
16,416,47,B,52.70213321883515,30.640592831530075,2.6351066609417573,0.48130130670585486,B,1145.324999999957,Correct
16,416,48,A,24.664028419164417,55.108103811556155,1.233201420958221,0.8656360704382425,A,559.7175000000334,Correct
16,416,49,B,82.5322068841551,54.43053739660333,4.126610344207755,0.8549928820805677,B,541.2576999999601,Correct
16,416,50,B,44.80284577915229,26.877056854000127,2.2401422889576144,0.42218382181320996,A,1679.753699999992,Incorrect
16,416,51,B,71.84774798422205,50.889866044609015,3.592387399211103,0.7993761465395617,B,588.4556999999404,Correct
16,416,52,B,80.52865999270925,65.73425730826318,4.026432999635463,1.032551299244104,B,1227.9221999999663,Correct
16,416,53,A,55.83262454607632,81.25204284631972,2.791631227303816,1.2763041044758057,A,591.2551999999778,Correct
16,416,54,A,56.75748983995523,82.34505747898575,2.837874491997761,1.2934731381770546,A,649.1903000001003,Correct
16,416,55,B,65.0504732963915,40.1529516367324,3.252523664819575,0.630721089409524,B,1366.1908999999923,Correct
16,416,56,B,47.99980853379053,29.843439209603844,2.3999904266895267,0.46877964689372503,A,433.77480000003743,Incorrect
16,416,57,A,56.303920102141916,78.99981368826721,2.8151960051070954,1.2409261715901134,A,1122.9035000001204,Correct
16,416,58,B,60.82081928646672,32.53541068629143,3.041040964323336,0.5110650359679001,B,546.0990999999922,Correct
16,416,59,A,50.39519619570261,76.69109428894083,2.5197598097851306,1.2046608920694934,A,779.4874999999593,Correct
16,416,60,B,86.7096384777385,62.44691977435484,4.335481923886925,0.9809139220121217,B,476.8454999998539,Correct
16,416,61,B,52.31255143791974,20.552213428140963,2.615627571895987,0.32283341360428575,B,537.5801000000138,Correct
16,416,62,A,52.3696778763151,76.58130489307295,2.618483893815755,1.2029363242719904,A,799.6901999999864,Correct
16,416,63,A,41.491269063748796,71.26959860246274,2.07456345318744,1.1195002369689515,A,553.8805000001048,Correct
16,416,64,B,55.18898777938593,48.56951187974096,2.759449388969297,0.7629281085491819,B,1770.7207000000835,Correct
16,416,65,A,11.89160025748804,37.68519042757043,0.594580012874402,0.5919575869819383,A,538.7769999999819,Correct
16,416,66,B,85.17492703562753,62.430919301081445,4.258746351781377,0.9806625871656734,B,608.0183999999917,Correct
16,416,67,B,49.740416156628136,30.145335750946426,2.487020807831407,0.4735218266758552,B,1800.3221000001304,Correct
16,416,68,A,51.088549333533685,72.97820861771906,2.554427466676684,1.1463390203278476,A,548.197699999946,Correct
16,416,69,B,64.02334814292709,46.044953775170846,3.2011674071463547,0.7232724425747918,B,1087.8096000001278,Correct
16,416,70,B,60.39001853615152,35.078622636045296,3.0195009268075763,0.5510137158572427,B,995.6927000000633,Correct
16,416,71,A,30.35213324788772,45.1737833367962,1.517606662394386,0.7095881293286799,A,718.4546000000864,Correct
16,416,72,A,60.84953593853142,87.24832844065847,3.0424767969265707,1.3704935383358103,A,584.6933000000263,Correct
16,416,73,A,26.344526107693444,57.538891955654904,1.3172263053846722,0.9038188013179114,A,1749.9449000001732,Correct
16,416,74,B,69.79570205845447,40.32850956750344,3.4897851029227236,0.6334787469374724,B,807.0696000002044,Correct
16,416,75,A,30.13698757360519,47.75995738802637,1.5068493786802595,0.7502116563299261,A,655.9045000001333,Correct
16,416,76,A,51.19433252380586,70.64211105464732,2.559716626190293,1.1096436856167715,A,705.2678999998534,Correct
16,416,77,A,24.21504339926926,43.88665763590592,1.210752169963463,0.6893700060978623,A,670.263900000009,Correct
16,416,78,A,51.238661563425694,81.27005044342576,2.561933078171285,1.2765869671496912,A,614.8397999997997,Correct
16,416,79,A,38.9910524385227,62.82181127501137,1.949552621926135,0.9868027039339007,A,478.883900000028,Correct
16,416,80,B,65.24882486108584,54.906942488673934,3.2624412430542917,0.8624762357674763,B,3561.109100000067,Correct
16,416,81,B,35.273867064853135,18.428894736150344,1.7636933532426569,0.2894804015843476,B,673.107200000004,Correct
16,416,82,B,61.406726330406514,51.03991825038969,3.0703363165203257,0.8017331610762392,B,989.2961000000469,Correct
16,416,83,A,51.839357538753234,81.18679200626104,2.5919678769376615,1.275279146676961,A,1395.091900000125,Correct
16,416,84,B,53.70389785277231,45.93007854361072,2.6851948926386155,0.7214679866570481,B,764.2005000000154,Correct
16,416,85,A,32.91563322325721,53.600499316869254,1.6457816611628604,0.8419546744131059,A,585.4864000000362,Correct
16,416,86,A,63.45621571885705,83.52362663010555,3.1728107859428523,1.3119860591115822,A,777.4929999998221,Correct
16,416,87,B,87.16525820435132,63.655928171982104,4.358262910217565,0.9999049815126927,B,584.6728999999868,Correct
16,416,88,B,42.98394916961457,22.783356919262587,2.1491974584807285,0.35788013360834764,B,810.6198000000404,Correct
16,416,89,B,82.72838518963785,56.30715916367956,4.136419259481892,0.8844707878656345,B,568.9640999999028,Correct
16,416,90,A,24.689442630142896,35.38654715422119,1.2344721315071447,0.5558505828780504,A,732.8726000000643,Correct
16,416,91,B,80.68981705996242,49.227220912053134,4.034490852998121,0.7732593778697398,B,1167.041799999879,Correct
16,416,92,A,17.532414937502374,38.57263835124131,0.8766207468751187,0.605897586369178,A,846.2844000000587,Correct
16,416,93,B,77.25419533528947,54.88939272295991,3.8627097667644734,0.8622005646922795,B,505.3229000000101,Correct
16,416,94,A,30.5687461815808,61.597928247249385,1.52843730907904,0.9675779942895493,A,536.2331000001177,Correct
16,416,95,B,32.30802490691637,11.17441481427348,1.6154012453458189,0.1755272974434326,B,808.5354999998344,Correct
16,416,96,A,33.913910666919925,51.82744212925363,1.6956955333459962,0.8141035572380668,A,818.7611000000743,Correct
16,416,97,A,30.196453776911937,63.09998242863546,1.5098226888455968,0.9911722061972308,A,580.413099999987,Correct
16,416,98,A,29.520643812157687,38.76382900649162,1.4760321906078844,0.608900802159025,A,1280.6046999999126,Correct
16,416,99,A,38.9219717563996,52.17296553596147,1.9460985878199801,0.8195310262188501,B,759.2319999998836,Incorrect
16,416,100,B,64.38385613970962,43.4664648782479,3.219192806985481,0.6827696336951118,B,1136.3638000000265,Correct
16,416,101,B,80.87929136971343,62.64045037513064,4.043964568485672,0.9839538935803321,B,617.7420999999867,Correct
16,416,102,A,39.870946743712295,59.34292390468637,1.9935473371856147,0.932156468907504,A,463.5494000001472,Correct
16,416,103,B,73.50175125974964,60.07208517293309,3.675087562987482,0.9436101073255347,A,1068.282599999975,Incorrect
16,416,104,A,61.83394929027632,78.37899341285738,3.091697464513816,1.2311743495079779,A,612.2763000000759,Correct
16,416,105,A,24.2637537822241,46.792855516236514,1.213187689111205,0.7350204556514863,A,578.3735999998498,Correct
16,416,106,B,79.65318714458112,58.413555292434644,3.982659357229056,0.9175579808838694,B,698.6616000001504,Correct
16,416,107,A,25.749435254615033,55.33049780613878,1.2874717627307515,0.8691294271361588,A,570.3200000000379,Correct
16,416,108,B,86.68392677199138,59.552316372414765,4.334196338599569,0.9354455980991668,B,501.731700000164,Correct
16,416,109,B,57.25370956349826,43.81590019079081,2.862685478174913,0.6882585507490602,B,850.7079999999405,Correct
16,416,110,B,60.644898873762344,52.59267114996115,3.0322449436881174,0.826123746586909,B,752.5192999999035,Correct
16,416,111,B,67.59104112966027,51.97315650544037,3.3795520564830133,0.8163924333068201,B,556.3870000000861,Correct
16,416,112,A,22.98548318866286,49.5089944193597,1.1492741594331433,0.7776854657723926,A,765.7659999999851,Correct
16,416,113,A,55.746272282632916,72.72207373788144,2.7873136141316457,1.142315663043718,A,778.4894000001259,Correct
16,416,114,B,65.308325774498,44.6307497604437,3.2654162887249005,0.7010581778580718,B,1552.572100000134,Correct
16,416,115,A,60.51560223541004,80.57949930665222,3.025780111770502,1.2657398152586121,A,659.0710000000399,Correct
16,416,116,B,68.25912343659256,36.99080316517587,3.412956171829628,0.5810501773705129,B,683.6371999997937,Correct
16,416,117,B,43.71399394224383,31.528146003236902,2.1856996971121916,0.4952429593253772,B,2306.3160000001517,Correct
16,416,118,A,54.64710090204776,71.03604436745188,2.732355045102388,1.115831575624327,A,777.2327000000132,Correct
16,416,119,B,65.17463692875158,55.46334380415338,3.2587318464375787,0.8712161671932662,B,525.6268000000546,Correct
16,416,120,A,36.3166492577572,48.00398599483938,1.81583246288786,0.7540448487220736,A,942.7570999998807,Correct
16,416,121,B,79.09008366321032,50.90934132480275,3.9545041831605157,0.799682063525478,B,502.5238000000627,Correct
16,416,122,A,44.226383890865705,75.04425206725372,2.211319194543285,1.1787923549431247,A,581.1525999999958,Correct
16,416,123,B,85.23273236483054,62.485564538418814,4.2616366182415275,0.9815209525465372,B,702.0059000001311,Correct
16,416,124,A,48.06488221047811,67.09639260668982,2.4032441105239055,1.0539476704777662,A,616.7659000000185,Correct
16,416,125,B,79.0047297566193,56.05441830890567,3.9502364878309653,0.8805007438025363,B,726.3318000000254,Correct
16,416,126,A,37.49780652458544,66.34225790217361,1.874890326229272,1.0421017502401402,A,724.1010000000188,Correct
16,416,127,A,36.69310977437975,53.50267149627337,1.8346554887189876,0.8404179986006023,A,1013.4881999999834,Correct
16,416,128,A,36.88047353526254,62.896155093572226,1.8440236767631268,0.9879704939050538,A,546.771599999829,Correct
16,416,129,A,60.859528315123654,81.35854676240123,3.0429764157561827,1.2779770640775066,A,1212.4426000000312,Correct
16,416,130,A,42.260166376285696,58.838567958585735,2.113008318814285,0.9242340642321837,A,554.2089000000487,Correct
16,416,131,A,40.334904392121466,49.866735397091375,2.0167452196060736,0.7833048479100417,A,491.6519999999309,Correct
16,416,132,A,56.29887459327247,80.26824953184114,2.8149437296636233,1.2608507152287223,A,564.2173999999613,Correct
16,416,133,A,39.7164287993088,50.133283514835064,1.9858214399654401,0.7874917759527007,A,548.2225000000653,Correct
16,416,134,A,51.42310156267954,81.36838611377067,2.571155078133977,1.2781316202473985,A,471.0222999999587,Correct
16,416,135,B,69.2756090916866,50.362867178146935,3.46378045458433,0.7910980677029247,B,510.45619999990777,Correct
16,416,136,A,38.2023708562248,52.51861976522031,1.9101185428112402,0.8249605501554591,A,1605.3787999999258,Correct
16,416,137,A,65.89663479848994,87.41537661609867,3.2948317399244966,1.3731175249396028,A,636.2747000000581,Correct
16,416,138,A,63.744248756372535,76.53518427491866,3.1872124378186264,1.2022118632961274,A,1495.6162000000859,Correct
16,416,139,A,26.124667319227427,36.79392848553306,1.3062333659613714,0.5779576771342944,A,705.3114999998797,Correct
16,416,140,B,81.18997155637167,53.90587750099837,4.059498577818584,0.846751543712239,B,1062.0120999999472,Correct
16,416,141,A,48.34467991468766,66.77905605216648,2.4172339957343834,1.0489629595357362,A,2053.1914999999117,Correct
16,416,142,B,51.478434270366996,30.1563871960455,2.5739217135183496,0.47369542236952916,B,852.3875999999291,Correct
16,416,143,B,65.0606119551165,49.371899650346094,3.2530305977558247,0.7755319861764989,A,811.0386999999264,Incorrect
16,416,144,A,40.22337167674233,50.57572893615005,2.0111685838371165,0.7944416923787887,B,1958.33279999988,Incorrect
16,416,145,A,50.95251013518052,78.72220148202311,2.547625506759026,1.2365654492516964,A,615.4955000001792,Correct
16,416,146,A,26.95741591951079,41.093923377843495,1.3478707959755394,0.645501838955075,A,1592.0329000000493,Correct
16,416,147,A,25.923482872208794,52.435729751694,1.29617414361044,0.8236585168677081,A,1308.5003000001052,Correct
16,416,148,B,51.199973380284284,41.33881969941497,2.5599986690142145,0.6493486613787754,A,1848.0897000001733,Incorrect
16,416,149,B,45.54880673691531,19.139089905470886,2.2774403368457654,0.30063612121710953,B,1177.1809000001667,Correct
16,416,150,A,49.5379598322335,65.06225639695882,2.4768979916116747,1.0219955336133066,A,1007.5733999999557,Correct
16,416,151,B,61.0002056025915,34.56739414019104,3.050010280129575,0.5429833574228352,B,1302.7643000000353,Correct
16,416,152,B,75.99755017011891,44.307717823335764,3.7998775085059457,0.6959840040556058,B,849.7961999999006,Correct
16,416,153,B,52.59776554633092,33.65141674462376,2.6298882773165464,0.5285952181389928,B,900.5372000001444,Correct
16,416,154,A,59.79354974305288,80.20413705016973,2.989677487152644,1.2598436387216108,A,529.90960000011,Correct
16,416,155,B,56.439296959029164,30.597057606205457,2.821964847951458,0.4806174569855938,B,969.3581999999878,Correct
16,416,156,A,64.27673003171753,74.3988015660283,3.2138365015858765,1.1686536421785965,A,991.9428999999127,Correct
16,416,157,A,48.298555069430456,67.1020978976937,2.4149277534715226,1.054037288979288,A,420.1246000000083,Correct
16,416,158,A,59.24030665701912,80.29844997175547,2.9620153328509558,1.2613251026295726,A,679.6929999998156,Correct
16,416,159,B,53.19427128262826,40.02087741803937,2.6597135641314127,0.6286464724336507,B,570.4561000000012,Correct
16,416,160,B,49.37609693870729,20.013447188300887,2.4688048469353645,0.31437049329886685,B,786.7891000000782,Correct
16,416,161,A,56.996751655546596,68.22786395024124,2.84983758277733,1.071720780781009,A,581.565400000045,Correct
16,416,162,A,17.417831673127374,47.42088810936528,0.8708915836563688,0.7448855685554276,A,635.3664999999182,Correct
16,416,163,B,50.79859021499961,25.764144177591536,2.53992951074998,0.404702230371749,B,602.3002999997971,Correct
16,416,164,B,52.31910413224008,35.392653017770435,2.615955206612004,0.5559464935584011,B,752.922099999978,Correct
16,416,165,B,43.57066153737968,34.09843845626217,2.178533076868984,0.5356170187653847,A,1027.1488999999292,Incorrect
16,416,166,B,42.07760238088547,30.049064270009886,2.1038801190442737,0.472009597789553,B,825.8021999999983,Correct
16,416,167,B,34.618999994805804,13.760741863258598,1.7309499997402902,0.21615322772779366,B,623.3875000000353,Correct
16,416,168,A,43.35391182950213,57.87812760390887,2.1676955914751064,0.9091475024198636,A,696.717400000125,Correct
16,416,169,A,51.18581682097101,61.93792602720685,2.5592908410485506,0.9729186669283054,A,878.4765000000334,Correct
16,416,170,B,69.76944103785519,37.45299970128313,3.488472051892759,0.588310343582259,B,1829.9309000001358,Correct
16,416,171,A,56.82814924497966,66.30412694170859,2.841407462248983,1.041502790513784,A,1039.933000000019,Correct
16,416,172,A,36.22418422401916,62.93409422700481,1.811209211200958,0.9885664404194306,A,577.6250999999775,Correct
16,416,173,B,68.99353816439825,52.04446203656198,3.4496769082199124,0.81751249797048,B,659.8496999999952,Correct
16,416,174,A,12.178136175918741,34.28105746433789,0.6089068087959371,0.5384855914362673,A,493.78009999986716,Correct
16,416,175,A,37.264691144081674,57.61008584279394,1.8632345572040836,0.9049371122819938,A,622.3631000000296,Correct
16,416,176,A,32.833193470794704,63.53150465254519,1.641659673539735,0.9979505414397086,A,563.8871000001018,Correct
16,416,177,B,54.5464002301139,30.291109443668383,2.7273200115056953,0.475811634486565,B,518.3885999999802,Correct
16,416,178,B,56.85897427572917,28.833858461870356,2.842948713786458,0.45292118959229904,B,651.6629000000194,Correct
16,416,179,B,65.19904387940834,45.71775867016626,3.259952193970417,0.718132873883927,A,620.7504999999855,Incorrect
16,416,180,A,28.53071088367617,54.79385958604617,1.4265355441838086,0.8606999336867666,A,668.7701999999263,Correct
16,416,181,A,29.037109016862125,38.46686203383615,1.4518554508431063,0.6042360558607589,A,687.564600000087,Correct
16,416,182,A,62.83775208042276,87.79154233394354,3.141887604021138,1.3790263222181718,A,869.0564000000904,Correct
16,416,183,B,63.600777098744466,51.14197530066379,3.1800388549372234,0.80333626947318,B,1668.8300000000709,Correct
16,416,184,A,55.37846782504123,77.63140543819681,2.7689233912520614,1.2194312650624488,A,772.2899000000325,Correct
16,416,185,B,56.793358135471046,48.750718245641885,2.839667906773552,0.7657744914886722,B,487.61979999994765,Correct
16,416,186,B,69.84893623054575,43.595339003855244,3.4924468115272873,0.684793983726341,B,529.8512000001665,Correct
16,416,187,B,83.19198002453885,56.67531230059552,4.159599001226942,0.8902537238172906,B,504.5046000000184,Correct
16,416,188,B,32.22008646968547,15.426351081885482,1.6110043234842735,0.24231655615274192,A,421.7601000000286,Incorrect
16,416,189,B,48.76314929248529,32.40735649111216,2.4381574646242643,0.5090535653737173,B,904.2414999998982,Correct
16,416,190,A,27.534524007805757,49.638462505091574,1.376726200390288,0.7797191457074405,A,572.4053000001277,Correct
16,416,191,B,47.71418116958361,17.02642503633879,2.3857090584791805,0.2674504590552963,B,1500.4301999999825,Correct
16,416,192,B,40.10577128928484,25.889744208711583,2.0052885644642418,0.40667515104703605,B,723.8653000001705,Correct
16,416,193,B,63.83500609508748,31.806993716984405,3.1917503047543736,0.4996230889702746,B,709.2798000001039,Correct
16,416,194,A,56.10246943339968,68.17743226245267,2.8051234716699844,1.0709286016816852,A,567.7793999998357,Correct
16,416,195,B,57.6750569111623,47.42656441250284,2.883752845558115,0.7449747317166103,B,682.8123000000232,Correct
16,416,196,A,33.22278198747585,64.94091600928002,1.6611390993737924,1.0200895232607294,A,462.43299999991905,Correct
16,416,197,A,33.016312536340884,55.40834741206538,1.6508156268170442,0.8703522858864782,A,491.1432999999761,Correct
16,416,198,A,62.09531388834816,75.63337139848801,3.104765694417408,1.1880462197585915,A,2366.483100000096,Correct
16,416,199,A,66.07489744770557,83.5495319119689,3.3037448723852783,1.3123929783275372,A,1257.5349999999617,Correct
16,416,200,B,44.07613816854889,29.378206009178108,2.203806908427444,0.46147178087040724,B,547.7796000000126,Correct
16,416,201,B,84.26827162775054,67.0194367709952,4.213413581387527,1.052738851037421,B,658.0859000000601,Correct
16,416,202,B,88.19326111582552,63.82204068891244,4.409663055791276,1.002514270826981,B,557.7206000000388,Correct
16,416,203,A,48.63763474146804,70.50701951959321,2.431881737073402,1.107521672746331,A,765.6953999999132,Correct
16,416,204,A,43.26016016768158,57.06834728468715,2.1630080083840793,0.8964275029104207,A,1543.6531999998806,Correct
16,416,205,B,87.78580187946883,61.85739129116834,4.389290093973442,0.9716536302528185,B,610.4545000000599,Correct
16,416,206,B,56.126124354613324,30.5119343610964,2.8063062177306666,0.47928034417817217,B,3084.382000000005,Correct
16,416,207,B,60.45647033679537,45.74535844153814,3.0228235168397686,0.7185664100788403,B,1144.5561000000453,Correct
16,416,208,A,50.31069220894161,65.93953649087025,2.5155346104470806,1.0357758171041702,A,624.8313000000962,Correct
16,416,209,B,52.723738439406205,22.59772087594216,2.6361869219703102,0.3549641694586629,B,538.532000000032,Correct
16,416,210,A,40.957185144808804,55.41123381627693,2.0478592572404404,0.8703976254178097,A,680.0709999999981,Correct
16,416,211,B,52.9041952393475,26.100431548033594,2.645209761967375,0.409984620034128,B,610.0232000001142,Correct
16,416,212,B,62.99618475144885,41.69955572600567,3.1498092375724425,0.655015089633888,B,700.5097999999634,Correct
16,416,213,B,50.80674605095284,33.08832908195707,2.5403373025476417,0.5197502578171892,B,919.3015000000742,Correct
16,416,214,A,27.79824669852172,44.778895634859566,1.3899123349260858,0.7033852478116943,A,600.967399999945,Correct
16,416,215,B,62.97564170487959,37.49863260609512,3.1487820852439796,0.5890271435748555,B,901.6736999999466,Correct
16,416,216,B,67.1758371504854,43.2433307869621,3.3587918575242703,0.6792646515853673,B,890.8814999999777,Correct
16,416,217,B,43.32556152973477,32.140691037417284,2.166278076486739,0.5048647942222473,B,678.5279000000628,Correct
16,416,218,A,35.10724514014945,45.957773559490086,1.7553622570074725,0.7219030189491864,A,898.9556000001357,Correct
16,416,219,A,29.546653957382937,46.51447045715865,1.477332697869147,0.7306475933691453,A,1021.7244999998911,Correct
16,416,220,A,48.53508128629999,58.73555874357011,2.426754064315,0.922615999266458,A,743.6817999998766,Correct
16,416,221,B,51.74707991811532,36.61218683666303,2.587353995905766,0.5751028859895875,A,1379.2989000000944,Incorrect
16,416,222,A,25.25509396626124,51.405892881814864,1.262754698313062,0.8074818771436671,A,692.6704999998492,Correct
16,416,223,B,73.11414072951703,45.04709056460963,3.6557070364758517,0.7075980439168585,B,553.0906000001323,Correct
16,416,224,B,58.771796946069614,29.027913109783785,2.938589847303481,0.455969392873698,B,504.31909999997515,Correct
16,416,225,A,29.112137741677596,38.314101214547165,1.4556068870838796,0.6018364945225857,A,747.0978000001196,Correct
16,416,226,B,72.72565915999803,41.820279232911744,3.6362829579999016,0.6569114100459467,B,537.1935000000576,Correct
16,416,227,A,30.186877777951107,63.013348265143605,1.5093438888975552,0.9898113599393514,A,546.857399999908,Correct
16,416,228,A,43.27475141942193,68.46235476289758,2.1637375709710964,1.075404153852886,A,567.5237999998899,Correct
16,416,229,B,43.89431198256837,24.248947951673173,2.1947155991284184,0.38090158371128846,B,1531.1501999999564,Correct
16,416,230,A,38.213765570052466,62.16370254889277,1.9106882785026231,0.976465156237713,A,746.0955999999896,Correct
16,416,231,B,66.80540475832812,50.62575809434427,3.340270237916406,0.7952275485580298,B,881.8191999998817,Correct
16,416,232,A,57.57851441429478,83.37516178142053,2.878925720714739,1.3096539787218562,A,567.6381999999194,Correct
16,416,233,A,19.91678129531097,35.27189317392218,0.9958390647655484,0.5540496023669894,A,622.2740000000613,Correct
16,416,234,B,53.73853219839266,38.238955395581144,2.6869266099196327,0.6006561067585274,B,486.2880999999106,Correct
16,416,235,A,45.516246574454094,61.06871685425146,2.275812328722705,0.9592651611673578,A,790.579100000059,Correct
16,416,236,B,63.29113154449568,45.79614374134242,3.164556577224784,0.7193641437027176,B,529.3432999999368,Correct
16,416,237,A,32.4863117371388,55.147590331439275,1.62431558685694,0.8662563232421457,A,809.6553999998832,Correct
16,416,238,A,15.428827535330715,42.02576966684306,0.7714413767665357,0.6601392462340546,A,646.3504999999259,Correct
16,416,239,A,62.51004841258241,87.10428125929543,3.1255024206291204,1.3682308505021081,A,905.6702999998834,Correct
16,416,240,A,66.2458122259245,89.56445003609838,3.312290611296225,1.406875091281084,A,472.0142000001033,Correct
16,416,241,A,28.034644785895427,43.64758282646348,1.4017322392947713,0.6856146277728483,A,501.5845000000354,Correct
16,416,242,A,27.303520555020494,45.72998029405416,1.3651760277510245,0.7183248507030328,A,1117.0618000001014,Correct
16,416,243,B,42.52271564183695,13.926551397930979,2.126135782091848,0.21875775780790316,B,634.2912000000069,Correct
16,416,244,B,69.8898375573229,37.28469347467372,3.494491877866145,0.5856665955569114,B,519.8326999998244,Correct
16,416,245,A,51.01182020217859,80.28356823463929,2.5505910101089295,1.2610913408495885,A,479.8495999998522,Correct
16,416,246,B,83.18233089153158,52.759182045244394,4.159116544576579,0.8287392936137314,B,595.7189999999173,Correct
16,416,247,A,59.03217279098344,67.57083215650819,2.951608639549172,1.0614001494991752,B,1667.4540999999863,Incorrect
16,416,248,A,20.445541262143795,38.454133772010636,1.0222770631071898,0.6040361207915389,A,561.0179000000244,Correct
16,416,249,A,17.36271679019638,34.86979615242053,0.868135839509819,0.5477334771230898,A,490.13140000010935,Correct
16,416,250,A,38.16102561937729,48.14541556326282,1.9080512809688646,0.7562664191878709,B,917.71719999997,Incorrect
16,416,251,B,54.51804370483016,32.328369651529144,2.7259021852415084,0.5078128429988958,A,519.6465999999873,Incorrect
16,416,252,B,39.93928300348438,14.2412757634823,1.9969641501742188,0.22370143658151184,B,572.3734999999124,Correct
16,416,253,A,44.374163312168754,68.80286754324061,2.2187081656084375,1.0807529160987814,A,773.2230999999956,Correct
16,416,254,B,59.30588549764267,45.473803457476855,2.9652942748821336,0.7143008343639772,B,612.6481999999669,Correct
16,416,255,B,72.64491084866448,41.616983741771236,3.6322455424332243,0.6537180519385718,B,620.1355000000603,Correct
16,416,256,B,78.3259677980831,57.94684754216743,3.9162983899041546,0.9102269526858049,B,539.3407999999908,Correct
16,416,257,A,28.136860747469626,55.32796004697475,1.4068430373734813,0.8690895641084272,A,475.075299999844,Correct
16,416,258,A,42.541338928905084,69.25189879907184,2.1270669464452543,1.0878062825715396,A,594.5225999998911,Correct
16,416,259,B,56.90333146305397,31.681909752229284,2.8451665731526985,0.49765827464649176,B,629.8408000000109,Correct
16,416,260,B,50.48318097564397,23.750892171044942,2.5241590487821983,0.3730781418037906,B,669.6213000000171,Correct
16,416,261,A,36.29336130904221,45.01569996785991,1.8146680654521106,0.7071049615761548,A,2935.846300000321,Correct
16,416,262,B,71.24829281945279,60.61699907482583,3.5624146409726394,0.9521695948806604,B,634.910399999626,Correct
16,416,263,A,16.731530087114127,38.346915792263104,0.8365765043557063,0.602351944704001,A,531.1407999997755,Correct
16,416,264,B,77.49116044764006,54.18120729424696,3.8745580223820024,0.8510764139911597,B,579.7809000000598,Correct
16,416,265,A,56.499782295880294,79.4684266392088,2.824989114794015,1.248287126610389,A,691.2143999998079,Correct
16,416,266,B,39.62268538463032,29.359012958106508,1.9811342692315161,0.4611702971291747,B,1448.7844999998742,Correct
16,416,267,A,46.659728250276366,53.67071556363556,2.332986412513818,0.8430576286381242,A,600.7764999999381,Correct
16,416,268,B,72.56262310114886,59.53206284057519,3.628131155057443,0.9351274563649847,B,566.8679000000338,Correct
16,416,269,A,21.977421804054273,43.35933504300555,1.0988710902027137,0.6810868421782236,A,1382.3325999996996,Correct
16,416,270,B,67.31124350833116,45.760692642576146,3.365562175416558,0.7188072791454886,B,1436.6887000001043,Correct
16,416,271,B,74.240517957693,46.17861695258894,3.71202589788465,0.7253720188559525,B,562.7611999998408,Correct
16,416,272,B,78.91152329335621,51.237341755416196,3.9455761646678105,0.8048342822414254,B,833.6974999997437,Correct
16,416,273,B,82.16692383077437,66.61370242248078,4.108346191538718,1.0463655907944112,B,682.5321999999687,Correct
16,416,274,A,39.80982649954585,53.743302745767025,1.9904913249772926,0.8441978254287692,A,749.2842000001474,Correct
16,416,275,B,49.90035817281006,35.35153297926242,2.495017908640503,0.5553005815039406,B,465.7330000000002,Correct
16,416,276,B,69.82640906178358,46.065914228104674,3.491320453089179,0.7236016885995559,B,589.8733000003631,Correct
16,416,277,A,44.95816013735072,77.24178440466048,2.2479080068675357,1.2133111121792401,A,529.4907999996212,Correct
16,416,278,A,55.47887855289436,66.1499121592953,2.7739439276447175,1.039080390376261,A,719.5864999998776,Correct
16,416,279,B,47.794361191864596,20.800563318111493,2.3897180595932297,0.326734484553542,B,483.4645000000819,Correct
16,416,280,B,61.7489762693322,40.80815944256262,3.0874488134666103,0.6410130695563784,B,613.4185999999318,Correct
16,416,281,B,36.54175351894453,15.32669809621514,1.8270876759472265,0.24075121071429073,B,506.94350000003396,Correct
16,416,282,A,53.3465105417676,71.2869742513369,2.66732552708838,1.1197731730232237,A,712.7425000003313,Correct
16,416,283,A,20.233014376421913,45.121873642788366,1.0116507188210957,0.7087727337619542,A,1020.336000000043,Correct
16,416,284,A,61.09355972119981,75.7496201566484,3.054677986059991,1.1898722509817197,A,849.8958999998649,Correct
16,416,285,B,46.325842739093204,27.439745396720497,2.3162921369546603,0.4310225127735573,B,685.2201000001514,Correct
16,416,286,B,35.186085332860046,14.676152285056574,1.7593042666430023,0.23053246100849395,B,612.401299999874,Correct
16,416,287,A,67.96216419413553,87.15573339758646,3.3981082097067765,1.369039058800441,A,586.7785000000367,Correct
16,416,288,B,30.636186227652843,10.996992982313955,1.531809311382642,0.17274036182408015,B,663.4804999998778,Correct
16,416,289,B,57.561819348502056,42.52701060294727,2.878090967425103,0.668012720446772,B,2872.875099999874,Correct
16,416,290,B,79.29155220376212,53.78992664325901,3.9645776101881065,0.8449301918979819,B,507.07980000015596,Correct
16,416,291,B,68.00373935108831,39.57932570535999,3.400186967554416,0.621710594349983,B,481.7478999998457,Correct
16,416,292,A,43.918284950278796,55.36071853503099,2.1959142475139397,0.8696041332355283,A,2244.810099999995,Correct
16,416,293,B,30.994783160999795,14.98406631864323,1.5497391580499897,0.23536916333775912,B,1088.6749000001146,Correct
16,416,294,B,33.60024488536201,11.799653223602775,1.6800122442681005,0.18534851941088798,B,640.9727000000203,Correct
16,416,295,B,81.47050055275403,66.27026934454074,4.073525027637702,1.0409709566211303,B,643.2036000001062,Correct
16,416,296,A,51.88313431481503,70.0366518703058,2.5941567157407515,1.1001331549888926,A,681.0043000000405,Correct
16,416,297,A,47.857839326029996,78.96883725223785,2.3928919663015,1.240439594870792,A,931.2126999998327,Correct
16,416,298,B,74.5517854973494,57.269686561040416,3.7275892748674697,0.8995901328677733,B,949.1431000001285,Correct
16,416,299,A,29.80782939587062,59.51347071182632,1.490391469793531,0.9348354118895242,A,661.7176999998264,Correct
16,416,300,B,49.95478523063865,33.60939958431099,2.4977392615319327,0.5279352141281762,B,923.0100999998285,Correct
16,416,301,A,49.52528413191216,59.561947069165434,2.4762642065956078,0.9355968767299713,A,789.2056000000593,Correct
16,416,302,A,42.8786035247563,59.4649773210631,2.143930176237815,0.9340736794886774,A,807.1847000001071,Correct
16,416,303,A,37.35794219703641,60.51578013364415,1.8678971098518204,0.9505796514705581,A,952.0191999999952,Correct
16,416,304,B,34.51001522233414,20.598931987969223,1.725500761116707,0.32356726702599947,B,501.2891999999738,Correct
16,416,305,A,49.78350381602046,68.59299026925424,2.4891751908010233,1.0774561715882267,A,549.248499999976,Correct
16,416,306,A,24.697295388790806,52.0009890571161,1.2348647694395403,0.8168296260061958,A,537.4564999997347,Correct
16,416,307,A,30.224274301537967,60.8929043851169,1.5112137150768985,0.9565035053601447,A,560.3613000002952,Correct
16,416,308,B,84.26160138058553,67.18901409795541,4.213080069029277,1.055402565460389,B,582.7580000000125,Correct
16,416,309,B,57.528349929753475,31.92361558996214,2.8764174964876736,0.5014549810672482,B,836.8089000000509,Correct
16,416,310,A,47.392241401484725,62.53279561803182,2.3696120700742362,0.9822628566102038,A,948.8389000002826,Correct
16,416,311,A,60.90165462753704,77.10482365911238,3.045082731376852,1.2111597378190195,A,637.1351000002505,Correct
16,416,312,B,51.07735623190641,26.346611771312524,2.55386781159532,0.4138516099386889,B,667.7528000000166,Correct
16,416,313,B,63.38620305408041,48.47441959011425,3.1693101527040204,0.7614344023566604,B,518.2534000000487,Correct
16,416,314,A,37.90591002114552,65.09711702770697,1.8952955010572763,1.0225431231205961,A,620.6233999996584,Correct
16,416,315,B,38.240576740790985,27.445033312063142,1.912028837039549,0.43110557515352355,B,1822.3086000002695,Correct
16,416,316,B,63.74221182373002,44.76571846611917,3.187110591186501,0.7031782613291446,B,3273.6267999998745,Correct
16,416,317,A,50.74371762288483,58.25515547016204,2.5371858811442416,0.9150698422939616,B,1413.2202999999208,Incorrect
16,416,318,A,36.38002031012416,44.08555279685464,1.819001015506208,0.6924942439802174,A,675.31340000005,Correct
16,416,319,B,36.48431886618893,11.211820257551377,1.8242159433094463,0.17611486077246316,B,702.6500000001761,Correct
16,416,320,B,48.51831845635567,24.532611255225255,2.425915922817784,0.3853573564639497,B,908.7283999997453,Correct
16,416,321,A,35.45541985644527,51.53533678328104,1.7727709928222635,0.8095151771931577,A,557.8721000001678,Correct
16,416,322,A,30.38856728748639,53.33813952027183,1.5194283643743194,0.8378335363651669,A,1115.651699999944,Correct
16,416,323,A,19.811349386211177,48.79090497941344,0.9905674693105588,0.7664057432266145,A,1266.5769000000182,Correct
16,416,324,A,20.507363706083886,37.4655692607794,1.0253681853041943,0.5885077857611206,A,603.4218999998302,Correct
16,416,325,B,64.2198331281982,40.79307446298139,3.2109916564099104,0.6407761152512186,B,466.35040000001027,Correct
16,416,326,A,15.095373819125037,33.76476984356492,0.7547686909562518,0.5303757644534687,A,533.6821000000782,Correct
16,416,327,B,61.89950455095908,33.64455423695722,3.094975227547954,0.5284874221206407,B,594.0995000000839,Correct
16,416,328,B,79.76365292751572,52.36344732263295,3.9881826463757863,0.8225231071270991,B,747.231699999702,Correct
16,416,329,B,51.889897994955774,36.857551691703975,2.594494899747789,0.5789570681198163,A,588.0583000002844,Incorrect
16,416,330,A,66.07347069922815,80.17213850347646,3.3036735349614075,1.2593410067255253,A,4113.048400000025,Correct
16,416,331,B,54.850314468290456,42.17169411831785,2.742515723414523,0.6624314221577163,B,1099.0270000002056,Correct
16,416,332,B,74.33148039951718,54.970066027029475,3.7165740199758592,0.8634677779893083,B,574.0692999997918,Correct
16,416,333,A,44.19428998701201,64.09349909715237,2.209714499350601,1.0067783295323898,A,600.2725999996983,Correct
16,416,334,A,36.019349924293955,47.21901656433511,1.8009674962146978,0.7417145777412497,A,527.7499000003445,Correct
16,416,335,A,15.894703506463362,33.55630779495674,0.7947351753231681,0.5271012502511699,A,514.803000000029,Correct
16,416,336,A,39.692737333253696,51.40569912079478,1.9846368666626848,0.8074788335526808,A,624.0708999998787,Correct
16,416,337,B,33.11267550420236,19.00734379757577,1.6556337752101178,0.2985666581935978,B,608.6196999999629,Correct
16,416,338,A,43.10213737686099,51.3985219838761,2.1551068688430495,0.8073660953495932,A,552.0989000001464,Correct
16,416,339,B,45.31406162974916,23.28108358792929,2.2657030814874584,0.36569840583724283,B,665.2093000002424,Correct
16,416,340,B,44.38252383421004,17.907830255510348,2.2191261917105023,0.28129553986222167,B,1534.748099999888,Correct
16,416,341,B,75.98658569210983,44.62941668924978,3.7993292846054914,0.7010372380247241,B,582.481800000096,Correct
16,416,342,A,41.08769883901432,57.13990739341844,2.054384941950716,0.8975515664698225,A,536.4537999998902,Correct
16,416,343,B,38.78405126432305,24.34263325887975,1.9392025632161523,0.382373189075636,B,623.0765000000247,Correct
16,416,344,B,64.4255764079101,47.05050571676717,3.221278820395505,0.7390676155374016,B,625.3148999999212,Correct
16,416,345,A,33.23510671252595,60.04107319580575,1.6617553356262973,0.943122972327952,A,517.1898000003239,Correct
16,416,346,A,26.432780252064255,47.23175051520414,1.3216390126032127,0.7419146021737563,A,527.6730000000498,Correct
16,416,347,A,54.51597789727039,81.91670542257874,2.7257988948635195,1.2867445998092628,A,583.7003999999979,Correct
16,416,348,A,41.81755700663635,52.38465205772164,2.0908778503318173,0.8228561903269788,A,1730.7548000003408,Correct
16,416,349,B,71.18851607039379,47.67897452850809,3.5594258035196895,0.7489395805472796,B,607.7361000002384,Correct
16,416,350,A,30.754015683815002,53.08596372116837,1.5377007841907502,0.8338723681757841,A,1129.1171000002578,Correct
16,416,351,B,57.743520332005325,42.821842810774726,2.8871760166002662,0.672643933937534,B,547.34980000012,Correct
16,416,352,B,76.0487355132154,43.39599496069873,3.8024367756607704,0.6816626948187541,B,941.0487000000103,Correct
16,416,353,B,42.72279287997834,31.63902923331304,2.136139643998917,0.4969847090304447,A,457.4635999997554,Incorrect
16,416,354,A,35.83968252847693,50.31679872473168,1.7919841264238465,0.7903744261288667,A,675.9596000001693,Correct
16,416,355,A,56.441875830132034,66.3718291705005,2.822093791506602,1.0425662546368055,B,554.0392999996584,Incorrect
16,416,356,B,69.07015310150727,45.0882690106025,3.453507655075364,0.7082448734339457,B,2010.5992000003425,Correct
16,416,357,A,18.187485186698634,43.34034320305486,0.9093742593349318,0.6807885190538874,A,1983.0509999997048,Correct
16,416,358,A,59.997788179387776,75.33774751571399,2.9998894089693886,1.1834025706668487,A,682.6493999997183,Correct
16,416,359,A,51.72824267144202,69.53023985094983,2.5864121335721006,1.092178453590401,A,494.2454999995789,Correct
16,416,360,B,53.63821109405799,21.76587406213607,2.6819105547028994,0.3418975502628365,B,604.9001999999746,Correct
16,416,361,A,50.62783657819716,61.319144431978394,2.5313918289098583,0.9631988683595739,A,1082.1515000002364,Correct
16,416,362,A,63.47190495380083,76.69449829352008,3.1735952476900415,1.2047143620483882,A,640.2469999998175,Correct
16,416,363,B,58.90794185659124,33.447791509369594,2.945397092829562,0.5253966804231929,B,539.5667999996476,Correct
16,416,364,B,77.68813586238964,47.186478851753535,3.884406793119482,0.7412034765471952,B,725.7730000001175,Correct
16,416,365,A,42.15993810752529,63.819592958152676,2.1079969053762646,1.0024758219621168,A,537.3621000003368,Correct
16,416,366,B,77.14995311501215,47.04188057265764,3.857497655750608,0.7389321320905482,B,521.1150999998608,Correct
16,416,367,B,33.72638958282858,13.059853701585787,1.6863194791414289,0.20514370222929687,B,830.9382000002188,Correct
16,416,368,B,45.72839986192241,21.657546787995518,2.2864199930961204,0.3401959494197197,B,683.0740999998852,Correct
16,416,369,A,14.008771274860354,41.72109853303144,0.7004385637430177,0.6553534832553373,A,1359.7880000002078,Correct
16,416,370,A,46.96960230535767,61.19712022388407,2.3484801152678836,0.9612821165810277,A,1154.2991000001166,Correct
16,416,371,B,38.200911569808646,21.241215647444,1.9100455784904324,0.3336562351566332,B,1381.3571999999112,Correct
16,416,372,B,89.42884295011447,65.65498028921878,4.471442147505724,1.0313060187409622,B,519.2996999999195,Correct
16,416,373,B,81.07922240056767,57.24567245077678,4.053961120028384,0.8992129201058398,B,519.8709999999664,Correct
16,416,374,A,27.43507094676331,42.839243255055216,1.3717535473381657,0.6729172594771378,A,698.9388000001782,Correct
16,416,375,A,35.598426641353726,58.610761279520766,1.7799213320676863,0.9206556852852378,A,491.77819999977146,Correct
16,416,376,A,69.65437925062903,85.23375007143513,3.482718962531452,1.3388486153116455,A,577.8506000001471,Correct
16,416,377,B,71.92296140844277,51.127222121545756,3.596148070422139,0.8031045270775085,B,1065.5409000000873,Correct
16,416,378,A,56.56771815889053,68.73835963689106,2.8283859079445266,1.0797396282753506,A,671.9711000000643,Correct
16,416,379,A,24.691394887639092,35.78980550035537,1.2345697443819545,0.56218495016662,A,599.6652999997423,Correct
16,416,380,A,67.35112054779512,82.13468469272047,3.367556027389756,1.2901686101778234,A,484.40449999998236,Correct
16,416,381,A,45.56987144598429,66.09989810507534,2.2784935722992143,1.0382947714496928,A,547.8699999998753,Correct
16,416,382,A,48.13443872766834,65.67728919407335,2.406721936383417,1.0316564461989657,A,536.6008000000875,Correct
16,416,383,B,74.57830612598958,43.676365699179506,3.728915306299479,0.6860667480802178,B,453.8300000003801,Correct
16,416,384,A,49.223827508713114,60.991525216296665,2.4611913754356554,0.9580526377537711,B,1207.5030999999399,Incorrect
16,416,385,A,36.34305265637491,60.42469039220665,1.8171526328187455,0.9491488171579707,A,540.5099999998129,Correct
16,416,386,A,54.29650881485419,81.13643557418891,2.7148254407427093,1.274488149691667,A,544.9217000000317,Correct
16,416,387,A,49.91790718547587,59.03549038023533,2.495895359273794,0.9273273143980911,A,450.54419999996753,Correct
16,416,388,B,45.84784708925022,17.54597303002276,2.2923923544625113,0.2756114998560208,B,461.92710000013903,Correct
16,416,389,A,60.96021914377609,84.84910188470798,3.0480109571888043,1.3328065757234522,A,610.6132999998408,Correct
16,416,390,A,43.53752881067257,51.408563650179225,2.1768764405336283,0.8075238294750318,B,472.44270000010147,Incorrect
16,416,391,A,20.505479522680066,34.58625793599735,1.0252739761340033,0.5432796692344548,A,530.9241999998449,Correct
16,416,392,B,72.50844443026043,56.80740090945058,3.625422221513021,0.8923285668333005,B,537.5645999997687,Correct
16,416,393,B,58.05028881337169,31.763117821607175,2.9025144406685843,0.4989338880173406,B,1876.0732000000644,Correct
16,416,394,A,23.460552748402158,50.934292867379014,1.173027637420108,0.8000740014397446,A,625.9125000001404,Correct
16,416,395,A,33.086824278284084,62.98387287435397,1.6543412139142044,0.9893483615835195,A,508.65010000006805,Correct
16,416,396,A,41.50639104060697,56.67897477479659,2.0753195520303485,0.8903112538275109,A,872.8068999998868,Correct
16,416,397,B,76.8753090981346,55.96440822756219,3.84376545490673,0.8790868687510477,B,466.50320000026113,Correct
16,416,398,B,56.031064486827255,39.42836537047826,2.801553224341363,0.6193393149547436,B,465.385100000276,Correct
16,416,399,B,74.99083171312908,55.715604741884405,3.749541585656454,0.8751786727370834,B,630.1021999997829,Correct
16,416,400,B,52.55797372830567,40.53421848469964,2.627898686415284,0.6367100150526799,A,526.6775000000052,Incorrect
16,416,401,B,39.66708330475397,12.23075161196672,1.9833541652376987,0.1921201970601808,B,548.1730000001335,Correct
16,416,402,B,49.171215844986484,27.49011958430706,2.4585607922493242,0.43181378866181974,B,571.9598000000587,Correct
16,416,403,A,47.67760972460724,60.0236101972722,2.3838804862303618,0.9428486641884387,A,878.9880999997877,Correct
16,416,404,A,50.81621441103607,80.35801107693908,2.5408107205518036,1.262260686281995,A,613.62999999983,Correct
16,416,405,A,46.479324110289085,65.5204544507368,2.3239662055144543,1.029192891811497,A,1334.2018000003009,Correct
16,416,406,A,23.61889242892556,37.153532569168945,1.180944621446278,0.5836063248710514,A,634.0635999999904,Correct
16,416,407,B,76.20664490630904,47.773962729291654,3.8103322453154522,0.7504316517160762,B,515.483800000311,Correct
16,416,408,B,35.76488420174097,10.752546628825893,1.7882442100870486,0.1689006074825056,B,505.2912999999535,Correct
16,416,409,A,41.94175402131026,53.36515439553967,2.097087701065513,0.8382578850335624,A,526.8081999997776,Correct
16,416,410,A,48.72599351364812,63.67617490484427,2.436299675682406,1.0002230164487875,A,626.9520999999258,Correct
16,416,411,B,74.13810565624466,63.74379791264353,3.706905282812233,1.0012852361713664,B,602.1554999997534,Correct
16,416,412,A,44.443390752853276,61.662238982392,2.222169537642664,0.9685881849549042,A,502.2907999996278,Correct
16,416,413,A,36.57035293792869,50.33125251881408,1.8285176468964346,0.7906014657953953,A,656.26039999961,Correct
16,416,414,B,42.44098178830632,14.195229587069637,2.1220490894153157,0.22297814493379223,B,473.40359999998327,Correct
16,416,415,A,52.92390289620122,76.68861641792321,2.646195144810061,1.204621969762566,A,498.2124000002841,Correct
16,416,416,B,63.11461952066067,47.253480572687124,3.155730976033033,0.7422559371185093,B,474.79729999986375,Correct
16,416,417,A,62.73296632815633,78.21486580471128,3.1366483164078165,1.2285962390679623,A,704.3362999997953,Correct
16,416,418,A,43.263183816048475,67.02805752416008,2.1631591908024235,1.0528742655114767,A,667.6763999998911,Correct
16,416,419,A,11.307924879710786,36.03946559955304,0.5653962439855392,0.5661066018342895,A,660.2281999998922,Correct
16,416,420,A,16.692592682568797,34.113323565376945,0.8346296341284399,0.5358508335125989,A,567.004900000029,Correct
16,416,421,A,63.06293043533023,78.97292635381764,3.153146521766512,1.2405038263282064,A,917.9242000000158,Correct
16,416,422,B,72.07937678997186,54.235330061196194,3.6039688394985934,0.851926572426358,B,495.9214000000429,Correct
16,416,423,A,40.46293489741886,61.28658874103802,2.023146744870943,0.9626874847621198,A,591.037900000174,Correct
16,416,424,A,50.07370107296418,80.03626667975588,2.503685053648209,1.2572067371093734,A,577.2721000003003,Correct
16,416,425,B,71.91689506562997,56.0849696953435,3.595844753281499,0.8809806438584867,B,1062.8085999996983,Correct
16,416,426,B,77.17199381216673,50.018025031461875,3.858599690608337,0.785681299929555,B,621.9680999997763,Correct
16,416,427,B,70.49952505715046,38.26009671139772,3.524976252857523,0.6009881937708105,B,519.4115000003876,Correct
16,416,428,B,79.27108947998067,61.544783619107996,3.9635544739990336,0.9667432004228156,A,611.5351000003102,Incorrect
16,416,429,B,57.88954470925366,34.870303869160516,2.8944772354626833,0.5477414523189921,B,643.3054999997694,Correct
16,416,430,A,44.10253289406242,69.44247616428234,2.205126644703121,1.0907998648239685,A,596.6761999998198,Correct
16,416,431,A,54.3755255581108,62.124694506802115,2.71877627790554,0.9758524193453986,A,1000.8249000002252,Correct
16,416,432,A,22.156122043378105,43.16507100998183,1.1078061021689052,0.6780353498832034,A,966.9145000002572,Correct
16,416,433,A,64.6417167940139,84.5941361967875,3.2320858397006953,1.32880158406301,A,841.9748000001164,Correct
16,416,434,A,37.60989691837774,57.118613450835845,1.880494845918887,0.8972170820019051,A,1951.524199999767,Correct
16,416,435,B,84.9190725844869,61.04731578088434,4.245953629224345,0.9589289938930123,B,664.0926000000036,Correct
16,416,436,A,42.99660847343254,56.65897746941246,2.149830423671627,0.889997136889079,A,843.9599999996972,Correct
16,416,437,B,39.8189310544527,30.7773348354197,1.9909465527226349,0.48344924508013876,B,983.0127000000175,Correct
16,416,438,A,55.5441572142823,82.55789504699733,2.7772078607141153,1.29681638287742,A,546.6215999999804,Correct
16,416,439,B,60.65936922725289,30.696628497648806,3.0329684613626444,0.48218151289094285,B,616.9835000000603,Correct
16,416,440,A,39.90133843741808,56.50561279574843,1.995066921870904,0.8875880902285634,A,580.6074999995872,Correct
16,416,441,A,46.97423659131061,60.49762976055991,2.3487118295655303,0.9502945460768514,A,1444.6171999998114,Correct
16,416,442,A,24.572789442685714,49.59701411205628,1.2286394721342857,0.7790680758721266,A,617.5740000003316,Correct
16,416,443,B,77.14975186428885,49.195976003934334,3.8574875932144423,0.7727685840006994,B,544.77659999975,Correct
16,416,444,B,50.65221195119891,25.020063032415525,2.5326105975599456,0.39301423107495087,B,591.7076999999153,Correct
16,416,445,A,35.43425926732251,61.69892974261185,1.7717129633661255,0.9691645220687111,A,514.1717000001336,Correct
16,416,446,B,61.72761068147033,40.22528167511009,3.0863805340735166,0.63185724699553,B,572.118699999919,Correct
16,416,447,A,62.69022646380856,75.42769051742428,3.134511323190428,1.1848153920339233,A,649.9469000000317,Correct
16,416,448,B,88.69650494331474,65.09474335937111,4.434825247165737,1.0225058376255662,B,508.139200000187,Correct
16,416,449,B,87.6575774527371,67.87511894557902,4.382878872636855,1.0661798752048222,B,515.6159000002845,Correct
16,416,450,A,21.43000541295208,36.64427889528342,1.071500270647604,0.5756069868675895,A,526.1274999998022,Correct
16,416,451,A,33.48991794372427,51.1444735865518,1.6744958971862136,0.8033755124561416,A,648.6214000001382,Correct
16,416,452,B,47.45867832617979,25.759304265821132,2.3729339163089893,0.40462620521543946,B,752.0936999999321,Correct
16,416,453,A,39.20666753520951,59.52628220024026,1.9603333767604756,0.9350366542789383,A,568.1181999998444,Correct
16,416,454,A,17.681222123639856,43.400299126441766,0.8840611061819927,0.6817303044961449,A,463.28330000005735,Correct
16,416,455,A,52.61965385623821,80.97019946999137,2.6309826928119104,1.2718769190731254,A,1624.7488999997586,Correct
16,416,456,B,60.843250911676435,37.9594325595151,3.0421625455838215,0.5962653723170492,B,675.7622999998603,Correct
16,416,457,B,73.46935012308623,48.99761669054894,3.6734675061543114,0.7696527631921858,B,1269.6616999996877,Correct
16,416,458,B,80.48864067128919,52.720053347248324,4.02443203356446,0.8281246614628867,B,445.1547999997274,Correct
16,416,459,A,63.73538850596874,74.59470207152545,3.186769425298437,1.1717308401231181,A,560.2039000000332,Correct
16,416,460,A,14.907798326131985,31.52496828169905,0.7453899163065992,0.4951930437921849,A,638.307199999872,Correct
16,416,461,B,51.52710108923365,24.318970005989566,2.5763550544616827,0.38200148756843677,B,580.0820999997995,Correct
16,416,462,A,35.433029804880185,46.62679076254534,1.7716514902440093,0.7324119166004043,A,621.2410999996791,Correct
16,416,463,A,37.5696599330357,62.6188027451055,1.878482996651785,0.983613853403059,A,528.0093000001216,Correct
16,416,464,B,57.50341930452714,30.12987190694102,2.8751709652263573,0.473278921182237,B,502.0913999996992,Correct
16,416,465,A,64.51964954177431,79.46594211049131,3.2259824770887153,1.2482480997245564,A,621.571899999708,Correct
16,416,466,B,55.01998270830663,27.603953968614157,2.7509991354153316,0.4336018949891452,B,531.6273000003093,Correct
16,416,467,B,60.654840694368836,51.00240189804474,3.032742034718442,0.8011438555916572,B,535.5100000001585,Correct
16,416,468,B,74.69016848172107,60.42228282905576,3.7345084240860533,0.9491109992444314,B,579.4022000000041,Correct
16,416,469,B,76.96164895110593,53.87036713771073,3.8480824475552966,0.8461937482300853,B,516.5068000001156,Correct
16,416,470,A,21.08105495710731,43.41129278043306,1.0540527478553654,0.6819029924092206,A,757.901099999799,Correct
16,416,471,B,53.79631479954516,35.722160331445075,2.6898157399772575,0.561122382338123,B,828.8083999996161,Correct
16,416,472,B,42.013381588987016,25.619452957120615,2.100669079449351,0.4024294259953971,B,712.1491000002607,Correct
16,416,473,B,67.58314625862951,37.85685957544587,3.379157312931476,0.5946541596510058,A,577.5598999998692,Incorrect
16,416,474,A,16.03087795493112,35.604204923451576,0.8015438977465561,0.559269543122105,A,793.0128000002696,Correct
16,416,475,A,25.306472511439623,41.20179434411279,1.265323625571981,0.6471962721309112,A,636.0732000002827,Correct
16,416,476,B,76.8130429724455,60.28989940904149,3.840652148622275,0.9470315253455618,B,1826.1614000002737,Correct
16,416,477,B,54.163329490696675,46.51103265159114,2.7081664745348335,0.7305935924455684,A,652.357800000118,Incorrect
16,416,478,B,46.15788945989072,19.07906177091791,2.307894472994536,0.2996932014845079,B,603.0264999999417,Correct
16,416,479,B,31.639807544119947,14.441419584067788,1.5819903772059973,0.22684528836357562,B,489.1096999999718,Correct
16,416,480,B,78.90820315966167,49.286596216263135,3.945410157983083,0.7741920429672937,B,510.9119999997347,Correct
16,416,481,A,22.75961194385442,35.99915877316786,1.137980597192721,0.5654734636859835,A,709.2572999999902,Correct
16,416,482,B,60.881065236669244,32.69968199451347,3.0440532618334624,0.5136454036434297,B,515.921900000194,Correct
16,416,483,A,16.69581807447513,35.32301611994845,0.8347909037237565,0.5548526397253194,B,470.97059999987323,Incorrect
16,416,484,B,51.60210888063082,20.41867807257015,2.580105444031541,0.3207358451440069,B,533.0449000002773,Correct
16,416,485,A,15.029664551845144,33.37286845434037,0.7514832275922572,0.5242197918268713,A,833.4681999999702,Correct
16,416,486,A,43.98134454545709,62.60439783083038,2.1990672272728546,0.9833875815387474,A,1352.1129000000656,Correct
16,416,487,B,66.663365181267,58.52319695462869,3.33316825906335,0.9192802280862502,A,1542.752400000154,Incorrect
16,416,488,A,40.609916606149646,68.75103449050872,2.0304958303074825,1.0799387244104033,A,777.5172999999995,Correct
16,416,489,B,67.96666114239942,40.97381096235643,3.3983330571199706,0.6436151175445795,B,601.0117000000719,Correct
16,416,490,A,18.06148245067296,44.87416556726457,0.9030741225336478,0.704881744410452,A,624.2016000001058,Correct
16,416,491,B,65.23987409973832,32.34999954217869,3.2619937049869154,0.5081526045267087,B,628.9178000001812,Correct
16,416,492,A,57.09294536313158,65.54964333230497,2.8546472681565787,1.0296513896910022,A,566.823199999817,Correct
16,416,493,A,48.802066287218764,58.61848186617146,2.4401033143609383,0.9207769599767539,A,582.2915000003377,Correct
16,416,494,B,42.986835693568196,28.703217047503344,2.14934178467841,0.4508690790541491,B,708.9136999998118,Correct
16,416,495,B,41.34548347062923,16.589224343667507,2.0672741735314615,0.26058292663409394,B,678.3344000000398,Correct
16,416,496,A,37.88713805028981,62.96489856989725,1.8943569025144908,0.9890503139060783,A,728.834900000038,Correct
16,416,497,A,28.14498704257206,43.39598913473078,1.407249352128603,0.6816626033046637,A,754.7945999999683,Correct
16,416,498,B,35.83871973404263,21.091993368302344,1.7919359867021314,0.3313122570771164,B,563.0978999997751,Correct
16,416,499,B,77.04638752836908,55.320907188175255,3.8523193764184542,0.8689787780614708,B,581.022700000176,Correct
16,416,500,B,81.82503225616375,57.76509695327512,4.091251612808188,0.9073720211115565,B,506.0244999999668,Correct
16,416,501,B,74.56505002362697,64.25036477074738,3.7282525011813483,1.0092423697712223,B,1265.179900000021,Correct
16,416,502,A,60.66218181096497,87.12509470402321,3.0331090905482485,1.3685577873273715,A,583.8198000001285,Correct
16,416,503,B,44.85157878350919,24.346811225453948,2.2425789391754596,0.3824388164211182,B,495.8377999996628,Correct
16,416,504,A,46.38930364173912,59.90681123590697,2.319465182086956,0.941013990393579,A,542.2229000000698,Correct
16,416,505,B,71.12597403681436,45.80135601533361,3.5562987018407175,0.7194460179111137,B,482.90689999976166,Correct
16,416,506,B,54.027892525155615,23.656300801482015,2.701394626257781,0.37159230404523114,B,734.5470999998724,Correct
16,416,507,B,56.97678792046458,32.179800645375366,2.848839396023229,0.5054791265074766,A,731.7892999999458,Incorrect
16,416,508,A,47.467715817808596,54.115015984034436,2.37338579089043,0.850036683321684,B,1032.2086999999556,Incorrect
16,416,509,A,51.59534185476815,65.60803910527042,2.5797670927384075,1.030568668347747,A,753.3284000001004,Correct
16,416,510,B,31.773103496820717,14.18793019795028,1.5886551748410358,0.22286348639762688,B,663.7057999996614,Correct
16,416,511,A,40.05381146813442,53.880343714333065,2.002690573406721,0.8463504599292088,A,719.1591999999218,Correct
16,416,512,B,66.13866493535856,37.447119828973925,3.306933246767928,0.5882179827640057,B,496.5562000002137,Correct
16,416,513,A,50.72816573339086,67.29010196697475,2.536408286669543,1.05699044999378,A,861.2438000000111,Correct
16,416,514,B,69.78415512150065,56.099466161699276,3.4892077560750323,0.8812083538195182,B,494.1195000001244,Correct
16,416,515,B,61.49976927157113,49.26729313351428,3.0749884635785567,0.7738888308525165,B,709.8502999997436,Correct
16,416,516,A,35.69237152950732,62.40699511717901,1.784618576475366,0.9802867869637183,A,654.9639999998362,Correct
16,416,517,A,29.9984176980388,61.773020054152205,1.4999208849019399,0.9703283299608976,A,620.7816000001003,Correct
16,416,518,A,46.69835486952289,58.36163489908312,2.3349177434761446,0.916742417252246,A,563.9709000001858,Correct
16,416,519,B,63.53546946210779,37.51992149843329,3.1767734731053894,0.5893615487137188,B,666.8705000001864,Correct
16,416,520,B,84.56181819765244,55.94757610367908,4.228090909882622,0.8788224703673704,B,516.0018000001401,Correct
16,416,521,B,42.798440785914124,20.026651146134608,2.139922039295706,0.3145779005835105,B,824.7142000000167,Correct
16,416,522,A,48.502956905316985,62.33630320281312,2.4251478452658493,0.979176360969518,A,692.8579999998874,Correct
16,416,523,A,40.078575552569696,66.55711250505945,2.003928777628485,1.0454766784502205,A,771.5165000004163,Correct
16,416,524,A,58.69948629859573,72.04753574456424,2.9349743149297867,1.1317200450218554,A,615.1019999997516,Correct
16,416,525,B,59.817108908272246,42.77888280133325,2.9908554454136125,0.6719691196872365,B,1182.2956000000886,Correct
16,416,526,B,54.461050414873796,35.20980499993526,2.72305252074369,0.5530743236106289,B,595.5438000000868,Correct
16,416,527,B,48.95427055015227,22.96807985105293,2.447713527507614,0.36078175463565815,B,626.2064000002283,Correct
16,416,528,B,72.54008442622792,42.82981250270984,3.6270042213113958,0.6727691215657077,B,1081.3838999997643,Correct
16,416,529,B,41.8532630607058,32.999360703681816,2.0926631530352897,0.5183527457992325,A,484.9930000000313,Incorrect
16,416,530,A,50.04548809524417,68.5061617468516,2.5022744047622085,1.0760922723477155,A,603.0679000000418,Correct
16,416,531,A,20.592447667592594,39.501843554098045,1.0296223833796296,0.6204935075640386,A,738.7687999998889,Correct
16,416,532,B,43.000206409319276,29.129312128827088,2.150010320465964,0.45756216494023616,B,1255.5041000000529,Correct
16,416,533,B,71.87631239462695,55.91382116738534,3.5938156197313473,0.8782922490679562,B,925.3281999999672,Correct
16,416,534,A,38.892181027075644,66.95038552572721,1.9446090513537824,1.0516541966131452,A,962.0116000000962,Correct
16,416,535,A,54.50938907209317,63.315978638414435,2.7254694536046586,0.9945650667264553,A,754.8953999998957,Correct
16,416,536,A,28.458679226186675,52.66272277995439,1.422933961309334,0.8272241150177029,A,782.2274999998626,Correct
16,416,537,B,80.16358382717695,61.62049745290236,4.008179191358847,0.9679325105429331,B,539.7355000000061,Correct
16,416,538,B,42.7242200889711,23.65629795129911,2.136211004448555,0.3715922592746628,B,678.23159999989,Correct
16,416,539,A,38.03967057364552,63.30649093603911,1.9019835286822764,0.9944160342460465,A,626.9532000001163,Correct
16,416,540,A,16.790899816513225,33.912799903097735,0.8395449908256611,0.5327010151911625,A,724.0509999996902,Correct
16,416,541,A,51.82268832628111,69.63984173319,2.591134416314055,1.093900075930728,A,615.9308999999666,Correct
16,416,542,B,41.51833669488276,18.34253418575852,2.075916834744138,0.28812385323099304,B,578.699300000153,Correct
16,416,543,B,58.88098692229276,39.482901801422614,2.9440493461146384,0.6201959712087824,B,569.9145999997199,Correct
16,416,544,B,82.11822579506824,57.43235858481172,4.105911289753412,0.902145379041896,B,529.077099999995,Correct
16,416,545,B,83.42931424793251,61.23340314750378,4.171465712396626,0.9618520474125,B,520.0030000000879,Correct
16,416,546,A,22.926042165695577,40.68543349944896,1.1463021082847789,0.6390852949499246,A,566.3416000002144,Correct
16,416,547,A,42.36358169238214,64.44695390070659,2.118179084619107,1.0123303846034994,A,469.00100000038947,Correct
16,416,548,B,46.74395733517081,19.51229483476679,2.3371978667585407,0.3064984105379071,B,569.4473999997172,Correct
16,416,549,B,80.10575735371921,66.31419068409343,4.005287867685961,1.041660871409503,B,457.466100000147,Correct
