subject,day,trial,cat,x,y,xt,yt,resp,rt,fb
7,207,0,A,49.49821416283508,76.02404155688218,2.4749107081417545,1.194182852256531,A,969.3412999995417,Correct
7,207,1,A,30.108288106628294,44.63355986019333,1.5054144053314147,0.7011023188017182,A,1170.409400000608,Correct
7,207,2,B,79.84987399229382,59.0683613132952,3.9924936996146916,0.9278436498071787,B,527.6607000005242,Correct
7,207,3,A,55.23979975864118,81.67500849671922,2.7619899879320595,1.282948033375885,A,750.861000000441,Correct
7,207,4,A,30.820770252739088,42.504417649403834,1.5410385126369546,0.6676578311623971,B,762.491499999669,Incorrect
7,207,5,A,43.28026910134951,69.12206596042682,2.1640134550674754,1.08576687311113,A,656.5472000002046,Correct
7,207,6,B,36.93215992970496,20.46194169802849,1.846607996485248,0.32141542858354477,B,541.8243000003713,Correct
7,207,7,A,36.900848042785235,52.17618526339605,1.8450424021392617,0.8195816015791253,A,1130.8306000000812,Correct
7,207,8,A,38.76828392878419,69.15454377525937,1.9384141964392096,1.086277033433543,A,619.9643999998443,Correct
7,207,9,A,23.247247219918528,36.34217560392892,1.1623623609959264,0.5708615594638664,B,613.361800000348,Incorrect
7,207,10,A,38.84581340673837,47.30507710970902,1.9422906703369187,0.7430664136268026,A,767.8445000001375,Correct
7,207,11,B,56.24293097726474,28.958080912725357,2.8121465488632373,0.454872471287384,B,642.0586000003823,Correct
7,207,12,A,64.10182747404235,87.46153314016149,3.2050913737021176,1.373842549924158,A,685.6462999994619,Correct
7,207,13,A,50.702505663309886,59.497519113450636,2.5351252831654945,0.9345848447681739,A,836.8164000003162,Correct
7,207,14,B,32.381970342826875,15.405437243836083,1.619098517141344,0.24198804235287016,B,593.5853000000861,Correct
7,207,15,A,52.65150476429517,80.17697342625493,2.6325752382147583,1.2594169535149327,A,1369.857800000318,Correct
7,207,16,A,58.768453030677755,79.51691224965194,2.938422651533888,1.249048736798254,A,1393.320600000152,Correct
7,207,17,B,55.72070340438377,28.011787037166066,2.786035170219188,0.4400081218494135,B,681.3367999993716,Correct
7,207,18,A,30.12188618982723,61.153556025863566,1.5060943094913615,0.960597811758724,A,552.2828000002846,Correct
7,207,19,B,36.24277793159489,15.515291038887234,1.8121388965797445,0.24371362173037842,B,553.9487000005465,Correct
7,207,20,B,72.24421042485953,61.79161409365497,3.612210521242977,0.9706204044504099,B,1049.3966999993063,Correct
7,207,21,B,79.70388622838537,65.54709230985065,3.985194311419269,1.029611318323994,B,622.6692999998704,Correct
7,207,22,B,87.40446750959742,67.0637150095153,4.370223375479871,1.0534343719816641,B,627.647700000125,Correct
7,207,23,B,49.95804647634181,39.539296183074796,2.4979023238170908,0.6210818120842937,B,1546.02370000066,Correct
7,207,24,B,88.21719541209035,67.12428996403258,4.410859770604517,1.0543858811421793,B,611.1398000002737,Correct
7,207,25,A,45.4820906970585,76.729177001332,2.2741045348529254,1.2052590939168777,A,444.246000000021,Correct
7,207,26,A,46.62730269574044,78.4798806919821,2.331365134787022,1.232759083182672,A,544.7008999999525,Correct
7,207,27,A,21.003982256171966,41.14116495809953,1.0501991128085983,0.6462439079624566,A,567.8562000002785,Correct
7,207,28,B,68.01225991282257,54.34107465042524,3.4006129956411284,0.8535876045497524,A,1152.1840000004886,Incorrect
7,207,29,B,70.6731709532807,43.48082720856888,3.533658547664035,0.682995236652236,B,591.9309000000794,Correct
7,207,30,B,78.62353894273865,49.76324420382663,3.9311769471369327,0.7816792120476829,B,455.9337000000596,Correct
7,207,31,A,39.41785194833688,60.687433511497076,1.970892597416844,0.9532759764246912,A,1088.793099999748,Correct
7,207,32,B,42.5272845423992,27.903849416886835,2.12636422711996,0.4383126416748376,B,807.4136000004728,Correct
7,207,33,B,51.219306620373274,28.05443220275139,2.560965331018664,0.4406779905439834,B,580.7099000003291,Correct
7,207,34,B,37.48507254267393,16.661312488281663,1.8742536271336967,0.2617152845617477,B,482.7639999994062,Correct
7,207,35,A,40.972736793110705,67.54879059402833,2.048636839655535,1.0610539214453736,A,690.5141000006552,Correct
7,207,36,A,34.818074771829004,54.31552434318623,1.74090373859145,0.8531862612621572,A,488.0063999999038,Correct
7,207,37,A,34.600029078133595,46.792173386433845,1.7300014539066797,0.735009740781602,A,1067.11869999981,Correct
7,207,38,B,47.479461796147696,19.560691845977274,2.3739730898073845,0.30725862901227985,B,597.5888000002669,Correct
7,207,39,B,73.89766969605375,50.34143221184531,3.6948834848026877,0.7907613680396091,B,569.7468999997,Correct
7,207,40,A,63.474964033596656,74.84140185657606,3.1737482016798326,1.1756059912849042,A,1148.8240999997288,Correct
7,207,41,B,75.88998680449203,65.35718075886851,3.7944993402246014,1.0266281946570073,B,796.550500000194,Correct
7,207,42,B,51.9156043192375,21.735945815090986,2.595780215961875,0.3414274384575782,B,613.3976999999504,Correct
7,207,43,A,46.13638557079961,59.374747888039984,2.3068192785399804,0.9326563588690624,A,650.3984999999375,Correct
7,207,44,A,42.45314930109656,73.32012107117122,2.122657465054828,1.1517097685875284,A,795.5010999994556,Correct
7,207,45,B,40.319049650994884,24.106917325573146,2.015952482549744,0.37867057185358555,B,658.999500000391,Correct
7,207,46,B,87.52565061386699,63.743373577645336,4.3762825306933495,1.0012785707328016,B,934.5912999997381,Correct
7,207,47,A,23.30002804937657,38.410965182075934,1.1650014024688287,0.6033580301665155,A,584.2626000003293,Correct
7,207,48,B,47.51082715904681,19.485220276415927,2.375541357952341,0.3060731243698358,B,1105.3821999994398,Correct
7,207,49,A,12.043891240745253,35.73946130478886,0.6021945620372626,0.5613941453919068,A,566.3720000002286,Correct
7,207,50,A,38.042491793328686,54.70475430859324,1.9021245896664343,0.8593002712615555,A,696.8770000003133,Correct
7,207,51,A,65.58265780370317,84.47114782346,3.2791328901851586,1.3268696872123968,B,647.5006000000576,Incorrect
7,207,52,A,34.66247653466601,42.69168357314976,1.7331238267333007,0.6705993974139367,A,1085.0578999998106,Correct
7,207,53,A,55.696243725882255,73.2513479407177,2.7848121862941126,1.1506294827805426,A,932.78090000058,Correct
7,207,54,A,19.339545448107597,35.966714707579214,0.9669772724053799,0.5649638334954541,A,518.7160000004951,Correct
7,207,55,A,51.405309299978995,58.78228923280539,2.5702654649989496,0.923350040074859,A,1065.8008000000336,Correct
7,207,56,B,49.09144172326665,19.413436519352086,2.4545720861633327,0.30494554775064153,B,601.5308000005462,Correct
7,207,57,A,40.59013136725421,71.68477648881681,2.0295065683627103,1.126021835957466,A,773.1403999996473,Correct
7,207,58,B,67.26862923939537,47.64127735967513,3.363431461969768,0.7483474348039455,B,914.3898000002082,Correct
7,207,59,B,76.79535890937139,57.514016964429274,3.8397679454685694,0.9034280658694488,B,810.117099999843,Correct
7,207,60,A,47.96794958487272,56.07291702579115,2.398397479243636,0.8807913209678776,A,1025.6130999996458,Correct
7,207,61,B,70.8193705548481,43.189895614267996,3.5409685277424052,0.6784252938554718,B,1089.0534999998636,Correct
7,207,62,A,49.871321617829466,78.82039834157771,2.4935660808914735,1.2381079219146085,A,868.1496999997762,Correct
7,207,63,B,31.334979388560065,13.387338163827941,1.5667489694280032,0.21028781613302067,B,781.8160999995598,Correct
7,207,64,A,29.679975549060465,45.10999778931274,1.4839987774530232,0.7085861882917837,A,716.1870999998428,Correct
7,207,65,B,56.7529605445759,48.682121364110316,2.837648027228795,0.7646969741932785,A,1209.695699999429,Incorrect
7,207,66,A,14.419755718223065,36.720042488442026,0.7209877859111532,0.5767970786059726,A,480.6492999996408,Correct
7,207,67,B,78.86285819866174,62.22863532935028,3.943142909933087,0.9774851179680255,B,662.6894999999422,Correct
7,207,68,B,69.01825554316163,49.24520375511998,3.450912777158081,0.773541851708087,B,500.26269999943906,Correct
7,207,69,A,20.965184314971022,42.81366581489132,1.048259215748551,0.6725154899865552,A,529.7751999996763,Correct
7,207,70,B,38.22913382290403,23.529388188554147,1.9114566911452016,0.3695987653831208,B,606.4753999999084,Correct
7,207,71,B,59.2331637510951,33.73121293643083,2.9616581875547547,0.5298486537888204,B,721.2751999995817,Correct
7,207,72,B,53.154998614249756,24.368718150732178,2.657749930712488,0.3827829295987023,B,638.7829000004785,Correct
7,207,73,A,26.764751875838396,42.92986329317397,1.3382375937919198,0.6743407157072473,A,623.6628999995446,Correct
7,207,74,A,51.24701787436216,63.609969312666365,2.562350893718108,0.9991830614387242,A,1075.0017000000298,Correct
7,207,75,A,26.72460427133509,52.85812614934696,1.3362302135667545,0.8302935039665547,A,489.35419999997976,Correct
7,207,76,A,45.18898306644053,59.95485992634471,2.2594491533220262,0.9417687374580481,A,1404.6539000000848,Correct
7,207,77,B,85.57195150936144,56.52375713134498,4.278597575468072,0.8878731007856353,B,681.0965999993641,Correct
7,207,78,A,38.00954679823679,63.78619685052786,1.9004773399118395,1.0019512371302535,A,607.1998000006715,Correct
7,207,79,A,44.933971243460114,52.17368571773443,2.246698562173006,0.8195423388076858,A,1373.2459000002564,Correct
7,207,80,A,50.83262960634575,68.4976548497655,2.541631480317287,1.0759586463207627,A,940.4509999994843,Correct
7,207,81,B,70.30052034523757,57.47641472589663,3.515026017261879,0.9028374112877853,B,571.9002000005275,Correct
7,207,82,B,57.824619796189495,39.95175502769548,2.8912309898094746,0.627560700465136,B,713.4628000003431,Correct
7,207,83,A,41.63322316414913,60.39785489521114,2.0816611582074565,0.9487272861568882,A,706.3326999996207,Correct
7,207,84,A,59.18771851959168,74.06213556124555,2.959385925979584,1.163365304941902,B,768.1345000000874,Incorrect
7,207,85,B,45.0559943528603,17.580195609398967,2.2527997176430152,0.27614906687579666,B,562.9139999991821,Correct
7,207,86,B,51.189858850025104,36.6122172787221,2.5594929425012554,0.5751033641723332,B,1423.3205000000453,Correct
7,207,87,B,52.166798760146236,37.846905076025585,2.6083399380073113,0.5944977947397613,B,1068.0364999998346,Correct
7,207,88,B,62.875384630201836,51.56515085275382,3.143769231510092,0.8099834955013043,B,730.6807000004483,Correct
7,207,89,B,32.360120751984766,12.984548239464331,1.6180060375992382,0.20396080679641715,B,643.2552000005671,Correct
7,207,90,B,37.74494079514858,21.296602117944847,1.887247039757429,0.3345262438008018,B,550.5571000003329,Correct
7,207,91,A,50.45766422182282,79.69262430082512,2.5228832110911408,1.251808815243818,A,967.4331999995047,Correct
7,207,92,B,72.19488845561746,54.95514056132554,3.6097444227808726,0.863233329322274,B,783.7294000000838,Correct
7,207,93,B,44.0270279180131,32.48497113844654,2.2013513959006548,0.5102727334031005,B,793.9744000004794,Correct
7,207,94,B,58.33396908487148,25.56278539790651,2.916698454243574,0.40153929405677763,B,720.8614000001035,Correct
7,207,95,A,20.294592392311298,43.2626897496678,1.0147296196155648,0.6795687414604541,A,561.16959999963,Correct
7,207,96,A,55.90725216510145,84.25811159081265,2.795362608255072,1.32352332189523,A,939.3968000003952,Correct
7,207,97,B,65.86243082265656,53.87032217022764,3.293121541132828,0.8461930418825125,A,1857.722200000353,Incorrect
7,207,98,A,54.4188868000461,71.97807972409177,2.7209443400023052,1.1306290324035357,B,935.273000000052,Incorrect
7,207,99,A,40.99748247663236,52.68878692977222,2.049874123831618,0.8276335297256516,A,1020.0026000002254,Correct
7,207,100,B,41.80590725256178,25.493678907116795,2.090295362628089,0.40045377183787595,B,913.5498999994525,Correct
7,207,101,A,30.88334883900746,49.36603185699356,1.544167441950373,0.7754398150940531,A,1053.4238000000187,Correct
7,207,102,B,40.98203014597047,21.345654659558924,2.0491015072985235,0.3352967593226752,B,734.5118000002913,Correct
7,207,103,B,79.94680082187276,56.79049410673614,3.997340041093638,0.8920629953972835,B,717.9996000004394,Correct
7,207,104,A,36.8489826852197,46.34897564971643,1.8424491342609852,0.7280480070128067,A,1124.652800000149,Correct
7,207,105,A,54.57063258745513,74.46089306460433,2.728531629372757,1.1696289731574807,A,822.3110000008091,Correct
7,207,106,A,50.370837806926176,71.75537269073475,2.5185418903463086,1.1271307585040498,A,1364.9642000000313,Correct
7,207,107,A,14.981711082267367,37.85166170902722,0.7490855541133683,0.5945725117562298,A,600.0041999996029,Correct
7,207,108,A,41.652019283932546,63.52676089891941,2.082600964196627,0.9978760267320027,A,804.9827999993795,Correct
7,207,109,B,42.25347108103804,23.035233048879324,2.112673554051902,0.3618365946004405,B,613.8126999994711,Correct
7,207,110,B,32.72874435689927,18.09942444811751,1.6364372178449633,0.2843050944020474,B,723.1043000001591,Correct
7,207,111,A,55.326740020532704,68.41321947313709,2.7663370010266353,1.0746323385261682,A,1713.7224000007336,Correct
7,207,112,B,47.20116100337331,39.95692694915302,2.360058050168665,0.6276419408174159,B,876.792299999579,Correct
7,207,113,A,32.40730567051074,60.17966144531893,1.6203652835255369,0.9452999114606742,A,781.374400000459,Correct
7,207,114,B,71.45004831919779,42.81744224249622,3.5725024159598893,0.672574809972657,B,653.9164000005258,Correct
7,207,115,A,29.481703527480107,57.26414273792194,1.4740851763740053,0.8995030506978643,A,536.9969000003039,Correct
7,207,116,A,17.538658136576487,42.239254012970434,0.8769329068288243,0.6634926505013055,A,642.0854999996664,Correct
7,207,117,A,46.18530939439204,70.51999292840321,2.3092654697196022,1.1077254585753784,A,1527.1082999997816,Correct
7,207,118,B,36.66385816432704,27.182590763081986,1.833192908216352,0.4269831372341807,B,592.2138000005361,Correct
7,207,119,B,73.55419085928406,52.28470154998831,3.677709542964203,0.8212861714228907,B,1315.8445000008214,Correct
7,207,120,B,57.10641318180913,30.760484587607067,2.8553206590904563,0.48318456200644216,B,865.3699000005872,Correct
7,207,121,A,41.23280425846414,67.4720013838667,2.061640212923207,1.05984771935278,A,1004.1146000003209,Correct
7,207,122,A,39.27285765543121,71.79427013325962,1.9636428827715604,1.1277417581024476,A,893.4889000001931,Correct
7,207,123,A,15.564156031362376,38.593278980547225,0.7782078015681188,0.6062218086161427,A,566.9150000003356,Correct
7,207,124,B,51.79799677631356,25.621364717223827,2.589899838815678,0.4024594558528755,B,701.5732999998363,Correct
7,207,125,B,62.19116021007337,32.17352151042411,3.1095580105036684,0.5053804940863078,B,735.2223999996568,Correct
7,207,126,A,37.01521228698836,55.309499060554344,1.8507606143494177,0.8687995796118454,A,728.4079999999449,Correct
7,207,127,B,38.75275748573201,26.203977351915185,1.9376378742866007,0.41161111371805037,B,650.8582999995269,Correct
7,207,128,B,61.98057819434116,43.57230747459882,3.099028909717058,0.6844322053107764,B,1629.6646999999211,Correct
7,207,129,A,44.981807836129704,65.22634625121634,2.249090391806485,1.024573051016627,A,881.5192000001844,Correct
7,207,130,A,57.93197260401167,79.63803113725216,2.8965986302005837,1.2509512678357328,A,1483.1891000003452,Correct
7,207,131,A,19.106135071490424,31.927946051511203,0.9553067535745212,0.5015230037981941,A,728.4830000007787,Correct
7,207,132,A,34.23325798816327,42.42856772164747,1.7116628994081635,0.6664663832833236,A,1942.5637000003917,Correct
7,207,133,B,56.26406242580359,30.751011987393266,2.813203121290179,0.4830357667502318,B,705.0864000002548,Correct
7,207,134,A,35.35967966580899,54.588037420763484,1.7679839832904494,0.8574668866747763,A,626.9800000000032,Correct
7,207,135,B,85.54242236742124,65.09544162845035,4.277121118371062,1.022516806010614,B,602.4579999993875,Correct
7,207,136,B,58.99831433875793,37.226096891700244,2.9499157169378964,0.5847461625839365,B,718.3646000003137,Correct
7,207,137,B,81.39332089430368,52.69821584287673,4.069666044715184,0.8277816387463537,B,576.6210000001593,Correct
7,207,138,B,57.05861012861701,35.35937844086132,2.8529305064308503,0.5554238177265561,B,521.4359999999942,Correct
7,207,139,A,39.22575657466977,61.78051457296235,1.9612878287334883,0.9704460535870783,A,841.9982000004893,Correct
7,207,140,A,47.634386383954755,62.268647350272836,2.381719319197738,0.9781136253229535,A,1813.3373999999094,Correct
7,207,141,A,46.937611823131675,77.54827247436825,2.3468805911565838,1.2181254155202743,A,886.1931000001277,Correct
7,207,142,A,36.51827089794769,59.83927820420902,1.8259135448973842,0.9399531840122946,A,941.3561999999729,Correct
7,207,143,B,69.1970733362558,46.27580161333721,3.45985366681279,0.7268985919371944,B,670.1954000000114,Correct
7,207,144,A,25.84371291855267,51.86889755246864,1.2921856459276335,0.8147547375031855,A,554.1395000000193,Correct
7,207,145,A,29.487399044991168,49.9933545157165,1.4743699522495584,0.7852937763744254,A,558.2499000001917,Correct
7,207,146,B,66.81931122281573,35.53024469235203,3.340965561140786,0.5581077785287043,B,934.516899999835,Correct
7,207,147,B,52.05339745925531,32.21368502583692,2.6026698729627653,0.506011381111124,B,597.1858000002612,Correct
7,207,148,B,37.0332540349023,18.32286059165913,1.851662701745115,0.28781482113753126,B,615.93830000038,Correct
7,207,149,B,51.294550154823376,42.91091544822463,2.564727507741169,0.6740430836547763,B,1675.566300000355,Correct
7,207,150,A,37.82610384006671,54.062215878077886,1.8913051920033355,0.8492073011967749,A,963.8494999999239,Correct
7,207,151,B,45.47980701328492,36.67472349066755,2.273990350664246,0.576085209453591,B,734.6362999996927,Correct
7,207,152,A,59.102363664978654,78.23318216317543,2.955118183248933,1.2288839517539196,A,1022.9441999999835,Correct
7,207,153,B,81.09110409839559,54.25504307193703,4.0545552049197795,0.8522362236749759,B,973.3071999999083,Correct
7,207,154,B,45.76519193391022,30.979278465591538,2.288259596695511,0.48662136820507423,B,1012.2451000006549,Correct
7,207,155,B,73.00892151566758,54.573216542808176,3.6504460757833788,0.8572340808682556,B,838.1636000003709,Correct
7,207,156,B,72.61178597459907,51.600024189213116,3.6305892987299533,0.8105312845894378,B,798.1681999999637,Correct
7,207,157,B,73.26469516162989,42.95818531002709,3.6632347580814946,0.6747855969076504,B,1133.3857999998145,Correct
7,207,158,B,56.68795266793165,48.05009100717467,2.8343976333965823,0.7547690645623047,B,1022.777600000154,Correct
7,207,159,A,32.123322663872585,59.29939231136334,1.6061661331936292,0.9314726762385905,A,693.1159000005209,Correct
7,207,160,A,27.166148139540248,37.143244360435276,1.3583074069770122,0.5834447180661699,A,604.8832999995284,Correct
7,207,161,A,34.49869006162188,64.10935026832765,1.724934503081094,1.0070273191469648,A,749.7460000004139,Correct
7,207,162,B,69.33841155471069,56.14759198330226,3.466920577735534,0.8819643124574977,B,787.8211999995983,Correct
7,207,163,A,15.206164648609207,34.885723787938886,0.7603082324304603,0.5479836678367576,A,446.8716999999742,Correct
7,207,164,B,45.28290412715015,30.24219509745654,2.264145206357507,0.47504328973299365,B,1140.659400000004,Correct
7,207,165,B,32.52468413603516,17.939697964386713,1.626234206801758,0.2817961166626853,B,623.7576000003173,Correct
7,207,166,B,59.73098711160782,49.86482049901302,2.986549355580391,0.783274768761365,B,1719.4773999999597,Correct
7,207,167,B,70.09281461184068,54.00925420314695,3.504640730592034,0.8483753811523507,B,745.9630999992442,Correct
7,207,168,B,71.11794425919861,49.70348497084786,3.5558972129599304,0.7807405162111315,B,680.070400000659,Correct
7,207,169,A,18.081543725362252,48.27483683156202,0.9040771862681126,0.758299363716406,A,646.4249000000564,Correct
7,207,170,B,63.07160145347343,31.455192171870383,3.1535800726736714,0.4940970032220159,B,1036.497099999906,Correct
7,207,171,A,22.381844571737002,47.14498860525194,1.11909222858685,0.7405517492791701,A,542.7039999995031,Correct
7,207,172,A,66.39750731565077,80.639140457797,3.3198753657825386,1.2666766562700527,A,1238.2032000004983,Correct
7,207,173,B,38.93211773244238,25.409242540953485,1.946605886622119,0.3991274484997036,B,769.8114000004352,Correct
7,207,174,B,87.67357837958129,67.01806139513609,4.383678918979064,1.0527172466839463,A,2402.6324999995268,Incorrect
7,207,175,A,45.03197166637126,76.3176285619459,2.2515985833185628,1.1987945061480187,A,480.501699999877,Correct
7,207,176,B,52.92435531392557,27.519737727426964,2.6462177656962784,0.43227902936601215,B,559.6299999997427,Correct
7,207,177,A,10.40300997576465,35.42999559351128,0.5201504987882325,0.5565330693664688,A,629.7553999993397,Correct
7,207,178,B,40.09873522961472,21.21463470880648,2.0049367614807356,0.33323870274888734,B,789.4805000005363,Correct
7,207,179,A,57.022828956462895,82.60429256226979,2.851141447823145,1.2975451933430437,A,833.6286999992808,Correct
7,207,180,A,33.08054302874413,52.55730241128664,1.6540271514372065,0.8255681757389763,A,1060.1628999993409,Correct
7,207,181,B,57.69275375396168,45.280169365411474,2.8846376876980844,0.7112592371583915,A,1488.011500000539,Incorrect
7,207,182,A,18.212016770861844,34.9314625774109,0.9106008385430923,0.5487021310617042,A,838.969200000065,Correct
7,207,183,A,64.8968615474988,86.01565517278421,3.24484307737494,1.3511307519226587,A,1210.5602999999974,Correct
7,207,184,A,29.646146422291316,47.8733226560909,1.4823073211145656,0.7519923937965449,A,678.145200000472,Correct
7,207,185,B,79.51251284238269,61.63432378296817,3.9756256421191347,0.9681496940277373,A,2115.4445000001942,Incorrect
7,207,186,B,44.90811675541627,34.528234103273086,2.2454058377708135,0.5423682330013564,B,916.0148000000845,Correct
7,207,187,A,52.61021724602753,65.67112585682901,2.6305108623013767,1.0315596327239234,A,1252.8173999999126,Correct
7,207,188,A,35.11535959766547,50.16381246977363,1.7557679798832735,0.7879713236554845,A,873.5430999995515,Correct
7,207,189,B,74.22783524247404,54.77925143125462,3.7113917621237023,0.8604704693278884,B,856.4586000002237,Correct
7,207,190,B,86.25217207228926,69.59818624847159,4.312608603614462,1.0932457531068627,B,977.8814999999668,Correct
7,207,191,B,45.888692823281794,29.917959164971236,2.2944346411640897,0.46995020361536527,B,811.0071000000971,Correct
7,207,192,B,43.20048661998061,28.294091327367624,2.1600243309990304,0.4444425472702841,B,1050.4774999999427,Correct
7,207,193,A,35.95607345114941,45.75629404881841,1.7978036725574702,0.7187381861963115,A,1344.8233000008258,Correct
7,207,194,A,31.924714962169478,48.735317937813164,1.596235748108474,0.7655325840189835,A,737.0846000003439,Correct
7,207,195,A,58.93262954276321,84.77134762880277,2.9466314771381605,1.3315852147277665,A,1447.465799999918,Correct
7,207,196,A,54.647175835252774,71.66053141356988,2.732358791762639,1.1256409952060589,A,900.9960999992472,Correct
7,207,197,B,85.00712935188592,64.19088025439282,4.250356467594296,1.008307989173313,B,1682.27780000052,Correct
7,207,198,A,49.33478403654459,62.70657579406896,2.4667392018272296,0.9849925892320929,A,883.9558999998189,Correct
7,207,199,B,62.53376583984638,53.85511019183773,3.1266882919923193,0.8459540926847312,B,2237.3442000007344,Correct
7,207,200,B,45.632590428014936,20.44908443506306,2.2816295214007467,0.3212134671691575,B,744.1416000001482,Correct
7,207,201,A,62.505299659644535,84.94326607796287,3.1252649829822268,1.3342857034122562,A,965.6774000004589,Correct
7,207,202,B,77.98537801346293,56.803263172437,3.899268900673147,0.8922635714122786,B,685.4395999998815,Correct
7,207,203,A,39.55406585632139,59.283034671416985,1.9777032928160694,0.9312157310311628,A,848.7204999992173,Correct
7,207,204,A,28.312317331722806,43.11953909341253,1.4156158665861402,0.6773201362102135,A,786.6948999999295,Correct
7,207,205,A,51.65405587325796,63.617395973050634,2.582702793662898,0.9992997191472437,A,1100.1040999999532,Correct
7,207,206,A,44.67451101791862,66.8085620476852,2.2337255508959313,1.0494264386295282,A,1386.1965000005512,Correct
7,207,207,B,58.710413780137465,28.71392515027889,2.9355206890068732,0.4510372815392168,B,672.5378999999521,Correct
7,207,208,B,46.47607156457917,37.531690308882325,2.3238035782289588,0.5895464127559596,A,2201.418800000283,Incorrect
7,207,209,A,24.341860260600814,48.74937017035674,1.2170930130300406,0.7657533159716108,A,651.9239999997808,Correct
7,207,210,A,19.213242538812654,50.34919354990439,0.9606621269406327,0.7908832828527511,A,482.2383999999147,Correct
7,207,211,A,34.863163243286955,46.793860509995696,1.7431581621643477,0.7350362420565401,A,590.9960999997566,Correct
7,207,212,B,65.7505333147709,56.13144753738455,3.2875266657385454,0.881710716094041,B,677.0330999997896,Correct
7,207,213,B,33.60688913602256,11.801538839359868,1.680344456801128,0.18537813859393784,B,1108.513199999834,Correct
7,207,214,A,49.356512841776805,63.19901078354721,2.4678256420888403,0.99272773995867,A,1128.9561000003232,Correct
7,207,215,A,33.72146919760911,43.128767794526716,1.6860734598804554,0.677465100308326,A,700.8280999998533,Correct
7,207,216,B,32.89903397745322,14.052516767435158,1.6449516988726611,0.2207364172051084,B,644.8770000006334,Correct
7,207,217,A,33.39497992027719,46.5406184948815,1.6697489960138594,0.7310583257852249,A,802.6920000002065,Correct
7,207,218,B,48.1601061483376,18.555180882326663,2.40800530741688,0.2914640997297361,B,871.6484000005948,Correct
7,207,219,B,80.67915196658775,60.89607032482166,4.033957598329388,0.9565532358247356,A,651.5368000000308,Incorrect
7,207,220,B,42.23622685832686,23.160842264946616,2.1118113429163428,0.3638096595525414,B,876.3511999995899,Correct
7,207,221,A,14.290510148328856,34.35959211116167,0.7145255074164427,0.5397192107838366,A,479.4264000001931,Correct
7,207,222,A,56.375738955368774,77.86522819472917,2.8187869477684386,1.2231041443332697,A,767.4549000003026,Correct
7,207,223,B,53.14678582656442,33.37669212737977,2.657339291328221,0.5242798539425227,B,1866.4778000002116,Correct
7,207,224,B,60.40916311659259,52.348306455756074,3.0204581558296293,0.822285274946352,B,978.53860000032,Correct
7,207,225,B,45.131710377211455,26.792946728592803,2.2565855188605726,0.42086262305284916,B,629.0184999998019,Correct
7,207,226,A,27.2473305885635,50.82030488487485,1.362366529428175,0.7982834823975815,A,670.9656000002724,Correct
7,207,227,B,78.11436138957407,54.3748715934396,3.9057180694787035,0.8541184856891909,A,2182.9972999994425,Incorrect
7,207,228,A,29.788956456254404,50.38679540794068,1.4894478228127201,0.7914739314575919,A,891.1496999999144,Correct
7,207,229,B,59.851908678722474,33.435358430503435,2.9925954339361236,0.5252013820770556,B,842.882500000087,Correct
7,207,230,A,54.82045531460196,63.980878532722556,2.741022765730098,1.0050092898431102,A,1253.3848000002763,Correct
7,207,231,B,41.10104055201222,23.033968163703335,2.055052027600611,0.3618167258305579,B,641.2699000002249,Correct
7,207,232,B,60.18998503543363,30.46745121040253,3.0094992517716816,0.4785816044810301,B,762.9867000005106,Correct
7,207,233,B,49.483179063622806,31.53689948685721,2.4741589531811403,0.4953804587245516,B,672.7743000001283,Correct
7,207,234,B,30.33440816912156,14.16623063250502,1.516720408456078,0.22252263042068227,B,678.014200000689,Correct
7,207,235,B,68.13009480617927,52.87045703067407,3.4065047403089634,0.8304871969975024,B,1014.020900000105,Correct
7,207,236,B,78.53540124565149,63.98924024685243,3.926770062282574,1.0051406353415195,B,1035.300699999425,Correct
7,207,237,B,37.99974584516175,17.92584242248207,1.8999872922580874,0.28157847431938965,B,1031.428300000698,Correct
7,207,238,B,42.69360156418627,25.045944574274657,2.1346800782093136,0.39342077738379205,B,572.7161000004344,Correct
7,207,239,A,13.072249028076289,34.58687675719585,0.6536124514038144,0.5432893896551102,A,661.8373000001156,Correct
7,207,240,A,47.64167405370293,67.56338822334658,2.3820837026851462,1.0612832204705036,A,698.3155999996598,Correct
7,207,241,A,31.0464844908106,47.62333122174881,1.55232422454053,0.7480655375285975,A,774.455200000375,Correct
7,207,242,B,74.40031506056688,55.58162886481918,3.7200157530283438,0.8730741845813517,B,1822.4470000004658,Correct
7,207,243,B,66.41809330066415,52.47722269480957,3.3209046650332077,0.8243102864940467,B,1465.7947000005151,Correct
7,207,244,A,57.318871689935044,70.35534074347653,2.865943584496752,1.1051391081025626,A,1040.6864000005953,Correct
7,207,245,A,30.993851788683614,54.98428476017897,1.5496925894341809,0.8636911253273374,A,749.6893000006821,Correct
7,207,246,A,33.216233565157665,51.0406263380589,1.6608116782578832,0.8017442836913378,A,848.9998000004562,Correct
7,207,247,B,60.58285213526512,34.92518351543295,3.0291426067632563,0.5486034997867975,B,654.0017000006628,Correct
7,207,248,B,72.27764533696869,55.36728595363905,3.6138822668484347,0.8697072940057888,B,717.1963999999207,Correct
7,207,249,B,65.13182172889063,53.33441392020817,3.2565910864445313,0.837775014776216,B,1397.2090999995999,Correct
7,207,250,A,43.725418045660675,63.29358909472395,2.1862709022830336,0.9942133725965789,A,693.7967999992907,Correct
7,207,251,B,37.896212024931444,17.923008113641227,1.8948106012465724,0.2815339531002277,B,520.016299999952,Correct
7,207,252,B,69.41675003031091,46.50046313993032,3.4708375015155455,0.7304275669446402,B,681.690599999456,Correct
7,207,253,B,86.57987694047895,62.70592746652754,4.3289938470239475,0.9849824053268867,B,1331.9089000005988,Correct
7,207,254,A,46.888905252724136,73.77125475105456,2.344445262636207,1.1587961598600707,A,1363.354299999628,Correct
7,207,255,A,32.791357270812576,66.1816820405165,1.6395678635406288,1.039579430503511,A,723.9236000004894,Correct
7,207,256,B,49.779678339507164,23.18747118039276,2.4889839169753585,0.3642279455782346,B,2210.595000000467,Correct
7,207,257,A,60.20558466303976,80.89097496876333,3.010279233151988,1.2706324635179136,A,1638.2027999998172,Correct
7,207,258,A,50.03094633762584,58.75612402447209,2.501547316881292,0.9229390379434614,A,906.0843000006571,Correct
7,207,259,B,70.53262568095741,45.79689289816798,3.52663128404787,0.7193759114306155,B,2093.6891000001197,Correct
7,207,260,B,70.4489947729574,39.16434038947063,3.5224497386478704,0.6151920202512547,B,561.5637999999308,Correct
7,207,261,A,51.853073926557286,67.67752983254069,2.592653696327864,1.0630761526750694,A,1061.4446999998108,Correct
7,207,262,A,50.98365197650094,78.3708404554813,2.549182598825047,1.231046283152989,A,666.7095000002519,Correct
7,207,263,B,80.74808225637244,64.30122326156567,4.0374041128186215,1.010041253076859,B,1011.5756999994119,Correct
7,207,264,B,42.66617937047593,19.634910972000906,2.1333089685237967,0.30842446031763837,B,559.6930000001521,Correct
7,207,265,B,40.27782067974589,29.313145384406667,2.013891033987295,0.4604498109663077,B,2510.363200000029,Correct
7,207,266,A,66.70717621619215,79.62149216056633,3.3353588108096073,1.2506914741974626,A,960.3125000003274,Correct
7,207,267,B,48.4543466222254,38.92362514192981,2.42271733111127,0.6114108739848483,B,670.9485999999742,Correct
7,207,268,B,84.48418238566128,60.16339769611955,4.2242091192830635,0.9450444410856513,B,938.0012000001443,Correct
7,207,269,A,37.8811745049073,64.89140981853816,1.8940587252453651,1.0193118818350204,A,902.1372000006522,Correct
7,207,270,A,44.98553843603666,58.302815986905735,2.249276921801833,0.915818491940303,A,2150.464500000453,Correct
7,207,271,A,49.83009186709043,64.79724404553923,2.4915045933545215,1.0178327293316551,A,715.9935999998197,Correct
7,207,272,B,47.22640935352864,18.440213624052095,2.361320467676432,0.2896581982597424,B,658.053099999961,Correct
7,207,273,B,68.84261447359273,42.893702485465184,3.442130723679637,0.6737727030680183,B,1836.5580999998201,Correct
7,207,274,B,74.57962623815942,43.61814585918179,3.728981311907971,0.6851522329720678,B,992.478399999527,Correct
7,207,275,A,61.095757292461705,74.34597558369614,3.0547878646230853,1.1678238535885297,A,1142.8181000001132,Correct
7,207,276,B,51.3242667207185,41.91060065829406,2.5662133360359247,0.6583301756781609,B,834.7165000004679,Correct
7,207,277,A,47.964673836826584,64.54949979992035,2.3982336918413294,1.013941171821628,A,737.0690000007016,Correct
7,207,278,A,26.157155548274496,56.02892507146787,1.3078577774137248,0.880100296965282,A,1895.1680999998644,Correct
7,207,279,B,39.38363986612175,22.42164126617999,1.9691819933060872,0.35219831741628405,B,606.3337999994474,Correct
7,207,280,A,56.865676179311336,66.32970022642154,2.8432838089655665,1.0419044947306957,A,1148.4510999998747,Correct
7,207,281,B,71.49543411771208,58.95428673926047,3.574771705885604,0.9260517705884342,B,2976.607200000217,Correct
7,207,282,A,29.90420949664462,50.314341854308076,1.495210474832231,0.7903358336984986,A,1238.7011999999231,Correct
7,207,283,A,30.204592306182356,53.36245174831774,1.5102296153091177,0.8382154319502739,A,680.3870000003371,Correct
7,207,284,A,49.68573870789441,80.28405295826764,2.4842869353947203,1.2610989548705374,A,795.1894999996512,Correct
7,207,285,B,49.36728286788342,32.951339537806724,2.468364143394171,0.5175984310895825,B,571.4741000001595,Correct
7,207,286,A,19.669576373420416,40.366043909487075,0.9834788186710207,0.634068335002638,A,549.1054000003714,Correct
7,207,287,A,27.25336795807685,41.875160686868355,1.3626683979038428,0.6577734859087888,A,1202.6694999995016,Correct
7,207,288,B,44.0022745565844,31.953358102260054,2.2001137278292204,0.5019221753579204,B,786.6205999998783,Correct
7,207,289,A,26.866339713511096,55.17510720413774,1.3433169856755547,0.8666885572677419,A,740.0618000001487,Correct
7,207,290,A,15.792926201285471,44.66645691902771,0.7896463100642735,0.7016190645935122,A,1065.8771999997043,Correct
7,207,291,A,50.083008745500955,58.90755304638338,2.504150437275048,0.9253176794573452,A,1370.409500000278,Correct
7,207,292,B,53.334522774058776,23.333418110333927,2.666726138702939,0.3665204745928205,B,657.3471000001518,Correct
7,207,293,B,77.13026299360833,54.97907418742396,3.856513149680416,0.8636092778418968,B,875.5649999993693,Correct
7,207,294,A,59.77301216722594,84.3815655397899,2.988650608361297,1.3254625319910478,A,1141.2711000002673,Correct
7,207,295,A,46.91660485845524,62.063001201300885,2.3458302429227618,0.9748833431687068,A,900.4784999997355,Correct
7,207,296,B,44.630296210991546,36.84601773008749,2.2315148105495775,0.5787758930744106,B,975.2407000005405,Correct
7,207,297,B,64.95086680617732,56.998303469116145,3.247543340308866,0.8953272572282847,A,2026.839299999665,Incorrect
7,207,298,A,46.772980662329005,54.001162037933746,2.3386490331164502,0.8482482697184233,B,1323.437500000182,Incorrect
7,207,299,B,52.26752123520349,36.98566220919751,2.6133760617601745,0.5809694234228426,B,719.3408999992243,Correct
7,207,300,B,68.83261598931321,46.27020913632113,3.4416307994656608,0.7268107455136489,B,497.80160000045726,Correct
7,207,301,A,35.885188880911734,61.444926212451655,1.7942594440455866,0.9651746439470252,A,604.5905999999377,Correct
7,207,302,B,65.59360921525756,51.07572769225681,3.279680460762878,0.8022956544737339,B,764.0217999996821,Correct
7,207,303,B,63.096780013394124,33.39523320442259,3.154839000669706,0.5245710964996596,B,528.2093999994686,Correct
7,207,304,B,67.10355984970774,40.088346049459695,3.3551779924853866,0.6297062672177398,B,563.8011000000915,Correct
7,207,305,B,39.45843062671223,29.31190555084236,1.9729215313356117,0.4604303357062212,B,1315.2999000003547,Correct
7,207,306,A,44.628052457950865,71.0603620659293,2.2314026228975434,1.1162135571387715,A,527.6795999998285,Correct
7,207,307,B,42.009221567787264,34.2303468412461,2.1004610783893636,0.5376890308314467,B,1359.7374999999374,Correct
7,207,308,B,70.80540727047608,58.25472966344728,3.540270363523804,0.9150631537377268,A,1982.9154000008202,Incorrect
7,207,309,A,36.77602548448092,66.9984036452137,1.838801274224046,1.0524084634702349,A,692.198499999904,Correct
7,207,310,A,61.32869511545127,73.32327581594313,3.0664347557725637,1.1517593232025254,A,1120.879099999911,Correct
7,207,311,A,26.295275763234912,36.22737123768921,1.3147637881617456,0.569058216695973,B,505.74669999969046,Incorrect
7,207,312,B,41.698008932927124,15.40017071707754,2.084900446646356,0.24190531594399725,B,595.413600000029,Correct
7,207,313,A,50.704671984233684,60.268302338662444,2.5352335992116846,0.9466922793573525,A,716.2502000001041,Correct
7,207,314,B,31.91156878262881,15.745541514712652,1.5955784391314405,0.24733038774707186,B,662.7773000000161,Correct
7,207,315,A,45.73626827090454,65.56112869184003,2.286813413545227,1.029831801296698,A,1272.746200000256,Correct
7,207,316,B,86.26679866561433,59.59540032175974,4.313339933280717,0.9361223591929161,B,1103.917000000365,Correct
7,207,317,B,69.44448459669889,52.92586036193855,3.472224229834944,0.8313574704899268,A,1541.9509000003018,Incorrect
7,207,318,B,78.36659447853432,51.41400644863194,3.9183297239267163,0.8076093247532018,B,1069.4543000008707,Correct
7,207,319,A,22.86567534217523,37.04478151380799,1.1432837671087615,0.5818980672880908,A,757.4438000001464,Correct
7,207,320,A,26.68519263578286,42.788165045812306,1.334259631789143,0.6721149248425575,A,1254.589300000589,Correct
7,207,321,B,69.71578457503986,54.83958680592002,3.485789228751993,0.8614182151768905,B,1062.6447999993616,Correct
7,207,322,B,61.51584972978701,30.57507974995623,3.0757924864893504,0.48027222962692273,B,2007.4414999999135,Correct
7,207,323,B,46.363534761355865,16.59373873116996,2.3181767380677933,0.26065383846715984,B,648.5875999997006,Correct
7,207,324,A,20.694435587853775,34.56908136433313,1.0347217793926888,0.5430098602776839,A,579.9312000008285,Correct
7,207,325,B,58.445102343644635,25.691516333407503,2.9222551171822317,0.4035613948630759,B,1247.5358000001506,Correct
7,207,326,A,39.40015178264061,54.860546196348764,1.9700075891320308,0.8617474445118638,A,4177.213300000403,Correct
7,207,327,A,18.67275248321703,38.26639702822006,0.9336376241608516,0.6010871589160321,A,482.06019999997807,Correct
7,207,328,A,35.065803830006644,66.02418592289233,1.7532901915003323,1.0371054872730259,A,757.1033000003808,Correct
7,207,329,B,45.47198430012035,26.746302798850834,2.2735992150060174,0.4201299419177895,B,541.1243999997168,Correct
7,207,330,B,46.3424947309948,16.16845873660043,2.31712473654974,0.2539735559338681,B,543.3465999994951,Correct
7,207,331,B,62.164726749565624,53.211955286975076,3.108236337478281,0.8358514390635474,B,1131.8043999999645,Correct
7,207,332,B,82.79417328801846,64.42532637167032,4.1397086644009224,1.0119906601718214,B,1449.8662000005424,Correct
7,207,333,B,48.91847139433357,32.04033404232192,2.445923569716679,0.5032883902296076,B,1191.4237000000867,Correct
7,207,334,A,19.903532834329095,39.2543812983038,0.9951766417164548,0.616606379539819,A,604.1123000004518,Correct
7,207,335,A,27.07911305243649,53.44678941902074,1.3539556526218246,0.8395402049837811,A,1017.6537000006647,Correct
7,207,336,B,40.22307981902274,20.891113165772648,2.0111539909511373,0.32815683823452174,B,704.8613999995723,Correct
7,207,337,B,70.4491870144629,59.85070050690041,3.5224593507231448,0.9401326051234062,A,1621.3044000005539,Incorrect
7,207,338,A,35.92189278802089,47.04425370750275,1.7960946394010446,0.7389694092055251,A,1259.638399999858,Correct
7,207,339,A,24.959618493798992,45.45192189993277,1.2479809246899496,0.7139571196618292,A,538.268600000265,Correct
7,207,340,B,65.95393074825958,54.036221120411184,3.297696537412979,0.8487989764981869,B,921.195699999771,Correct
7,207,341,A,15.469569266227683,39.68950241351338,0.7734784633113841,0.62344124603464,A,419.98980000062147,Correct
7,207,342,B,34.594737710386866,15.235765180150953,1.7297368855193433,0.239322839808907,B,597.3596000003454,Correct
7,207,343,B,39.184781831097325,15.07323329806103,1.9592390915548663,0.23676979497516792,B,584.9652000006245,Correct
7,207,344,A,47.0110199218765,73.37604036791936,2.3505509960938253,1.152588146846818,A,677.6755999999295,Correct
7,207,345,B,45.90326552780632,28.524119287178486,2.295163276390316,0.4480558180135944,B,682.9259999994974,Correct
7,207,346,B,42.862160874103,29.533399365790878,2.1431080437051495,0.4639095524155104,B,988.0762000002505,Correct
7,207,347,A,25.823506676221363,47.36060286783619,1.2911753338110683,0.7439386101958892,A,680.2073999997447,Correct
7,207,348,A,36.414350706813245,62.36399914326572,1.8207175353406624,0.9796114077848188,A,1114.7038999997676,Correct
7,207,349,B,58.45210921663981,46.64335458636378,2.9226054608319907,0.732672100536521,A,1599.1621000002851,Incorrect
7,207,350,B,57.42086739571114,34.34719199639074,2.871043369785557,0.5395244302364965,B,906.4972999995007,Correct
7,207,351,A,46.13001958025961,68.59377395971416,2.3065009790129802,1.0774684817691842,A,957.2730999998385,Correct
7,207,352,A,60.57653569540321,82.48130912359136,3.0288267847701604,1.295613374005717,A,1135.7543000003716,Correct
7,207,353,A,15.298831331342083,44.44386818166765,0.7649415665671042,0.6981226488832013,A,530.8254999999917,Correct
7,207,354,A,44.946127328155875,58.30624695895787,2.247306366407794,0.9158723855232712,A,793.471099999806,Correct
7,207,355,A,62.708096321809705,73.39931389740116,3.1354048160904853,1.1529537265930334,A,1659.9317999998675,Correct
7,207,356,A,36.26202812687572,63.425715382359904,1.813101406343786,0.9962888074694951,A,759.2665000001944,Correct
7,207,357,A,16.475318445158365,39.09892546320399,0.8237659222579182,0.6141644849922827,A,614.7446000004493,Correct
7,207,358,B,57.22147496201686,31.01195381892508,2.8610737481008433,0.4871346314550048,B,703.5969000007753,Correct
7,207,359,B,66.37674843438651,44.33970245020856,3.3188374217193255,0.6964864173996628,B,2114.3482999996195,Correct
7,207,360,B,75.52443191887683,59.75781995832807,3.7762215959438414,0.9386736408781248,B,889.299899999969,Correct
7,207,361,B,33.75317898741591,12.280076015731183,1.6876589493707954,0.19289498298272653,B,844.0576000002693,Correct
7,207,362,A,39.266503642494456,64.54190737861005,1.9633251821247228,1.0138219103465709,A,1058.1738000000769,Correct
7,207,363,B,34.05896474836645,15.890432612379065,1.7029482374183227,0.24960633178706867,B,620.9186000005502,Correct
7,207,364,A,43.27235511311648,71.88387219293313,2.163617755655824,1.1291492239645313,A,928.245699999934,Correct
7,207,365,A,24.182393305535,52.875398899033904,1.20911966527675,0.8305648236841738,A,914.2098000002079,Correct
7,207,366,B,32.30044821378847,16.081072972600143,1.6150224106894233,0.25260090356280995,B,706.7899000003308,Correct
7,207,367,A,61.755270460525516,82.77742417431992,3.087763523026276,1.300264738345648,A,999.1899999995439,Correct
7,207,368,B,84.81953761242654,61.317395894608254,4.240976880621327,0.9631714023987913,B,818.818900000224,Correct
7,207,369,B,88.06828381983757,66.35246656499493,4.403414190991879,1.0422621075407523,B,1295.81060000055,Correct
7,207,370,B,83.14574711174468,62.265479368625655,4.1572873555872345,0.9780638627836061,B,2626.021799999762,Correct
7,207,371,A,48.530665253982676,72.83784391435363,2.4265332626991336,1.144134176723267,A,714.603100000204,Correct
7,207,372,B,54.91325392556755,40.729011729627274,2.7456626962783774,0.6397698201888479,B,972.2550999995292,Correct
7,207,373,A,57.599323814322425,81.81120622249685,2.8799661907161216,1.2850874222495785,A,998.7991999996666,Correct
7,207,374,A,35.70157406048916,52.531752396388214,1.7850787030244577,0.825166837043456,B,648.7603999994462,Incorrect
7,207,375,A,61.56312669936849,72.039099856255,3.0781563349684244,1.1315875343981612,A,1662.0080000002417,Correct
7,207,376,B,73.157286318548,52.2547790944361,3.6578643159274002,0.8208161505901899,B,889.8761999998896,Correct
7,207,377,B,46.43171204351751,29.523564172656215,2.321585602175875,0.46375506156301793,B,1350.890900000195,Correct
7,207,378,B,86.53603942609723,68.17057865147399,4.326801971304861,1.0708209454121793,B,1305.659999999989,Correct
7,207,379,B,54.18829256672377,46.2143638531513,2.7094146283361886,0.7259335298569292,B,1514.492300000711,Correct
7,207,380,A,65.27776768448399,87.14369526571711,3.2638883842241997,1.368849964267223,A,948.4499999998661,Correct
7,207,381,B,54.50812021891412,25.26647332179028,2.725406010945706,0.39688483484929415,B,3019.3617999993876,Correct
7,207,382,A,46.898134508657414,63.59035224803416,2.3449067254328706,0.9988749173080563,A,1324.2395999996006,Correct
7,207,383,B,47.45512907830903,31.802410991408596,2.3727564539154513,0.49955110368526273,B,663.8232999994216,Correct
7,207,384,A,20.979519694139242,49.67877251340927,1.0489759847069622,0.7803523338374254,A,629.07019999966,Correct
7,207,385,A,49.17536655058099,57.42364023084617,2.4587683275290493,0.9020084314580481,A,1850.595500000054,Correct
7,207,386,B,47.736113994313286,38.27073814484654,2.3868056997156644,0.6011553490165428,B,1418.426599999293,Correct
7,207,387,B,54.890573340798326,45.19047320079072,2.744528667039916,0.7098502930992528,B,1218.3568999998897,Correct
7,207,388,A,30.83475820000264,42.15647184430402,1.5417379100001318,0.6621923112366523,A,1067.7875999999742,Correct
7,207,389,A,19.512471312459866,42.348541649368066,0.9756235656229932,0.6652093366794805,A,691.2767000003441,Correct
7,207,390,A,26.88846549250905,41.34431295979212,1.3444232746254525,0.649434949311001,A,910.2937999996357,Correct
7,207,391,A,30.21586621879276,44.941360884675426,1.5107933109396379,0.70593724598812,A,900.1277000006667,Correct
7,207,392,A,32.99912300154533,44.90241093941263,1.6499561500772666,0.7053254216786434,A,829.5188000001872,Correct
7,207,393,A,50.81801624524469,79.26868750709224,2.5409008122622345,1.24514963165993,A,1275.8714000001419,Correct
7,207,394,A,29.842431045495374,41.206203329266785,1.4921215522747686,0.6472655283077591,A,916.1448000004384,Correct
7,207,395,A,51.06858183067296,59.599851941967145,2.553429091533648,0.9361922850796167,B,2087.515500000336,Incorrect
7,207,396,A,28.97957709103501,59.628667169376456,1.4489788545517508,0.9366449136133198,A,537.7133000001777,Correct
7,207,397,A,38.40298225345759,47.030371701978524,1.9201491126728794,0.7387513511726651,A,1425.481000000218,Correct
7,207,398,B,71.53902438052958,49.441124248081195,3.576951219026479,0.7766193636149604,B,840.9393000001728,Correct
7,207,399,B,36.94741168640947,16.145992429478582,1.8473705843204733,0.25362065600683165,B,937.5263999991148,Correct
7,207,400,B,80.64662078302996,65.48539969545355,4.032331039151498,1.0286422530031407,B,1603.727699999581,Correct
7,207,401,B,77.07974864864775,56.76423500847629,3.8539874324323877,0.8916505184463683,B,698.3891999998377,Correct
7,207,402,A,48.55055103797361,62.1752303931134,2.4275275518986805,0.9766462351912896,A,698.1374000006326,Correct
7,207,403,B,40.67497918457127,16.876352329487048,2.0337489592285634,0.2650931224885475,B,577.0378999995955,Correct
7,207,404,B,32.43037320751387,10.90550386327585,1.6215186603756933,0.17130325410281258,B,698.44060000014,Correct
7,207,405,B,71.35767253842035,50.11228091149302,3.567883626921017,0.7871618678308724,B,1526.8787000004522,Correct
7,207,406,A,52.67984013220076,59.89816346304748,2.633992006610038,0.9408781514951526,A,1770.212100000208,Correct
7,207,407,A,20.5724088633883,34.706253116811425,1.028620443169415,0.5451645491270132,A,598.1168999996953,Correct
7,207,408,A,58.67790057662685,79.96613466735376,2.9338950288313423,1.2561051060346533,A,1055.2112000004854,Correct
7,207,409,A,42.44373511525688,52.84610696149471,2.122186755762844,0.8301047070052611,A,1647.533100000146,Correct
7,207,410,A,17.38660479007299,43.022810941256296,0.8693302395036495,0.6758007339491667,A,585.7286999998905,Correct
7,207,411,B,44.80551031413104,20.567231624058095,2.2402755157065517,0.3230693188741029,B,1020.7797000002756,Correct
7,207,412,B,58.776864251800454,27.903208921852407,2.938843212590023,0.43830258080236345,B,849.7590999995737,Correct
7,207,413,A,58.196812280666414,83.50229142923095,2.9098406140333206,1.3116509265599294,A,1096.7171000002054,Correct
7,207,414,A,33.62328747643274,50.65048320716151,1.6811643738216373,0.7956159297219588,A,653.9782999998351,Correct
7,207,415,A,33.895425381242276,60.51293342937676,1.6947712690621137,0.9505349355444911,A,632.4330000006739,Correct
7,207,416,A,62.157453074872734,85.50553469008742,3.1078726537436365,1.343117798118229,A,802.6764000005642,Correct
7,207,417,A,37.88262971711768,48.42703423945483,1.894131485855884,0.7606900750090634,A,1510.7995999997001,Correct
7,207,418,A,16.006140317906947,40.077770586688004,0.8003070158953475,0.6295401482369806,A,610.1801999993768,Correct
7,207,419,B,37.32651101382983,12.11974022507,1.8663255506914913,0.1903764342724831,B,679.6717999995963,Correct
7,207,420,A,13.202079950740039,30.915006803183868,0.660103997537002,0.4856117912928046,A,1289.1086999998151,Correct
7,207,421,B,80.22463076191029,63.28884588502244,4.011231538095514,0.9941388664328156,A,2484.1449000005014,Incorrect
7,207,422,A,50.46604422151286,63.667220270620355,2.523302211075643,1.0000823573833204,A,1022.9338999997708,Correct
7,207,423,B,52.205762696676096,37.15912399949867,2.6102881348338047,0.5836941548532858,B,1548.174100000324,Correct
7,207,424,B,42.895337794012455,32.40315042622339,2.1447668897006227,0.5089874966609419,A,841.722999999547,Incorrect
7,207,425,A,64.54484475758744,87.93023083871486,3.227242237879372,1.3812048361568066,A,912.0963000004849,Correct
7,207,426,A,34.17745788579309,51.02592665434091,1.7088728942896545,0.8015133815994451,A,1290.5990999997812,Correct
7,207,427,B,55.29475496923916,38.44394544414094,2.764737748461958,0.6038760829115998,B,1429.6481000001222,Correct
7,207,428,B,68.64942570537082,57.378797108872774,3.4324712852685413,0.9013040373452698,B,1739.7533000003023,Correct
7,207,429,B,73.01852373706198,62.111366310143254,3.650926186853099,0.975643060521853,B,858.9535999999498,Correct
7,207,430,B,84.50097920670089,54.97287501972264,4.2250489603350445,0.8635119015433527,B,654.2602999998053,Correct
7,207,431,B,61.867494792600944,51.266872053528516,3.093374739630047,0.8052981430794653,B,1512.7577999992354,Correct
7,207,432,B,39.04878129954962,23.10244447994102,1.9524390649774808,0.3628923492907439,B,861.7602000003899,Correct
7,207,433,A,26.264718896739936,56.13852660716784,1.3132359448369968,0.8818219138621681,A,713.9154999995299,Correct
7,207,434,B,85.75770067451204,58.27882513626543,4.287885033725602,0.9154416445396781,B,1390.0370999999723,Correct
7,207,435,A,40.3498538192603,59.54451931730397,2.0174926909630146,0.9353231222438884,A,1278.33499999997,Correct
7,207,436,A,35.04822326103516,45.68386135233959,1.752411163051758,0.7176004160606237,A,1907.8915000000052,Correct
7,207,437,B,68.66708000558265,49.93358322122239,3.4333540002791323,0.7843548910760341,B,1532.4847000001682,Correct
7,207,438,A,31.219986049243783,42.47231113830501,1.560999302462189,0.6671535032653948,A,1215.0038999998287,Correct
7,207,439,B,76.65331440007391,49.26729145515574,3.8326657200036953,0.7738888044889224,B,738.5874999999942,Correct
7,207,440,B,47.77864197471911,28.40618481096538,2.3889320987359555,0.446203307593214,B,779.6908999998777,Correct
7,207,441,A,23.671056219854314,46.36655895167196,1.1835528109927156,0.7283242048740535,A,880.4634999996779,Correct
7,207,442,A,47.95816105196829,75.15843101508014,2.3979080525984147,1.180585873661555,A,1883.7353999997504,Correct
7,207,443,A,60.10499548245269,86.70573267534469,3.0052497741226345,1.3619704639849168,A,1018.1241000000227,Correct
7,207,444,A,18.969708613961878,43.60079043534854,0.9484854306980938,0.6848796146119955,A,932.0187000002988,Correct
7,207,445,A,54.55480289146303,68.3099725231302,2.7277401445731515,1.0730105392279323,A,1652.6475999999093,Correct
7,207,446,B,54.19198826997523,32.59615657788323,2.7095994134987613,0.5120192302017028,B,1258.4537000002456,Correct
7,207,447,B,53.19899531524015,37.52597898070808,2.6599497657620073,0.5894566994227876,B,1511.4366999996491,Correct
7,207,448,A,43.382790814596746,56.05358497583214,2.1691395407298373,0.8804876538372273,A,1176.817800000208,Correct
7,207,449,B,78.06056956343213,53.09125659729908,3.9030284781716063,0.8339555084796271,B,1588.152799999989,Correct
7,207,450,B,71.53052247764408,60.5512570881003,3.576526123882204,0.9511369221680142,A,3768.8994000000093,Incorrect
7,207,451,A,63.93345907922291,85.64974365757588,3.196672953961145,1.3453830272824467,A,1221.314500000517,Correct
7,207,452,A,43.78119986710529,73.70862191261952,2.1890599933552646,1.1578123255345658,A,687.2623999997813,Correct
7,207,453,A,20.334775318767726,35.36811395080004,1.0167387659383862,0.5555610347958004,A,675.4323000004661,Correct
7,207,454,A,15.811723004627549,33.36520684004557,0.7905861502313775,0.5240994434709555,A,513.5108000004038,Correct
7,207,455,B,51.70739450323989,27.69165881865966,2.5853697251619945,0.434979559552081,B,875.7458999998562,Correct
7,207,456,B,70.74840665084122,59.15706565555196,3.537420332542061,0.9292370143570555,B,901.2818000001062,Correct
7,207,457,B,66.69834611528084,41.77970829655336,3.3349173057640424,0.6562741232678828,B,890.4210000000603,Correct
7,207,458,B,59.46594916992396,39.30296217494531,2.9732974584961984,0.6173694861656285,B,926.5627000004315,Correct
7,207,459,B,81.52032872483784,65.6974119295248,4.076016436241892,1.0319725333882879,B,790.3081000004022,Correct
7,207,460,A,34.168363859665604,64.19971120366212,1.70841819298328,1.0084467054000563,A,985.9122999996544,Correct
7,207,461,B,45.612244285875114,19.033724887087523,2.2806122142937557,0.2989810513786169,B,975.6888000001709,Correct
7,207,462,B,42.5977057003048,18.171285760496833,2.12988528501524,0.28543388925728835,B,2864.587699999902,Correct
7,207,463,B,49.96973385447409,31.890309656275484,2.498486692723705,0.5009318126842934,B,954.2750999999043,Correct
7,207,464,A,40.388205084670425,61.40832423419863,2.0194102542335215,0.9645997014170923,A,1925.8521000001565,Correct
7,207,465,A,50.69036141886269,63.94825245210677,2.5345180709431347,1.0044968005672206,A,1642.5972000006368,Correct
7,207,466,B,61.748873749891004,49.504121702642095,3.08744368749455,0.7776089253171773,B,1415.8099999995102,Correct
7,207,467,B,45.557404595300646,23.225237998410556,2.2778702297650324,0.36482118536840563,B,1143.0177000002004,Correct
7,207,468,B,42.14838681442956,14.996428099976765,2.107419340721478,0.23556334174487276,B,1115.4553999995187,Correct
7,207,469,A,12.7981944779891,34.17207106007395,0.639909723899455,0.5367736370013834,A,973.3992000001308,Correct
7,207,470,A,63.56331313546306,88.12066540292301,3.1781656567731535,1.3841961752963357,A,904.1723000000275,Correct
7,207,471,A,19.439120222917726,32.066157724417124,0.9719560111458863,0.5036940276794022,A,1116.8643000000884,Correct
7,207,472,A,45.644279765977544,54.99822687245396,2.2822139882988774,0.8639101275148304,A,905.8821999997235,Correct
7,207,473,B,63.14374160419297,52.917325940896916,3.1571870802096487,0.8312234121176917,B,761.9153000005099,Correct
7,207,474,A,37.41969948258568,70.13728027996538,1.8709849741292839,1.1017138223515375,A,641.6308999996545,Correct
7,207,475,B,64.6227827249636,43.74861921516572,3.23113913624818,0.6872017036553094,B,915.3292999999394,Correct
7,207,476,A,37.68082273449727,65.26908954701058,1.8840411367248635,1.025244461136914,A,1058.2269000005908,Correct
7,207,477,A,42.67799552335142,73.37116940277095,2.133899776167571,1.1525116339051873,A,1428.4314000005907,Correct
7,207,478,A,16.437227475127973,44.28508691164387,0.8218613737563986,0.6956285185260295,A,550.6578000004083,Correct
7,207,479,A,53.62271482235162,70.2004211255488,2.681135741117581,1.1027056364346692,A,1345.4791000003752,Correct
7,207,480,B,35.17301143938721,14.094293102956769,1.7586505719693606,0.2213926383489514,B,648.6421999998129,Correct
7,207,481,A,60.66664468273099,83.33975767477038,3.0333322341365494,1.3090978523150612,A,1582.4463999997533,Correct
7,207,482,B,49.71616400239868,23.162478869338408,2.485808200119934,0.3638353672742118,B,925.95270000038,Correct
7,207,483,A,19.85074941019001,51.48444542321799,0.9925374705095004,0.8087157775786314,A,1127.0981999996366,Correct
7,207,484,B,87.53998689243966,60.068452354490745,4.376999344621982,0.9435530431468833,B,1006.5410999995947,Correct
7,207,485,B,81.4916635741736,60.76626041153181,4.0745831787086795,0.954514186474963,B,3170.09760000019,Correct
7,207,486,B,75.19360167685497,50.709915498982554,3.7596800838427487,0.7965494899788139,B,601.6173999996681,Correct
7,207,487,A,37.78728252889467,50.8338828793909,1.8893641264447336,0.798496765036692,A,1116.6466999993645,Correct
7,207,488,B,42.22969236419503,22.29019058573372,2.1114846182097518,0.3501334949562871,B,1332.9418999992413,Correct
7,207,489,A,36.60216263838725,55.62282618996743,1.8301081319193626,0.8737213106515181,A,1116.1222999999154,Correct
7,207,490,B,40.8552640457994,29.359684083630718,2.04276320228997,0.46118083914425717,B,2461.5554000001794,Correct
7,207,491,B,64.66331234634285,47.64223622547791,3.233165617317143,0.7483624966327546,B,1971.881200000098,Correct
7,207,492,A,57.72958514399845,76.40042821144435,2.8864792571999227,1.2000951200009398,A,1191.7858999995588,Correct
7,207,493,B,47.149548907908496,21.644096870897037,2.357477445395425,0.3399846786159798,B,673.4814999999799,Correct
7,207,494,A,50.333124908503386,70.00065133000639,2.5166562454251693,1.0995676598242434,A,1139.9778000004517,Correct
7,207,495,A,47.007215534692754,54.84090980395198,2.3503607767346377,0.86143899678138,A,744.4128999995883,Correct
7,207,496,A,44.57074917255953,58.461243233929935,2.2285374586279767,0.9183070613172014,A,961.2682999995741,Correct
7,207,497,A,21.200392190606983,50.94970389583224,1.0600196095303491,0.8003160773086092,A,699.1904000005889,Correct
7,207,498,B,43.60832893206292,32.329013735553296,2.180416446603146,0.5078229602470887,B,1260.0531999996747,Correct
7,207,499,A,18.333517317291214,34.05626839795539,0.9166758658645606,0.5349546130384945,A,516.0539999997127,Correct
7,207,500,A,16.79347502902787,42.78371314677652,0.8396737514513936,0.6720449945760308,A,654.5862000002671,Correct
7,207,501,A,21.97176463435603,49.95098554651015,1.0985882317178015,0.7846282461624311,A,621.4663999999175,Correct
7,207,502,B,43.83848331377902,28.206686035573824,2.191924165688951,0.44306958815736264,B,1093.2142000001477,Correct
7,207,503,A,28.313654252217823,55.48442070146084,1.415682712610891,0.871547242321974,A,629.5032999996693,Correct
7,207,504,A,20.096972892013834,47.663674631133404,1.0048486446006917,0.7486992503213145,A,432.5404000001072,Correct
7,207,505,A,12.64457462181915,37.409190281356175,0.6322287310909575,0.5876221868232562,A,507.636199999979,Correct
7,207,506,A,50.67405181578889,60.35366139368405,2.5337025907894444,0.9480330962582186,A,1599.4995000000927,Correct
7,207,507,A,38.784128518742044,61.7205680319381,1.9392064259371022,0.9695044155226288,A,760.3358000005755,Correct
7,207,508,A,27.439708574972826,40.97880168045223,1.3719854287486413,0.643693511561109,A,593.1719999998677,Correct
7,207,509,B,55.87443444551927,33.92627660320619,2.7937217222759636,0.5329127067014392,B,862.4417000000903,Correct
7,207,510,A,55.46226313224617,67.3368344755722,2.773113156612309,1.0577245225222478,A,1284.8413000001528,Correct
7,207,511,A,31.99015738823251,41.78451146331804,1.5995078694116256,0.6563495712349923,A,3681.808700000147,Correct
7,207,512,B,74.80068041847802,54.23234984115739,3.740034020923901,0.8518797592394581,B,743.8828000003923,Correct
7,207,513,B,70.17643223048596,56.82826294824498,3.5088216115242976,0.8926562669723773,B,666.4284999997108,Correct
7,207,514,A,26.3195510633431,38.07843723348921,1.3159775531671551,0.5981346933645487,A,570.1423000000432,Correct
7,207,515,A,36.4404681390533,67.89263475207552,1.822023406952665,1.0664550128498778,A,707.5463000001037,Correct
7,207,516,B,37.15430655240794,20.83805161717344,1.857715327620397,0.32732334937818497,B,648.250399999597,Correct
7,207,517,B,41.112697522310654,17.032654016573687,2.055634876115533,0.2675483036480229,B,591.7062999997142,Correct
7,207,518,A,49.707982501602935,66.96897442148999,2.485399125080147,1.0519461903049785,A,1152.8270999997403,Correct
7,207,519,B,63.76203111347145,31.68620172599441,3.1881015556735726,0.4977256928127413,B,582.6729000000341,Correct
7,207,520,A,41.81347229611893,71.12911636785438,2.0906736148059464,1.117293547187924,A,811.887900000329,Correct
7,207,521,B,68.3365617252495,37.513407915227006,3.416828086262475,0.5892592335879717,B,581.5713000001779,Correct
7,207,522,B,60.960815962627926,43.14162369369705,3.0480407981313964,0.67766704030027,B,651.9306000000142,Correct
7,207,523,B,53.61164592965866,46.74234792994568,2.6805822964829327,0.734227084341277,B,1876.5008999998827,Correct
7,207,524,B,39.475287364061856,15.31664652503422,1.9737643682030928,0.2405933210033957,B,591.5692999997191,Correct
7,207,525,A,63.734415984813076,78.38592013151236,3.186720799240654,1.2312831541501774,A,1286.464399999204,Correct
7,207,526,B,88.20273155545185,69.25173329698778,4.410136577772593,1.0878036828708824,B,997.1324999996796,Correct
7,207,527,B,74.13524361171308,52.362407780642826,3.706762180585654,0.8225067780397026,B,608.4507000005033,Correct
7,207,528,A,28.553753207667874,44.84500428061142,1.427687660383394,0.7044236799908583,A,595.4952000001867,Correct
7,207,529,A,30.38037165258647,45.03243697227183,1.5190185826293234,0.7073678658266729,A,703.921000000264,Correct
7,207,530,A,62.143003923908424,80.3721053753362,3.107150196195421,1.2624820790035047,A,1206.5833000006023,Correct
7,207,531,B,47.83089693823215,31.854866742663084,2.3915448469116076,0.5003750766991608,B,773.7860999995974,Correct
7,207,532,A,55.14886915276289,66.05032344752053,2.7574434576381446,1.0375160545498008,A,945.9033000002819,Correct
7,207,533,B,54.25492226788616,34.87513560920998,2.7127461133943083,0.5478173491142093,B,539.6162999995795,Correct
7,207,534,B,48.80734810859704,19.9757263711682,2.440367405429852,0.31377797608890956,B,585.9650000002148,Correct
7,207,535,A,24.343136651495975,45.65161646158044,1.2171568325747986,0.7170939145009999,A,641.1518999993859,Correct
7,207,536,A,21.486215651846972,39.80417827909099,1.0743107825923486,0.6252425703188533,A,638.3900000000722,Correct
7,207,537,B,41.52158667305606,16.225999583160707,2.076079333652803,0.2548774054380436,B,645.8806999999069,Correct
7,207,538,B,66.42095079105299,53.09283173037672,3.3210475395526493,0.833980250612153,B,1364.7780999999668,Correct
7,207,539,B,42.72495254953197,26.352276614526172,2.1362476274765982,0.4139405930878076,B,1328.9572000003318,Correct
7,207,540,B,42.78990272303625,31.26945182796316,2.1394951361518126,0.491179400722545,B,1101.130099999864,Correct
7,207,541,B,58.98898897559308,49.536148760373365,2.949449448779654,0.7781120051636005,B,655.0742999997965,Correct
7,207,542,B,77.55330199190445,61.35884604870387,3.877665099595222,0.9638224998967759,B,532.8784000002997,Correct
7,207,543,A,62.56569128033844,78.89168195541728,3.1282845640169223,1.239227642302407,A,923.7888999996358,Correct
7,207,544,B,86.80708727756529,65.1054380776744,4.340354363878265,1.0226738298678355,B,693.4332999999242,Correct
7,207,545,B,72.74428442258213,60.75632624048004,3.6372142211291068,0.9543581408809844,B,863.3999000003314,Correct
7,207,546,B,67.40859461341341,48.47842524499245,3.3704297306706708,0.7614973230363511,B,812.3926999996911,Correct
7,207,547,A,41.5704054001043,52.14783194547633,2.078520270005215,0.8191362287027176,A,724.4073000001663,Correct
7,207,548,A,35.850861212120634,53.7588661057307,1.7925430606060317,0.8444422941154045,A,638.3617000001323,Correct
7,207,549,B,58.23639007938445,37.37561479843727,2.9118195039692227,0.5870947843708625,B,1011.882599999808,Correct
