subject,day,trial,cat,x,y,xt,yt,resp,rt,fb
5,405,0,B,74.76840752117795,56.77246518693111,3.7384203760588974,0.8917797977872253,B,483.46440000022994,Correct
5,405,1,B,56.5843338650519,26.11413960452533,2.8292166932525955,0.4101999456819752,B,390.7942000005278,Correct
5,405,2,B,69.53223317014556,48.00766031649643,3.476611658507278,0.754102564831697,B,328.21899999908055,Correct
5,405,3,B,47.22405148371675,35.780258698130076,2.3612025741858376,0.5620349893479388,B,335.1031000001967,Correct
5,405,4,B,65.44859918446646,43.915830308522,3.272429959223323,0.6898282493677433,B,597.4758000011207,Correct
5,405,5,B,57.8442489794537,30.831044463061538,2.892212448972685,0.48429291393827195,B,460.64430000114953,Correct
5,405,6,B,68.90191318857336,43.17726995458936,3.445095659428668,0.6782269704570063,B,500.3863000001729,Correct
5,405,7,B,68.27338502456321,44.34609608233246,3.4136692512281606,0.6965868483382138,B,410.50170000016806,Correct
5,405,8,B,45.04713410502963,23.004763212538727,2.252356705251481,0.361357975530422,B,411.34729999976116,Correct
5,405,9,B,39.69641065479757,28.155333050990308,1.9848205327398785,0.4422629373618252,B,509.84970000172325,Correct
5,405,10,A,60.41619838510857,75.0519416921524,3.020809919255429,1.1789131432885773,A,638.3865999996488,Correct
5,405,11,A,23.61588414926664,45.131594588622754,1.180794207463332,0.7089254300220506,A,587.9289999993489,Correct
5,405,12,A,39.68051205625326,54.18932724544375,1.9840256028126628,0.8512039618862965,A,1279.53239999988,Correct
5,405,13,B,67.70678888200167,43.74801496821433,3.3853394441000835,0.6871922121663923,B,456.09499999955005,Correct
5,405,14,A,25.547174028879603,41.86612194327867,1.27735870144398,0.6576315056564936,A,537.5010000007023,Correct
5,405,15,B,41.57694806756821,28.97969905940986,2.0788474033784103,0.45521204834142526,B,457.5055000004795,Correct
5,405,16,B,38.1982556847496,12.139584477189242,1.90991278423748,0.19068814705585205,B,624.4272999992972,Correct
5,405,17,A,56.0175604975757,68.38480177051292,2.800878024878785,1.0741859542971883,A,875.4895000001852,Correct
5,405,18,B,56.9986861115227,48.45412853548371,2.8499343055761353,0.7611156712158559,B,587.5173999993422,Correct
5,405,19,B,42.7281235172561,31.915599801055706,2.1364061758628052,0.5013290693495424,B,660.0803000001179,Correct
5,405,20,A,54.24469268232731,69.85062953862828,2.7122346341163652,1.097211123035884,A,924.3942000011884,Correct
5,405,21,A,56.248241197064196,76.56867482247442,2.8124120598532096,1.2027379315869569,A,793.612800000119,Correct
5,405,22,A,27.733689405874046,58.472016940553765,1.3866844702937022,0.9184762943051084,A,539.3258000003698,Correct
5,405,23,B,70.71865529153256,38.97207550735468,3.535932764576628,0.612171930545261,B,468.96170000036363,Correct
5,405,24,A,35.76834210360387,60.22644064633844,1.7884171051801934,0.9460347174319927,A,623.7445000006119,Correct
5,405,25,B,55.86522612483405,27.7542686416523,2.793261306241703,0.4359630323518622,B,487.2252999994089,Correct
5,405,26,A,54.13197456328749,80.1877722239274,2.7065987281643746,1.2595865806321098,A,579.4126999990112,Correct
5,405,27,A,30.210629340276476,44.534358925469824,1.510531467013824,0.6995440741629351,A,543.8243000007787,Correct
5,405,28,A,39.22847878048748,70.3224814348193,1.961423939024374,1.1046229552891647,A,899.9786000003951,Correct
5,405,29,A,43.46158319526962,62.59458791295184,2.1730791597634807,0.9832334877090498,A,552.6802999993379,Correct
5,405,30,B,67.16929390315273,42.148257936819654,3.3584646951576365,0.6620632874796015,B,453.4216000010929,Correct
5,405,31,A,64.07866531803886,88.47817420450681,3.2039332659019433,1.3898119104195827,A,545.2545999996801,Correct
5,405,32,B,81.01981432607987,58.47605314591577,4.0509907163039935,0.9185396948706765,B,512.7217000008386,Correct
5,405,33,A,19.60929085641526,47.37363900010847,0.980464542820763,0.7441433812827783,A,520.4798999984632,Correct
5,405,34,A,62.23044924461009,75.70129274427597,3.1115224622305044,1.1891131257633385,A,770.9660999989865,Correct
5,405,35,A,42.64333881011594,66.99893344038847,2.132166940505797,1.0524167854733797,A,641.8727000000217,Correct
5,405,36,B,57.068637378119064,25.14307626665405,2.8534318689059535,0.39494651843984124,B,441.8922000004386,Correct
5,405,37,A,23.92597173034962,40.359220311458515,1.1962985865174809,0.6339611501754502,A,529.0861000012228,Correct
5,405,38,B,79.34553230511945,57.33265670380712,3.9672766152559724,0.9005792655573301,B,490.47409999911906,Correct
5,405,39,A,19.53917649566602,48.608587231601675,0.9769588247833011,0.7635419027408921,A,514.223199999833,Correct
5,405,40,A,45.31111334690659,69.38306480313386,2.265555667345329,1.0898666333453495,A,849.4217000006756,Correct
5,405,41,B,69.09431663219085,36.2183913883377,3.4547158316095423,0.5689171615522077,B,523.1083999988186,Correct
5,405,42,B,54.66047489076416,46.54782789862528,2.7330237445382077,0.7311715708344161,B,1998.4076000000641,Correct
5,405,43,A,45.04597748974223,60.92149647688743,2.2522988744871113,0.95695262888743,B,622.432199999821,Incorrect
5,405,44,B,43.52510859363363,19.71646052417441,2.1762554296816816,0.3097054376876974,B,510.1946999984648,Correct
5,405,45,A,57.54050265390755,70.3632911883599,2.8770251326953775,1.1052639933987543,A,897.7706000005128,Correct
5,405,46,B,77.22288615797957,54.97812619817124,3.8611443078989787,0.8635943868615364,B,581.119000000399,Correct
5,405,47,B,84.40038333100483,64.6382484035187,4.220019166550242,1.0153352316270325,B,461.1055999994278,Correct
5,405,48,A,27.89029299023467,43.90942370208804,1.3945146495117335,0.6897276146292066,A,422.5188000000344,Correct
5,405,49,B,64.88378052423147,55.13834995276979,3.244189026211574,0.8661111757134234,B,450.6816000011895,Correct
5,405,50,A,38.034308032995376,55.14141968956874,1.9017154016497688,0.8661593950263037,A,1217.6204999996116,Correct
5,405,51,A,44.250302128654,56.31706717190124,2.2125151064326998,0.8846264224948392,A,577.0804999992833,Correct
5,405,52,B,49.14260905256415,19.38014997728953,2.4571304526282076,0.30442268397060596,B,608.2860000005894,Correct
5,405,53,B,43.7121889110377,26.527125842415163,2.1856094455518846,0.41668711833691713,B,425.67630000121426,Correct
5,405,54,B,38.378253751500964,12.442729178498215,1.918912687575048,0.19544993288888676,B,560.023000000001,Correct
5,405,55,A,67.58436252865721,80.46771480696495,3.3792181264328605,1.2639839084435986,A,842.523400000573,Correct
5,405,56,B,73.94521424508147,60.94018543229636,3.697260712254074,0.9572461943125098,B,594.814199999746,Correct
5,405,57,B,46.977185216014426,23.14282853512831,2.348859260800721,0.36352670054623665,B,418.88440000002447,Correct
5,405,58,B,43.83718835187308,31.691467042068467,2.191859417593654,0.4978084002042267,B,407.53330000006827,Correct
5,405,59,B,39.567990585038686,19.003014275482002,1.978399529251934,0.2984986502195811,B,461.8895000003249,Correct
5,405,60,A,44.965576674426565,52.03867955590053,2.248278833721328,0.8174216669766523,A,882.0643999988533,Correct
5,405,61,A,55.22778708505365,83.02254785499744,2.7613893542526826,1.304115132117835,A,626.0869999987335,Correct
5,405,62,A,32.659193064557655,65.43733407157282,1.6329596532278827,1.0278872399487713,A,494.78630000157864,Correct
5,405,63,B,71.44500740134674,47.03773356669743,3.572250370067337,0.7388669910732535,B,481.841800001348,Correct
5,405,64,A,55.113845071490715,78.34936444164644,2.7556922535745354,1.2307089387165293,A,548.0492000006052,Correct
5,405,65,A,56.21750491176719,79.42323176827485,2.8108752455883597,1.2475772072378586,A,1058.9507999993657,Correct
5,405,66,B,45.90452567774767,34.80175227964813,2.2952262838873834,0.546664646468972,B,948.649199999636,Correct
5,405,67,A,35.92348305948856,61.43682748562371,1.796174152974428,0.9650474294434946,A,760.2334000002884,Correct
5,405,68,B,46.59711336587558,30.839334676793804,2.3298556682937788,0.4844231363110618,B,467.27069999906234,Correct
5,405,69,B,42.981780517520725,15.353504042027502,2.149089025876036,0.241172277526474,B,466.4860000011686,Correct
5,405,70,A,25.712105546210992,46.50446247741033,1.2856052773105495,0.7304903883908724,A,614.6167999995669,Correct
5,405,71,A,38.20251621570738,51.821533787740115,1.9101258107853687,0.814010749226598,A,801.7103999991377,Correct
5,405,72,B,72.77052765431846,46.91801522334492,3.638526382715923,0.7369864597333724,B,465.1086000012583,Correct
5,405,73,B,78.53817074150972,65.2766295837558,3.9269085370754855,1.025362899757147,A,1004.2250000005879,Incorrect
5,405,74,A,33.99684061034464,53.209824383020674,1.699842030517232,0.8358179669025039,A,539.3964000013511,Correct
5,405,75,B,37.34430330850792,26.510528099975758,1.8672151654253957,0.4164264016083481,B,480.67040000023553,Correct
5,405,76,B,61.07267147903161,39.99313142143486,3.0536335739515805,0.6282106393381545,B,371.7011000007915,Correct
5,405,77,A,14.707955189053433,39.050167647487044,0.7353977594526717,0.6133985990139756,A,519.3204000006517,Correct
5,405,78,B,49.85890518916523,40.50508108556891,2.4929452594582613,0.6362523258574109,B,514.1509000004589,Correct
5,405,79,B,54.676595635078726,32.31192158787816,2.7338297817539363,0.5075544774192373,B,532.5721000008343,Correct
5,405,80,B,66.66555561041467,43.111825541896344,3.3332777805207336,0.6771989720263317,B,430.288899999141,Correct
5,405,81,A,27.226603824499655,42.52741035874793,1.3613301912249827,0.6680189997962048,A,408.7700000000041,Correct
5,405,82,B,51.81378752020275,44.012089004707455,2.590689376010138,0.6913402774316452,B,489.0414999990753,Correct
5,405,83,A,41.44267698897721,64.75783044490979,2.0721338494488606,1.0172136219407102,A,590.0226000012481,Correct
5,405,84,B,60.14569198000136,32.58508418321414,3.0072845990000676,0.5118453054329526,B,419.3056999993132,Correct
5,405,85,B,65.64656583124975,42.31311976121384,3.282328291562487,0.6646529309614725,B,434.5009000007849,Correct
5,405,86,A,46.50900876015467,54.45898810848599,2.3254504380077337,0.8554397848177674,B,574.9084999988554,Incorrect
5,405,87,A,47.765646618985095,58.32006611115718,2.388282330949255,0.9160894562584123,A,639.7510999995575,Correct
5,405,88,A,43.31262014409678,63.5812243399494,2.1656310072048393,0.998731536463148,A,504.1006000010384,Correct
5,405,89,B,82.00462426074647,57.8234749267522,4.100231213037324,0.9082890201745915,B,618.8559999991412,Correct
5,405,90,A,56.9398886896161,78.25340708021625,2.846994434480805,1.2292016440078943,A,444.48240000019723,Correct
5,405,91,B,85.88450787812135,59.07334950675018,4.294225393906068,0.9279220041667429,B,509.60760000089067,Correct
5,405,92,B,76.7509475527269,47.28479533648549,3.8375473776363447,0.7427478282779986,B,384.65990000077,Correct
5,405,93,B,40.30150278643056,16.856251753211385,2.015075139321528,0.26477738337474477,B,490.34430000028806,Correct
5,405,94,A,32.37445302639306,45.57293656332679,1.6187226513196533,0.7158580135493057,B,493.95040000126755,Incorrect
5,405,95,B,61.287926227788674,51.40258460664561,3.0643963113894337,0.8074299108788281,B,1188.5679999995773,Correct
5,405,96,B,83.98434030970985,55.80608661630719,4.199217015485493,0.8765999586969317,B,475.771800000075,Correct
5,405,97,A,29.23390946270865,54.494631719981214,1.4616954731354324,0.8559996733578715,A,579.7959999999875,Correct
5,405,98,A,34.25207828939343,46.45612585615624,1.7126039144696716,0.7297311185197163,A,700.6257000011828,Correct
5,405,99,A,23.162634540393036,38.01718320472744,1.1581317270196518,0.597172517330745,A,464.5022999993671,Correct
5,405,100,B,55.48641309074492,25.69305250549069,2.774320654537246,0.4035855249977319,B,566.0286000002088,Correct
5,405,101,B,49.439937452307554,32.288120439064464,2.4719968726153776,0.5071806098479369,B,379.8475999992661,Correct
5,405,102,A,25.42608238696049,50.538086379580406,1.2713041193480246,0.7938504044828808,A,476.4354999988427,Correct
5,405,103,B,49.969377615233824,19.42363656962574,2.4984688807616915,0.3051057697656714,B,519.4764999996551,Correct
5,405,104,A,47.4650077395157,61.118830310663014,2.373250386975785,0.9600523414999005,A,544.3292999989353,Correct
5,405,105,B,62.92905247784832,35.00524328947215,3.1464526238924164,0.5498610757766456,B,390.67509999949834,Correct
5,405,106,A,19.069372744897244,44.03039210078614,0.9534686372448621,0.6916277817925389,A,423.2155000008788,Correct
5,405,107,A,47.6210054330517,57.67446599365561,2.381050271652585,0.905948393326914,A,568.3568000004016,Correct
5,405,108,A,18.54517237485317,42.73188349307101,0.9272586187426585,0.6712308562794341,A,433.21429999923566,Correct
5,405,109,A,56.5722421162227,74.06639408946407,2.8286121058111346,1.1634321977467341,A,691.4128999997047,Correct
5,405,110,B,44.14467893946245,18.391949473448005,2.2072339469731226,0.28890006675489455,B,408.958399999392,Correct
5,405,111,B,62.07272427685119,34.25713348244018,3.1036362138425595,0.538109794407395,B,374.7665999999299,Correct
5,405,112,A,63.8373164375306,86.49636155482636,3.1918658218765303,1.3586816701144455,A,498.65760000102455,Correct
5,405,113,B,59.716677406147824,43.24127799984568,2.985833870307391,0.6792324064807457,B,404.87990000110585,Correct
5,405,114,A,14.970797852277464,41.90291588395163,0.7485398926138731,0.6582094635250674,A,377.30569999985164,Correct
5,405,115,B,49.25402934648504,41.29272581723566,2.4627014673242518,0.6486246203706257,B,440.24439999884635,Correct
5,405,116,A,49.584625488783814,60.70608420363796,2.479231274439191,0.9535689408117619,A,528.5116000013659,Correct
5,405,117,B,51.02258924510104,33.20930358382089,2.551129462255052,0.5216505208488245,B,609.6550000002026,Correct
5,405,118,B,52.24193605749082,30.090592816374784,2.612096802874541,0.4726619266704241,B,711.1853999995219,Correct
5,405,119,B,55.38042742691026,40.50120122551851,2.769021371345513,0.6361913811582544,B,393.1111999991117,Correct
5,405,120,B,75.68348809115649,56.12272307859698,3.7841744045578247,0.8815736726158729,B,457.6887000002898,Correct
5,405,121,A,60.17278452263875,87.02920903556819,3.0086392261319372,1.3670516187693573,A,548.4696999992593,Correct
5,405,122,A,43.77450424835681,73.02663353116101,2.1887252124178405,1.1470996770894475,A,399.5102000008046,Correct
5,405,123,B,37.03263613083844,19.438643436104176,1.8516318065419222,0.30534149707308167,B,567.7746999990632,Correct
5,405,124,A,51.50621201638725,60.507005461388886,2.5753106008193627,0.9504418192410841,B,824.0802000000258,Incorrect
5,405,125,A,32.332619749572046,46.19355653398024,1.6166309874786022,0.7256066892516856,A,600.9708999990835,Correct
5,405,126,A,53.577432460017874,69.24601802948274,2.6788716230008935,1.0877139076588467,A,757.6286000003165,Correct
5,405,127,B,33.16995031607165,14.82529338191026,1.6584975158035826,0.23287516387961327,B,755.1640999990923,Correct
5,405,128,B,34.200416988627474,14.733762162133381,1.7100208494313736,0.23143739484148745,B,551.9138999989082,Correct
5,405,129,A,38.63880196414207,52.42084040310226,1.9319400982071033,0.8234246355269454,A,599.8933000009856,Correct
5,405,130,A,63.03765570465943,88.63147007443177,3.151882785232971,1.3922198763134923,A,580.0529000007373,Correct
5,405,131,A,16.028588065774855,45.62548040793116,0.8014294032887428,0.7166833703303077,A,441.5721000004851,Correct
5,405,132,A,41.339644985962906,56.231011781377966,2.066982249298145,0.8832746675814906,B,542.5921999994898,Incorrect
5,405,133,B,65.93192580205483,45.476648318575826,3.2965962901027415,0.7143455213376222,B,473.0693000001338,Correct
5,405,134,A,19.075667743548063,43.87444530190885,0.9537833871774032,0.6891781752040204,A,438.07120000019495,Correct
5,405,135,B,71.50943774377981,59.75546950392392,3.5754718871889906,0.9386367200266813,B,524.1093999993609,Correct
5,405,136,B,67.11268269924113,58.806378693689126,3.355634134962057,0.9237284364415654,B,388.7250999996468,Correct
5,405,137,B,44.43441204648782,33.729314011426155,2.2217206023243907,0.5298188255445985,B,358.6432000010973,Correct
5,405,138,A,57.63940533012692,74.84464106588469,2.881970266506346,1.1756568726657415,B,367.73920000086946,Incorrect
5,405,139,A,44.95375492312988,56.494096305769325,2.247687746156494,0.8874071896269959,B,399.2542999985744,Incorrect
5,405,140,A,26.77164229855307,51.02032480767377,1.3385821149276536,0.801425387997765,A,455.8316000002378,Correct
5,405,141,A,64.05175527213264,82.61303478192414,3.202587763606632,1.2976825158082546,A,693.3356000008644,Correct
5,405,142,B,43.124477158243764,18.25508514169007,2.156223857912188,0.2867502068589486,B,431.83679999856395,Correct
5,405,143,B,52.08432940430873,28.966455536704977,2.6042164702154365,0.45500401957323866,B,365.1036999999633,Correct
5,405,144,B,74.88430625586038,60.820590427561214,3.744215312793019,0.9553676003710999,B,628.2901000013226,Correct
5,405,145,B,71.78841609317385,38.90602349028392,3.5894208046586926,0.6111343878873394,B,405.1387999988947,Correct
5,405,146,B,83.8910817059837,57.71586210554035,4.194554085299185,0.9065986419318356,B,500.0436999998783,Correct
5,405,147,A,48.433629927927456,66.50914271531092,2.421681496396373,1.0447231707548794,A,591.6729000000487,Correct
5,405,148,A,52.30623145785093,78.58917004219639,2.615311572892546,1.2344757962814161,A,473.6134000013408,Correct
5,405,149,B,79.55061526122358,63.242988526880644,3.9775307630611794,0.9934185407355591,B,454.84440000109316,Correct
5,405,150,A,34.48974537240806,48.30052310363439,1.7244872686204031,0.7587028427346093,A,408.52930000073684,Correct
5,405,151,B,79.96279370467053,58.389088827058195,3.9981396852335265,0.9171736625444395,B,474.49520000009215,Correct
5,405,152,A,43.536816159125856,58.735161742337105,2.176840807956293,0.9226097631856727,A,432.01070000031905,Correct
5,405,153,A,46.97139938487658,63.9732259060515,2.3485699692438287,1.004889082664458,A,468.702399999529,Correct
5,405,154,A,59.395017765066996,79.68103010091743,2.96975088825335,1.2516266939775467,A,403.06629999940924,Correct
5,405,155,A,42.182433961092016,69.49334587358827,2.109121698054601,1.0915989243491973,A,467.6834999991115,Correct
5,405,156,B,42.64081441196331,30.728656229417574,2.1320407205981655,0.48268460332512236,B,433.7353000009898,Correct
5,405,157,A,17.09666195120658,45.571822113347494,0.8548330975603291,0.7158405078099667,A,380.52520000019285,Correct
5,405,158,A,60.945192827509274,86.69556527904336,3.047259641375464,1.3618107548972849,A,447.82589999886113,Correct
5,405,159,B,70.38191523476597,44.431971977059135,3.5190957617382987,0.6979357837381827,B,429.9191999998584,Correct
5,405,160,B,75.46218374518148,62.03480853326004,3.7731091872590743,0.9744404937746959,B,708.3333999999013,Correct
5,405,161,B,60.3329843347122,38.62421411511822,3.01664921673561,0.6067077365736729,B,530.0655999999435,Correct
5,405,162,A,36.37874580101121,58.67078171978936,1.8189372900505605,0.921598484156303,A,496.447999999873,Correct
5,405,163,B,58.23504572598082,49.56082499228301,2.911752286299041,0.7784996185080285,B,505.27859999965585,Correct
5,405,164,A,40.710379858625224,54.052250079104084,2.0355189929312614,0.8490507587925585,A,637.9897000006167,Correct
5,405,165,B,84.1752793579527,57.581000195146586,4.208763967897635,0.9044802359971248,B,406.84259999943606,Correct
5,405,166,B,45.56773879943715,38.15685544507819,2.278386939971858,0.5993664837517269,A,440.2505999987625,Incorrect
5,405,167,A,19.51727398711501,34.09241924459592,0.9758636993557505,0.5355224692096292,A,462.03760000025795,Correct
5,405,168,B,70.3664380216662,37.2085958011876,3.51832190108331,0.584471256097015,B,844.4339000016043,Correct
5,405,169,B,80.82156426893928,67.37307599763378,4.041078213446964,1.0582938030195654,B,433.93529999957536,Correct
5,405,170,A,64.74010332230418,88.52304663879666,3.237005166115209,1.3905167649691512,A,565.0022999998328,Correct
5,405,171,B,43.99468096264188,23.811242237716176,2.199734048132094,0.37402611843428063,B,535.7717000006232,Correct
5,405,172,A,21.73020970033578,53.269781459470686,1.086510485016789,0.8367597704570343,A,471.53090000028897,Correct
5,405,173,A,13.83778492886303,35.02669920403136,0.6918892464431515,0.5501981044944219,A,440.3372999986459,Correct
5,405,174,A,22.494127718868032,48.36646895441189,1.1247063859434017,0.759738717736296,A,423.55289999977686,Correct
5,405,175,A,53.63703990027857,67.59308638007619,2.6818519950139286,1.0617497180255382,A,517.353400000502,Correct
5,405,176,A,59.924299195986336,70.95923592044042,2.996214959799317,1.1146250713600028,A,640.9475000000384,Correct
5,405,177,B,59.367335515644406,30.11246645620827,2.9683667757822203,0.4730055170014649,B,468.2954999989306,Correct
5,405,178,B,35.37091621519774,20.22170057356845,1.7685458107598868,0.31764172982507577,B,488.7041000001773,Correct
5,405,179,B,72.99958799809538,58.840080916660824,3.649979399904769,0.9242578297220531,A,502.51420000131475,Incorrect
5,405,180,A,14.977023382492611,39.979148837959784,0.7488511691246305,0.6279910014305368,A,445.69219999903,Correct
5,405,181,B,77.04201603637779,57.69193829697396,3.8521008018188896,0.9062228476256451,B,955.5144000005384,Correct
5,405,182,A,51.14665319317121,70.0286623727023,2.5573326596585604,1.1000076562540075,A,603.0052000005526,Correct
5,405,183,B,80.76510591618245,65.59680615103163,4.0382552958091225,1.0303922215151735,B,527.7268000008917,Correct
5,405,184,A,58.86603852311601,80.27272985559134,2.943301926155801,1.260921091989619,A,592.0190999986517,Correct
5,405,185,B,78.56371716061884,59.37814721879581,3.9281858580309414,0.9327097554317106,B,707.3216999997385,Correct
5,405,186,A,57.52095047376051,69.36178743340227,2.8760475236880256,1.089532409203167,B,766.6619999999966,Incorrect
5,405,187,B,48.71557413143379,37.97918201301919,2.4357787065716896,0.5965755960072535,B,517.2837000009167,Correct
5,405,188,B,46.635979703836284,19.17596604396166,2.3317989851918144,0.30121537024598644,B,578.8199999988137,Correct
5,405,189,B,65.29461703019234,37.719212088287804,3.264730851509617,0.5924919979788015,B,485.8594000015728,Correct
5,405,190,B,68.94338213703222,47.97529756054813,3.4471691068516113,0.7535942118500115,B,475.9532999996736,Correct
5,405,191,A,49.93286818039134,76.78753667356294,2.496643409019567,1.2061758055046108,A,441.2198999998509,Correct
5,405,192,B,76.04554733093303,58.02475186495606,3.8022773665466514,0.9114506709265832,B,498.6300000000483,Correct
5,405,193,B,61.13489948421367,29.690382592122404,3.0567449742106834,0.4663754391684101,B,369.23899999965215,Correct
5,405,194,A,30.508139110134543,44.68655517450726,1.5254069555067273,0.7019347672523348,A,432.9612999990786,Correct
5,405,195,A,65.73176861684315,83.00056301785291,3.286588430842158,1.3037697951035168,A,555.2068999986659,Correct
5,405,196,B,50.0533155873661,27.514187575690293,2.5026657793683054,0.4321918477864009,B,520.2074999997421,Correct
5,405,197,B,51.7517762133355,43.62561908106706,2.5875888106667753,0.6852696220669349,B,687.3759999998583,Correct
5,405,198,A,40.177661675317076,72.09829152201102,2.008883083765854,1.1325173149096257,A,463.9167000004818,Correct
5,405,199,A,28.498622500471797,40.76158443046762,1.4249311250235899,0.6402814709771858,A,524.079900000288,Correct
5,405,200,B,77.95711532459575,62.89973200831286,3.8978557662297875,0.9880266799504123,B,424.2702999999892,Correct
5,405,201,B,41.23428516915749,14.207527804070335,2.0617142584578745,0.22317132487470046,B,609.0810999994574,Correct
5,405,202,B,39.24275301461727,16.288179288270697,1.9621376507308637,0.25585412196192325,B,688.2812000003469,Correct
5,405,203,B,44.96414784795604,26.338582642124848,2.248207392397802,0.41372548867233533,A,450.48989999850164,Incorrect
5,405,204,B,59.3437792509534,45.222788808051426,2.96718896254767,0.7103579054710855,B,587.3482000006334,Correct
5,405,205,A,46.16545944312361,55.080108240921746,2.3082729721561805,0.8651963170430518,B,582.9570999994758,Incorrect
5,405,206,A,49.53700821152107,58.456455229649855,2.476850410576054,0.9182318515218432,A,600.9367000006023,Correct
5,405,207,B,43.36474512434229,35.065331547528515,2.1682372562171146,0.5508049399270301,B,795.1582000005146,Correct
5,405,208,B,71.26123960564263,47.490091634174775,3.5630619802821313,0.7459726149811478,B,493.6400999995385,Correct
5,405,209,A,15.541078020030042,32.48743032727808,0.7770539010015021,0.5103113622509352,A,583.824100000129,Correct
5,405,210,A,44.27030299407439,56.53960517181349,2.2135151497037198,0.8881220412231837,A,645.6499000014446,Correct
5,405,211,B,84.13237187566546,65.93898191027615,4.206618593783273,1.035767105772569,B,454.4635999991442,Correct
5,405,212,B,45.829198296488805,26.589883973829934,2.2914599148244403,0.4176729207599455,B,458.3868000008806,Correct
5,405,213,A,21.327491969992135,41.20930222497353,1.0663745984996067,0.6473142056476918,A,803.7858000006963,Correct
5,405,214,B,60.124027378968805,44.96438519865179,3.00620136894844,0.7062989110663305,B,433.58079999961774,Correct
5,405,215,A,26.7763068021764,58.58255027200853,1.33881534010882,0.9202125478154838,A,556.9206000000122,Correct
5,405,216,A,15.005204083505134,35.2508670724447,0.7502602041752567,0.553719325137313,A,451.29590000033204,Correct
5,405,217,A,30.551467826913488,42.66554556564687,1.5275733913456744,0.670188822552184,B,498.9981999988231,Incorrect
5,405,218,A,24.127316455321257,48.97206145293045,1.2063658227660627,0.7692513424583709,A,476.4173000003211,Correct
5,405,219,B,59.73013850995522,27.64986974929801,2.9865069254977605,0.43432313838554637,B,363.8881999995647,Correct
5,405,220,A,33.357337600755024,46.24085212757881,1.6678668800377512,0.7263496066986678,A,456.04139999886684,Correct
5,405,221,B,70.25737866983013,58.48218961914735,3.5128689334915064,0.9186360863667927,B,485.84459999983665,Correct
5,405,222,A,28.089691636882026,42.80527836788335,1.4044845818441012,0.6723837402770421,A,661.3155999984883,Correct
5,405,223,B,48.31882713968233,28.67468314853339,2.415941356984116,0.4504208696172377,B,531.9103000001633,Correct
5,405,224,A,10.617609321074596,34.83656526382044,0.5308804660537298,0.5472114875455983,A,438.17940000008093,Correct
5,405,225,A,66.48204338862237,79.06541317359456,3.324102169431119,1.2419566058960316,A,598.7418999993679,Correct
5,405,226,B,50.85417772971272,33.4247725073534,2.5427088864856358,0.5250350987850577,B,441.5313999998034,Correct
5,405,227,A,36.73750201717035,56.967189413238145,1.8368751008585176,0.8948385187814358,A,510.7817000007344,Correct
5,405,228,A,41.09781593020077,69.85902126799994,2.0548907965100383,1.0973429400126085,A,471.0944999987987,Correct
5,405,229,A,16.52604162138488,32.846901635513646,0.826302081069244,0.5159579243565812,A,506.67239999893354,Correct
5,405,230,B,48.673938850359235,22.548578939163352,2.4336969425179618,0.3541922497208255,B,452.06860000143934,Correct
5,405,231,B,68.09277665357247,57.91147757783984,3.404638832678623,0.9096713625853583,A,530.7266999989224,Incorrect
5,405,232,B,48.911754241937025,23.903459532614956,2.445587712096851,0.3754746643152203,B,423.11659999904805,Correct
5,405,233,B,45.94985605377117,35.366988810065735,2.2974928026885584,0.5555433611264747,B,342.36869999949704,Correct
5,405,234,B,43.04156058649621,19.259384013820736,2.1520780293248105,0.30252569665241963,B,468.67680000104883,Correct
5,405,235,A,14.732869459217579,32.51965590585904,0.736643472960879,0.5108175604555735,A,391.72659999894677,Correct
5,405,236,A,41.33615964884589,63.81742881481298,2.0668079824422945,1.00244182767803,A,454.90670000071987,Correct
5,405,237,A,68.73229957120543,88.21794283996914,3.4366149785602715,1.3857242057042567,A,518.3885999995255,Correct
5,405,238,B,86.08100493514326,65.65666852682018,4.304050246757162,1.0313325375151925,B,530.8124999992287,Correct
5,405,239,A,27.517894174655382,40.69508914355552,1.3758947087327693,0.6392369654528789,A,697.4432000006345,Correct
5,405,240,A,43.81995018837774,60.510384859990964,2.190997509418887,0.9504949027101932,A,499.6642000005522,Correct
5,405,241,B,70.99766139814449,60.28042872599889,3.5498830699072244,0.9468827602042063,B,420.51639999954205,Correct
5,405,242,B,60.84850421598355,49.86791280490437,3.042425210799178,0.7833233425887199,B,1070.20410000041,Correct
5,405,243,A,40.842158473634676,61.340629976297365,2.042107923681734,0.9635363625005281,A,550.7357999995293,Correct
5,405,244,B,35.95135616112489,15.2036342030183,1.7975678080562445,0.238818127600344,B,547.4845000007917,Correct
5,405,245,B,87.6820291577805,67.94496801875727,4.384101457889026,1.0672770618806062,B,466.11250000023574,Correct
5,405,246,B,59.90878959595695,52.74856701073827,2.995439479797847,0.8285725530416213,B,776.7595999994228,Correct
5,405,247,B,56.63736162560654,47.5637594631341,2.831868081280327,0.7471297865324705,B,441.0416999999143,Correct
5,405,248,B,73.01147663557474,58.52942363437687,3.650573831778737,0.9193780365430159,B,459.2553999991651,Correct
5,405,249,B,71.96464791166677,54.78964509729867,3.5982323955833384,0.8606337326523277,B,342.6086999988911,Correct
5,405,250,B,71.88261439621274,46.44134769965711,3.594130719810637,0.72949898378026,B,434.72019999899203,Correct
5,405,251,B,38.15523772080327,23.024801748425975,1.9077618860401635,0.3616727401160823,B,508.155399998941,Correct
5,405,252,A,20.884525652696887,34.33542047079624,1.0442262826348443,0.5393395235448503,A,421.7910999996093,Correct
5,405,253,A,58.80920707120306,73.81250551783315,2.940460353560153,1.1594441253894034,A,518.1038000009721,Correct
5,405,254,B,37.58304666055534,13.565371101407173,1.879152333027767,0.21308435097700026,B,474.831899999117,Correct
5,405,255,B,68.3001879272641,36.66389555345277,3.4150093963632053,0.5759151246135534,B,449.7188000004826,Correct
5,405,256,A,40.76420096878736,69.54609551407978,2.038210048439368,1.0924275137644357,A,431.0092000014265,Correct
5,405,257,A,48.32471699051681,75.14650170704797,2.4162358495258407,1.1803984885291738,A,415.03089999969234,Correct
5,405,258,B,76.76967462070017,61.56660624017441,3.8384837310350086,0.9670859893529371,B,417.22569999910775,Correct
5,405,259,B,54.94445425041768,45.33812808520612,2.747222712520884,0.7121696505999833,B,377.77660000028845,Correct
5,405,260,A,43.56443804893942,51.33960479151313,2.178221902446971,0.806440626256105,B,532.3636000011902,Incorrect
5,405,261,A,19.285372656535134,36.62240293782851,0.9642686328267567,0.5752633601314365,A,439.35009999950125,Correct
5,405,262,A,29.118797265791358,40.350716045016,1.455939863289568,0.6338275654705504,A,394.3908000001102,Correct
5,405,263,B,65.79769682654387,55.05702525014042,3.2898848413271935,0.8648337302717445,B,543.3745999998791,Correct
5,405,264,A,20.42524570087342,46.12839909172898,1.021262285043671,0.7245831985421692,A,432.4809000008827,Correct
5,405,265,B,68.83035684756148,45.077088541465,3.4415178423780737,0.7080692510354154,B,440.48769999972137,Correct
5,405,266,A,32.43654172917646,63.13326682087952,1.6218270864588231,0.9916950362079967,A,411.02610000052664,Correct
5,405,267,A,68.31508941358268,81.66343431294729,3.415754470679134,1.282766226522339,A,508.12299999961397,Correct
5,405,268,B,81.76087856334777,68.09279271582919,4.088043928167389,1.0695990867923078,B,488.8637000003655,Correct
5,405,269,B,45.808177648988156,21.768706519606994,2.290408882449408,0.3419420424007478,B,456.5760000004957,Correct
5,405,270,B,42.96818598678435,25.23325051752155,2.1484092993392174,0.39636297226018274,B,520.3046000005997,Correct
5,405,271,A,28.456800523333946,55.655516174433195,1.4228400261666974,0.8742348037267362,A,387.3875000008411,Correct
5,405,272,A,42.02353644379889,74.53610547416616,2.1011768221899443,1.170810406924172,A,450.55499999944004,Correct
5,405,273,A,27.367593062456088,57.599876058502666,1.3683796531228043,0.904776737365373,A,408.3362000001216,Correct
5,405,274,A,32.901504612963244,54.68643626987869,1.6450752306481622,0.8590125321822865,A,400.1167999995232,Correct
5,405,275,A,44.52880120101196,66.6551631686772,2.226440060050598,1.0470168546727263,A,372.526299999663,Correct
5,405,276,B,58.261002002923405,45.36532982099876,2.9130501001461706,0.7125969344666383,B,413.3636000005936,Correct
5,405,277,B,42.37551966515179,28.690085894851045,2.1187759832575894,0.4506628153906209,B,467.97260000130336,Correct
5,405,278,B,75.24960061359047,64.54777972245203,3.762480030679524,1.0139141529079376,B,423.86810000061814,Correct
5,405,279,A,22.556802882269615,36.023431714893405,1.1278401441134807,0.5658547421630135,A,463.35369999906106,Correct
5,405,280,B,65.90866582902652,49.72103198040452,3.295433291451326,0.7810161439927098,B,462.83219999895664,Correct
5,405,281,A,62.81096305777816,74.38670967043063,3.1405481528889077,1.1684637031267084,A,494.27810000088357,Correct
5,405,282,A,22.162456267022637,37.807888955918656,1.1081228133511318,0.5938849309582637,A,383.15030000012484,Correct
5,405,283,B,47.466450834758795,22.45038117872054,2.3733225417379398,0.352649762906795,B,386.74920000084967,Correct
5,405,284,B,46.139453325015126,21.281634774451444,2.3069726662507564,0.33429113731898863,B,525.5065000001196,Correct
5,405,285,B,84.81070731125746,58.486020657529195,4.240535365562874,0.9186962641769729,B,573.5088000001269,Correct
5,405,286,A,26.783442880400642,52.08456878519114,1.339172144020032,0.8181424933047436,A,552.5780999996641,Correct
5,405,287,B,56.16056920147995,25.15008376591482,2.8080284600739973,0.3950565919808296,B,382.94070000119973,Correct
5,405,288,B,72.21573817915936,40.50547001093081,3.610786908957968,0.6362584350827095,B,412.20830000020214,Correct
5,405,289,B,54.74198479443082,46.0996043394198,2.737099239721541,0.7241308916305869,B,446.1386000002676,Correct
5,405,290,B,67.91688376553195,58.59340103973942,3.3958441882765977,0.9203829912764294,B,389.3463000003976,Correct
5,405,291,B,50.445908536641895,32.360159592418775,2.5222954268320947,0.5083121982226805,B,329.4865999996546,Correct
5,405,292,B,64.65518747025834,33.63282802729644,3.232759373512917,0.5283032272500169,B,329.2169999986072,Correct
5,405,293,B,46.45246907720051,27.541899943249938,2.3226234538600257,0.43262715263809576,B,385.7905999993818,Correct
5,405,294,B,82.16767270724904,64.79151238347136,4.108383635362452,1.0177426965944285,B,332.85069999874395,Correct
5,405,295,B,62.509996285980854,51.99655718268132,3.125499814299043,0.816760010285366,B,427.4955000000773,Correct
5,405,296,A,55.55651693463983,80.88756360093505,2.7778258467319916,1.2705788778773737,B,429.4370000006893,Incorrect
5,405,297,A,32.75090973235762,44.74705955039685,1.6375454866178811,0.7028851677663586,A,491.5172999990318,Correct
5,405,298,A,25.371116512556732,39.77334513939374,1.2685558256278366,0.6247582444930534,A,473.8287999989552,Correct
5,405,299,A,44.81595581246374,52.15780908833587,2.240797790623187,0.8192929492962744,B,379.564400000163,Incorrect
5,405,300,A,56.51401310806716,79.73924378704099,2.825700655403358,1.2525411124208676,A,513.3647000002384,Correct
5,405,301,B,39.56334177664614,15.131010271304962,1.978167088832307,0.23767735354861688,B,468.95299999960116,Correct
5,405,302,A,31.30816826645424,61.572419399374574,1.5654084133227117,0.9671773022441242,A,475.57380000034755,Correct
5,405,303,B,61.157262413565775,41.442065127904876,3.057863120678289,0.6509704367770784,B,444.9700000004668,Correct
5,405,304,B,68.34591827925878,52.47342195171612,3.4172959139629393,0.8242505845611438,B,371.351700001469,Correct
5,405,305,A,54.60134818597619,67.52192235587958,2.7300674092988095,1.0606318761474587,A,428.18199999965145,Correct
5,405,306,A,20.44996624626547,52.021291575432485,1.0224983123132734,0.8171485372181564,A,427.392300000065,Correct
5,405,307,B,31.467541603323482,12.532586123679138,1.573377080166174,0.1968614024831588,A,504.11050000002433,Incorrect
5,405,308,A,35.22672372113402,63.59007914396296,1.7613361860567012,0.9988706273993377,A,650.0224999999773,Correct
5,405,309,A,12.676083429876957,33.86526074956154,0.6338041714938478,0.5319542719136265,A,462.74170000106096,Correct
5,405,310,A,56.74885269264035,68.31890381230394,2.8374426346320174,1.0731508315902087,A,765.9020999999484,Correct
5,405,311,B,77.25421979769334,47.79010409250545,3.862710989884667,0.7506851996565331,B,370.36710000029416,Correct
5,405,312,A,33.69161795054974,53.33511046259265,1.6845808975274872,0.8377859560384059,A,808.438500000193,Correct
5,405,313,A,17.467441800676596,37.390998738854734,0.8733720900338298,0.5873364347418563,A,470.2227999987372,Correct
5,405,314,A,64.2866545893921,79.5344284851155,3.2143327294696054,1.249323881181508,A,628.8996000002953,Correct
5,405,315,B,84.26237862792894,57.340719911254496,4.213118931396447,0.9007059221237353,B,463.1096000011894,Correct
5,405,316,A,41.66967070042028,54.47960678900979,2.0834835350210144,0.855763662294069,A,519.6808000000601,Correct
5,405,317,A,31.145024606064474,39.63156905316748,1.5572512303032238,0.6225312309383377,A,525.2001000008022,Correct
5,405,318,A,65.6465503280517,77.04179536974165,3.282327516402585,1.2101696917647426,A,644.6890999995958,Correct
5,405,319,A,28.863260080232486,57.270528770895105,1.4431630040116243,0.8996033622692349,A,469.5318000012776,Correct
5,405,320,B,75.66626228406956,53.69885473460771,3.783313114203478,0.8434996377021453,B,527.740100000301,Correct
5,405,321,A,59.35150405342862,79.03413796535071,2.967575202671431,1.24146533607374,A,464.32569999888074,Correct
5,405,322,B,76.39372629141243,44.064672940825396,3.819686314570622,0.6921662639686701,B,417.7026000015758,Correct
5,405,323,A,49.7719793660626,81.12405317324802,2.48859896830313,1.2742936473925186,A,452.76170000033744,Correct
5,405,324,B,39.077742548772996,21.2319885330435,1.9538871274386498,0.33351129598256085,B,491.68269999972836,Correct
5,405,325,A,47.93867519066305,62.00333142649684,2.3969337595331526,0.973946052537878,A,418.90690000036557,Correct
5,405,326,A,31.445371839490125,40.86380554940843,1.5722685919745063,0.6418871565587168,B,556.8115999994916,Incorrect
5,405,327,A,43.06920227971112,54.09167860827633,2.153460113985556,0.8496701006805054,A,1167.5636999989365,Correct
5,405,328,B,64.43705754764444,54.07494618309298,3.221852877382222,0.8494072683603419,B,415.6019000001834,Correct
5,405,329,B,52.38249890756188,27.148209129650077,2.619124945378094,0.4264430717991402,B,409.00479999982053,Correct
5,405,330,B,67.33417226113816,47.1525418706471,3.3667086130569084,0.7406703956945503,B,401.028000000224,Correct
5,405,331,A,56.164015830689195,80.01338140197062,2.80820079153446,1.2568472560065453,A,460.3497000007337,Correct
5,405,332,B,58.35835906697067,33.10618516796321,2.9179179533485335,0.520030740560283,B,370.72079999961716,Correct
5,405,333,A,39.395612273608,56.82350662013655,1.9697806136804001,0.8925815547451597,A,559.6936000001733,Correct
5,405,334,B,57.317700793791815,46.72223727076501,2.8658850396895907,0.7339111868455728,B,469.7655999989365,Correct
5,405,335,A,31.418903522282065,58.142376019628344,1.5709451761141031,0.9132983068275989,A,475.0321999999869,Correct
5,405,336,B,53.50198722261103,44.390216311422115,2.675099361130551,0.6972798872761277,B,564.1505000003235,Correct
5,405,337,A,14.816792470118479,41.16636188973618,0.740839623505924,0.64663970043907,A,487.78499999934866,Correct
5,405,338,A,28.248341653205184,38.20582173167138,1.4124170826602591,0.6001356443829003,A,802.5225000001228,Correct
5,405,339,B,44.4718427476518,29.437431975302424,2.22359213738259,0.46240210017079686,B,460.7596999994712,Correct
5,405,340,A,46.62013817687371,66.57738643867154,2.331006908843685,1.0457951406546961,A,519.7960999994393,Correct
5,405,341,A,63.13546717375583,86.27769164857364,3.1567733586877917,1.3552468112592218,A,701.3413999993645,Correct
5,405,342,B,32.10646553232248,14.112957282125905,1.605323276616124,0.22168581458976655,B,559.5632000004116,Correct
5,405,343,A,14.461464604784446,43.44241477477019,0.7230732302392223,0.6823918555530936,A,412.5261999997747,Correct
5,405,344,A,27.241920048099054,38.61237170063629,1.3620960024049527,0.6065217163619868,A,476.8289999992703,Correct
5,405,345,B,48.26426292006111,28.03408397051043,2.4132131460030553,0.4403583612593748,B,481.8114000008791,Correct
5,405,346,B,43.343533528213946,16.79218309472091,2.1671766764106972,0.26377099524054964,B,354.3805000008433,Correct
5,405,347,A,39.962068629885906,59.332578444770384,1.9981034314942951,0.9319939628031538,A,487.08389999956125,Correct
5,405,348,A,61.10676115969329,70.3918285680148,3.0553380579846645,1.105712257510137,A,467.7835000002233,Correct
5,405,349,A,41.50023117224509,59.50044347033255,2.0750115586122546,0.9346307804586576,A,522.1627999999328,Correct
5,405,350,A,29.43918401713203,41.804300108640064,1.4719592008566014,0.6566604105488331,A,459.57300000009127,Correct
5,405,351,A,28.81457534038853,44.554307080052666,1.4407287670194264,0.6998574190423857,A,401.63439999923867,Correct
5,405,352,A,53.95247769551293,67.44350874779614,2.6976238847756466,1.0594001580719765,A,475.3169000014168,Correct
5,405,353,A,41.138695035911276,64.56095183230087,2.0569347517955636,1.0141210599256045,A,382.4031999993167,Correct
5,405,354,B,51.21470872926936,37.99278733656036,2.5607354364634682,0.5967893079296868,B,520.5664999994042,Correct
5,405,355,A,53.0784971436394,61.85507877131129,2.6539248571819702,0.9716173052758477,A,439.4936000007874,Correct
5,405,356,A,10.639785367630804,33.749489120432386,0.5319892683815403,0.5301357354157952,A,461.8264000000636,Correct
5,405,357,B,42.475489485802896,31.821187449312422,2.1237744742901445,0.4998460435963182,A,767.5106999995478,Incorrect
5,405,358,B,70.85895730849623,55.68216603393276,3.542947865424811,0.8746534187408515,B,622.43860000126,Correct
5,405,359,B,79.71635916474797,58.619739417670466,3.9858179582373987,0.9207967135495078,A,696.6634999989765,Incorrect
5,405,360,A,19.087523082086715,43.55531552943276,0.9543761541043358,0.6841652964602569,A,415.0513000004139,Correct
5,405,361,B,53.03651511496137,37.75390706163623,2.6518257557480682,0.5930369853457408,B,439.0460000013263,Correct
5,405,362,A,35.322022954883266,48.43097356993746,1.7661011477441633,0.7607519538675849,A,704.7232999993867,Correct
5,405,363,A,33.82946408002909,63.822151911745266,1.6914732040014544,1.0025160179111536,A,416.7336999998952,Correct
5,405,364,A,31.067863343884007,42.87473755611586,1.5533931671942003,0.67347480265442,A,586.1604999990959,Correct
5,405,365,A,52.421191559530826,64.04614474536002,2.621059577976541,1.006034489113858,A,667.5001000003249,Correct
5,405,366,A,56.811006688117004,82.25866209614877,2.84055033440585,1.2921160426769307,A,753.3204999999725,Correct
5,405,367,B,66.41389871159427,40.364978903913986,3.3206949355797133,0.6340516059342157,B,406.8915999996534,Correct
5,405,368,B,68.04121303388166,37.0466479723145,3.4020606516940832,0.5819273855497522,B,455.1627000000735,Correct
5,405,369,A,47.53214430771967,55.02175082969845,2.3766072153859836,0.8642796409711438,A,554.7817999995459,Correct
5,405,370,A,46.56330411222229,58.63646832001229,2.3281652056111146,0.9210594905330063,A,474.78360000059183,Correct
5,405,371,B,62.96077992919498,41.88103609822036,3.1480389964597486,0.6578657766544901,B,452.96980000057374,Correct
5,405,372,A,43.42360723706953,61.78812567692906,2.1711803618534766,0.9705656085286161,A,435.3432999996585,Correct
5,405,373,A,45.44376475297949,75.99880474083584,2.2721882376489746,1.1937864332770751,A,408.6391000000731,Correct
5,405,374,B,65.24211055040618,39.29869582889646,3.2621055275203092,0.6173024705586049,B,519.5149999999558,Correct
5,405,375,A,36.5574524390606,56.25051133481096,1.82787262195303,0.8835809658505573,A,446.99260000015784,Correct
5,405,376,B,85.98256989566141,59.93263569105914,4.299128494783071,0.9414196399865241,B,467.7166000001307,Correct
5,405,377,B,66.27769542683679,37.23756943965526,3.313884771341839,0.5849263729458037,B,445.38550000106625,Correct
5,405,378,A,34.23775066254219,55.114743660630204,1.7118875331271095,0.8657403689436023,A,461.94849999847065,Correct
5,405,379,B,59.322125325747606,48.678769773191824,2.9661062662873805,0.7646443275262415,B,506.94599999951606,Correct
5,405,380,B,49.85803537556233,24.118873080417394,2.4929017687781165,0.3788583724115196,B,417.8393000001961,Correct
5,405,381,A,37.89153180520444,56.99594921438253,1.8945765902602218,0.8952902766814054,A,599.9207999993814,Correct
5,405,382,B,76.85657596150419,53.340484455381585,3.8428287980752094,0.8378703705197367,B,588.0832999991981,Correct
5,405,383,B,43.8991403506256,32.737953935836714,2.19495701753128,0.5142465778919284,B,555.0151000006736,Correct
5,405,384,A,31.823290403120495,44.78645507816238,1.5911645201560247,0.7035039912694211,A,354.9870999995619,Correct
5,405,385,A,55.61034250134007,77.29690086008407,2.7805171250670035,1.2141768794364933,A,415.4242999993585,Correct
5,405,386,A,48.27362748024975,62.561879986346355,2.4136813740124876,0.9827197127993601,A,415.462099999786,Correct
5,405,387,B,64.9288393345907,32.11547335803515,3.246441966729535,0.5044686758408099,B,417.1065999998973,Correct
5,405,388,A,61.62842128041959,72.78838764776525,3.08142106402098,1.1433573195043267,A,495.5128000001423,Correct
5,405,389,A,40.981080246885895,67.30873496078817,2.0490540123442944,1.057283136376173,A,397.02419999957783,Correct
5,405,390,A,39.736606189355314,68.05728676997941,1.9868303094677657,1.0690413606991056,A,415.7934999984718,Correct
5,405,391,A,38.10737665319556,61.406266062624695,1.905368832659778,0.9645673717336098,A,390.13469999918016,Correct
5,405,392,A,19.002215104787773,47.37096565578145,0.9501107552393887,0.7441013884882869,A,393.1982000012795,Correct
5,405,393,B,48.69206252104961,18.552659931640726,2.43460312605248,0.29142450072896103,B,478.7311000000045,Correct
5,405,394,B,80.71733774842927,60.58562872609723,4.035866887421464,0.9516768305951289,B,471.6117999996641,Correct
5,405,395,B,45.59403427524572,31.86368717568986,2.279701713762286,0.5005136277371528,B,352.1534999999858,Correct
5,405,396,B,73.23381881964612,44.904063205897415,3.6616909409823055,0.7053513754198952,B,360.7216000000335,Correct
5,405,397,A,44.420398209298796,67.39843872172949,2.22101991046494,1.058692199758036,A,434.1281000015442,Correct
5,405,398,B,65.68050099199183,36.48847110194021,3.2840250495995917,0.5731595637728942,B,394.94620000004943,Correct
5,405,399,B,64.5670286973903,32.204482123139485,3.228351434869515,0.5058668222535941,B,346.6905000004772,Correct
5,405,400,B,61.44849395587731,37.74280967349321,3.0724246977938656,0.5928626679804203,B,465.8456999986811,Correct
5,405,401,B,51.82336589662406,25.27886206882473,2.5911682948312027,0.39707943683264724,B,441.0788999994111,Correct
5,405,402,A,52.824131684951666,79.857783387014,2.6412065842475836,1.2544031281030408,A,482.4886999995215,Correct
5,405,403,A,50.387206523596724,66.65507676666873,2.5193603261798363,1.0470154974731507,A,486.62530000001425,Correct
5,405,404,A,64.9556005756189,80.07711932836727,3.2477800287809453,1.2578484490131592,A,415.1910999989923,Correct
5,405,405,B,49.55696951602106,30.06046596730417,2.477848475801053,0.4721886952318439,B,494.39429999983986,Correct
5,405,406,A,20.363371172969117,44.62504133734687,1.018168558648456,0.7009685101577487,A,472.61489999982587,Correct
5,405,407,A,22.518100462010416,43.14212864339175,1.1259050231005208,0.6776749720315265,A,563.4052000004885,Correct
5,405,408,B,71.22158469887334,60.7689930569819,3.5610792349436675,0.9545571107693173,B,381.31020000037097,Correct
5,405,409,B,68.25916010801414,59.06263544091257,3.412958005400707,0.9277537080141154,B,519.5741000006819,Correct
5,405,410,A,52.12891770356019,62.676069673106966,2.60644588517801,0.9845134002045745,B,408.64959999998973,Incorrect
5,405,411,A,32.884608115007254,56.822391779993964,1.6442304057503627,0.8925640428771504,A,420.5375000001368,Correct
5,405,412,B,76.92365405212222,51.090476336875426,3.846182702606111,0.8025273256416551,B,392.7328000008856,Correct
5,405,413,A,22.058149922122006,52.736924986710015,1.1029074961061003,0.8283896805558209,A,416.4278000007471,Correct
5,405,414,B,59.88897660797451,48.837229285376786,2.994448830398726,0.7671334037231001,B,454.25629999954253,Correct
5,405,415,B,44.61248777092062,26.860401847794925,2.230624388546031,0.4219222055875112,B,418.94890000003215,Correct
5,405,416,A,38.88895758964447,61.420801671083154,1.9444478794822233,0.9647956965373525,A,405.16700000080164,Correct
5,405,417,B,65.95750473841271,41.527034231149145,3.2978752369206354,0.6523051283297501,B,395.2714000006381,Correct
5,405,418,B,82.9837215072071,57.60147346829119,4.149186075360355,0.9048018294196549,B,454.0404999988823,Correct
5,405,419,B,67.28813475943299,35.91463341496995,3.3644067379716494,0.5641457424642005,B,375.451099998827,Correct
5,405,420,B,52.929259092732046,41.45134853389962,2.6464629546366023,0.6511162601774454,B,459.05230000062147,Correct
5,405,421,B,55.33096612355367,32.42160492069536,2.766548306177684,0.509277379182236,B,463.7364999998681,Correct
5,405,422,A,16.965853357611866,35.770638315980634,0.8482926678805933,0.5618838727385117,A,370.80969999988156,Correct
5,405,423,B,47.916869892228874,25.846628554638535,2.3958434946114435,0.4059978919365829,B,437.5850000014907,Correct
5,405,424,B,53.59895131073736,37.68861499741053,2.679947565536868,0.5920113799991952,B,472.60669999923266,Correct
5,405,425,B,57.740968318198576,35.58532022632329,2.887048415909929,0.5589729029932877,B,581.354799998735,Correct
5,405,426,A,28.57246384156941,50.101265267003214,1.4286231920784704,0.7869888344918539,A,476.2399000010191,Correct
5,405,427,B,52.97238352661945,43.781341852399805,2.648619176330973,0.6877157096390127,B,384.9294000010559,Correct
5,405,428,B,61.63778627245156,32.033944727280094,3.081889313622578,0.5031880271036232,B,448.9750000011554,Correct
5,405,429,A,47.20471087726881,79.0763347287906,2.3602355438634404,1.24212816128388,A,490.62380000032135,Correct
5,405,430,A,31.652802624882824,61.337748566320755,1.5826401312441414,0.9634911014184557,A,433.01640000026964,Correct
5,405,431,A,31.40540603139248,40.22282457598361,1.5702703015696242,0.6318186509727054,A,473.83149999950547,Correct
5,405,432,B,74.49472208108155,43.733789480489754,3.7247361040540774,0.686968758727746,B,471.11020000011194,Correct
5,405,433,A,43.29074560936434,62.62812893715805,2.1645372804682173,0.9837603488852503,A,630.2907000008418,Correct
5,405,434,B,84.0034053271301,57.932977016571094,4.200170266356505,0.9100090749792304,B,487.1367999985523,Correct
5,405,435,A,21.222461530771135,42.42876565790841,1.0611230765385569,0.6664694924588398,A,403.03379999932076,Correct
5,405,436,B,48.54524278805927,25.616968402995774,2.4272621394029636,0.40239039871046695,B,507.8700999983994,Correct
5,405,437,A,20.961529674236903,32.83610777713024,1.048076483711845,0.5157883748255752,A,543.7381000010646,Correct
5,405,438,B,79.32552273902253,56.536996367454336,3.9662761369511266,0.8880810622201368,B,438.110000000961,Correct
5,405,439,B,54.24165041050766,25.255462955558983,2.712082520525383,0.3967118844209663,B,440.321899999617,Correct
5,405,440,B,56.68654568711586,35.59260614072608,2.8343272843557927,0.5590873498691001,B,413.0314999983966,Correct
5,405,441,A,18.989946054199333,34.990998336055384,0.9494973027099667,0.5496373165716213,A,398.3938000001217,Correct
5,405,442,B,68.12669981664604,48.003321551572995,3.4063349908323017,0.7540344116716516,B,411.9384000005084,Correct
5,405,443,A,40.52148841297634,68.96980333157886,2.026074420648817,1.0833751373301048,A,401.21630000066943,Correct
5,405,444,B,55.45432023260388,33.65799305227226,2.772716011630194,0.5286985185379741,B,372.8336999993189,Correct
5,405,445,A,51.04531051417867,62.32717579600608,2.552265525708933,0.9790329879986613,A,539.1851999993378,Correct
5,405,446,A,18.58584492202405,39.156386765962864,0.9292922461012025,0.6150670850253477,A,429.9369000000297,Correct
5,405,447,B,36.32664988186876,20.404752183822023,1.8163324940934382,0.32051709779507775,B,471.87730000041483,Correct
5,405,448,A,62.439840683960504,84.43749282170779,3.1219920341980254,1.3263410356810903,A,511.3560999998299,Correct
5,405,449,A,15.276999917178056,31.703146244848202,0.7638499958589029,0.49799185669248974,A,365.445000001273,Correct
5,405,450,A,27.502540719276737,46.67009572629087,1.3751270359638368,0.7330921493802388,A,427.22950000097626,Correct
5,405,451,A,50.547807191419686,70.07822516119853,2.527390359570984,1.1007861867151634,A,403.8491999999678,Correct
5,405,452,B,86.617590261695,63.66247830987696,4.33087951308475,1.000007870838145,B,441.33139999939885,Correct
5,405,453,A,24.483140591996623,56.554341889766086,1.2241570295998312,0.8883535250474731,A,375.4447000010259,Correct
5,405,454,A,41.09893843115686,55.92884913081023,2.054946921557843,0.8785283077654266,A,508.1523999997444,Correct
5,405,455,B,44.67126847778912,22.79893329454372,2.2335634238894557,0.3581248067391114,B,443.0862999997771,Correct
5,405,456,B,52.84487144027628,25.557460306455216,2.6422435720138138,0.40145564771586234,B,356.44130000036967,Correct
5,405,457,B,62.043363549794506,30.47547306660625,3.102168177489725,0.47870761150361896,B,431.77620000096795,Correct
5,405,458,A,42.341084528723165,58.68449449805711,2.1170542264361583,0.9218138839736342,A,407.82190000027185,Correct
5,405,459,A,26.154552731486625,45.0446182825445,1.3077276365743313,0.7075592094009914,A,572.5145999986125,Correct
5,405,460,A,22.678023845225596,47.836579002922576,1.1339011922612798,0.7514152258422465,A,413.6431000006269,Correct
5,405,461,B,74.67843466582174,45.58677341736755,3.733921733291087,0.7160753623443219,B,385.518699999011,Correct
5,405,462,A,59.283794020924006,81.37738286915146,2.9641897010462004,1.2782729409504503,A,436.27550000019255,Correct
5,405,463,A,28.165520474321518,54.1918879923551,1.4082760237160759,0.8512441860047185,A,442.66029999926104,Correct
5,405,464,A,33.71056847185886,59.40901075376624,1.685528423592943,0.9331945587053453,A,457.29109999956563,Correct
5,405,465,B,53.68671198395189,39.86867574291737,2.684335599197594,0.626255694111514,B,566.8174000002182,Correct
5,405,466,A,41.48050329766394,56.614664200922356,2.074025164883197,0.8893010656953537,A,401.0234999987006,Correct
5,405,467,B,36.1624056408625,18.40838056029961,1.8081202820431252,0.289158165663612,A,467.2429000002012,Incorrect
5,405,468,A,27.494153032958636,45.27060225283268,1.374707651647932,0.7111089573054236,A,469.50270000161254,Correct
5,405,469,A,54.97760875050248,72.09044327224595,2.7488804375251243,1.132394034890598,B,459.27410000149393,Incorrect
5,405,470,A,36.01565183227867,59.16874209625306,1.8007825916139337,0.9294204274586889,A,580.3972000012436,Correct
5,405,471,A,22.4098739656354,38.37880554265516,1.12049369828177,0.6028528677317834,A,556.141099999877,Correct
5,405,472,A,24.486734062613202,42.940485861129275,1.2243367031306602,0.6745075746145005,A,471.4530000001105,Correct
5,405,473,B,75.94622611889932,52.861118559283845,3.7973113059449655,0.8303405086319259,B,491.6498999991745,Correct
5,405,474,B,73.7724635911884,58.023781390551136,3.68862317955942,0.9114354267502779,B,416.0578000009991,Correct
5,405,475,A,20.690991031758017,48.128470919085885,1.0345495515879009,0.7560002533395511,A,349.3293999999878,Correct
5,405,476,B,60.37806547900283,52.035085739598316,3.0189032739501416,0.8173652154421854,B,476.7821000004915,Correct
5,405,477,B,64.6048753102018,37.31736250317763,3.23024376551009,0.5861797594566502,B,488.4020999998029,Correct
5,405,478,B,77.17983933842375,51.276735892663865,3.858991966921187,0.8054530839022842,B,397.9032000006555,Correct
5,405,479,A,52.542007505824216,72.95294642135404,2.627100375291211,1.1459422026752781,A,445.1069999995525,Correct
5,405,480,A,26.05799863683098,53.42104113211324,1.3028999318415488,0.8391357518388257,A,423.07330000039656,Correct
5,405,481,B,54.3354404271376,37.03503643799716,2.71677202135688,0.5817449919952108,B,447.59999999951106,Correct
5,405,482,B,67.47092691945139,53.032942256226214,3.373546345972569,0.8330395089520599,B,404.32849999888276,Correct
5,405,483,B,46.6977587233745,16.914345049430814,2.334887936168725,0.2656899107378737,B,546.4284999998199,Correct
5,405,484,A,26.419032445374164,38.33409513486469,1.3209516222687083,0.6021505582885156,A,636.9088999999803,Correct
5,405,485,B,73.10685382608102,52.66792546778167,3.655342691304051,0.8273058386469883,B,595.2610000003915,Correct
5,405,486,B,69.00629574824809,44.65629682746328,3.4503147874124043,0.7014594702484191,B,762.4551999997493,Correct
5,405,487,A,47.1461668617086,75.37594319577343,2.35730834308543,1.184002547006217,A,379.30649999907473,Correct
5,405,488,B,34.770743029234524,15.208844650608011,1.7385371514617263,0.23889997311969277,B,680.8363999989524,Correct
5,405,489,A,60.25060363527838,84.75913885169768,3.012530181763919,1.3313934397054532,A,422.0883000016329,Correct
5,405,490,A,62.16368251575952,81.94091018420403,3.108184125787976,1.287124807315782,A,392.310199998974,Correct
5,405,491,B,44.95080867600952,31.233756953496517,2.2475404338004763,0.49061870694556886,B,497.45979999897827,Correct
5,405,492,A,35.20419993654495,48.25682793478858,1.7602099968272478,0.7580164806273926,A,409.453799999028,Correct
5,405,493,B,54.69029209559824,28.673986969869404,2.734514604779912,0.4504099340683559,B,447.8340000005119,Correct
5,405,494,B,67.1031428431633,53.190313935153675,3.355157142158165,0.835511497504068,B,429.6650000014779,Correct
5,405,495,B,79.33325698395191,47.49660098492535,3.9666628491975957,0.7460748636236361,B,479.84490000089863,Correct
5,405,496,B,71.0213252252522,59.50731366123161,3.5510662612626103,0.9347386971649438,B,527.5996999989729,Correct
5,405,497,A,44.059062023492444,71.63003522185994,2.2029531011746224,1.1251619621468665,A,376.45809999958146,Correct
5,405,498,A,52.60928781946048,68.7118393508221,2.6304643909730236,1.079323048595924,A,666.398699999263,Correct
5,405,499,B,60.874771171739056,51.12033894910517,3.0437385585869525,0.8029964064576448,A,543.6314000016864,Incorrect
5,405,500,A,27.499204948775038,37.016369688499594,1.374960247438752,0.5814517753797712,A,428.6138999996183,Correct
5,405,501,A,31.823852107992145,62.01855091600709,1.5911926053996073,0.974185119720062,A,453.4499000001233,Correct
5,405,502,B,51.10902982527256,42.679642745443836,2.5554514912636277,0.6704102605346164,A,507.5471000000107,Incorrect
5,405,503,B,80.2657065693272,62.06821105866326,4.01328532846636,0.9749651794167862,B,453.50479999979143,Correct
5,405,504,A,33.000061572318344,50.99531666684587,1.6500030786159172,0.8010325610402406,A,486.88530000072205,Correct
5,405,505,A,10.526941766171785,35.59412479489339,0.5263470883085892,0.5591112048329768,A,441.9407000004867,Correct
5,405,506,A,32.12454397531422,65.28327361758197,1.606227198765711,1.0254672639964393,A,486.6536999998061,Correct
5,405,507,A,61.16324102603997,82.18529162895064,3.058162051301998,1.2909635420732302,A,738.5114000007889,Correct
5,405,508,B,50.70511484597716,40.049681060107176,2.5352557422988578,0.629098918985235,B,799.232800000027,Correct
5,405,509,A,30.910380982211336,44.86120490700601,1.5455190491105668,0.7046781588351824,B,524.2481000004773,Incorrect
5,405,510,A,23.406176627882694,41.61788669987773,1.1703088313941348,0.6537322355713412,A,847.0137999993312,Correct
5,405,511,B,84.25278028370212,63.73647114534281,4.212639014185106,1.001170147579734,B,1280.6760999992548,Correct
5,405,512,B,82.3044190146708,68.03669133311796,4.11522095073354,1.0687178483333986,B,468.55409999989206,Correct
5,405,513,A,22.57106145053963,36.074318241792206,1.1285530725269814,0.5666540658583732,A,360.97960000006424,Correct
5,405,514,A,66.78998332852633,79.70325162411979,3.3394991664263163,1.2519757488477674,B,697.2839999998541,Incorrect
5,405,515,B,54.85908341127747,34.643527630421204,2.7429541705638734,0.5441792594908313,B,420.5976000012015,Correct
5,405,516,B,35.63361269302886,19.145909293874276,1.7816806346514429,0.30074323991965984,A,416.2006999995356,Incorrect
5,405,517,A,16.96905528206003,39.05396159379755,0.8484527641030014,0.6134581941832616,A,438.30350000098406,Correct
5,405,518,A,20.414885686955216,45.02406641907769,1.0207442843477608,0.7072363814845669,A,477.7520000006916,Correct
5,405,519,A,61.300320291405285,79.36257437066666,3.065016014570264,1.2466244030643001,B,596.6680000001361,Incorrect
5,405,520,A,13.786305786181192,35.712511535808034,0.6893152893090595,0.5609708194106763,A,385.08659999934025,Correct
5,405,521,B,66.12251887504861,55.32723346450418,3.3061259437524306,0.8690781509776684,B,451.8621000006533,Correct
5,405,522,B,71.8101363019409,58.03225433956174,3.5905068150970454,0.9115685195221077,B,430.9589999993477,Correct
5,405,523,A,19.27105553801146,45.64504708286132,0.9635527769005731,0.7169907229413868,A,385.4070000015781,Correct
5,405,524,B,64.23648705098803,34.512123633382515,3.2118243525494017,0.5421151703320859,B,459.10120000007737,Correct
5,405,525,B,76.59207860136006,55.76430180407717,3.829603930068003,0.8759436044012644,B,546.3306999990891,Correct
5,405,526,B,39.678545315957756,15.98186597750123,1.983927265797888,0.2510425637278726,B,644.2353000002186,Correct
5,405,527,A,50.43886684207965,77.82087560601792,2.5219433421039823,1.2224074554989552,A,494.4433000000572,Correct
5,405,528,A,51.77988113889459,68.14051469149929,2.5889940569447294,1.0703487018332078,B,744.4223999991664,Incorrect
5,405,529,B,49.57973023039152,38.9605896670616,2.478986511519576,0.6119915113878356,B,396.02820000072825,Correct
5,405,530,B,60.91732925689216,33.633064388222486,3.045866462844608,0.5283069399987613,B,417.52270000142744,Correct
5,405,531,B,87.8583318975779,65.35896610339438,4.392916594878895,1.0266562387832405,B,441.00020000041695,Correct
5,405,532,B,70.44390812133193,50.937813845382976,3.5221954060665963,0.800129308832898,B,401.0051999994175,Correct
5,405,533,B,60.89875243506613,36.75889590704081,3.044937621753306,0.5774073866781566,B,451.50660000035714,Correct
5,405,534,B,43.205887739986125,14.32957877993621,2.160294386999306,0.22508849712041892,B,410.4255000002013,Correct
5,405,535,B,64.90171632575922,52.62122164839104,3.2450858162879617,0.8265722167675273,B,416.51160000037635,Correct
5,405,536,B,79.2145225182383,60.879642367354236,3.960726125911915,0.9562951860722699,B,577.3920999999973,Correct
5,405,537,A,68.7113865369418,88.20254943388416,3.43556932684709,1.3854824066469051,A,417.38620000069204,Correct
5,405,538,A,38.65652851687804,53.58967998752188,1.932826425843902,0.8417847247851337,B,548.4512999992148,Incorrect
5,405,539,A,52.583301659533205,71.02603041244865,2.6291650829766606,1.1156742767869694,A,400.6098000008933,Correct
5,405,540,B,74.93945985989295,50.740554087300694,3.746972992994648,0.7970307597986971,B,440.0518000002194,Correct
5,405,541,A,31.44304663790348,50.14654271950326,1.572152331895174,0.7877000510525909,A,422.4203000012494,Correct
5,405,542,A,56.72670733316725,84.38030871935096,2.8363353666583624,1.3254427899017587,A,722.5737999997364,Correct
5,405,543,A,50.907563438518665,58.09032382825394,2.545378171925933,0.9124806729174735,B,845.3587999993033,Incorrect
5,405,544,B,46.341993274097376,36.078787317017145,2.3170996637048686,0.5667242659278483,B,542.7254999995057,Correct
5,405,545,B,69.52940401233016,43.909814692919205,3.476470200616508,0.6897337562988206,B,525.0926000007894,Correct
5,405,546,A,60.644884033705345,72.17434015013228,3.032244201685267,1.1337118839667322,A,476.00690000035684,Correct
5,405,547,A,53.51622753574285,64.05809776944766,2.6758113767871423,1.0062222467771673,A,640.4356000002736,Correct
5,405,548,B,52.4236516465988,44.96160141744732,2.62118258232994,0.7062551835334246,B,378.9383999992424,Correct
5,405,549,A,26.091254125411247,46.549205399737794,1.3045627062705623,0.7311932085712929,A,385.849699998289,Correct
