subject,day,trial,cat,x,y,xt,yt,resp,rt,fb
13,413,0,A,51.867622828005665,79.41978671393048,2.5933811414002834,1.2475230924507614,A,566.1953000001176,Correct
13,413,1,A,36.57020827683358,45.24792216669546,1.828510413841679,0.7107526993454661,B,428.01299999996445,Incorrect
13,413,2,B,82.6112611817623,55.05538133023435,4.130563059088115,0.8648079076382444,B,427.45960000002015,Correct
13,413,3,B,88.69312824967088,69.278203798411,4.434656412483544,1.0882194805349223,B,449.323399999912,Correct
13,413,4,A,38.809245186155096,59.807156500300465,1.9404622593077547,0.9394486174671949,A,534.2600999999831,Correct
13,413,5,A,37.44925581591325,52.759444346974156,1.8724627907956626,0.8287434138396678,A,547.2678999999516,Correct
13,413,6,B,84.13754264705999,64.8423667441551,4.206877132352999,1.0185415150240638,B,359.9781999998868,Correct
13,413,7,A,24.237698436918627,49.639667864401005,1.2118849218459316,0.7797380794471976,A,351.4371999999639,Correct
13,413,8,A,32.86635070674414,63.804513464390475,1.643317535337207,1.0022389538280005,A,449.9461999998857,Correct
13,413,9,A,26.669358775724255,47.465442129132484,1.3334679387862127,0.7455854214613705,B,409.6734000002016,Incorrect
13,413,10,A,37.09455600871898,61.70147520844862,1.8547278004359493,0.9692045061525748,A,664.8783999999068,Correct
13,413,11,A,27.527645306929475,41.08697893601723,1.3763822653464737,0.6453927559179515,A,528.5873999998785,Correct
13,413,12,B,47.88738342190461,17.955223734883916,2.3943691710952306,0.28203999489536197,B,403.6475000000337,Correct
13,413,13,B,45.78168253284451,25.37307101161407,2.2890841266422255,0.39855926744549447,B,448.06960000005347,Correct
13,413,14,B,64.21704868213148,36.2796010537363,3.210852434106574,0.5698786407279324,B,368.92069999998967,Correct
13,413,15,A,42.33356904049682,54.27926637974649,2.116678452024841,0.852616722504275,A,518.4738999998899,Correct
13,413,16,B,76.92031319114837,57.123836618312566,3.846015659557418,0.8972991273247718,B,389.91570000007414,Correct
13,413,17,B,47.045512716780166,27.53498199643524,2.3522756358390082,0.4325184857836407,B,557.6626999998098,Correct
13,413,18,B,55.37287769469938,41.16940537370964,2.768643884734969,0.6466875073735318,B,377.0053000000644,Correct
13,413,19,A,17.937269411168085,43.26385865627623,0.8968634705584043,0.6795871026025229,A,393.5776999999234,Correct
13,413,20,B,55.06233215057613,36.74372760404685,2.7531166075288063,0.5771691235318903,B,426.9747999999254,Correct
13,413,21,A,37.76293128221842,46.73516644957734,1.8881465641109207,0.7341142779114419,A,420.37180000011176,Correct
13,413,22,B,60.1422608345628,48.0303030556999,3.00711304172814,0.754458236147391,B,386.4472999998725,Correct
13,413,23,B,71.60723680449983,43.916996034638196,3.5803618402249917,0.6898465605507571,A,365.204900000208,Incorrect
13,413,24,A,52.57061631819118,77.89804130998306,2.6285308159095586,1.223619571542385,A,399.1796999998769,Correct
13,413,25,B,36.6153985260004,18.965909022434772,1.83076992630002,0.2979158022676673,B,344.0054999998665,Correct
13,413,26,B,85.23170802832503,60.94582377134972,4.2615854014162515,0.9573347611352523,A,409.38310000001366,Incorrect
13,413,27,A,37.34583596932948,50.86047794719447,1.8672917984664739,0.7989145193848592,B,696.8890999999076,Incorrect
13,413,28,B,33.82925303881693,19.259377406035888,1.6914626519408467,0.3025255928575779,B,460.7504999999037,Correct
13,413,29,B,48.32194986728048,29.514385081664038,2.416097493364024,0.46361087673887963,B,408.6187999998856,Correct
13,413,30,B,49.70915344234925,39.747777909379664,2.4854576721174624,0.624356635383129,B,378.27149999998255,Correct
13,413,31,A,43.84330676417063,51.09512240466172,2.192165338208531,0.8026003059037825,A,519.8092999999062,Correct
13,413,32,B,76.70337280941487,56.57609175961001,3.8351686404707435,0.8886951712040642,B,482.83870000000206,Correct
13,413,33,A,54.22779052404506,62.35944135948074,2.7113895262022534,0.979539814284541,A,772.5737999999183,Correct
13,413,34,A,52.226560765164024,78.8665814676379,2.6113280382582014,1.2388333647623606,A,410.6369999999515,Correct
13,413,35,A,39.98615057346363,50.19321115892906,1.9993075286731818,0.7884331171848639,A,388.8644999999542,Correct
13,413,36,A,30.759890022404488,46.40410444399795,1.5379945011202245,0.7289139680883872,A,500.88689999984126,Correct
13,413,37,B,59.013820534107424,48.051216915073724,2.950691026705371,0.7547867502822262,A,442.13429999990694,Incorrect
13,413,38,A,34.62022417472786,59.81864284542629,1.7310112087363931,0.9396290445545143,A,540.0813000001108,Correct
13,413,39,B,72.00139636895524,44.65105576831899,3.600069818447762,0.7013771438838954,B,347.84749999994347,Correct
13,413,40,A,61.645106431455204,74.5962056159828,3.08225532157276,1.171754457744226,A,522.4449000002096,Correct
13,413,41,B,61.81573598141226,36.68082654445686,3.0907867990706133,0.5761810759983358,B,502.8551000000334,Correct
13,413,42,B,88.38453295010802,64.60354081057613,4.4192266475054005,1.0147900460319719,B,544.0092999999706,Correct
13,413,43,A,61.85671927745921,70.88828947877668,3.092835963872961,1.1135106472603573,A,456.0248000000229,Correct
13,413,44,A,62.22627982146966,77.44847543226233,3.1113139910734833,1.2165578072486245,B,430.67070000006424,Incorrect
13,413,45,B,72.07009621175352,49.84757564907042,3.603504810587676,0.7830038872919055,A,394.2916000000878,Incorrect
13,413,46,A,47.5670792823466,58.66303866917542,2.3783539641173297,0.9214768566016772,A,520.3317000000425,Correct
13,413,47,B,78.23337845926241,54.32578090610858,3.9116689229631207,0.8533473709757967,B,412.79389999999694,Correct
13,413,48,B,47.74882435119876,40.72736178128944,2.3874412175599384,0.639743902860963,A,506.0363000000052,Incorrect
13,413,49,A,26.651299108474014,40.41335854190713,1.3325649554237007,0.6348115515107288,A,563.7077000001227,Correct
13,413,50,B,51.87342911867785,30.280928555481985,2.5936714559338925,0.47565171346889784,B,479.3343999999706,Correct
13,413,51,A,63.787781334175946,77.74478472760765,3.1893890667087974,1.2212122227758608,A,512.699800000064,Correct
13,413,52,A,66.72059832487435,84.17109418465378,3.3360299162437173,1.3221564556756145,A,386.39649999981884,Correct
13,413,53,B,60.807968929880204,40.9438848333931,3.04039844649401,0.6431450390100715,B,547.7880999999343,Correct
13,413,54,A,47.69579170913853,70.66295562598643,2.3847895854569265,1.1099711113777024,A,368.4928000000127,Correct
13,413,55,B,57.677605138702596,32.158272706765224,2.88388025693513,0.5051409664385539,B,361.86879999991106,Correct
13,413,56,A,58.506192806566844,81.9621264854246,2.9253096403283423,1.287458072196037,A,333.7708000001385,Correct
13,413,57,A,57.57294068484202,67.06764004681595,2.8786470342421007,1.053496026323408,A,365.7749999999851,Correct
13,413,58,B,31.96418429635107,12.491671027343152,1.5982092148175537,0.19621870965280855,B,323.864500000127,Correct
13,413,59,A,42.89454367845105,59.36227791942845,2.1447271839225523,0.9324604810601601,A,363.3391999999276,Correct
13,413,60,A,63.8997372696351,85.45421917987544,3.194986863481755,1.3423117359687433,A,437.03270000014527,Correct
13,413,61,B,63.06524504709334,39.70775183409135,3.153262252354667,0.6237279072627401,B,335.7924000001731,Correct
13,413,62,B,43.26709055833172,33.875342688904446,2.163354527916586,0.5321126386464946,B,357.07109999998465,Correct
13,413,63,A,65.82160116081432,77.63593055303855,3.2910800580407162,1.2195023454001663,A,345.75519999998505,Correct
13,413,64,A,18.006976917263746,43.43554564401926,0.9003488458631872,0.6822839554995752,A,389.31269999989127,Correct
13,413,65,A,60.8248672043945,82.62183270755418,3.0412433602197253,1.2978207133008852,A,458.3542000000307,Correct
13,413,66,A,49.87813261360419,63.946249972004125,2.4939066306802093,1.0044653456833232,A,402.607400000079,Correct
13,413,67,B,64.90404733679632,48.43324566468127,3.245202366839816,0.760787643848362,B,427.20220000001063,Correct
13,413,68,A,51.77405550782585,77.35442392673696,2.588702775391292,1.2150804496545369,A,406.49260000009235,Correct
13,413,69,B,61.98541289142081,36.81498013712334,3.0992706445710407,0.5782883557042042,B,321.56639999993786,Correct
13,413,70,A,25.640917805330126,43.45824107017438,1.2820458902665064,0.6826404544199705,A,357.142500000009,Correct
13,413,71,A,24.060155539970346,35.79777527006371,1.2030077769985172,0.5623101390164525,A,395.80799999998817,Correct
13,413,72,A,34.00999719190261,42.120024027029565,1.7004998595951306,0.6616197902617083,A,382.02480000018113,Correct
13,413,73,A,52.902084590100756,63.296339137842025,2.6451042295050375,0.9942565701728631,A,615.6748999999309,Correct
13,413,74,A,18.348994227178213,34.352095404884906,0.9174497113589106,0.5396014527970106,A,466.76690000003873,Correct
13,413,75,B,84.88622561710454,62.163375537398615,4.244311280855227,0.9764600195531747,B,325.82929999989574,Correct
13,413,76,B,52.033491262419346,42.79256299116901,2.6016745631209677,0.6721840076066751,B,431.2075000000277,Correct
13,413,77,B,31.97987665216097,13.003857995193119,1.5989938326080486,0.204264123730118,B,512.8737000000001,Correct
13,413,78,A,59.851467021322875,76.33092058566638,2.992573351066144,1.1990032967683768,A,408.3472999998321,Correct
13,413,79,B,38.906657589422366,26.942367116439165,1.9453328794711182,0.42320971301662247,B,563.1411000001663,Correct
13,413,80,B,33.36927817792382,12.532391742089025,1.668463908896191,0.19685834914428138,B,469.90600000003724,Correct
13,413,81,A,56.70461276136249,80.21176515824817,2.8352306380681243,1.259963460763111,A,365.62019999996664,Correct
13,413,82,B,82.47568706543836,60.856384880650424,4.123784353271918,0.9559298583254217,B,551.0259000000133,Correct
13,413,83,B,66.21176658195317,43.28164335406662,3.3105883290976585,0.6798664639821459,B,477.93769999998403,Correct
13,413,84,A,43.90926191087486,69.0163171508675,2.1954630955437433,1.0841057746949427,A,545.569599999908,Correct
13,413,85,A,42.67302733239127,59.76648161186984,2.1336513666195636,0.9388096978137986,A,813.981700000113,Correct
13,413,86,B,75.99854169138885,61.299700923027395,3.7999270845694424,0.9628934504351717,B,427.24780000003193,Correct
13,413,87,B,35.73049049394129,11.706851197455439,1.7865245246970645,0.1838907885929744,B,615.9480000001167,Correct
13,413,88,A,33.39509732548919,51.20771557003177,1.6697548662744595,0.8043689152096375,B,449.87140000012005,Incorrect
13,413,89,A,63.222058939849276,80.41543794830208,3.1611029469924636,1.2631627454679586,A,353.0659000000469,Correct
13,413,90,A,64.06839148022235,75.8824931286063,3.203419574011117,1.1919594147445376,A,400.5499999998392,Correct
13,413,91,A,38.07369588066524,53.31944508539133,1.903684794033262,0.837539884868749,A,379.32480000017677,Correct
13,413,92,A,45.812521661245285,63.130863067191314,2.2906260830622642,0.991657278133357,A,449.16299999999865,Correct
13,413,93,B,72.46416481421264,43.53847264103939,3.6232082407106314,0.6839007289880478,B,516.98609999994,Correct
13,413,94,A,24.693181814896512,51.346647964689325,1.2346590907448256,0.8065512601616465,A,376.0595999999623,Correct
13,413,95,B,68.97832411490694,39.899635860320586,3.448916205745347,0.6267420144984551,B,328.09739999993326,Correct
13,413,96,B,66.51548558178834,45.947807480152804,3.325774279089417,0.7217464721410309,B,357.61359999992237,Correct
13,413,97,B,63.25248015868317,42.537721628532495,3.1626240079341583,0.6681809688432266,B,484.8074000001361,Correct
13,413,98,A,27.554989130161367,42.52326334966267,1.3777494565080683,0.6679538587298216,A,449.27289999986897,Correct
13,413,99,A,61.42656456643189,77.23594730935255,3.071328228321595,1.2132194233005515,A,468.2743000000755,Correct
13,413,100,A,34.760714733363464,54.084158865978225,1.7380357366681733,0.8495519808447024,A,372.56569999999556,Correct
13,413,101,B,69.55044470717482,49.569914760010796,3.4775222353587414,0.7786424002456109,B,391.3273999999092,Correct
13,413,102,A,51.66359479860505,66.54318159775988,2.5831797399302525,1.04525785227007,A,374.5432000000619,Correct
13,413,103,A,67.80538198189606,88.26235399349858,3.390269099094803,1.3864218144725844,A,326.02270000006683,Correct
13,413,104,B,77.0694977502902,65.00899260865214,3.85347488751451,1.0211588679830734,A,406.83019999983117,Incorrect
13,413,105,B,35.96271621497836,15.898753946110737,1.7981358107489178,0.24973704299166613,B,418.6996999999337,Correct
13,413,106,A,32.30085363855147,47.48532514098634,1.6150426819275736,0.745897743081227,A,422.3368999998911,Correct
13,413,107,A,40.8578267668843,52.7498206274195,2.042891338344215,0.8285922448064024,A,403.86560000001737,Correct
13,413,108,B,68.30921508421122,57.34798568547445,3.415460754210561,0.9008200526382957,B,554.7791999999845,Correct
13,413,109,B,53.430322113796215,41.18914241369235,2.6715161056898107,0.6469975360725984,B,455.2315000000817,Correct
13,413,110,B,51.923232977031006,33.876367798471,2.5961616488515507,0.5321287410299117,B,403.9185000001453,Correct
13,413,111,B,30.416269004981192,14.722580147467152,1.5208134502490598,0.23126174816584866,A,372.76600000018334,Incorrect
13,413,112,A,34.36530944396068,44.839961465824274,1.7182654721980342,0.7043444676414148,A,387.94529999995575,Correct
13,413,113,B,81.63844804423584,68.37164226586785,4.0819224022117915,1.0739792452815993,B,526.9854999999097,Correct
13,413,114,A,25.690956797619055,40.513369897852314,1.2845478398809527,0.6363825262162934,A,450.8381000000554,Correct
13,413,115,B,87.20662620576991,61.952270049753785,4.360331310288496,0.9731439823075874,B,488.40640000003077,Correct
13,413,116,B,76.35017403728165,48.47361645546682,3.8175087018640825,0.7614217867471194,B,352.7158000001691,Correct
13,413,117,B,49.233241329884436,30.362865109811136,2.4616620664942217,0.47693876985460265,B,466.9435999999223,Correct
13,413,118,B,63.45530646159675,54.505145566659266,3.1727653230798376,0.8561648244752951,A,426.1143000001084,Incorrect
13,413,119,A,19.702411571435444,49.60284501139428,0.9851205785717723,0.779159667424747,A,407.92549999991934,Correct
13,413,120,A,49.023403708496886,66.0645230780516,2.451170185424844,1.0377391018246012,A,427.24840000005315,Correct
13,413,121,B,84.4465622338572,60.548331570703056,4.2223281116928595,0.9510909682481983,B,415.9511999998813,Correct
13,413,122,B,47.60792116095055,18.779286787396348,2.380396058047528,0.29498434705470117,B,563.8289000000896,Correct
13,413,123,A,27.462713843559527,56.246755055456234,1.3731356921779763,0.8835219623524294,A,350.6195000002208,Correct
13,413,124,B,34.98823952972071,18.176325391586005,1.7494119764860354,0.2855130515973211,B,389.50260000001435,Correct
13,413,125,B,59.333076917486466,35.77007590308261,2.966653845874323,0.5618750383773681,B,412.996000000021,Correct
13,413,126,B,43.54704737433742,32.340800804951485,2.1773523687168708,0.5080081111002323,B,357.28450000010525,Correct
13,413,127,B,37.42876381674368,18.147558493327754,1.8714381908371842,0.2850611822161476,B,380.47080000023925,Correct
13,413,128,A,23.704314452982825,35.40025751703175,1.1852157226491413,0.5560659447534688,A,473.19670000024416,Correct
13,413,129,A,56.66803731209026,84.59096755883272,2.8334018656045132,1.3287518112144068,A,485.875699999724,Correct
13,413,130,B,50.97308666531575,43.63562228280686,2.5486543332657874,0.6854267519924255,B,636.2380999999004,Correct
13,413,131,B,55.659180171650185,27.053485576012516,2.7829590085825093,0.42495515769799175,B,396.76860000008674,Correct
13,413,132,A,29.027309777372444,47.39756269563744,1.451365488868622,0.7445191738133811,A,511.59469999993235,Correct
13,413,133,B,83.48027627495225,68.82295582458687,4.174013813747612,1.0810684620842848,A,418.6526000003141,Incorrect
13,413,134,B,57.78604150918083,45.43854148259878,2.889302075459042,0.7137469405578369,B,406.7874999996093,Correct
13,413,135,A,34.491910839100534,52.54931853930932,1.7245955419550267,0.8254427653712203,A,354.1245000001254,Correct
13,413,136,A,59.93933622220368,86.348447012166,2.996966811110184,1.3563582339115414,A,464.19860000014523,Correct
13,413,137,A,33.94950248480824,46.16413842032884,1.6974751242404122,0.7251445906030369,A,485.1752999998098,Correct
13,413,138,A,62.919002694901735,76.3451588382326,3.1459501347450867,1.1992269507166873,A,560.5028999998467,Correct
13,413,139,B,68.15086535890183,57.33075775227503,3.407543267945091,0.9005494368964164,A,407.4305999997705,Incorrect
13,413,140,B,68.83319963094122,59.08329697695368,3.4416599815470614,0.9280782586633086,B,398.3549999998104,Correct
13,413,141,A,24.416419686574535,45.19358777067057,1.2208209843287268,0.7098992166485208,A,433.6843000000954,Correct
13,413,142,B,49.551480046487036,39.96738937018694,2.4775740023243515,0.6278062841427103,B,382.10220000019035,Correct
13,413,143,A,38.42563426474097,54.96579172769552,1.9212817132370485,0.8634006374523742,A,397.0039999999244,Correct
13,413,144,B,55.75246938977464,23.907067430821183,2.787623469488732,0.37553133704771824,B,350.9831999999733,Correct
13,413,145,B,55.41184432421895,41.25416707578331,2.770592216210947,0.6480189410762338,B,290.834200000063,Correct
13,413,146,B,64.55125117900549,56.564855328510454,3.2275625589502743,0.8885186697570895,B,517.0947999999953,Correct
13,413,147,A,36.78605530979827,58.932300700102374,1.8393027654899134,0.9257064146929312,A,438.47760000016933,Correct
13,413,148,A,44.05488766038523,70.64835619196066,2.2027443830192617,1.109741784004293,A,666.8987000002744,Correct
13,413,149,A,23.727166823896624,43.540226827220074,1.1863583411948313,0.6839282836801389,B,426.90219999985857,Incorrect
13,413,150,B,55.67863291957584,36.13608366261023,2.783931645978792,0.5676242748198123,B,510.27539999995497,Correct
13,413,151,A,39.55234089631869,63.49715464654669,1.9776170448159345,0.9974109728072306,A,396.3235999999597,Correct
13,413,152,A,27.581143316278215,51.81265218675688,1.3790571658139106,0.8138712373645927,A,379.53509999988455,Correct
13,413,153,B,64.36597614303652,32.72004254713724,3.2182988071518257,0.513965226456159,B,422.8444000000309,Correct
13,413,154,A,23.352159309009803,46.16097584949591,1.1676079654504903,0.7250949130565613,A,380.6541999997535,Correct
13,413,155,A,47.28529773270762,73.99424839285649,2.364264886635381,1.1622989357944815,A,435.02529999977924,Correct
13,413,156,A,37.35567406095288,70.25231309539113,1.8677837030476439,1.1035207535908538,A,370.23080000017217,Correct
13,413,157,B,58.572715776302594,26.374947686789,2.92863578881513,0.41429670945815705,B,343.4509000003345,Correct
13,413,158,B,43.32814462071012,35.33415815529679,2.1664072310355063,0.5550276584073014,B,366.39659999991636,Correct
13,413,159,B,34.3329137530256,20.17119090389128,1.71664568765128,0.3168483257891105,B,341.5334999999686,Correct
13,413,160,B,37.8145749829153,18.636155864394947,1.8907287491457652,0.29273605177368756,B,301.3055000001259,Correct
13,413,161,A,46.07560466908874,62.13586192455121,2.303780233454437,0.9760278367331992,A,407.51330000011876,Correct
13,413,162,A,30.561242928737013,40.454448691943554,1.5280621464368505,0.6354569940781754,A,499.3847000000642,Correct
13,413,163,B,77.95840529838242,51.11516542301249,3.897920264919121,0.8029151408998154,B,431.5077000001111,Correct
13,413,164,B,68.8929598269492,42.00731803669678,3.44464799134746,0.6598494087054831,B,352.90100000020175,Correct
13,413,165,B,66.35376777671564,34.23754621052997,3.317688388835782,0.53780211825971,B,390.50600000018676,Correct
13,413,166,B,75.14736191881138,58.557161205106794,3.7573680959405693,0.9198137372851837,A,614.7835000001578,Incorrect
13,413,167,B,60.62754506862513,37.031611632347804,3.031377253431257,0.5816911952738709,B,428.59120000002804,Correct
13,413,168,A,16.841711462583742,32.34020934637981,0.8420855731291872,0.5079988204907139,A,396.59590000019307,Correct
13,413,169,B,58.994828283160615,32.361615851753385,2.9497414141580305,0.5083350730908172,B,497.2851000002265,Correct
13,413,170,B,71.02645947977365,52.897810392273115,3.551322973988682,0.830916862596755,B,369.8906999998144,Correct
13,413,171,B,59.5701429655391,42.125336947885366,2.9785071482769547,0.6617032454273567,B,346.16779999987557,Correct
13,413,172,B,49.686219314143436,24.353271415889154,2.484310965707172,0.3825402928551783,B,347.8344999998626,Correct
13,413,173,A,39.858606374087714,62.70104462858207,1.9929303187043856,0.9849057058877959,A,413.50139999985913,Correct
13,413,174,A,33.491698175436596,60.99368374410318,1.6745849087718299,0.9580865438292687,A,475.8820000001833,Correct
13,413,175,B,38.783133720414966,26.354767630671716,1.9391566860207485,0.4139797218779217,B,395.9034999998039,Correct
13,413,176,A,25.67998458701054,45.49042011688953,1.283999229350527,0.7145618482396674,A,398.93930000016553,Correct
13,413,177,A,50.61190852763587,79.29755096417605,2.5305954263817934,1.2456030177835884,A,399.2545000000973,Correct
13,413,178,A,15.534323131092673,40.15368971134136,0.7767161565546337,0.6307326830583703,A,439.23220000033325,Correct
13,413,179,A,14.327102368740437,33.51123824471385,0.7163551184370219,0.5263932994114516,A,495.0091999999131,Correct
13,413,180,B,67.92490608800708,55.74288789028219,3.396245304400354,0.8756072354299499,B,563.4284000002481,Correct
13,413,181,A,20.435172078970524,51.30076350193068,1.0217586039485262,0.8058305087060641,A,364.2859999999928,Correct
13,413,182,B,37.92884649281258,18.706712565952532,1.896442324640629,0.2938443538500617,B,404.89350000007107,Correct
13,413,183,A,38.88408842663462,70.20416931909926,1.9442044213317309,1.102764512921281,A,441.3115000002108,Correct
13,413,184,A,25.136616227210176,57.85480223000266,1.2568308113605087,0.9087811083033336,A,436.04709999999614,Correct
13,413,185,B,86.34427681235601,68.46359448340449,4.317213840617801,1.0754236273370712,B,406.54029999996055,Correct
13,413,186,B,67.17647810890533,41.47135788039879,3.3588239054452664,0.6514305662572701,A,442.15040000017325,Incorrect
13,413,187,A,27.207938176157295,39.84406193444897,1.360396908807865,0.6258690613122081,A,422.31379999975616,Correct
13,413,188,A,38.795898396295975,64.65866200463857,1.9397949198147986,1.0156558877235902,A,423.38629999994737,Correct
13,413,189,A,53.29114872183371,62.56925393438959,2.6645574360916853,0.982835542504363,B,472.7999000001546,Incorrect
13,413,190,A,26.284664436067743,56.78032069479661,1.3142332218033872,0.8919031918162277,A,388.43679999990854,Correct
13,413,191,B,57.120952264802135,36.59075505138173,2.8560476132401065,0.5747662362936222,B,413.0088000001706,Correct
13,413,192,A,52.156972481834316,70.61841512593554,2.607848624091716,1.1092714708389673,A,426.8229000003885,Correct
13,413,193,B,59.18577546081722,47.05269175082371,2.959288773040861,0.7391019536800641,B,395.91840000002776,Correct
13,413,194,B,62.83518891269988,50.82798257524059,3.141759445634994,0.7984040832758291,B,331.63869999998496,Correct
13,413,195,A,40.626443978394455,71.35231637918471,2.0313221989197228,1.120799564767307,A,488.6296999998194,Correct
13,413,196,B,52.631743878707574,26.743519693865547,2.6315871939353785,0.4200862250069098,B,369.22009999989314,Correct
13,413,197,A,42.37647866117597,54.33072013515525,2.1188239330587986,0.8534249562042339,A,350.1743000001625,Correct
13,413,198,B,69.85008904420809,56.081659562686795,3.492504452210404,0.880928648416303,B,611.2052000003132,Correct
13,413,199,A,62.47865140477382,86.97210648303324,3.1239325702386913,1.3661546539716323,A,415.87920000029044,Correct
13,413,200,B,78.03239381088801,60.91837540922769,3.901619690544401,0.9569036032712742,B,335.89070000016363,Correct
13,413,201,A,32.62422338399477,52.5699833476063,1.6312111691997384,0.8257673674208886,A,390.272399999958,Correct
13,413,202,B,48.198335480798576,17.900497840856108,2.4099167740399285,0.2811803625621675,B,385.86510000004637,Correct
13,413,203,B,80.71090028242038,57.34005679887743,4.035545014121019,0.9006955059788738,B,544.2223999998532,Correct
13,413,204,A,39.61064998227579,46.93395354661148,1.9805324991137894,0.7372368183297962,A,419.26669999975275,Correct
13,413,205,A,33.882530428683914,43.87628852172318,1.6941265214341956,0.6892071284331586,B,423.16570000002685,Incorrect
13,413,206,A,20.031775504404624,51.75704288337412,1.0015887752202313,0.8129977284697001,A,402.21280000014303,Correct
13,413,207,B,44.67952028354573,20.51026352527814,2.2339760141772866,0.3221744660710225,B,460.688200000277,Correct
13,413,208,A,24.187164475321417,47.744689681639784,1.209358223766071,0.7499718317588198,A,432.0143999998436,Correct
13,413,209,B,45.956020501929366,16.519000759057395,2.297801025096468,0.25947985714649463,B,408.5739000001922,Correct
13,413,210,B,44.326216846401586,34.08335092921469,2.2163108423200795,0.5353800244447185,B,321.4351000001443,Correct
13,413,211,A,62.34050132577084,72.66574527536812,3.1170250662885417,1.1414308576236185,A,406.9867000002887,Correct
13,413,212,B,34.97877654773,16.96289798336099,1.7489388273865,0.26645257844060005,B,347.4183000002995,Correct
13,413,213,A,26.063441156345053,49.332078346663565,1.3031720578172528,0.774906474600972,A,329.7566999999617,Correct
13,413,214,A,41.61073842894128,60.06072093273606,2.0805369214470644,0.9434315982579515,A,341.8893000002754,Correct
13,413,215,B,53.50144481336882,40.508932077239166,2.6750722406684413,0.6363128170931124,B,381.9324000000961,Correct
13,413,216,A,23.73927168173286,45.25101486945766,1.186963584086643,0.7108012794068534,A,428.29429999983404,Correct
13,413,217,A,16.826313452119027,41.17615559867289,0.8413156726059513,0.646793539659305,A,391.90629999984594,Correct
13,413,218,B,62.08076019408487,32.64491070072499,3.1040380097042437,0.5127850581724622,B,370.4113000003417,Correct
13,413,219,A,34.84301787525226,62.68035355651698,1.742150893762613,0.9845806912878228,A,367.3659000000953,Correct
13,413,220,A,63.15793068608691,73.77750197094804,3.1578965343043457,1.158894290960684,B,608.4921000001486,Incorrect
13,413,221,A,41.19968688594065,73.90330803385628,2.0599843442970327,1.1608704479757321,A,484.380400000191,Correct
13,413,222,B,89.39882898437806,66.48916425137593,4.4699414492189025,1.0444093497772384,B,468.11609999986104,Correct
13,413,223,A,35.48547887964046,51.25452139563832,1.774273943982023,0.805104139398991,A,379.30450000021665,Correct
13,413,224,B,56.456503477221965,28.568593128520618,2.8228251738610983,0.4487544114797811,B,370.505399999729,Correct
13,413,225,A,56.36212652931873,82.46161917431053,2.8181063264659367,1.2953040850056659,A,400.88409999998476,Correct
13,413,226,B,57.689897743166384,34.217772921663276,2.8844948871583194,0.5374915201645055,B,441.44230000028983,Correct
13,413,227,B,50.983922289760784,36.1839954872165,2.5491961144880393,0.568376872000828,B,521.7090999999527,Correct
13,413,228,A,37.15784729717706,65.74874211400332,1.8578923648588528,1.0327788260406132,A,393.4565000004113,Correct
13,413,229,A,29.294016526850495,54.21859557236492,1.4647008263425247,0.8516637076904885,A,414.4542000003639,Correct
13,413,230,A,59.54463038671646,82.27379621272088,2.977231519335823,1.2923537688241384,A,404.7989000000598,Correct
13,413,231,A,28.58147765591837,51.497001838054324,1.4290738827959186,0.8089130132816578,A,536.6696999999476,Correct
13,413,232,B,61.881421308322885,33.31094269761151,3.0940710654161445,0.5232470643148344,B,383.33339999962845,Correct
13,413,233,A,38.44442090166859,56.53679847528379,1.9222210450834296,0.8880779537371908,A,394.1042000001289,Correct
13,413,234,B,48.393662862484575,26.239999452565293,2.419683143124229,0.4121769475518966,B,414.5260000000235,Correct
13,413,235,B,51.8780459861077,24.604184154786395,2.5939022993053853,0.38648162094123667,B,386.912399999801,Correct
13,413,236,B,70.79046789120213,60.808505911328396,3.5395233945601063,0.955177777234004,A,457.0234999996501,Incorrect
13,413,237,B,53.59687470052662,25.753105384546306,2.679843735026331,0.4045288334160721,B,419.24810000000434,Correct
13,413,238,B,45.17314265822348,33.281267071661496,2.258657132911174,0.5227809206724583,B,475.0230999998166,Correct
13,413,239,A,19.06783293782755,49.7662054979299,0.9533916468913775,0.7817257279466828,A,380.6411999999,Correct
13,413,240,A,58.45099533163021,83.2740282893946,2.9225497665815108,1.3080653775439535,A,753.6611999998968,Correct
13,413,241,A,41.666016695126935,55.518136253150715,2.0833008347563466,0.8720768449694772,A,362.2240999998212,Correct
13,413,242,B,66.04123865297744,47.41436848134064,3.302061932648872,0.7447831584778959,B,396.1759999997412,Correct
13,413,243,B,79.33989119378292,54.059090032345125,3.9669945596891463,0.8491582005268232,B,352.8862999996818,Correct
13,413,244,A,57.830009525087675,71.26436705982151,2.891500476254384,1.1194180600893082,A,434.5204000001104,Correct
13,413,245,B,83.52168468168216,57.49432896253798,4.176084234084108,0.9031188074589209,B,475.1071000000593,Correct
13,413,246,B,78.07103648678336,58.63461361363317,3.9035518243391674,0.9210303568733302,B,430.4474999999002,Correct
13,413,247,B,73.78745313927413,49.974047540107264,3.6893726569637066,0.7849905031107401,B,370.35610000020824,Correct
13,413,248,A,54.35765574897072,73.03730446161293,2.717882787448536,1.147267295673021,A,426.3781999998173,Correct
13,413,249,A,48.433346256777845,67.14895582665653,2.4216673128388924,1.0547733316062484,A,321.5178000000378,Correct
13,413,250,A,67.38411726220576,86.5521222306103,3.3692058631102886,1.3595575567614557,A,387.49949999964883,Correct
13,413,251,B,75.54674393016239,57.98533226484029,3.7773371965081197,0.9108314692959272,A,342.250299999705,Incorrect
13,413,252,B,45.05299090368927,24.673648418849268,2.2526495451844637,0.38757276304957144,B,408.48100000039267,Correct
13,413,253,A,41.92979687284459,72.58693327797043,2.0964898436422295,1.140192881663422,B,332.9032999999981,Incorrect
13,413,254,A,50.35366523529047,70.0128742150357,2.5176832617645233,1.0997596564533119,A,393.88089999965814,Correct
13,413,255,B,30.428815522072615,11.424803898671865,1.5214407761036306,0.17946039998385777,B,637.465499999962,Correct
13,413,256,A,62.84057909017252,78.43331197919193,3.1420289545086257,1.2320275835527283,A,381.51319999997213,Correct
13,413,257,B,54.08239158462011,21.897725266071213,2.7041195792310053,0.34396866413108457,B,360.84770000024946,Correct
13,413,258,A,30.631319251504053,47.76658188593864,1.5315659625752027,0.7503157136998007,A,345.13849999984814,Correct
13,413,259,A,26.59386536067729,41.42141140282251,1.3296932680338645,0.6506460088221384,A,461.81960000012623,Correct
13,413,260,A,23.818014055190037,56.29081719514468,1.1909007027595018,0.8842140888241625,A,434.83000000014727,Correct
13,413,261,B,64.47625450033313,35.82890864427921,3.2238127250166566,0.5627991809150371,B,374.97010000015507,Correct
13,413,262,B,71.35151378329934,45.97604421558082,3.5675756891649666,0.722190013743941,B,359.8236999996516,Correct
13,413,263,B,55.10599121593857,48.062924686578945,2.7552995607969284,0.7549706555269796,B,366.16319999984626,Correct
13,413,264,B,87.45240679325215,68.62313918429426,4.372620339662608,1.0779297496382436,A,350.18680000030145,Incorrect
13,413,265,A,65.01467870700262,85.46155508945213,3.250733935350131,1.342426968166911,B,490.0767999997697,Incorrect
13,413,266,B,76.92884369936391,57.467898203846076,3.8464421849681956,0.9027036340722445,B,385.0032000000283,Correct
13,413,267,B,30.173863814061285,12.382898464271669,1.5086931907030643,0.19451011422752099,B,769.56250000012,Correct
13,413,268,B,54.79752042344376,37.04122180783868,2.7398760211721878,0.5818421515574802,A,497.01299999969706,Incorrect
13,413,269,A,33.591944094234826,43.231489390131344,1.6795972047117413,0.6790786473589087,B,702.8399000000718,Incorrect
13,413,270,A,44.716489078022306,76.83711003214123,2.2358244539011154,1.2069545020002275,A,801.581200000328,Correct
13,413,271,B,64.75183946131651,52.41332917975111,3.237591973065826,0.823306649506448,A,486.0450999999557,Incorrect
13,413,272,A,32.802425200049484,45.02593542036884,1.6401212600024742,0.707265739688196,A,1106.2050999998974,Correct
13,413,273,B,55.71364065793803,25.311368153870802,2.785682032896901,0.3975900412225358,B,420.3975000000355,Correct
13,413,274,B,70.6838524589425,55.19689720820579,3.534192622947125,0.8670308338512515,B,476.9994999996925,Correct
13,413,275,B,44.36225797366281,27.7254588735432,2.21811289868314,0.4355104895726463,B,550.6775000003472,Correct
13,413,276,A,24.694306694685537,43.313316405577766,1.2347153347342767,0.6803639831118669,A,404.75560000004407,Correct
13,413,277,B,67.87048115688171,39.59486196187152,3.3935240578440857,0.6219546372965876,B,409.70740000011574,Correct
13,413,278,A,33.10303208121529,53.35189187593686,1.6551516040607646,0.838049557862801,A,452.21340000034616,Correct
13,413,279,B,64.7048268562232,51.80788157445454,3.2352413428111606,0.8137963007617821,A,496.3706999997157,Incorrect
13,413,280,A,37.85088929322779,54.60452229405692,1.8925444646613894,0.8577258304589465,A,656.9531000000097,Correct
13,413,281,A,38.54986373881381,71.66352523550384,1.9274931869406908,1.125688022051028,A,432.1153000000777,Correct
13,413,282,A,28.454906163576794,45.41053080114825,1.4227453081788397,0.7133069498025016,B,923.1856999999764,Incorrect
13,413,283,A,47.80366883910975,65.54495816775086,2.3901834419554873,1.029577795298282,A,405.98129999989396,Correct
13,413,284,B,40.14915503994557,26.311733374133446,2.0074577519972787,0.41330374135695513,B,447.07370000014635,Correct
13,413,285,A,40.37131935564378,54.46468567890623,2.0185659677821888,0.8555292820446451,A,425.88419999992766,Correct
13,413,286,A,47.27594498004188,71.6438654046585,2.363797249002094,1.1253792061502554,A,364.64440000008835,Correct
13,413,287,A,27.74478878711222,48.530860252069274,1.387239439355611,0.7623209702014686,A,514.9696999997104,Correct
13,413,288,A,27.377515140166686,51.42838270181831,1.3688757570083343,0.807835146410184,A,419.0343000000212,Correct
13,413,289,B,42.23694748125946,31.867493037318383,2.111847374062973,0.5005734100718165,B,336.298799999895,Correct
13,413,290,B,68.2696662224015,50.08115715463566,3.413483311120075,0.7866729770013965,B,463.46170000015263,Correct
13,413,291,B,39.43244472900227,20.783783451140923,1.9716222364501135,0.3264709070195272,B,413.8247000000774,Correct
13,413,292,B,43.20348019129447,23.83195633954069,2.1601740095647233,0.3743514947848686,B,401.71460000010484,Correct
13,413,293,B,61.323642695306866,40.217255725492436,3.0661821347653433,0.6317311756737454,B,418.2975000003353,Correct
13,413,294,B,61.79892205780812,52.72856865357703,3.0899461028904063,0.8282584195819133,A,487.8161999999975,Incorrect
13,413,295,A,35.94408785060285,50.98327066998489,1.7972043925301424,0.8008433429640225,A,543.5714999998709,Correct
13,413,296,A,44.3237483021573,54.74512367618717,2.216187415107865,0.8599343918048713,A,393.45659999980853,Correct
13,413,297,A,35.258174203805396,60.11371000240379,1.7629087101902698,0.9442639486178952,A,409.5153000002938,Correct
13,413,298,B,69.86031412011283,37.484111507401614,3.4930157060056417,0.5887990466899677,B,362.0709000001625,Correct
13,413,299,B,63.133660568325695,46.43655906485095,3.1566830284162846,0.7294237640806213,B,420.600800000102,Correct
13,413,300,A,29.311278686776845,42.64318965705162,1.4655639343388425,0.6698376567611481,A,405.3940999997394,Correct
13,413,301,B,58.49388819667602,33.86178941242142,2.924694409833801,0.5318997442773389,B,410.42060000017955,Correct
13,413,302,A,57.90454100463125,86.22772964981785,2.8952270502315622,1.3544620100179725,A,361.8839000000662,Correct
13,413,303,B,73.0513075056755,60.03799202647846,3.652565375283775,0.9430745734333367,A,383.95700000000943,Incorrect
13,413,304,A,35.976166046261056,46.262864972969666,1.7988083023130528,0.7266953836654901,A,468.9518999998654,Correct
13,413,305,B,61.683251016685105,52.1891177935132,3.0841625508342556,0.819784745287167,B,788.954399999966,Correct
13,413,306,B,52.12693908862684,24.41784183598015,2.6063469544313422,0.38355456264216364,B,575.18570000002,Correct
13,413,307,A,45.168287994432575,69.44490860173167,2.258414399721629,1.0908380734620742,A,408.2736999998815,Correct
13,413,308,A,18.6534955900349,42.31512650365895,0.932674779501745,0.6646844527980886,A,371.0737000001245,Correct
13,413,309,A,61.41971827250248,82.64455538307081,3.070985913625124,1.29817764025325,A,540.7422999996925,Correct
13,413,310,A,32.754147621799525,62.40648355623344,1.6377073810899763,0.980278751383176,A,468.45470000016576,Correct
13,413,311,B,77.96164178248634,48.43456341302425,3.8980820891243173,0.7608083429909298,B,450.56509999994887,Correct
13,413,312,A,36.905349058850234,63.68886731020885,1.8452674529425115,1.0004223882860364,A,284.536499999831,Correct
13,413,313,A,35.30252999230376,43.28082291103355,1.765126499615188,0.6798535764931191,A,406.7987000003086,Correct
13,413,314,B,63.576522147508136,47.533169316902516,3.1788261073754067,0.7466492776391034,B,347.45569999995496,Correct
13,413,315,B,73.68684717232605,54.03976665397927,3.684342358616303,0.8488546696092397,B,321.27429999991364,Correct
13,413,316,A,54.15663213507142,63.15789827931552,2.7078316067535706,0.9920819462523452,A,419.21659999979966,Correct
13,413,317,B,49.266017171317486,40.01539773437141,2.463300858565874,0.6285603977638743,B,389.9603999998362,Correct
13,413,318,B,49.165805421453285,30.588667691810333,2.458290271072664,0.48048566851845403,B,316.31289999995715,Correct
13,413,319,B,45.41637128145856,29.715778328068865,2.270818564072928,0.46677435445581966,B,343.097200000102,Correct
13,413,320,B,43.182191117233245,35.0382366208101,2.159109555861662,0.5503793338133894,B,301.73599999989165,Correct
13,413,321,B,43.19977360112057,29.313896853081616,2.1599886800560286,0.46046161500865074,B,281.92529999978433,Correct
13,413,322,A,53.835662592377645,82.07347190122442,2.691783129618882,1.289207081897475,A,348.41980000010153,Correct
13,413,323,A,29.63804022743316,39.15458517272636,1.481902011371658,0.6150387856649647,B,324.43770000008954,Incorrect
13,413,324,B,35.71412915966421,23.5172508102075,1.7857064579832105,0.36940811188988243,A,325.53630000029443,Incorrect
13,413,325,A,33.85306447060579,42.15108792159996,1.6926532235302891,0.6621077407765795,A,565.5525000001944,Correct
13,413,326,B,81.8956648697407,65.6274874051633,4.094783243487035,1.0308741615280885,B,475.9218000003784,Correct
13,413,327,A,54.4276267368119,68.19416379287826,2.7213813368405955,1.071191419947027,A,435.9454000000369,Correct
13,413,328,A,35.708158325078756,46.03108796086673,1.7854079162539378,0.7230546388730225,B,786.8688999997175,Incorrect
13,413,329,A,18.546747458643566,35.873960845070364,0.9273373729321783,0.5635068592302048,A,503.0117999999675,Correct
13,413,330,B,66.96263550646229,43.13651476964743,3.3481317753231146,0.6775867895089598,B,520.637699999952,Correct
13,413,331,B,76.54970097782115,65.31979164790863,3.8274850488910572,1.0260408878754284,B,552.7113000002828,Correct
13,413,332,B,83.83486640637634,65.53635418786538,4.1917433203188175,1.029442644298283,B,423.6330000003363,Correct
13,413,333,A,58.136663860239,76.99452979854436,2.9068331930119498,1.209427245908537,A,428.87960000007297,Correct
13,413,334,B,44.92974161814008,22.484339324937903,2.246487080907004,0.35318317622022505,B,412.3380000000907,Correct
13,413,335,B,61.79677583913452,33.28262984716724,3.0898387919567263,0.5228023271000449,B,423.37210000005143,Correct
13,413,336,B,52.75171771766012,28.024935944669224,2.637585885883006,0.4402146644054868,B,444.3653999996968,Correct
13,413,337,A,14.819497929861857,33.14690268574364,0.7409748964930928,0.52067032983394,A,372.1153999999842,Correct
13,413,338,A,17.407671853590006,36.81469510670473,0.8703835926795003,0.5782838784568584,A,391.6778999996495,Correct
13,413,339,B,52.581366367727775,25.636230666777227,2.629068318386389,0.40269296964240353,B,696.0183999999572,Correct
13,413,340,B,44.563890103341635,34.696413100782394,2.2281945051670817,0.5450099825166731,B,380.71990000025835,Correct
13,413,341,A,49.34315623162598,73.19843400435292,2.4671578115812993,1.1497983126117621,A,420.1877999998942,Correct
13,413,342,B,43.1443746541578,15.5638662814574,2.1572187327078898,0.24447663985640233,B,416.3319999997839,Correct
13,413,343,B,62.13296586127243,40.59767745576856,3.1066482930636217,0.6377068262392523,B,603.3803000000262,Correct
13,413,344,A,43.95767090576972,75.98728780891008,2.1978835452884855,1.193605525733426,A,449.47529999990365,Correct
13,413,345,B,35.110425654126416,12.96553031191208,1.7555212827063207,0.20366207388899385,B,367.82579999999143,Correct
13,413,346,A,17.678168399888822,47.10356984808536,0.883908419994441,0.7399011449629932,A,306.05519999971875,Correct
13,413,347,A,43.03903335785708,62.791154708848396,2.151951667892854,0.9863211517186913,A,365.67150000018955,Correct
13,413,348,A,58.98172362448029,68.0403102196227,2.9490861812240143,1.0687746936696858,A,399.61570000014035,Correct
13,413,349,B,44.23827088206408,21.5711680828064,2.211913544103204,0.33883911589147603,B,318.5011000000486,Correct
13,413,350,A,31.05271340946232,49.78737189963669,1.552635670473116,0.7820582090072077,A,431.0869000000821,Correct
13,413,351,B,49.11488185828404,30.48983288257096,2.4557440929142023,0.47893317496532717,B,321.6072999998687,Correct
13,413,352,A,36.409326977789874,58.945178038437014,1.8204663488894937,0.9259086914504807,A,332.09060000035606,Correct
13,413,353,A,38.102583267424045,50.900523140522914,1.9051291633712024,0.7995435478107201,A,411.285399999997,Correct
13,413,354,A,11.921355708423334,33.00107052605835,0.5960677854211667,0.5183796036263179,A,452.13520000015706,Correct
13,413,355,A,58.136966654748434,65.96610969568495,2.9068483327374217,1.0361932280293114,A,497.6781000000301,Correct
13,413,356,A,52.86719819452343,60.975750578023856,2.6433599097261715,0.9578048503152166,A,458.4939999999733,Correct
13,413,357,B,51.05227834974718,41.891662462786336,2.552613917487359,0.6580326951987643,B,576.3064000002487,Correct
13,413,358,A,47.02805606787447,61.17727506748334,2.3514028033937238,0.9609703895932385,A,413.2921999998871,Correct
13,413,359,B,41.85832823381112,14.161704767032418,2.092916411690556,0.222451538292083,B,367.78069999991203,Correct
13,413,360,B,63.10181085169067,30.440648649012374,3.1550905425845337,0.4781605908312267,B,458.56210000010833,Correct
13,413,361,B,59.080632061369904,41.04295876272472,2.954031603068495,0.6447012886528241,B,336.091099999976,Correct
13,413,362,A,36.361674369024975,50.15858312524032,1.8180837184512486,0.7878891813036397,A,334.7367999999733,Correct
13,413,363,A,34.9438698998318,47.01226589272386,1.7471934949915902,0.7384669457859564,A,367.2652999998718,Correct
13,413,364,B,45.467684946511135,33.34589960314609,2.2733842473255566,0.5237961661029327,B,336.9994999998198,Correct
13,413,365,B,71.95649425588498,55.93301696080181,3.597824712794249,0.8785937758858413,A,414.7786999997152,Incorrect
13,413,366,B,75.5317512169655,47.835901748368336,3.7765875608482755,0.7514045875525855,B,432.1624999997766,Correct
13,413,367,A,67.33786597792195,81.13055579182095,3.366893298896098,1.2743957902862078,A,437.131700000009,Correct
13,413,368,A,15.555968146104263,43.679444673393974,0.7777984073052131,0.6861151124940815,A,427.5276999997004,Correct
13,413,369,A,50.2852169000746,66.60893604956229,2.5142608450037303,1.046290720783686,A,354.15699999975914,Correct
13,413,370,B,81.91252836862715,68.23074942793586,4.095626418431357,1.0717661057586465,A,842.9687000002559,Incorrect
13,413,371,B,39.79078560398794,14.93746159763145,1.9895392801993972,0.2346370980919931,B,403.0235999998695,Correct
13,413,372,B,72.35651960009359,52.09267419371033,3.6178259800046795,0.8182698127640349,B,521.362400000271,Correct
13,413,373,A,43.53155053699727,58.446378133214274,2.1765775268498633,0.9180735608611856,A,392.54269999992175,Correct
13,413,374,A,56.73302028663223,64.20952802830703,2.8366510143316117,1.0086009077209865,B,403.05869999974675,Incorrect
13,413,375,B,59.857056993929,45.22477542272277,2.9928528496964497,0.7103891111413705,A,519.2268999999214,Incorrect
13,413,376,B,31.680208311628263,17.524192584259637,1.5840104155814132,0.2752693734140141,B,555.3663000000597,Correct
13,413,377,B,84.41845393988025,64.49793669047259,4.220922696994013,1.0131312203924414,A,416.6480999997475,Incorrect
13,413,378,B,82.44227699937215,67.52136199448458,4.122113849968608,1.060623074011249,A,465.7462000000123,Incorrect
13,413,379,B,80.59560704681459,54.15658707426944,4.02978035234073,0.850689680480104,B,466.05429999999615,Correct
13,413,380,A,41.39694000711453,53.97305741811499,2.0698470003557263,0.8478068033826506,A,535.0367999999435,Correct
13,413,381,A,33.032741587347104,50.05131348423017,1.6516370793673554,0.7862041937228863,A,442.3519000001761,Correct
13,413,382,A,16.234729701158113,37.77363899871975,0.8117364850579056,0.5933469338886543,A,396.3051999999152,Correct
13,413,383,A,31.354488486062156,48.336450916995815,1.5677244243031077,0.7592671955071884,A,615.8959999997933,Correct
13,413,384,B,52.78405340437813,44.68079512432963,2.6392026702189066,0.7018442885957229,B,461.72980000028474,Correct
13,413,385,A,22.588844955130106,50.42710785624221,1.1294422477565051,0.7921071579147534,A,398.5442000002877,Correct
13,413,386,A,40.75785004653453,63.24297851052479,2.0378925023267267,0.9934183833990092,A,418.4534999999414,Correct
13,413,387,B,69.16554405945332,46.73768287274618,3.4582772029726665,0.7341538057941445,B,440.23169999991296,Correct
13,413,388,A,49.431777335063124,80.8110214011439,2.471588866753156,1.2693765558146064,A,516.4027000000715,Correct
13,413,389,A,23.052432353710937,41.523389727436665,1.1526216176855468,0.6522478805993045,B,390.63309999983176,Incorrect
13,413,390,A,29.94222012164363,44.864305183459,1.4971110060821815,0.7047268578638265,A,399.4821999999658,Correct
13,413,391,A,52.86571083665075,82.95121383051486,2.6432855418325376,1.3029946198815074,A,424.0546999999424,Correct
13,413,392,B,75.37084840415572,57.904745005166106,3.768542420207786,0.9095656075811006,A,424.06320000009146,Incorrect
13,413,393,A,25.786103077462244,45.20091921102731,1.2893051538731124,0.7100143786443458,A,473.7574000000677,Correct
13,413,394,B,79.33472758120973,58.72985286712421,3.9667363790604866,0.9225263715688342,B,507.4040999998033,Correct
13,413,395,A,43.354052195641245,63.8775412757354,2.1677026097820624,1.0033860720061456,A,424.10819999986415,Correct
13,413,396,B,79.42053244274013,57.10363000001854,3.971026622137006,0.8969817225068398,B,650.3308000001198,Correct
13,413,397,B,50.803556459589394,43.16179809054886,2.54017782297947,0.6779839389849712,B,683.476900000187,Correct
13,413,398,B,86.78474057959669,64.50159936507308,4.339237028979834,1.0131887535505282,B,343.0521999998746,Correct
13,413,399,B,35.477099084345696,22.864624558109252,1.7738549542172848,0.359156682694224,B,613.1332999998449,Correct
13,413,400,B,63.85644596347071,38.552631287952124,3.1928222981735352,0.6055833161539321,B,396.6066000002684,Correct
13,413,401,B,82.06224295963733,60.68494104602654,4.103112147981866,0.9532368248686333,B,487.6465000002099,Correct
13,413,402,A,54.11430339729707,75.51504505641026,2.7057151698648534,1.1861875539236033,A,396.07510000041657,Correct
13,413,403,A,15.795958652136065,43.193640232873726,0.7897979326068032,0.6784841141869831,A,376.2072999998054,Correct
13,413,404,A,35.38043756563951,58.18697201796549,1.7690218782819755,0.9139988191313762,A,414.3257000000631,Correct
13,413,405,B,41.919227891701084,29.61843818088466,2.0959613945850544,0.46524533899935344,B,638.6288000003333,Correct
13,413,406,B,41.00520225617974,29.41034315462287,2.0502601128089872,0.46197658997059027,B,326.9068999998126,Correct
13,413,407,A,16.08806799546237,37.07415539970822,0.8044033997731185,0.5823594712088485,B,328.8492000001497,Incorrect
13,413,408,B,71.89404597066377,58.50237373376059,3.5947022985331887,0.9189531376977338,B,443.3632000000216,Correct
13,413,409,A,48.557776163536296,64.88844509072841,2.4278888081768146,1.0192653119994852,A,550.4101999999875,Correct
13,413,410,A,54.11090776404145,79.74135902504509,2.7055453882020726,1.2525743385017392,A,402.58719999974346,Correct
13,413,411,A,59.766234882789774,69.47497260325174,2.9883117441394886,1.0913103176936392,A,376.3887000000068,Correct
13,413,412,B,52.90630104440567,45.80947336863204,2.6453150522202837,0.7195735249985584,A,623.848199999884,Incorrect
13,413,413,B,86.96732004135205,63.057166387520994,4.348366002067603,0.9904996533961259,B,457.49270000032993,Correct
13,413,414,B,33.34600365750508,14.098306101572181,1.667300182875254,0.2214556743837966,B,453.09880000013436,Correct
13,413,415,B,51.63347970407944,37.7660535643172,2.581673985203972,0.5932277821636875,B,387.4915000001238,Correct
13,413,416,A,30.11265856381158,50.28537718236557,1.505632928190579,0.7898808576955575,A,506.1161999997239,Correct
13,413,417,A,16.421698645698417,31.942962906973495,0.8210849322849207,0.5017588880121959,A,449.8616000000766,Correct
13,413,418,B,80.13052385866341,50.05611406971917,4.006526192933171,0.7862796011434121,B,441.0478999998304,Correct
13,413,419,A,63.158462067295545,77.75053020172021,3.1579231033647774,1.2213024724721777,A,482.7164999996967,Correct
13,413,420,B,35.528783134174425,25.170355396199433,1.7764391567087214,0.3953750180047218,B,348.66029999966486,Correct
13,413,421,B,59.17910445959112,42.79004905326475,2.958955222979556,0.6721445187624172,A,394.7696000000178,Incorrect
13,413,422,B,40.246934106233766,15.939285619713463,2.012346705311688,0.2503737130318063,B,494.3412999996326,Correct
13,413,423,A,65.68972646903678,76.77859638504196,3.284486323451839,1.2060353717809182,A,565.2560999997149,Correct
13,413,424,A,36.354076136509,57.28472191295707,1.81770380682545,0.8998263076234008,A,463.4689999998045,Correct
13,413,425,A,40.33456014013971,61.99622642646471,2.0167280070069853,0.9738344474583545,A,443.647300000066,Correct
13,413,426,B,82.63881125818169,64.07690394314733,4.131940562909085,1.0065176534628526,B,428.4861000001001,Correct
13,413,427,A,47.08432207890588,65.75084221835607,2.354216103945294,1.0328118144026452,A,613.6314000000311,Correct
13,413,428,A,45.69464345309688,71.44362199178705,2.284732172654844,1.1222337899762218,B,443.9723000000413,Incorrect
13,413,429,B,81.25477639307692,51.84213756333366,4.062738819653846,0.8143343925768024,B,546.6161999997894,Correct
13,413,430,B,85.25056031055479,65.62159688455833,4.262528015527739,1.0307816334467965,B,418.6376999996355,Correct
13,413,431,A,58.83974529506639,67.70865329853703,2.94198726475332,1.0635650389357112,A,519.334500000241,Correct
13,413,432,A,55.423651960649636,64.88867747512376,2.771182598032482,1.0192689622850315,A,484.0243999997256,Correct
13,413,433,B,50.594137262460734,42.54739143571188,2.5297068631230366,0.6683328618192086,B,448.4904999999344,Correct
13,413,434,B,46.352560734490154,18.77829735159977,2.317628036724508,0.29496880503355255,B,408.50659999978234,Correct
13,413,435,B,51.56278895575437,34.97586293881777,2.5781394477877186,0.5493995703077671,B,557.4617000002036,Correct
13,413,436,A,65.74385832023455,79.07982083258801,3.2871929160117275,1.2421829208742778,A,426.1563000000024,Correct
13,413,437,A,63.11235776301524,85.83897408154762,3.1556178881507617,1.3483554518313734,A,429.2374000001473,Correct
13,413,438,A,57.96941720112393,70.7032533499496,2.8984708600561966,1.1106041065454981,A,519.7284000000764,Correct
13,413,439,A,20.150271845809197,51.70099995626025,1.00751359229046,0.8121174082291671,B,452.68720000012763,Incorrect
13,413,440,A,15.007045891696624,33.56848066728641,0.7503522945848311,0.5272924612825899,A,298.5095999997611,Correct
13,413,441,B,54.55625382125898,25.615248404324795,2.7278126910629488,0.40236338103452235,B,406.3995999999861,Correct
13,413,442,B,82.49448783613094,55.40947137459226,4.124724391806547,0.8703699410485648,B,452.213699999902,Correct
13,413,443,B,65.73250272841476,40.94478842176608,3.286625136420738,0.6431592325430436,B,332.5073999999404,Correct
13,413,444,A,28.132019424515654,45.65313457426838,1.4066009712257825,0.7171177609593385,A,1348.2294000000365,Correct
13,413,445,B,76.53300728186079,57.580749552455785,3.8266503640930396,0.9044762989109444,B,384.13089999994554,Correct
13,413,446,B,67.3404811824153,48.93362707190296,3.3670240591207654,0.768647616612965,B,880.6801000000632,Correct
13,413,447,A,44.01588891176882,61.31705182174652,2.200794445588441,0.9631659977149174,A,517.1347000000424,Correct
13,413,448,A,59.321315781980296,81.22872237586719,2.966065789099015,1.275937787382546,A,562.9454999998416,Correct
13,413,449,B,61.70659578083606,35.835630066240356,3.085329789041803,0.5629047607643112,B,490.700299999844,Correct
13,413,450,B,78.34076383287268,55.12587393997649,3.9170381916436336,0.8659152029627359,B,601.8757000001642,Correct
13,413,451,A,35.96189180260749,51.07272816294588,1.7980945901303744,0.8022485379774965,A,435.0076999999146,Correct
13,413,452,B,56.50640366121022,25.523068283122797,2.825320183060511,0.40091541907664613,B,390.58969999996407,Correct
13,413,453,A,35.57246869739309,51.70285587003056,1.7786234348696548,0.8121465608544998,A,359.41840000032244,Correct
13,413,454,A,45.17598484691934,70.16198306746575,2.258799242345967,1.1021018528302093,A,477.78180000022985,Correct
13,413,455,A,27.206977321823107,52.99030267674028,1.3603488660911554,0.832369728003734,A,411.31529999984195,Correct
13,413,456,B,81.35010800682699,64.25620390000014,4.067505400341349,1.0093340905990413,B,465.1355999999396,Correct
13,413,457,A,25.796643885652518,46.97183095671667,1.289832194282626,0.7378317952964135,A,449.7034999999414,Correct
13,413,458,A,14.184925526326854,36.016239682316694,0.7092462763163426,0.5657417699794766,A,385.1673000003757,Correct
13,413,459,B,48.40929877402038,40.05864051152044,2.420464938701019,0.6292396537189353,B,471.24859999985347,Correct
13,413,460,A,25.364375058952504,47.98511221831596,1.2682187529476252,0.7537483801337161,B,399.2572000001928,Incorrect
13,413,461,B,35.616763834444306,17.98372654321667,1.7808381917222151,0.28248771596168626,B,401.5128000000914,Correct
13,413,462,B,74.54765670971256,43.95433167732035,3.7273828354856278,0.6904330274545936,B,448.6351000000468,Correct
13,413,463,B,77.4429409313443,48.57224511497674,3.872147046567215,0.7629710421078681,B,375.60849999999846,Correct
13,413,464,B,70.68650181552023,54.15708887618212,3.5343250907760115,0.8506975627661164,B,345.244300000104,Correct
13,413,465,A,59.323139306160755,71.54050046537877,2.966156965308038,1.1237555534808557,A,405.69019999975353,Correct
13,413,466,B,60.33059228637598,36.653973705211996,3.016529614318799,0.5757592725858374,B,369.5849000000635,Correct
13,413,467,B,48.1023970619558,29.218597751223275,2.4051198530977898,0.45896466021719146,B,354.1537999999491,Correct
13,413,468,B,37.33158296291718,27.198449916270103,1.8665791481458591,0.42723225222992034,B,364.3496999998206,Correct
13,413,469,B,39.6462659025091,23.448870916204125,1.982313295125455,0.3683340030266111,B,336.8078000003152,Correct
13,413,470,A,29.13832535432295,49.78099276444201,1.4569162677161476,0.7819580057858883,A,396.1094999999659,Correct
13,413,471,A,36.11680511469749,64.54053582664746,1.8058402557348745,1.0138003660587225,A,510.0757000000158,Correct
13,413,472,B,36.28912075166712,22.109136538843913,1.814456037583356,0.3472895046382285,B,371.3373999999021,Correct
13,413,473,B,66.77675712700875,44.56669608393463,3.3388378563504375,0.7000520250602902,A,379.92480000002615,Incorrect
13,413,474,B,46.20539189744642,38.82280899743917,2.310269594872321,0.609827257690373,B,406.1271000000488,Correct
13,413,475,A,15.986520700457618,35.16429519971778,0.7993260350228809,0.5523594573404811,B,395.67129999977624,Incorrect
13,413,476,A,50.062813367690694,61.40989049695996,2.5031406683845345,0.9646243042150153,A,690.8519000003253,Correct
13,413,477,B,44.94813884643797,32.41838465402025,2.2474069423218985,0.5092267953515905,B,591.004200000043,Correct
13,413,478,A,50.85163174849097,62.24541316130295,2.5425815874245488,0.9777486635360538,A,714.0315000001465,Correct
13,413,479,A,38.94202181199474,69.05037288750466,1.9471010905997372,1.0846407209551026,A,446.76909999998315,Correct
13,413,480,A,20.168061721936546,38.88156634634818,1.0084030860968272,0.6107502159687579,B,502.76860000030865,Incorrect
13,413,481,B,38.682486028285695,27.340291135601056,1.9341243014142848,0.4294602888930521,B,488.18249999976615,Correct
13,413,482,A,41.27625999871614,55.016625676415785,2.063812999935807,0.864199135251637,A,400.44440000019677,Correct
13,413,483,A,16.107230739773765,35.53752591757012,0.8053615369886883,0.5582221517469758,A,405.71559999989404,Correct
13,413,484,A,58.54765746085961,67.72962553917631,2.9273828730429807,1.0638944701213198,A,668.356600000152,Correct
13,413,485,B,69.5399169038332,48.634392568563676,3.4769958451916603,0.7639472520260083,A,700.6369999999151,Incorrect
13,413,486,A,44.1709450284489,59.903243468321456,2.208547251422445,0.9409579480313972,A,660.9119999998256,Correct
13,413,487,B,83.61374590989297,65.01447450064873,4.180687295494648,1.021244977341195,B,757.2497000001022,Correct
13,413,488,B,88.83610967688456,62.5535503169015,4.441805483844228,0.9825888706576862,B,462.35790000037014,Correct
13,413,489,A,12.155259001454922,36.76774697287311,0.6077629500727462,0.5775464188951326,A,328.2739000001129,Correct
13,413,490,A,26.76085834586543,45.88830693693237,1.3380429172932713,0.7208118397937013,A,470.1049000000239,Correct
13,413,491,B,81.02389550042525,55.12542501569175,4.051194775021263,0.865908151276561,B,443.3657999998104,Correct
13,413,492,B,49.80869588319974,18.65885858742084,2.4904347941599867,0.2930926653130607,B,483.12699999996767,Correct
13,413,493,A,39.38076284689078,58.98487847835073,1.969038142344539,0.9265323045023667,A,433.72309999995196,Correct
13,413,494,B,57.14480162395861,41.71100931808728,2.8572400811979306,0.655195002237592,B,469.068000000334,Correct
13,413,495,B,75.16584230970025,49.28291759885698,3.758292115485012,0.7741342593802012,B,374.1942999999992,Correct
13,413,496,A,53.7460363389154,64.33696071094617,2.6873018169457703,1.0106026156190182,A,379.17460000016945,Correct
13,413,497,A,21.942389217920574,35.35299285537502,1.0971194608960289,0.5553235131842931,A,416.733000000022,Correct
13,413,498,B,41.75039753370954,28.596738652790464,2.087519876685477,0.449196520341169,B,383.6218999999801,Correct
13,413,499,A,47.16424748560937,74.08849144986611,2.3582123742804684,1.1637793022722478,A,423.38669999980993,Correct
13,413,500,B,49.93667031416399,25.482717033686843,2.4968335157081993,0.40028158313269036,B,395.76790000000983,Correct
13,413,501,A,43.41871477242121,58.219005230682626,2.1709357386210604,0.9145019956600913,A,431.3953999999285,Correct
13,413,502,A,44.66763625887999,71.85306479196063,2.2333818129439993,1.1286653024416748,A,382.5864000000365,Correct
13,413,503,B,81.96492505446494,52.05484144266992,4.098246252723247,0.8176755373003666,B,350.59980000005453,Correct
13,413,504,B,40.102906120195726,12.914814086427754,2.005145306009786,0.20286542528199705,B,425.8952000000136,Correct
13,413,505,B,54.70748032863615,32.22184413105626,2.7353740164318077,0.5061395440362086,B,390.6341000001703,Correct
13,413,506,B,56.96789948316266,27.61566060025299,2.848394974158133,0.4337857823289194,B,374.93899999981295,Correct
13,413,507,B,42.06862236010956,30.011797265600116,2.103431118005478,0.4714242090531779,B,302.12219999975787,Correct
13,413,508,B,36.378487320106046,19.56186402018096,1.8189243660053023,0.30727704148161494,B,365.0140999998257,Correct
13,413,509,A,61.2315557118241,83.58148303670202,3.061577785591205,1.312894865421215,A,372.7489000002606,Correct
13,413,510,B,72.27374443168507,61.93321883925215,3.6136872215842537,0.9728447265928175,A,377.20020000006116,Incorrect
13,413,511,A,18.151391421559605,49.09587125983249,0.9075695710779803,0.7711961423574001,A,392.93599999973594,Correct
13,413,512,A,19.44020122365517,47.6667661944475,0.9720100611827585,0.7487478124842928,A,371.1452000002282,Correct
13,413,513,A,54.34741835734517,61.985496936887685,2.7173709178672585,0.9736659090301949,A,508.2737000002453,Correct
13,413,514,A,20.230926316564492,50.68795571995394,1.0115463158282245,0.7962045465764602,A,414.79190000018207,Correct
13,413,515,A,51.683831504433506,77.3888778571522,2.5841915752216753,1.2156216507279356,A,475.5054000002019,Correct
13,413,516,A,51.56967341281748,65.9440052300401,2.578483670640874,1.0358460118949044,A,455.6354999999712,Correct
13,413,517,B,38.48816205384446,12.345139020192207,1.924408102692223,0.19391699026690265,B,300.36580000023605,Correct
13,413,518,B,57.40253353645769,38.776067534789384,2.8701266768228844,0.6090930445119801,B,429.75250000017695,Correct
13,413,519,A,63.899711779863615,78.8915725964668,3.194985588993181,1.2392259244960298,A,387.29209999974046,Correct
13,413,520,B,82.384973260999,59.59647064021275,4.11924866304995,0.9361391717158608,A,539.0328999997109,Incorrect
13,413,521,B,43.629540980975506,28.014903665660185,2.181477049048775,0.44005707773531905,B,425.9286000001339,Correct
13,413,522,A,22.522674647735535,43.37113959449564,1.1261337323867766,0.6812722676394244,A,366.63709999993443,Correct
13,413,523,B,71.08775480160801,60.58284956680844,3.5543877400804007,0.9516331756631048,A,725.2889000001232,Incorrect
13,413,524,B,87.47678631284535,69.61371511709055,4.373839315642267,1.093489680004722,B,606.1435000001438,Correct
13,413,525,A,37.33214389436278,46.27836504976749,1.866607194718139,0.726938858302481,A,395.39490000015576,Correct
13,413,526,B,62.82774872989969,45.159529443411365,3.1413874364949845,0.7093642296949655,A,604.2231999999785,Incorrect
13,413,527,A,18.487683775698983,42.863373248271664,0.9243841887849491,0.6732962925242376,A,429.90340000005745,Correct
13,413,528,A,17.720871369015008,36.4889825230057,0.8860435684507505,0.5731675971562054,A,544.1090999997868,Correct
13,413,529,A,58.40622322639593,71.5193493324993,2.9203111613197965,1.1234233122625095,B,737.4949000000015,Incorrect
13,413,530,B,47.50839931267694,19.448763532913272,2.375419965633847,0.305500463182027,B,667.1489000000292,Correct
13,413,531,A,32.002728866679355,58.603432828209655,1.6001364433339678,0.9205405702412318,A,425.0176000000465,Correct
13,413,532,A,52.83822193876796,67.80052498685336,2.641911096938398,1.0650081560411486,A,417.58589999972173,Correct
13,413,533,B,73.69271215974021,61.064873956160326,3.6846356079870106,0.9592047970652999,A,494.54629999991084,Incorrect
13,413,534,B,38.449284497985715,28.263513329426157,1.9224642248992858,0.4439622292018121,B,483.54150000022855,Correct
13,413,535,B,39.28284692018032,15.747783391016792,1.9641423460090157,0.24736560305770858,B,389.74410000037096,Correct
13,413,536,A,56.19280683526324,73.24741488192754,2.809640341763162,1.1505677024375363,B,364.11839999982476,Incorrect
13,413,537,A,22.312107879211062,41.69526287547547,1.115605393960553,0.6549476576954448,A,502.8354999999465,Correct
13,413,538,B,35.78574945450933,25.335377655698004,1.7892874727254664,0.39796718159531924,A,644.4397000000208,Incorrect
13,413,539,B,56.231255785794865,26.5447748626736,2.8115627892897432,0.41696434849885194,B,398.9142999998876,Correct
13,413,540,A,37.35688203244805,45.770504619984465,1.8678441016224026,0.7189614053262045,A,731.8835999999465,Correct
13,413,541,B,51.25520868715363,32.896857617228974,2.5627604343576813,0.5167426310823798,A,447.2440999998071,Incorrect
13,413,542,B,60.62914887642953,34.33086221401372,3.0314574438214765,0.5392679226147445,B,793.181900000036,Correct
13,413,543,A,31.323338926667716,59.36067726037743,1.5661669463333856,0.9324353379665821,A,426.55180000019755,Correct
13,413,544,A,48.42192959079931,80.04584730292501,2.4210964795399654,1.257357229186198,A,424.3983000001208,Correct
13,413,545,B,79.70391244496086,55.43426784780618,3.985195622248043,0.8707594431389838,B,379.99779999972816,Correct
13,413,546,A,20.83399710367627,42.291748967681315,1.0416998551838135,0.6643172393216568,A,443.4658000000127,Correct
13,413,547,B,35.43497388117495,17.67754739911323,1.7717486940587475,0.2776782652126974,B,509.9614000000656,Correct
13,413,548,B,87.80478994196183,65.4324619084183,4.390239497098091,1.0278107081889045,B,454.7883999998703,Correct
13,413,549,A,37.361834317090256,63.84430667426525,1.8680917158545127,1.0028640241070275,A,431.38009999984206,Correct
