subject,day,trial,cat,x,y,xt,yt,resp,rt,fb
17,117,0,B,67.97835121081577,42.939446767995854,3.398917560540789,0.6744912525777289,A,3406.0022999992725,Incorrect
17,117,1,B,60.62169632678184,40.63256250126821,3.031084816339092,0.6382547992525616,A,1100.6395999993401,Incorrect
17,117,2,B,63.2929146900547,41.63688478451871,3.1646457345027352,0.6540306567870432,B,1812.3924000001352,Correct
17,117,3,A,46.74469587857054,74.6787193228116,2.337234793928527,1.1730505800201954,A,809.3738999996276,Correct
17,117,4,B,57.396980730244366,41.980621904371205,2.8698490365122185,0.6594300668395167,B,848.5571000001073,Correct
17,117,5,A,16.81524282316081,41.370278685178775,0.8407621411580405,0.6498428179716003,B,3438.9148000000205,Incorrect
17,117,6,A,39.78495646375399,61.421743797729654,1.9892478231876995,0.9648104954281097,B,692.7693999996336,Incorrect
17,117,7,A,25.6909460144891,41.36443071697865,1.284547300724455,0.6497509583019205,A,954.0083000001687,Correct
17,117,8,A,18.265650075550607,31.769864347054433,0.9132825037775304,0.4990398621912525,A,970.85160000006,Correct
17,117,9,B,85.83725255144931,64.78157955220425,4.291862627572465,1.017586672045738,B,981.3625999995566,Correct
17,117,10,A,26.96741110645501,58.332716174144316,1.3483705553227505,0.9162881629831514,A,771.9974000001457,Correct
17,117,11,B,36.69495888931931,12.243946452689144,1.8347479444659656,0.19232746113357513,B,1944.9777999998332,Correct
17,117,12,A,26.107913518178908,42.97883408369017,1.3053956759089453,0.6751099470858781,A,580.0353999993604,Correct
17,117,13,A,22.945066831648408,35.27893268794628,1.1472533415824204,0.5541601787947043,A,548.3434999996462,Correct
17,117,14,B,37.16571074790727,16.755102509619217,1.8582855373953635,0.2631885347718182,B,601.8653000000995,Correct
17,117,15,B,62.27931459229172,52.26052625355178,3.113965729614586,0.8209064267544739,B,537.6087999993615,Correct
17,117,16,B,75.08088151595689,61.25199884709993,3.7540440757978444,0.962144147978698,B,505.63919999967766,Correct
17,117,17,B,49.9211559010415,22.00741371658459,2.4960577950520753,0.34569164628266696,B,355.8548000000883,Correct
17,117,18,A,36.34855430266837,64.41476868922963,1.8174277151334184,1.0118248204838483,A,608.8373000002321,Correct
17,117,19,B,83.23958674523375,56.65054510218697,4.161979337261688,0.8898646815744391,B,452.19230000020616,Correct
17,117,20,A,21.668669257497736,36.79214825410749,1.083433462874887,0.577929713324453,A,515.6300000007832,Correct
17,117,21,A,58.581474183449984,78.93766518476173,2.929073709172499,1.239949945179891,B,503.5299999999552,Incorrect
17,117,22,A,23.28607042730503,46.08478948944658,1.1643035213652515,0.7238981805113874,A,924.4918999993388,Correct
17,117,23,A,20.859446337984632,36.05709980651925,1.0429723168992318,0.566383599309574,A,605.6156000004194,Correct
17,117,24,B,48.327886901598696,38.90215239824033,2.416394345079935,0.611073580915712,A,1484.2578999996476,Incorrect
17,117,25,B,68.55489915105524,43.350368826447124,3.4277449575527617,0.6809460011778713,B,438.75089999983174,Correct
17,117,26,B,55.36307531606736,31.362736026874167,2.768153765803368,0.4926447054925191,B,365.96949999966455,Correct
17,117,27,A,43.34976811691452,64.53359260628542,2.1674884058457256,1.0136913022083143,B,552.9932999997982,Incorrect
17,117,28,A,23.989930899012688,44.42262549349691,1.1994965449506345,0.6977889695177028,A,541.7244999998729,Correct
17,117,29,B,76.86437160755749,51.29008162705877,3.843218580377874,0.8056627182079433,B,566.2601000003633,Correct
17,117,30,A,46.70237699343338,73.50267715840515,2.335118849671669,1.1545773529001395,A,1879.6714000000065,Correct
17,117,31,A,43.39664327235374,66.3943924626513,2.169832163617687,1.042920678001114,A,842.2177000002193,Correct
17,117,32,A,37.66500677180443,70.54432067910753,1.8832503385902215,1.1081075979898336,A,468.960899999729,Correct
17,117,33,B,66.30885020157444,41.877895254938856,3.3154425100787224,0.6578164404035939,B,539.6084000003611,Correct
17,117,34,B,60.27278969254591,36.68445461691193,3.013639484627296,0.5762380656271934,B,427.0494000002145,Correct
17,117,35,A,32.39570488278403,54.12976349478254,1.6197852441392016,0.850268336678809,A,370.0055999997858,Correct
17,117,36,B,54.59256462012106,44.674963066719506,2.729628231006053,0.7017526788490066,B,552.3312999994232,Correct
17,117,37,B,55.31220826921323,40.31551999820745,2.7656104134606614,0.6332747072601046,B,505.9721999996327,Correct
17,117,38,B,82.46524138530053,66.17280815029764,4.123262069265027,1.0394400397619095,B,539.4077000000834,Correct
17,117,39,B,88.23241146905235,62.134361206071226,4.411620573452618,0.9760042635024401,B,456.0997000007774,Correct
17,117,40,B,35.3758520150366,23.666246828276233,1.76879260075183,0.3717485358687768,A,540.8317999999781,Incorrect
17,117,41,B,33.17582597354183,19.675443043119984,1.6587912986770916,0.30906113660195067,A,884.300699999585,Incorrect
17,117,42,B,69.81147275769439,39.19354166514772,3.4905736378847196,0.6156507128169677,B,499.47100000008504,Correct
17,117,43,A,22.098093412367547,47.965913583391725,1.1049046706183774,0.7534468086815316,A,669.7091000005457,Correct
17,117,44,B,49.262243007567754,39.89242553627488,2.4631121503783877,0.6266287549931951,B,2301.9865000005666,Correct
17,117,45,A,42.72745119809603,51.800686916933145,2.1363725599048013,0.8136832873457105,B,625.8589999997639,Incorrect
17,117,46,B,86.81312591767602,67.60644552993196,4.340656295883801,1.0619595630607637,B,569.626700000299,Correct
17,117,47,B,48.45414542071913,36.177647246557186,2.4227072710359563,0.5682771540697354,A,679.6975999995993,Incorrect
17,117,48,A,58.48886083052845,80.499413628596,2.9244430415264224,1.2644818323694165,B,589.7639999993771,Incorrect
17,117,49,B,50.132757104403126,40.34160183820263,2.5066378552201565,0.6336843998447094,A,1257.1028000002116,Incorrect
17,117,50,B,40.45204553636529,14.585419364068514,2.0226022768182643,0.22910723161841975,B,1543.1794000005539,Correct
17,117,51,B,81.7261519583152,65.48139405456624,4.08630759791576,1.0285793325432182,B,1633.7391999995816,Correct
17,117,52,A,27.170932249863583,55.51997316756086,1.3585466124931793,0.8721056991535583,A,666.8544000003749,Correct
17,117,53,B,33.097294297872885,10.182954724038424,1.6548647148936442,0.15995347876438298,A,1776.3740999998845,Incorrect
17,117,54,A,35.939837021397835,66.15824781020184,1.7969918510698917,1.0392113264745158,B,998.7424999999348,Incorrect
17,117,55,A,18.3276745631526,40.72388451188913,0.9163837281576299,0.6396892820409502,A,844.0301999999065,Correct
17,117,56,B,76.91816774943177,59.859146488336776,3.8459083874715883,0.9402652742895705,B,1037.127500000679,Correct
17,117,57,B,49.97662355687593,20.89390670071115,2.498831177843796,0.3282007189787235,B,747.7585999995426,Correct
17,117,58,B,73.39658948305785,63.44739494752382,3.6698294741528925,0.9966293492827548,B,480.4548000001887,Correct
17,117,59,A,58.5552808599881,68.69399966737312,2.927764042999405,1.0790428235035954,B,450.96400000056747,Incorrect
17,117,60,B,76.84406785621064,48.228640942138696,3.842203392810532,0.7575737203822142,B,504.2339000001448,Correct
17,117,61,B,71.08111990841213,56.47023450669823,3.5540559954206064,0.8870323693636801,B,454.022700000678,Correct
17,117,62,A,23.01995429007523,48.82063319059913,1.1509977145037615,0.7668727128759413,A,484.95380000076693,Correct
17,117,63,A,62.091842623822316,84.99776177677435,3.104592131191116,1.3351417198474482,B,510.8637000003,Incorrect
17,117,64,A,26.343893452981305,54.07644300666632,1.3171946726490653,0.8494307804100504,A,500.6834000005256,Correct
17,117,65,B,85.57924315713264,57.05050160986471,4.278962157856632,0.8961471837058181,B,1430.9064999997645,Correct
17,117,66,B,62.539331749393305,33.84894739117423,3.1269665874696653,0.5316980222793019,B,1159.751299999698,Correct
17,117,67,B,65.94988541637893,36.248506165490696,3.2974942708189467,0.5693902033655495,B,431.7793000000165,Correct
17,117,68,B,82.4822705821341,63.315966512399896,4.1241135291067055,0.9945648762514643,B,1166.141200000311,Correct
17,117,69,B,78.50997070330008,48.590339304635144,3.9254985351650045,0.7632552649743858,B,2279.844600000615,Correct
17,117,70,A,34.33122757883677,56.91873018822942,1.7165613789418384,0.8940773230550056,A,513.483400000041,Correct
17,117,71,A,65.85275614721361,87.62244088621001,3.2926378073606806,1.3763700828886165,B,800.1820999998017,Incorrect
17,117,72,B,68.78083466137892,56.32305820008513,3.4390417330689456,0.884720529345489,B,754.9177000000782,Correct
17,117,73,B,42.35497874753109,13.825229365699215,2.117748937376555,0.21716619504737264,A,499.22740000056365,Incorrect
17,117,74,A,38.68212550240146,65.14048393830228,1.934106275120073,1.0232243289592717,A,1222.2852000004423,Correct
17,117,75,B,44.172553254241734,18.724531936720314,2.208627662712087,0.29412425987153995,A,1120.1922000000195,Incorrect
17,117,76,B,89.20005191087408,65.71722027673694,4.460002595543704,1.032283682178695,B,1312.5416999992012,Correct
17,117,77,B,52.45131457809076,35.60728349006977,2.6225657289045383,0.5593179011334616,B,1303.4279999992577,Correct
17,117,78,B,77.13157272175866,60.511163417443605,3.856578636087933,0.9505071322620612,B,846.0942000001523,Correct
17,117,79,A,53.7018767987282,74.15515524562981,2.68509383993641,1.1648264547274063,B,586.2370000004375,Incorrect
17,117,80,B,53.719959946107345,32.558849495490385,2.6859979973053676,0.5114332119218417,B,1231.772799999817,Correct
17,117,81,B,57.068220674633736,26.021379494783414,2.8534110337316867,0.40874287328541825,B,1667.3716000004788,Correct
17,117,82,B,65.91522243108737,51.68445692505502,3.295761121554369,0.8118575509026548,B,842.2762000000148,Correct
17,117,83,B,51.81029070261562,44.6096789591687,2.590514535130781,0.7007271984856177,A,902.1925999995801,Incorrect
17,117,84,A,65.49443956811722,78.51451258443419,3.2747219784058608,1.2333030796772089,B,507.9575999998269,Incorrect
17,117,85,A,20.15339743471939,36.79514274540081,1.0076698717359696,0.5779767506836947,A,865.2418000001489,Correct
17,117,86,A,27.492986898408258,44.080789180394596,1.374649344920413,0.6924194172678406,A,838.2319000002099,Correct
17,117,87,A,57.954949811266324,85.35265302377356,2.8977474905633165,1.3407163385194283,B,1224.9980000005962,Incorrect
17,117,88,B,49.97622998309082,38.85585310352147,2.498811499154541,0.610346313294936,A,4017.2882999995636,Incorrect
17,117,89,A,60.262551372823104,82.04645432479535,3.013127568641155,1.2887826907993378,B,1274.4606999995085,Incorrect
17,117,90,B,89.83848761344504,65.87171790640839,4.491924380672252,1.0347105252705593,B,663.9533999996274,Correct
17,117,91,B,38.396060722865215,18.1338288536222,1.919803036143261,0.2848455175399706,A,669.4863000002442,Incorrect
17,117,92,B,55.74653117235431,48.33015706577246,2.7873265586177154,0.7591683319233579,B,1044.9674999999843,Correct
17,117,93,B,73.76635033459551,49.71777644594698,3.688317516729776,0.7809650061770333,B,778.5154000002876,Correct
17,117,94,B,68.91739547945649,54.81663341775794,3.4458697739728246,0.8610576641987655,B,1124.7419000001173,Correct
17,117,95,A,42.55144014416279,62.1137415774232,2.1275720072081397,0.9756803711330381,A,842.271499999697,Correct
17,117,96,B,71.50398447207208,40.80783969088105,3.575199223603604,0.6410080469087095,B,689.9937000007412,Correct
17,117,97,A,38.16761710270093,69.16006689167594,1.9083808551350467,1.086363790343339,A,742.452599999524,Correct
17,117,98,B,48.63243035536756,34.76865880516218,2.4316215177683778,0.546144815387338,B,1299.98119999982,Correct
17,117,99,A,54.37341172573481,62.88832242964399,2.7186705862867404,0.987847458707779,B,581.9049000001542,Incorrect
17,117,100,A,58.25208079940923,66.55137047898002,2.912604039970461,1.0453864829154813,B,1851.9993999998405,Incorrect
17,117,101,B,86.73459681051303,58.94741076247462,4.336729840525652,0.9259437629976508,B,482.92769999989105,Correct
17,117,102,B,73.88022878576444,49.87043717847737,3.694011439288222,0.7833629953560789,B,1086.8233000001055,Correct
17,117,103,B,64.52758378574676,36.86840364274852,3.2263791892873375,0.5791275301682096,B,1439.390500000627,Correct
17,117,104,B,65.29464222092523,54.40637320088452,3.264732111046261,0.8546133117818171,B,500.07579999964946,Correct
17,117,105,B,38.5491258972133,24.520616914415264,1.9274562948606648,0.38516894979908306,A,541.2011999997048,Incorrect
17,117,106,B,44.19042752716116,15.202404223879753,2.209521376358058,0.23879880713321538,A,1153.3510999997816,Incorrect
17,117,107,A,18.65937130366388,43.67703659877066,0.932968565183194,0.6860772865463522,A,585.9495000004245,Correct
17,117,108,B,64.55212478369057,35.03233992090038,3.227606239184529,0.5502867086678053,B,609.3928000000233,Correct
17,117,109,B,72.07241198862164,54.028080940770685,3.603620599431082,0.8486711108553995,B,818.7829000007696,Correct
17,117,110,A,21.549114734477953,39.060156360915855,1.0774557367238977,0.6135555013576094,A,1030.6827000003977,Correct
17,117,111,B,45.84389474341518,26.456891770998812,2.292194737170759,0.41558388412295055,A,2204.5029999999315,Incorrect
17,117,112,B,30.775859066066065,15.080943546260347,1.5387929533033033,0.23689090727066953,B,378.0292000001282,Correct
17,117,113,B,40.03836953031415,12.435354053524428,2.0019184765157076,0.19533408469670197,B,655.8684999999969,Correct
17,117,114,A,55.70672893191956,65.78585798933958,2.7853364465959776,1.033361840847053,B,626.8992999994225,Incorrect
17,117,115,A,35.33413514243581,49.82535795506162,1.7667067571217905,0.7826548925705167,B,683.7378999998691,Incorrect
17,117,116,B,52.59484679705606,30.341330831597578,2.629742339852803,0.47660051020342215,B,501.1453999995865,Correct
17,117,117,B,58.6381241213015,47.965193877070064,2.9319062060650753,0.7534355035610671,A,874.9127000000954,Incorrect
17,117,118,B,69.55785341012181,48.68242745885347,3.4778926705060904,0.7647017823182602,B,516.3304000006974,Correct
17,117,119,A,64.25093855659044,87.5053811364966,3.212546927829522,1.374531312639963,B,538.9774999994188,Incorrect
17,117,120,B,43.13202969400393,16.74017205801334,2.1566014847001966,0.26295400778641914,B,802.9655000000275,Correct
17,117,121,A,59.14897112681125,70.36476419123665,2.9574485563405624,1.105287131273836,B,885.5038000001514,Incorrect
17,117,122,B,51.75723802912138,33.61248992728794,2.587861901456069,0.5279837571221435,B,1487.9979999996067,Correct
17,117,123,B,84.92296019369216,58.33215964001356,4.2461480096846085,0.9162794209654681,B,584.0328000003865,Correct
17,117,124,A,35.07034716012036,61.521237781059966,1.7535173580060184,0.966373343263644,A,808.8435000008758,Correct
17,117,125,B,44.005013666115175,36.249323763948574,2.200250683305759,0.5694030461720937,A,444.18709999990824,Incorrect
17,117,126,B,71.27625865141648,59.2397189866995,3.563812932570824,0.9305353298466946,B,583.2157000004372,Correct
17,117,127,A,29.283217102742114,54.50965788040732,1.464160855137106,0.856235703733903,A,421.5956999996706,Correct
17,117,128,B,56.61786764957056,30.105430212195206,2.830893382478528,0.47289499193896334,B,780.2540999991834,Correct
17,117,129,B,72.23154245341783,58.52468987553557,3.6115771226708917,0.9193036788330174,B,600.9570000005624,Correct
17,117,130,B,33.16016353345516,20.657334036358538,1.658008176672758,0.32448464425687185,A,1538.8781000001472,Incorrect
17,117,131,A,51.275677694256245,58.119780293526254,2.5637838847128127,0.9129433739919746,B,790.7568999999057,Incorrect
17,117,132,A,44.80194111828657,72.3465544815209,2.2400970559143287,1.136417020358399,B,473.8264000006893,Incorrect
17,117,133,A,65.04953445690374,77.72806568177167,3.2524767228451874,1.220949600617994,A,965.9934000001158,Correct
17,117,134,A,50.46869670341859,77.16043137153659,2.5234348351709293,1.2120332217231937,A,1434.3835999998191,Correct
17,117,135,A,21.77378783980475,34.55272469641805,1.0886893919902376,0.5427529303388878,A,1507.813699999133,Correct
17,117,136,B,37.693437904823966,11.854993072792862,1.8846718952411983,0.1862177957292197,A,1858.7241000004724,Incorrect
17,117,137,B,68.26871873695389,49.107826538797156,3.4134359368476943,0.7713839354402351,B,938.1884000003993,Correct
17,117,138,B,63.16413949275943,50.6830440364258,3.1582069746379715,0.7961273940320164,B,485.49130000083096,Correct
17,117,139,B,54.03792351750893,26.180124071650475,2.7018961758754467,0.41123642726783216,B,798.6306999991939,Correct
17,117,140,B,74.5196649015707,51.328637967921885,3.7259832450785355,0.8062683597939677,B,619.5924000003288,Correct
17,117,141,B,39.216039264615596,18.230717661847436,1.9608019632307798,0.28636744338064796,A,1690.0126999998974,Incorrect
17,117,142,A,47.33845952724944,66.39492809855331,2.366922976362472,1.042929091750188,B,1232.896200000141,Incorrect
17,117,143,B,85.87395480083107,57.92069032086536,4.293697740041554,0.9098160760144002,B,531.400300000314,Correct
17,117,144,B,63.63121061547566,41.206896106904644,3.1815605307737833,0.6472764104334474,B,780.5206999992151,Correct
17,117,145,A,37.34977610130658,52.33466352627172,1.867488805065329,0.8220709723111447,A,744.4221999994625,Correct
17,117,146,A,38.70273900816663,56.01738997814253,1.9351369504083318,0.8799191041430354,A,982.7869999999166,Correct
17,117,147,A,42.386266617356355,49.173439791159446,2.1193133308678176,0.7724145859982328,B,730.8947999999873,Incorrect
17,117,148,B,83.91029631029916,59.54324619360081,4.195514815514958,0.9353031240635236,B,452.07140000002255,Correct
17,117,149,B,68.98913936041338,41.074247053321606,3.449456968020669,0.6451927639722369,B,594.156799999837,Correct
17,117,150,B,51.25541756872501,25.689773712813825,2.5627708784362504,0.4035340218428004,B,576.2122000005547,Correct
17,117,151,A,42.846841887371966,73.91061591379967,2.1423420943685985,1.1609852398854494,A,599.6764999999868,Correct
17,117,152,B,61.82681814188102,41.937070002336014,3.0913409070940507,0.6587459551620986,B,536.8103999999221,Correct
17,117,153,B,51.42001570010497,26.169275010508475,2.571000785005248,0.4110660106139219,B,760.2710999999545,Correct
17,117,154,B,61.936664759929556,31.443000835447236,3.096833237996478,0.49390550215729384,B,540.7020999991801,Correct
17,117,155,B,51.39865461361247,31.034730029794126,2.5699327306806237,0.4874923993387189,B,432.0114999991347,Correct
17,117,156,A,42.05519167665223,65.21590044831642,2.1027595838326114,1.0244089687283708,A,1120.8329000000958,Correct
17,117,157,A,35.510472067118506,67.42413217439456,1.7755236033559254,1.0590957915687258,A,744.8997000001327,Correct
17,117,158,B,61.71890781462698,41.17976320016308,3.085945390731349,0.6468502077309982,B,599.2403999998714,Correct
17,117,159,B,59.52833652266306,41.1416820738562,2.976416826133153,0.6462520307977676,B,476.499800000056,Correct
17,117,160,B,59.15048685528306,42.644021355080056,2.9575243427641533,0.6698507210432288,B,678.7340999999287,Correct
17,117,161,A,32.095144030951644,47.25160697505039,1.6047572015475822,0.7422265067156527,A,543.5763999994379,Correct
17,117,162,B,63.337747763209144,47.53414163938678,3.166887388160457,0.746664550844971,B,436.5685000002486,Correct
17,117,163,A,55.026936199906174,82.18109955770943,2.751346809995309,1.2908976931721567,B,703.8804000003438,Incorrect
17,117,164,A,64.04542301907809,85.18805992936069,3.2022711509539046,1.3381309162382329,B,537.8343000002133,Incorrect
17,117,165,A,43.93424141329589,51.37027822503265,2.1967120706647942,0.8069224434231315,B,1407.3724999998376,Incorrect
17,117,166,A,51.79989068172787,67.64473608792501,2.5899945340863932,1.0625610297392276,A,375.6525999997393,Correct
17,117,167,B,46.86374260169504,19.532933250364,2.3431871300847518,0.30682259801201667,B,726.3130999999703,Correct
17,117,168,A,31.51698937513742,47.16119592220131,1.5758494687568712,0.7408063332184827,A,1049.3757000003825,Correct
17,117,169,A,30.892522994980414,43.54800175340243,1.5446261497490206,0.6840504119350226,A,700.4074999995282,Correct
17,117,170,B,73.56785236411577,47.95007428319056,3.6783926182057884,0.7531980055357815,B,632.2875999994721,Correct
17,117,171,B,77.34225283390155,48.78523079263886,3.867112641695078,0.7663166133091841,B,618.7615999997433,Correct
17,117,172,A,56.100083477572674,69.89520956116895,2.8050041738786335,1.097911384392437,B,749.8448000005737,Incorrect
17,117,173,A,54.2151812390305,83.9214051611749,2.7107590619515247,1.318234349666398,B,620.2141999992818,Incorrect
17,117,174,A,43.690764977433375,64.52226608697654,2.184538248871669,1.0135133856590568,A,3508.210999999392,Correct
17,117,175,B,57.372177115116536,43.957874229767775,2.868608855755827,0.6904886737383127,A,1052.212700000382,Incorrect
17,117,176,A,13.8420894431998,31.010244059289082,0.6921044721599899,0.48710777461344557,B,235.16160000053787,Incorrect
17,117,177,A,35.30224852020826,67.48686067312264,1.765112426010413,1.0600811285226,A,651.9512000004397,Correct
17,117,178,A,35.788680143858016,53.433917446401395,1.789434007192901,0.8393380125106904,A,465.23510000042734,Correct
17,117,179,A,63.931471164037106,84.79265902364209,3.1965735582018557,1.3319199733350913,A,353.78399999990506,Correct
17,117,180,A,20.944666344447146,38.39229025239959,1.0472333172223574,0.6030646850571278,A,614.5290000004024,Correct
17,117,181,B,70.01642173187435,58.937524024987255,3.5008210865937173,0.9257884624883596,B,481.53629999978875,Correct
17,117,182,A,14.419686535649202,43.77654642880286,0.7209843267824602,0.6876403833012977,A,569.0367999995942,Correct
17,117,183,B,55.26093317025621,39.811458833087784,2.76304665851281,0.6253569329936053,B,411.5246000001207,Correct
17,117,184,B,75.72058421919115,44.55497102185953,3.7860292109595575,0.6998678482159001,B,342.29619999950955,Correct
17,117,185,A,64.70028791859936,78.01973048880626,3.235014395929968,1.2255310606934466,B,473.0979000005391,Incorrect
17,117,186,A,19.373367710222755,50.197270699100216,0.9686683855111378,0.7884968842927571,A,587.5850000002174,Correct
17,117,187,A,14.615394447497806,37.74474861819161,0.7307697223748904,0.5928931248525213,A,840.5805000002147,Correct
17,117,188,A,60.83030709987426,88.00152277016203,3.0415153549937135,1.3823246871972794,B,644.4655999994211,Incorrect
17,117,189,B,44.384167504230064,21.89558757435875,2.219208375211503,0.343935085348187,B,604.1490999996313,Correct
17,117,190,B,66.0349295448677,47.635086550729866,3.3017464772433844,0.7482501898044346,B,567.7709000001414,Correct
17,117,191,A,49.390258019065605,78.44988450961067,2.4695129009532804,1.232287904251803,B,1359.7987000002831,Incorrect
17,117,192,B,30.9621221463681,14.987191086681012,1.5481061073184048,0.23541824707931747,B,403.45799999977316,Correct
17,117,193,B,42.5788385878231,26.649196259635815,2.128941929391155,0.41860459596672234,B,585.5073000002449,Correct
17,117,194,B,89.95599792057044,66.93029348445998,4.497799896028522,1.0513385915669413,B,1141.6337000000567,Correct
17,117,195,B,75.77115525401237,45.877263264541696,3.788557762700618,0.7206383661934455,B,622.7849999995669,Correct
17,117,196,A,38.71837726420702,49.59260098024897,1.935918863210351,0.7789987545598008,A,983.8958999998795,Correct
17,117,197,A,38.03630027141833,52.32785371875425,1.9018150135709164,0.8219640041047984,A,541.152200000397,Correct
17,117,198,A,67.16894023885082,88.94142408660583,3.358447011942541,1.3970886225514758,B,576.7484999996668,Incorrect
17,117,199,A,28.922561701924664,60.27723936639294,1.4461280850962333,0.9468326618606677,A,1190.5580000002374,Correct
17,117,200,B,75.62911899139466,50.75887977909014,3.781455949569733,0.7973186190921854,B,1175.145899999734,Correct
17,117,201,A,21.79533565760426,49.413253547342194,1.089766782880213,0.7761815716715001,A,635.5830000002243,Correct
17,117,202,B,39.91467307143127,28.88800124966955,1.9957336535715633,0.4537716625142731,A,827.882800000225,Incorrect
17,117,203,B,38.058652965287955,14.25500283548029,1.9029326482643978,0.22391706092423275,B,872.863900000084,Correct
17,117,204,A,47.237790010364016,63.72276395654792,2.361889500518201,1.0009548355616371,B,671.5003999997862,Incorrect
17,117,205,A,25.344457686175776,49.22854352321852,1.2672228843087887,0.7732801533973436,A,641.44159999978,Correct
17,117,206,A,46.65040267816576,69.68417399856708,2.332520133908288,1.0945964455268562,B,849.1743000004135,Incorrect
17,117,207,A,40.88828143791066,61.0345975589866,2.0444140718955333,0.958729216530609,B,698.0318000005354,Incorrect
17,117,208,B,82.33007385566555,53.71016532229696,4.116503692783278,0.8436773039981069,B,1499.994400000105,Correct
17,117,209,A,52.843633318761796,70.8300209319098,2.64218166593809,1.1125953670664956,B,662.2102000001178,Incorrect
17,117,210,B,70.66708390250571,53.73236299531235,3.533354195125286,0.8440259842304667,A,650.0819000002593,Incorrect
17,117,211,A,49.60702779278148,74.40558273014373,2.480351389639074,1.1687601604554356,B,676.856800000678,Incorrect
17,117,212,A,32.53427733417874,61.13470394709491,1.626713866708937,0.9603016839979015,A,743.3661000004577,Correct
17,117,213,A,50.3769092547461,63.50789144427304,2.518845462737305,0.9975796260315314,A,2697.568099999444,Correct
17,117,214,A,25.17256969489557,42.614690869267754,1.2586284847447786,0.6693899988494582,A,638.8483000000633,Correct
17,117,215,A,34.3103121816848,66.87736720119297,1.7155156090842398,1.050507227453474,A,772.6678999997603,Correct
17,117,216,B,48.426481371393464,22.192027516462737,2.4213240685696733,0.3485915530699094,B,917.4806999999419,Correct
17,117,217,B,78.42098061503394,58.424029132064845,3.921049030751697,0.9177225035720549,B,542.8672999996706,Correct
17,117,218,B,85.74178737509857,65.83963390608538,4.287089368754929,1.0342065509719964,B,712.0067000005292,Correct
17,117,219,A,59.918913906923365,72.56744360368502,2.995945695346168,1.1398867385756424,B,336.034799999652,Incorrect
17,117,220,A,29.052890179686447,43.49577168291349,1.4526445089843225,0.6832299839063,A,541.0162999996828,Correct
17,117,221,B,68.74642478858044,36.549993025207996,3.4373212394290222,0.5741259478837581,B,393.4562000004007,Correct
17,117,222,B,66.66915969007678,48.38945421304933,3.333457984503839,0.7600997693346773,B,299.9414000005345,Correct
17,117,223,B,36.206574887111806,23.24645633552535,1.8103287443555902,0.36515448222841174,A,518.1270000002769,Incorrect
17,117,224,B,34.481128958192684,16.948247920942794,1.7240564479096343,0.26622245579826187,B,328.6822000000029,Correct
17,117,225,B,64.26397856291578,35.982480470754055,3.213198928145789,0.5652114815242957,B,237.65090000051714,Correct
17,117,226,B,53.36232816213,35.716728229152615,2.6681164081064996,0.5610370550748452,B,39.29320000042935,Correct
17,117,227,B,47.61463654363727,31.74339425324607,2.3807318271818634,0.49862407093001154,A,170.91459999937797,Incorrect
17,117,228,A,27.216198587315755,47.81542401591575,1.3608099293657878,0.7510829240834094,A,21.673000000191678,Correct
17,117,229,A,35.08949138444889,54.41143428660945,1.7544745692224444,0.8546928111304802,B,2941.689100000076,Incorrect
17,117,230,B,54.822845979180684,30.87081765851404,2.741142298959034,0.4849176698314888,B,32.498699999450764,Correct
17,117,231,B,62.79737097453904,32.10951335328636,3.139868548726952,0.504375056305139,A,2888.4915999997247,Incorrect
17,117,232,A,49.54380240517811,60.49251236441398,2.4771901202589053,0.9502141622061635,A,2626.143399999819,Correct
17,117,233,B,68.37545296016518,39.84191149970367,3.4187726480082588,0.6258352823622187,B,2596.912400000292,Correct
17,117,234,A,15.608414138142376,43.70429649634812,0.7804207069071188,0.6865054840161869,B,2623.982099999921,Incorrect
17,117,235,A,10.088549002657054,32.99197072238788,0.5044274501328527,0.5182366642445165,B,71.71029999972234,Incorrect
17,117,236,A,25.439591278697485,39.882599239692865,1.2719795639348743,0.6264744038874248,A,479.45830000026035,Correct
17,117,237,A,30.808506396943375,61.78067040155537,1.5404253198471687,0.9704485013368936,A,545.4310000004625,Correct
17,117,238,B,57.207505739146264,35.83988318403317,2.8603752869573134,0.5629715685823748,B,827.9044000000795,Correct
17,117,239,A,37.50280097805253,47.35637314581977,1.8751400489026264,0.7438721698778216,A,578.5070000001724,Correct
17,117,240,A,16.889541888096417,46.05470856602168,0.8444770944048209,0.7234256704711631,A,341.05580000050395,Correct
17,117,241,B,69.65016175194683,42.08195932993311,3.482508087597341,0.6610218713979116,B,423.00129999966884,Correct
17,117,242,A,53.15546243666935,64.29591217284045,2.657773121833468,1.0099578266902505,B,578.318599999875,Incorrect
17,117,243,B,66.32521831465769,41.51076478593844,3.316260915732885,0.6520495684819905,B,549.0971999997782,Correct
17,117,244,B,68.05202661351217,48.99833755654264,3.4026013306756084,0.7696640865287361,B,474.5941999999559,Correct
17,117,245,B,79.00821460376733,50.024119037398584,3.9504107301883664,0.7857770243509635,B,660.8339999993404,Correct
17,117,246,A,56.555068392194826,75.30643283979707,2.827753419609741,1.1829106808877983,B,487.3465999999098,Incorrect
17,117,247,A,17.588919691792864,31.562034839855162,0.8794459845896432,0.4957752839261704,A,599.6298000000024,Correct
17,117,248,B,65.5708782961179,42.544342283836556,3.2785439148058946,0.6682849658535527,B,441.31389999984094,Correct
17,117,249,A,42.18659865634172,65.7785979892804,2.109329932817086,1.0332478010327983,B,388.3661999998367,Incorrect
17,117,250,A,31.199416055664194,42.52578202173278,1.5599708027832095,0.6679934219381831,A,740.9412999995766,Correct
17,117,251,A,45.12955717090516,73.8873645900367,2.2564778585452583,1.1606200089458496,B,742.0577000002595,Incorrect
17,117,252,A,66.23106065249046,82.79852123135144,3.3115530326245226,1.300596130142561,B,301.5205000001515,Incorrect
17,117,253,B,42.22558864332561,33.10932517396249,2.1112794321662802,0.5200800636591808,A,3373.507199999949,Incorrect
17,117,254,A,31.956571222943424,43.533812127905705,1.597828561147171,0.6838275218189339,A,2477.772499999446,Correct
17,117,255,A,54.558593124525416,66.34419304570383,2.727929656226271,1.042132147403631,B,2558.921200000441,Incorrect
17,117,256,A,21.997381600775796,53.987868472473764,1.0998690800387898,0.848039454880478,B,168.04469999988214,Incorrect
17,117,257,A,36.77588692679668,69.4677462787281,1.8387943463398342,1.0911968068534594,A,415.2644000005239,Correct
17,117,258,B,81.6583560513798,57.88469226359362,4.082917802568989,0.9092506198530583,A,221.31480000007286,Incorrect
17,117,259,A,64.9525724392534,86.75191399792645,3.24762862196267,1.3626958785036964,B,387.9377999992357,Incorrect
17,117,260,A,51.89146894165848,74.75671255811784,2.594573447082924,1.1742756948955342,B,614.1626999997243,Incorrect
17,117,261,A,61.75658874867736,86.48279179604577,3.087829437433868,1.3584685168419652,B,258.6076999996294,Incorrect
17,117,262,B,68.63907972404566,41.076549360692724,3.4319539862022825,0.6452289285318539,A,2962.604399999691,Incorrect
17,117,263,B,79.87249050372073,62.499944182338155,3.993624525186036,0.9817468274650284,B,2641.794999999547,Correct
17,117,264,B,74.98686661234834,47.02778517051105,3.7493433306174166,0.7387107220313828,B,2517.1141000000716,Correct
17,117,265,B,77.43022331946938,47.5065972881788,3.871511165973469,0.7462318851879565,B,338.1203999997524,Correct
17,117,266,B,47.744492624577184,24.993562150555526,2.387224631228859,0.39259795619612575,A,676.3348999993468,Incorrect
17,117,267,B,62.35797298798253,34.09859741087148,3.1178986493991268,0.5356195156185488,B,595.2761999997165,Correct
17,117,268,A,55.74220069571325,82.58856091240327,2.787110034785662,1.297298081164796,B,650.4547000004095,Incorrect
17,117,269,A,52.74305759524873,65.9710800828455,2.6371528797624366,1.0362713026882568,B,703.9807000001019,Incorrect
17,117,270,A,49.65939175549523,61.369278388947706,2.4829695877747615,0.9639863707141249,B,447.2135999994862,Incorrect
17,117,271,B,43.0592137483232,15.401544072731085,2.15296068741616,0.24192688856415698,B,529.6416000001045,Correct
17,117,272,A,62.43127137527614,73.83846553817831,3.121563568763807,1.1598519044354205,B,733.8214999999764,Incorrect
17,117,273,B,77.56659183898395,55.13839766317777,3.878329591949198,0.8661119251467596,B,629.8250999998345,Correct
17,117,274,B,60.7266204996472,46.73220837881473,3.03633102498236,0.7340678126445587,B,503.78360000013345,Correct
17,117,275,B,53.11479299105564,29.933113591313045,2.655739649552782,0.4701882487876892,A,63.51950000043871,Incorrect
17,117,276,B,68.61606363369245,44.05067431519984,3.430803181684622,0.691946374071542,B,2384.90929999989,Correct
17,117,277,A,40.24174682545104,67.09233688252907,2.0120873412725517,1.0538839633116244,A,757.8858999995646,Correct
17,117,278,B,38.263729369526516,23.279615841284816,1.9131864684763258,0.36567535052686473,A,784.980500000529,Incorrect
17,117,279,A,51.29096747509995,79.8715111670464,2.564548373754997,1.2546187635675405,B,2444.5860999994693,Incorrect
17,117,280,B,80.85561082302165,49.43451750133622,4.042780541151083,0.7765155850797696,B,1167.594200000167,Correct
17,117,281,B,44.23907190225496,14.802316380886175,2.2119535951127482,0.23251424199151932,B,521.2859000002936,Correct
17,117,282,A,14.81599455947753,39.76470871473634,0.7407997279738765,0.6246225838517686,A,618.6969999998837,Correct
17,117,283,A,48.67770861541191,68.38939243712183,2.4338854307705957,1.0742580643196566,B,474.44459999951505,Incorrect
17,117,284,A,41.98445715956054,63.98134043260423,2.099222857978027,1.0050165453494853,B,703.4024000004138,Incorrect
17,117,285,A,60.80209653893657,71.69565148788351,3.0401048269468283,1.1261926600433447,B,2097.3578000002817,Incorrect
17,117,286,B,38.39011971555102,27.397637474390592,1.919505985777551,0.4303610830763095,B,3697.109400000045,Correct
17,117,287,A,17.327369302092684,31.05666579924987,0.8663684651046342,0.48783696559958395,A,1073.97470000069,Correct
17,117,288,A,18.411421694010333,46.200678835259076,0.9205710847005166,0.7257185660985569,A,3382.695700000113,Correct
17,117,289,A,57.69611664906704,75.45906700687605,2.884805832453352,1.1853082527777088,B,533.8744999999108,Incorrect
17,117,290,A,61.796166246728006,83.02390057969679,3.0898083123364004,1.3041363806677242,B,465.1990000002115,Incorrect
17,117,291,A,29.498869771121697,50.12770518582512,1.4749434885560848,0.7874041517655158,A,482.88099999990663,Correct
17,117,292,B,42.310064111649325,26.493652589932445,2.115503205582466,0.41616132171645975,B,669.1219000003912,Correct
17,117,293,A,33.736593611481595,63.798156150585804,1.6868296805740797,1.0021390933762742,A,530.6626999999935,Correct
17,117,294,B,71.23782065313162,50.244417413877144,3.561891032656581,0.7892374631566775,B,371.49700000009034,Correct
17,117,295,A,50.79918294364937,70.06266085185786,2.5399591471824685,1.1005417031157492,B,302.8118000001996,Incorrect
17,117,296,B,70.84828143188726,40.62076748330481,3.542414071594363,0.6380695235436477,B,2058.957299999747,Correct
17,117,297,B,57.78821397859267,49.027246144900005,2.8894106989296335,0.7701181815727817,B,974.0326000001005,Correct
17,117,298,A,56.017238121930376,70.6106076044922,2.800861906096519,1.1091488305789214,B,1902.8715000004013,Incorrect
17,117,299,B,85.94658343983406,68.71281583133488,4.297329171991703,1.0793383871159503,B,683.8532000001578,Correct
17,117,300,A,33.318012702073005,46.621646814107066,1.6659006351036505,0.7323311156472837,A,558.3430999995471,Correct
17,117,301,A,24.470546986857777,39.949787756935855,1.2235273493428889,0.6275297986483057,A,424.86120000012306,Correct
17,117,302,B,65.43722200806306,42.43841077005494,3.271861100403153,0.6666209975261528,B,720.6109999997352,Correct
17,117,303,A,50.916813623421,69.58073222617487,2.54584068117105,1.0929715859657478,B,411.0991000006834,Incorrect
17,117,304,A,50.77934763276866,70.08105717783764,2.5389673816384333,1.1008306719285048,B,386.5490999996837,Incorrect
17,117,305,B,40.52626711007506,14.689995051601713,2.026313355503753,0.23074990267691176,A,611.1363999998503,Incorrect
17,117,306,A,56.43815947493573,80.46380456518533,2.8219079737467867,1.2639224865093555,B,360.65340000004653,Incorrect
17,117,307,B,66.45716326910039,54.438650133694715,3.32285816345502,0.8551203166568015,B,477.6246000001265,Correct
17,117,308,B,50.61226242614794,38.825948915259424,2.5306131213073972,0.6098765794041581,B,478.46599999957107,Correct
17,117,309,A,36.82586546241501,62.990414035473435,1.8412932731207505,0.9894511099021135,B,422.1954000004189,Incorrect
17,117,310,A,40.31686202939476,57.100978796297106,2.015843101469738,0.8969400774961677,B,331.7600999998831,Incorrect
17,117,311,A,36.26561260923127,47.86805749217372,1.8132806304615634,0.7519096887951341,A,416.74179999972694,Correct
17,117,312,A,12.04591091323023,33.37479703331931,0.6022955456615116,0.524250085874632,A,436.35009999979957,Correct
17,117,313,A,58.59164566154314,86.28582675799927,2.9295822830771567,1.3553745972592606,B,695.6430999998702,Incorrect
17,117,314,B,50.221295885676405,26.45549803922451,2.5110647942838202,0.4155619914354345,B,611.8488000001889,Correct
17,117,315,A,31.75172716800315,49.87499801273798,1.5875863584001575,0.7834346367731159,A,339.26229999997304,Correct
17,117,316,A,56.463874897083926,71.51627601843404,2.8231937448541964,1.1233750367580615,B,396.12659999966127,Incorrect
17,117,317,B,54.56115290957855,25.638531928127797,2.7280576454789274,0.40272911777116827,B,749.5249000003241,Correct
17,117,318,B,39.070522576637984,25.802122095747666,1.9535261288318992,0.40529878611513875,A,280.3321000001233,Incorrect
17,117,319,A,34.5314336244587,43.60750755822901,1.726571681222935,0.6849851269314682,B,341.2769999995362,Incorrect
17,117,320,B,80.1507035984369,54.63108583938052,4.007535179921845,0.8581430896531561,B,479.23440000067785,Correct
17,117,321,B,50.61311416923046,34.8249023507681,2.530655708461523,0.5470282869357749,A,216.06460000020888,Incorrect
17,117,322,B,68.7315237487926,44.15705215627506,3.4365761874396297,0.6936173532916753,B,26.005000000623113,Correct
17,117,323,B,59.437243169635614,48.25867252862854,2.9718621584817804,0.7580454554396749,A,24.083299999801966,Incorrect
17,117,324,B,82.59623026903316,59.176066132834606,4.129811513451658,0.9295354731562848,B,40.61629999978322,Correct
17,117,325,B,47.27582723204215,31.917136839976408,2.3637913616021073,0.50135321310045,A,492.54449999989447,Incorrect
17,117,326,A,21.278511880767205,49.93310077246972,1.0639255940383603,0.7843473127887484,B,272.68350000031205,Incorrect
17,117,327,B,52.69204696544473,28.532778722339117,2.6346023482722365,0.4481918401030187,B,425.28179999953863,Correct
17,117,328,A,44.32608795225022,67.36433517900291,2.216304397612511,1.05815650256158,A,210.94619999985298,Correct
17,117,329,A,50.64092240723226,74.72842508810999,2.532046120361613,1.1738313563557077,B,311.63110000034067,Incorrect
17,117,330,B,61.95063312212813,39.71258830286145,3.0975316561064066,0.6238038783365274,B,319.11180000042805,Correct
17,117,331,A,38.61362947592556,68.32439108436981,1.930681473796278,1.0732370254582606,B,364.6480999996129,Incorrect
17,117,332,A,32.983681635690495,52.55311894207192,1.6491840817845247,0.8255024619582187,B,400.5073000007542,Incorrect
17,117,333,A,32.134054575794735,59.527959587564396,1.6067027287897366,0.9350630026174119,B,364.3711999993684,Incorrect
17,117,334,A,25.564895289023745,41.3560802430739,1.2782447644511874,0.6496197893645548,A,8.540099999663653,Correct
17,117,335,A,47.29068484526145,66.33991359021137,2.3645342422630726,1.0420649258739485,B,320.27519999974174,Incorrect
17,117,336,A,25.84495854310599,38.12662970268991,1.2922479271552993,0.5988916989005452,A,512.2631000003821,Correct
17,117,337,A,51.64923872356074,70.84447571138345,2.582461936178037,1.112822422211514,B,518.0866999999125,Incorrect
17,117,338,A,25.886778166912435,41.92569364032879,1.2943389083456218,0.6585672556855662,A,654.9534000005224,Correct
17,117,339,B,46.39151145668235,21.22411090761273,2.3195755728341174,0.3333875545316557,B,580.1905999996961,Correct
17,117,340,A,49.7906395255254,78.10724600360427,2.48953197627627,1.2269057511852695,B,962.5787999993918,Incorrect
17,117,341,B,49.907428847701496,23.8686448902817,2.495371442385075,0.37492779719226277,B,627.4008999998841,Correct
17,117,342,A,60.97745007729701,87.10269734821934,3.0488725038648505,1.368205970485105,B,714.3321000003198,Incorrect
17,117,343,B,69.42761235156708,45.884557028997285,3.4713806175783537,0.7207529363775989,B,476.5530000004219,Correct
17,117,344,A,48.582765000997426,72.88546030149517,2.4291382500498715,1.1448821331834387,A,548.2996999999159,Correct
17,117,345,B,44.68985356280993,20.403517179543528,2.2344926781404966,0.3204976983932354,B,1081.8385999991733,Correct
17,117,346,A,46.44358320391939,73.86908069939608,2.3221791601959696,1.1603328062632714,B,302.8272999999899,Incorrect
17,117,347,A,11.121249336398009,37.34370467385446,0.5560624668199005,0.5865935413060399,A,549.4370999995226,Correct
17,117,348,A,20.88371188792773,45.8522720887114,1.0441855943963865,0.7202458057214801,A,508.921200000259,Correct
17,117,349,B,39.11970450015621,15.869656764841551,1.9559852250078107,0.2492799855370889,A,813.4995999998864,Incorrect
17,117,350,A,27.976693689209696,49.384896139258444,1.3988346844604849,0.7757361345469463,B,539.5803999999771,Incorrect
17,117,351,B,34.7959263186666,13.8597860703829,1.73979631593333,0.2177090104952053,B,646.3472999994337,Correct
17,117,352,A,33.77947849699277,48.61547123119503,1.6889739248496385,0.7636500363536411,B,538.7827000004108,Incorrect
17,117,353,B,51.357419834692514,21.504592162548853,2.567870991734626,0.33779334378154063,B,588.1599000003916,Correct
17,117,354,B,66.22191169469347,41.3472624400615,3.3110955847346735,0.6494812796387319,B,664.2989000001762,Correct
17,117,355,A,22.404089411201873,44.059342725053355,1.1202044705600938,0.6920825371351126,A,212.76679999937187,Correct
17,117,356,B,45.45505257241192,33.99894606763829,2.272752628620596,0.5340541959794403,B,436.7558000003555,Correct
17,117,357,B,49.567203394651514,31.147386203475666,2.478360169732576,0.4892619983768161,B,568.3551000001899,Correct
17,117,358,A,14.882763065786023,33.5871437955043,0.7441381532893011,0.5275856210151016,A,474.8703999994177,Correct
17,117,359,A,35.47961247321643,67.34387756054507,1.7739806236608215,1.0578351550422944,B,405.3764999998748,Incorrect
17,117,360,A,36.16925753580756,46.439061667308735,1.808462876790378,0.7294630748681024,A,528.9831999998569,Correct
17,117,361,B,60.3096260666449,44.94679576387643,3.015481303332245,0.7060226168709751,B,584.6988000002966,Correct
17,117,362,B,83.69840867114226,59.78471473066557,4.184920433557113,0.9390961029741023,B,412.0389999998224,Correct
17,117,363,B,36.97869370563734,11.248391257499271,1.848934685281867,0.17668931669631682,A,719.6218999997654,Incorrect
17,117,364,A,32.77363758602621,47.94175479728877,1.6386818793013105,0.7530673233568281,B,294.83089999939693,Incorrect
17,117,365,B,42.73233489269837,22.334243377295266,2.1366167446349182,0.35082547458798646,B,500.31829999988986,Correct
17,117,366,A,36.41224220474011,55.91933365296802,1.8206121102370054,0.878378838989004,A,525.4561000001559,Correct
17,117,367,B,59.27719552244253,26.418243049270558,2.963859776122127,0.41497679142168997,B,625.0763999996707,Correct
17,117,368,A,28.22082457038917,46.01613108622502,1.4110412285194585,0.7228196968355471,A,591.1888000000545,Correct
17,117,369,B,54.08081906416606,26.05370720383005,2.7040409532083025,0.4092506757516598,B,425.4080000000613,Correct
17,117,370,A,23.43086434552996,46.498473126867054,1.171543217276498,0.7303963078925398,A,971.0716000008688,Correct
17,117,371,B,64.61335942637653,45.313919121625275,3.2306679713188267,0.7117893770893002,B,3771.0635000003094,Correct
17,117,372,A,32.657311226427346,54.79006966811639,1.6328655613213672,0.8606404017951369,A,2474.8036000000866,Correct
17,117,373,A,15.607173408773715,41.43195039824539,0.7803586704386858,0.6508115549751221,A,178.83090000032098,Correct
17,117,374,A,45.921345933749734,72.76267982615792,2.296067296687487,1.14295350198682,B,312.0590999997148,Incorrect
17,117,375,B,79.48883837398454,53.376263702922394,3.974441918699227,0.8384323896258626,B,196.77039999987755,Correct
17,117,376,B,59.150771076131086,35.55904766837317,2.957538553806554,0.558560214618052,A,2932.7711000005365,Incorrect
17,117,377,A,43.379242634523145,64.77163659046019,2.168962131726157,1.017430488367888,A,2449.5010999999067,Correct
17,117,378,A,36.9231081234652,60.92793456707773,1.84615540617326,0.9570537581716551,A,2394.694200000231,Correct
17,117,379,B,79.68638259456928,60.795428973301554,3.984319129728464,0.9549723651718212,B,2431.8534000003638,Correct
17,117,380,B,62.68693211757779,41.04231129964027,3.1343466058788896,0.6446911183264761,B,2420.532699999967,Correct
17,117,381,B,48.34393257996711,39.209493815669354,2.4171966289983557,0.6159012886114064,A,2701.9274999993286,Incorrect
17,117,382,A,45.59469136292114,64.60445106150289,2.279734568146057,1.0148043442200938,A,2473.541999999725,Correct
17,117,383,A,36.00551927317691,45.50970598764135,1.8002759636588452,0.7148647899890275,A,2478.2665000002453,Correct
17,117,384,A,16.658590315958982,43.69423411452375,0.832929515797949,0.6863474244921017,B,2440.2258999998594,Incorrect
17,117,385,B,56.095735149429046,27.919910565337233,2.8047867574714527,0.43856492960473753,B,247.93429999954242,Correct
17,117,386,B,79.3567585838588,65.39837355395186,3.96783792919294,1.0272752495690807,A,180.94120000023395,Incorrect
17,117,387,B,52.4173439823151,25.83711962884499,2.6208671991157555,0.4058485260795004,A,3180.95699999958,Incorrect
17,117,388,B,51.69980100845646,26.24096180766452,2.584990050422823,0.4121920641904459,A,75.28569999976753,Incorrect
17,117,389,A,59.57840325941779,69.36793384234616,2.9789201629708897,1.0896289567690876,B,2819.2846000001737,Incorrect
17,117,390,A,41.03100344993002,63.74971496018237,2.051550172496501,1.0013781809367612,B,43.358599999919534,Incorrect
17,117,391,B,66.58111224402438,56.320263646137015,3.329055612201219,0.8846766325947217,B,2907.357299999603,Correct
17,117,392,B,36.30263180290851,17.881515845549192,1.8151315901454255,0.28088219407713405,B,2551.786300000458,Correct
17,117,393,A,22.582247118668644,34.791903354381375,1.1291123559334322,0.5465099399126531,B,238.7042999998812,Incorrect
17,117,394,A,19.40742178873386,34.58308749602574,0.9703710894366929,0.5432298680798375,B,2926.7016000003423,Incorrect
17,117,395,A,24.620122888322587,49.79299868932037,1.2310061444161293,0.7821465944128755,A,506.58370000019204,Correct
17,117,396,B,37.127662631243254,23.310976026517398,1.8563831315621626,0.3661679551645742,B,125.07730000015727,Correct
17,117,397,B,60.50683151708177,31.811763213423752,3.025341575854089,0.4996980080451505,B,4821.379899999556,Correct
17,117,398,A,41.7052773429542,62.99786074061789,2.08526386714771,0.98956808247299,A,2322.925600000417,Correct
17,117,399,A,19.666476206817624,34.50073637937476,0.9833238103408811,0.5419362997644093,A,2410.399100000177,Correct
17,117,400,A,28.73974080282708,49.48421834892629,1.4369870401413538,0.7772962841681004,A,583.1065000002127,Correct
17,117,401,A,48.28849520847382,56.46425788910982,2.414424760423691,0.8869384888741347,B,6246.849099999963,Incorrect
17,117,402,A,14.861490729476554,38.90933235738784,0.7430745364738277,0.6111863634502663,A,527.967300000455,Correct
17,117,403,A,32.80207380862241,53.98946540673909,1.6401036904311206,0.8480645394652592,A,891.341000000466,Correct
17,117,404,B,61.69176761439225,49.357785364305634,3.0845883807196124,0.7753102794898219,B,640.0105000002441,Correct
17,117,405,A,43.156255046710186,58.880691513352374,2.1578127523355093,0.9248957394831734,A,693.5510999992403,Correct
17,117,406,B,62.1790785118947,50.72402630003811,3.108953925594735,0.796771141923476,B,617.4501000004966,Correct
17,117,407,A,59.31284155354636,86.59705693293162,2.9656420776773182,1.3602633894149752,B,500.22959999932937,Incorrect
17,117,408,A,33.92151873662744,66.37468620245059,1.696075936831372,1.042611132789733,A,355.9752999999546,Correct
17,117,409,B,63.79838665250856,30.52148590104801,3.1899193326254283,0.47943037941688443,B,1312.9505999995672,Correct
17,117,410,B,46.849759383990836,26.647445039279667,2.3424879691995417,0.41857708786169384,A,2884.006300000692,Incorrect
17,117,411,A,27.733200814396383,38.060830884682915,1.386660040719819,0.5978581334842168,B,2123.732000000018,Incorrect
17,117,412,A,31.47204222270446,48.06412862745448,1.573602111135223,0.7549895669860293,B,1140.0481999999101,Incorrect
17,117,413,B,73.03951117771189,60.14478061300613,3.6519755588855944,0.9447520046279495,B,679.6841000004861,Correct
17,117,414,A,26.91365220375097,50.739463140960986,1.3456826101875488,0.7970136232536655,A,696.1758999996164,Correct
17,117,415,B,41.44307788383389,17.646771820940344,2.0721538941916946,0.2771948435612078,A,1175.6749999995009,Incorrect
17,117,416,B,54.94637039386605,45.663642375379276,2.7473185196933025,0.7172828171132156,B,442.46490000023186,Correct
17,117,417,B,63.499517188484354,40.80579890679695,3.174975859424218,0.6409759903472786,B,419.85160000058386,Correct
17,117,418,A,16.107132480641333,36.604845958575005,0.8053566240320665,0.5749875757462263,A,606.8935999992391,Correct
17,117,419,A,15.18445173960378,35.64547629352048,0.7592225869801891,0.5599178322871654,A,1020.7270999999309,Correct
17,117,420,A,60.94235653233167,71.99636351710721,3.0471178266165837,1.130916233552621,B,4358.111999999892,Incorrect
17,117,421,A,38.248070480702076,69.80623916634013,1.9124035240351036,1.0965138406985313,B,184.09220000012283,Incorrect
17,117,422,B,75.80239687349071,62.92378658036746,3.7901198436745354,0.9884045282846722,B,1182.452099999864,Correct
17,117,423,B,64.72328221965174,47.99210798695184,3.236164110982587,0.7538582694104797,B,627.9758999999103,Correct
17,117,424,A,63.831984752346386,74.3724328706541,3.1915992376173192,1.1682394436802346,B,3711.3280000003215,Incorrect
17,117,425,B,78.49440743981258,58.889296338151354,3.9247203719906287,0.925030903755043,B,1822.7843000004214,Correct
17,117,426,B,83.07371740257462,56.92084929130614,4.153685870128731,0.8941106098482957,B,747.2151000001759,Correct
17,117,427,A,62.6720957366725,76.71624148288045,3.1336047868336254,1.2050559032681887,A,1080.772700000125,Correct
17,117,428,A,21.198316367544226,51.171218619206556,1.0599158183772113,0.8037956224466827,A,588.6167999997269,Correct
17,117,429,A,47.31472256638783,58.70834344754323,2.3657361283193916,0.9221885023961414,B,187.8286000001026,Incorrect
17,117,430,B,64.73788345491842,56.17310910505318,3.2368941727459206,0.8823651344686649,B,248.20900000031543,Correct
17,117,431,B,58.26054198994285,25.62457796648458,2.9130270994971426,0.4025099294542342,A,464.52639999915846,Incorrect
17,117,432,B,87.84302731078138,66.04992162104767,4.392151365539069,1.0375097426743252,B,237.275899999986,Correct
17,117,433,B,83.38568273578485,53.650203793434805,4.169284136789242,0.8427354305052502,B,2965.2585000003455,Correct
17,117,434,B,45.876777515508905,23.08624383066773,2.293838875775445,0.36263787008704207,B,241.70169999979407,Correct
17,117,435,B,46.132691208189826,26.810388358114498,2.3066345604094916,0.421136595528709,B,863.7883999999758,Correct
17,117,436,B,82.33271005264822,56.783315908751206,4.116635502632411,0.8919502405270061,B,246.14269999983662,Correct
17,117,437,A,51.62009775605617,74.31068008171735,2.5810048878028082,1.167269433139923,B,117.55660000017087,Incorrect
17,117,438,A,60.03532611371027,84.36144149010926,3.0017663056855133,1.325146424157862,A,391.8338000003132,Correct
17,117,439,B,46.80910760962834,35.06247825961773,2.340455380481417,0.5507601205853345,B,225.7392000001346,Correct
17,117,440,B,52.960977215465675,38.37900477136312,2.648048860773284,0.60285599720901,A,2977.740100000119,Incorrect
17,117,441,B,47.544522106764646,32.2221977025091,2.377226105338232,0.5061450979236025,B,535.0667000002431,Correct
17,117,442,B,55.981184769355615,26.184928068571693,2.799059238467781,0.41131188827501,B,375.3292999999758,Correct
17,117,443,B,56.133155444285954,46.03885885861288,2.806657772214298,0.723176703849378,B,3428.282699999727,Correct
17,117,444,B,83.59198953078482,54.63659914955325,4.179599476539241,0.8582296925268341,B,361.3126000000193,Correct
17,117,445,A,11.31276329685435,34.4671711235538,0.5656381648427175,0.5414090579588943,B,480.77610000018467,Incorrect
17,117,446,A,41.840299678950245,48.653727783710195,2.0920149839475126,0.7642509688753076,A,731.5138000003572,Correct
17,117,447,B,62.74807469279786,30.811748573337127,3.137403734639893,0.48398981481125847,B,579.5367000000624,Correct
17,117,448,B,41.17085075721758,21.25678743891044,2.058542537860879,0.33390083628500417,B,519.426800000474,Correct
17,117,449,A,48.52169960449605,56.59360590667521,2.4260849802248026,0.8889702827828339,B,473.65739999986545,Incorrect
17,117,450,A,39.00138519616543,61.46103929483422,1.9500692598082714,0.965427747653224,A,1129.373900000246,Correct
17,117,451,B,53.31430965365591,38.16498608847693,2.6657154826827956,0.599494199599579,B,525.8453999995254,Correct
17,117,452,A,45.79059558889291,54.23367330973434,2.2895297794446456,0.8519005482352513,B,2034.2378000004828,Incorrect
17,117,453,A,27.625346103914104,38.64352961187864,1.3812673051957052,0.6070111436872879,A,905.4815999998027,Correct
17,117,454,A,57.098696873544085,78.73952631579104,2.8549348436772046,1.2368375871041466,B,466.876599999523,Incorrect
17,117,455,A,37.48363892215969,47.70840665021101,1.8741819461079845,0.7494018992338868,B,240.35279999952763,Incorrect
17,117,456,A,57.80689325910363,84.80841765123157,2.890344662955181,1.3321675092784202,B,429.1620999993029,Incorrect
17,117,457,A,20.98517209622262,39.464992547653836,1.049258604811131,0.6199146533084261,A,624.437499999658,Correct
17,117,458,A,41.23034520022225,70.38434711026984,2.0615172600111125,1.1055947390466887,B,564.8216999998112,Incorrect
17,117,459,B,35.352306618255255,15.806735808638052,1.7676153309127627,0.24829162546826009,B,15.863099999478436,Correct
17,117,460,B,58.42777574481147,28.723749390191827,2.9213887872405735,0.45119160033890476,A,349.4137999996383,Incorrect
17,117,461,B,49.200167020170596,38.12649304617929,2.46000835100853,0.598889552305096,B,579.2344000001322,Correct
17,117,462,B,81.72986993729626,61.01707401698944,4.086493496864813,0.9584539573765932,B,3062.8343999997014,Correct
17,117,463,A,33.581544442215,54.05715681712941,1.67907722211075,0.8491278336532257,B,4986.737600000197,Incorrect
17,117,464,A,61.715693659456164,86.02247125207509,3.0857846829728084,1.3512378186457914,B,1984.0250000006563,Incorrect
17,117,465,A,23.00509575912774,47.03679833686064,1.1502547879563871,0.7388523005173299,B,3844.986200000676,Incorrect
17,117,466,A,39.57932597178549,59.70473115090806,1.9789662985892744,0.9378397238412322,A,1538.831100000607,Correct
17,117,467,B,66.85457153598172,58.54010017042007,3.342728576799086,0.9195457431790115,B,421.6004999998404,Correct
17,117,468,B,60.14077646278307,28.020794722357024,3.0070388231391534,0.44014961423752236,B,856.9016999999803,Correct
17,117,469,B,46.56622683728632,29.541668583809866,2.3283113418643158,0.4640394449884073,B,401.48239999962243,Correct
17,117,470,B,56.20178846370456,48.83359314875109,2.8100894231852283,0.7670762874225464,A,592.6810999999361,Incorrect
17,117,471,B,45.51357730451748,27.625661724491856,2.275678865225874,0.4339428796211017,B,467.48089999982767,Correct
17,117,472,B,70.84507097645499,60.05605699780431,3.542253548822749,0.9433583373393595,B,377.28000000061,Correct
17,117,473,A,57.4179347592665,77.28498305644253,2.870896737963325,1.2139896750146575,B,92.30359999946813,Incorrect
17,117,474,A,58.33940223267159,83.04238729298957,2.9169701116335798,1.3044267692810723,B,113.86380000021745,Incorrect
17,117,475,A,19.659881653362888,41.98617059320415,0.9829940826681444,0.6595172254398898,A,304.21620000015537,Correct
17,117,476,B,34.64448514239767,19.522445989253537,1.7322242571198836,0.30665786449971216,A,3208.231600000545,Incorrect
17,117,477,A,45.944700395941965,65.32657757180709,2.2972350197970983,1.0261474809187647,B,249.62260000029346,Incorrect
17,117,478,B,57.770226531947024,29.886990142916368,2.888511326597351,0.46946374335448315,B,871.9794999997248,Correct
17,117,479,B,48.377320650700774,34.3848005806004,2.4188660325350386,0.5401151844958213,B,392.8338999994594,Correct
17,117,480,B,37.4033312253632,12.093341323147808,1.8701665612681604,0.18996176129077508,B,301.5447999996468,Correct
17,117,481,A,47.80040313158075,66.72686417219981,2.3900201565790375,1.0481431314023344,B,3333.5446000000957,Incorrect
17,117,482,A,19.609195589885655,33.82381171560803,0.9804597794942828,0.5313031920107928,B,13832.59519999956,Incorrect
17,117,483,B,37.78531021771643,28.344505351771062,1.8892655108858214,0.4452344489138027,A,698.0473000003258,Incorrect
17,117,484,B,47.57942255371474,24.014249598691514,2.378971127685737,0.3772149506036045,B,717.8876999996646,Correct
17,117,485,B,63.17827968439069,40.0765774561438,3.1589139842195344,0.6295214065862185,B,475.75139999935345,Correct
17,117,486,A,40.479654283064725,52.24438806701036,2.0239827141532363,0.82065292871307,B,1802.369500000168,Incorrect
17,117,487,A,38.89792226152999,65.95082450107166,1.9448961130764997,1.0359531287537824,B,1104.186299999128,Incorrect
17,117,488,B,39.81751352869088,31.2629389213425,1.990875676434544,0.49107709622458007,B,667.5317999997787,Correct
17,117,489,A,15.897212561984148,37.65708457359745,0.7948606280992074,0.5915161012601164,A,444.9233000004824,Correct
17,117,490,B,31.19362610092709,11.842992923893824,1.5596813050463545,0.1860292978311037,A,696.2439999997514,Incorrect
17,117,491,B,42.10953788031606,23.231376231249776,2.105476894015803,0.36491760450437416,B,467.0467000005374,Correct
17,117,492,A,51.15048308184456,81.01185475559518,2.557524154092228,1.2725312387693057,B,347.30579999995825,Incorrect
17,117,493,B,53.62115326532918,32.85525521713638,2.681057663266459,0.5160891421098669,B,401.1376000007658,Correct
17,117,494,A,36.437119327723245,60.163276949993794,1.8218559663861624,0.9450425444099433,B,1362.8031999996892,Incorrect
17,117,495,B,41.0761807132942,14.115417295574765,2.05380903566471,0.22172445639065994,A,745.7186000001457,Incorrect
17,117,496,A,19.09761299360713,43.03158994011138,0.9548806496803565,0.6759386341407119,A,972.4669999995967,Correct
17,117,497,B,46.6520744301455,23.97871993067431,2.3326037215072746,0.37665685188346776,B,451.0927000001175,Correct
17,117,498,A,30.931931166021286,52.13246508385658,1.5465965583010644,0.8188948466048512,B,370.8500000002459,Incorrect
17,117,499,A,48.35469844655832,58.78000546261913,2.4177349223279156,0.9233141666966609,B,158.69740000016463,Incorrect
17,117,500,A,28.374824020934064,57.75501641087358,1.418741201046703,0.9072136763217918,A,618.0459999995946,Correct
17,117,501,B,68.14599991125161,57.750319562677674,3.40729999556258,0.9071398984028556,B,515.4897000002165,Correct
17,117,502,B,39.785179661048865,30.462861363369058,1.9892589830524432,0.4785095073324229,A,645.1200000001336,Incorrect
17,117,503,B,43.76705663383355,18.467312444508856,2.1883528316916774,0.2900838655360819,B,588.6180999996213,Correct
17,117,504,B,70.992196581829,58.331603343074676,3.5496098290914504,0.9162706826735861,B,507.5163000001339,Correct
17,117,505,A,52.55459692823983,78.44060015354258,2.6277298464119916,1.232142065927719,B,392.4816999997347,Incorrect
17,117,506,A,55.105484094115205,76.55621897618437,2.7552742047057603,1.2025422756109616,B,429.76999999973486,Incorrect
17,117,507,A,19.430862900243763,49.23618780845315,0.9715431450121882,0.7734002295490187,B,310.88350000027276,Incorrect
17,117,508,A,46.4359749093713,59.18489756382774,2.3217987454685654,0.9296741969499283,B,484.39979999966454,Incorrect
17,117,509,B,38.47976530372412,24.870058628997675,1.9239882651862061,0.3906579674160327,B,468.97289999924396,Correct
17,117,510,A,39.34696179008108,52.944793972116805,1.967348089504054,0.8316548789431366,A,743.1780000006256,Correct
17,117,511,B,36.793455287104265,11.513532249029655,1.8396727643552133,0.18085414165210364,A,562.0025999996869,Incorrect
17,117,512,A,46.743017116376286,70.67697367163557,2.3371508558188143,1.1101913063238475,B,419.6433999995861,Incorrect
17,117,513,A,36.87835763597688,54.11439270404738,1.8439178817988442,0.8500268928625416,A,752.935499999694,Correct
17,117,514,B,78.99799617058875,56.51357867787141,3.9498998085294375,0.8877132180123479,B,154.28590000010445,Correct
17,117,515,A,39.06688467439814,55.02390804304819,1.9533442337199067,0.8643135263992027,A,594.0396000005421,Correct
17,117,516,A,34.2666175852014,54.56367430880825,1.71333087926007,0.8570841918070907,B,190.1785000000018,Incorrect
17,117,517,A,30.847070117796086,44.03914955759247,1.5423535058898041,0.6917653436023734,A,608.3849000006012,Correct
17,117,518,B,48.85405394861761,38.338702501539515,2.4427026974308803,0.6022229306350059,B,371.2109000007331,Correct
17,117,519,B,37.575416429335746,22.01769370446245,1.8787708214667873,0.3458531239546473,B,336.69989999998506,Correct
17,117,520,A,42.69775744651303,65.87949240353089,2.1348878723256517,1.0348326467857862,A,564.6216999994067,Correct
17,117,521,A,61.03863238657482,76.17177151571424,3.051931619328741,1.1965033890234407,B,513.017199999922,Incorrect
17,117,522,B,80.04705367763843,64.32623727343636,4.002352683881921,1.0104341722565082,B,374.2578000001231,Correct
17,117,523,B,38.24250445202597,28.7875414947965,1.9121252226012984,0.45219364437482007,A,602.1753000004537,Incorrect
17,117,524,A,41.973659322442415,69.85105169421993,2.0986829661221207,1.097217754240411,A,509.51179999992746,Correct
17,117,525,A,29.856699247393706,53.81006302119737,1.4928349623696853,0.8452464933829873,B,631.7152000001443,Incorrect
17,117,526,B,75.6776060343692,46.74511446092423,3.7838803017184603,0.7342705409082678,A,2423.988300000019,Incorrect
17,117,527,A,46.34973929263259,68.03646846449908,2.3174869646316294,1.0687143475213197,B,3625.4517999996096,Incorrect
17,117,528,A,50.13506826834035,77.73473746119892,2.5067534134170173,1.221054400684169,A,2616.089300000567,Correct
17,117,529,B,72.49470017714668,55.14373259183649,3.6247350088573342,0.8661957260101677,B,557.0528000007471,Correct
17,117,530,A,15.541022091716819,38.195863606152365,0.777051104585841,0.5999792225130302,A,493.8927999992302,Correct
17,117,531,A,13.362882789537512,31.544700292814955,0.6681441394768756,0.49550299349799626,A,523.436500000571,Correct
17,117,532,B,75.11029892365046,58.75707058078255,3.7555149461825232,0.9229539064152171,B,639.294699999482,Correct
17,117,533,A,65.91283510317464,86.27217744901367,3.2956417551587323,1.3551601944150815,B,526.4532000001054,Incorrect
17,117,534,B,31.3363626901766,12.944051182224108,1.56681813450883,0.20332468050882768,A,488.4520999994493,Incorrect
17,117,535,B,55.780577881219905,39.094641182985114,2.789028894060995,0.6140971876759751,B,770.1162000003023,Correct
17,117,536,A,46.812918840204084,60.20392133508818,2.340645942010204,0.9456809849180543,B,761.5796999998565,Incorrect
17,117,537,A,51.88347577670798,66.67911001833758,2.5941737888353993,1.0473930109075746,B,533.7500999994518,Incorrect
17,117,538,A,37.139350991210975,52.726866447413045,1.8569675495605487,0.8282316813900149,A,709.4763999994029,Correct
17,117,539,A,35.67756500397501,52.49887405536399,1.7838782501987507,0.8246503852703365,B,574.6025999997073,Incorrect
17,117,540,A,32.96401648092954,44.72434546392187,1.6482008240464767,0.7025283757303447,A,622.0511000001352,Correct
17,117,541,B,63.979839220928945,31.111136384476495,3.1989919610464472,0.48869258755150735,B,453.5272000002806,Correct
17,117,542,B,62.443248416831445,48.03837589545991,3.122162420841572,0.7545850440178093,B,499.59360000048036,Correct
17,117,543,A,43.910159539982565,56.27577157928717,2.1955079769991284,0.8839777528429291,B,638.0702999995265,Incorrect
17,117,544,A,28.988730588341028,40.37555704978577,1.4494365294170513,0.6342177670610128,A,540.1772999994137,Correct
17,117,545,B,53.56462027128469,32.375743752012234,2.6782310135642344,0.5085569936291364,B,510.69010000082926,Correct
17,117,546,B,50.06820468491583,26.720608850687185,2.5034102342457913,0.41972634232382633,B,717.8798000004463,Correct
17,117,547,A,59.1850768742462,73.18611382986298,2.95925384371231,1.1496047877634195,B,1228.2451000000947,Incorrect
17,117,548,A,57.069459481322724,81.07235555808003,2.853472974066136,1.2734815831524193,A,706.5990999999485,Correct
17,117,549,A,30.074912831487055,38.74247449602325,1.5037456415743526,0.6085653662929829,A,965.891400000146,Correct
