subject,day,trial,cat,x,y,xt,yt,resp,rt,fb
10,410,0,A,42.32087913982567,56.925292299406344,2.1160439569912834,0.894180400456333,A,704.0646000000379,Correct
10,410,1,A,12.360314787787761,36.77084365613116,0.618015739389388,0.5775950614820025,A,517.0783000000938,Correct
10,410,2,A,47.862297845091454,76.28439734552747,2.3931148922545726,1.1982725114211692,A,604.4954000001326,Correct
10,410,3,B,58.30877301922984,30.978846724461015,2.9154386509614922,0.48661458643125477,B,565.3750999999829,Correct
10,410,4,B,66.25942184640815,44.807982212865404,3.3129710923204074,0.7038421387106004,B,650.6441999999879,Correct
10,410,5,A,15.423607956414351,44.58277007107366,0.7711803978207175,0.7003045146598394,A,527.5864999998703,Correct
10,410,6,A,35.42703996849736,51.3440613269035,1.771351998424868,0.8065106293503191,A,649.7879000000921,Correct
10,410,7,A,35.35587237059163,51.46690837292477,1.7677936185295813,0.8084403062367973,A,723.5339000001204,Correct
10,410,8,B,72.04628961719885,46.301475344655614,3.6023144808599428,0.7273018739656951,B,694.8035000000345,Correct
10,410,9,A,36.838951842079695,68.0594506358286,1.8419475921039847,1.0690753506243815,A,410.1629000001594,Correct
10,410,10,B,33.38068607924359,11.053859095337732,1.6690343039621793,0.17363361263864868,B,460.65359999988686,Correct
10,410,11,A,57.26382169796986,70.95131235438858,2.863191084898493,1.1145006082755093,A,515.8690000000661,Correct
10,410,12,B,79.25231210994488,56.70406008385437,3.9626156054972443,0.8907052929407557,B,554.5019000001048,Correct
10,410,13,B,79.4023803088002,61.68164242547296,3.9701190154400106,0.9688929735260918,A,666.2378000000899,Incorrect
10,410,14,A,24.019608399011865,40.04256222690363,1.2009804199505933,0.6289870966147628,A,501.5771999999288,Correct
10,410,15,B,53.236972627270475,26.63249384276196,2.6618486313635237,0.41834223501598183,B,490.25159999996504,Correct
10,410,16,B,75.51874006345302,53.252184327991166,3.7759370031726514,0.8364833553621328,B,784.3579999998838,Correct
10,410,17,B,64.32389955546881,30.991073007898308,3.2161949777734407,0.48680663644239125,B,372.238599999946,Correct
10,410,18,B,47.1215629196883,24.212240780994996,2.356078145984415,0.3803249888226053,B,697.2425999999814,Correct
10,410,19,B,51.806461527250576,25.92407277449208,2.590323076362529,0.40721438289735745,B,391.0570000000462,Correct
10,410,20,B,83.7863742792145,61.55945287893478,4.189318713960725,0.9669736246173427,B,770.9354999999505,Correct
10,410,21,A,52.579722751382825,63.30094745887647,2.6289861375691412,0.9943289575103991,A,1801.5568000000712,Correct
10,410,22,A,47.4329754589983,63.42418508467335,2.371648772949915,0.9962647696096455,A,492.92850000006183,Correct
10,410,23,B,51.327744133267885,32.022781319209145,2.566387206663394,0.5030126726996996,B,662.3151999999664,Correct
10,410,24,B,56.52939824233998,36.08827852297595,2.826469912116999,0.5668733534424177,B,610.4333999999199,Correct
10,410,25,A,22.92876121563753,52.27632304561219,1.1464380607818765,0.8211545621839103,A,392.5405999998475,Correct
10,410,26,B,80.88475729907543,63.28106361532785,4.044237864953772,0.9940166228263115,B,724.9599000001581,Correct
10,410,27,B,64.18626132571495,44.46446756784169,3.2093130662857474,0.6984462232845653,B,553.1378999999106,Correct
10,410,28,A,59.20583582834297,68.2434407588506,2.9602917914171485,1.0719654607184765,A,540.9978000000137,Correct
10,410,29,A,43.66038528835211,62.83632442426149,2.1830192644176054,0.987030675949224,A,466.2611999999626,Correct
10,410,30,B,45.26009827358199,15.49050701851538,2.2630049136790995,0.2433243152487452,B,485.5783999998948,Correct
10,410,31,A,43.485322415441715,66.22634314229833,2.174266120772086,1.0402809654498062,A,436.78129999989324,Correct
10,410,32,B,78.19426264893124,64.63658145148146,3.9097131324465626,1.0153090472056623,A,548.2727999999497,Incorrect
10,410,33,A,24.49644539196526,53.419609280268446,1.2248222695982631,0.8391132603626426,A,453.4387000001061,Correct
10,410,34,A,64.79289272896861,76.06850155181839,3.23964463644843,1.1948812282238819,A,1015.0476000001163,Correct
10,410,35,B,79.87640504537143,59.02566000910762,3.9938202522685713,0.9271728992895066,B,628.3048999998755,Correct
10,410,36,A,53.91584876201387,81.4403637977391,2.695792438100694,1.2792622430632865,A,657.0279000000028,Correct
10,410,37,A,59.88009272046133,78.71441201004232,2.994004636023066,1.2364430925119458,A,448.75919999981306,Correct
10,410,38,A,44.89401391451761,63.73301421430527,2.2447006957258804,1.0011158462339764,B,537.0414999999866,Incorrect
10,410,39,B,59.969528518381566,49.00423918516873,2.9984764259190784,0.7697567890944157,A,571.8507000001409,Incorrect
10,410,40,A,26.08891964593476,48.143930784506864,1.304445982296738,0.7562430963377113,A,549.4876000000204,Correct
10,410,41,B,35.30335392036022,14.145843937865802,1.7651676960180112,0.22220239697013452,B,459.02669999986756,Correct
10,410,42,A,48.82610913007213,58.51768083580696,2.4413054565036068,0.9191935810944168,A,513.1086999999752,Correct
10,410,43,A,23.361652161539606,45.72051517408667,1.1680826080769804,0.7181761729462568,A,445.8306999999877,Correct
10,410,44,A,38.052027252806134,67.9522059490831,1.9026013626403069,1.0673907550243005,A,800.3489000000172,Correct
10,410,45,A,10.942755026040373,36.75135919575151,0.5471377513020187,0.5772890002940633,A,466.8563999998696,Correct
10,410,46,A,18.016278375736793,34.5406169075319,0.9008139187868396,0.542562741635808,A,465.20200000009027,Correct
10,410,47,B,45.890162471475335,22.994706320559832,2.2945081235737668,0.36120000224062776,B,580.7953999999427,Correct
10,410,48,A,46.650580905222554,54.673409709642094,2.332529045261128,0.8588079114525824,A,507.1451999999681,Correct
10,410,49,B,38.97934495690529,21.47382361297177,1.9489672478452644,0.3373100325349757,B,387.45010000002367,Correct
10,410,50,A,23.864132537475754,46.446830733696274,1.1932066268737878,0.7295851110775442,A,540.3065999998944,Correct
10,410,51,B,70.78172333741364,50.23205539818861,3.5390861668706814,0.7890432810683241,B,669.1404000000603,Correct
10,410,52,B,46.40008329016109,25.95890333436358,2.3200041645080547,0.407761500052421,B,452.3188000000573,Correct
10,410,53,A,36.44332949197308,58.2826875298961,1.822166474598654,0.9155023148769552,A,446.56659999986914,Correct
10,410,54,B,69.56643132697867,43.79729792564435,3.4783215663489333,0.6879663470514389,B,693.7380999997913,Correct
10,410,55,A,52.69491249152016,68.82162266388804,2.6347456245760075,1.0810475208449974,A,552.3189999998976,Correct
10,410,56,A,35.980582637332624,68.24185465266036,1.7990291318666312,1.0719405462207012,A,559.1753000001063,Correct
10,410,57,B,76.06905583785878,64.48056964425977,3.8034527918929393,1.0128584194684576,B,650.5092999998396,Correct
10,410,58,B,82.80206837486438,67.53854967721705,4.140103418743219,1.0608930575002717,B,796.197599999914,Correct
10,410,59,B,34.964561740503996,19.90817006471185,1.7482280870251998,0.31271680410857494,A,450.2516000000014,Incorrect
10,410,60,B,76.08780261787348,50.83544080420183,3.804390130893674,0.7985212368623964,B,541.0184000002118,Correct
10,410,61,B,66.97657167510646,51.96206516629452,3.348828583755323,0.8162182109589248,B,411.9530999998915,Correct
10,410,62,A,55.5843712461638,69.91405859980345,2.77921856230819,1.0982074643989441,A,640.9191999998711,Correct
10,410,63,B,73.04752062242139,57.211733262559015,3.6523760311210696,0.898679804583971,B,568.3848999999555,Correct
10,410,64,A,21.983493242301282,33.50333343921349,1.099174662115064,0.5262691310170118,A,540.8350000000155,Correct
10,410,65,B,80.5303446169455,65.93113348431551,4.026517230847275,1.0356438229858682,A,924.3191000000479,Incorrect
10,410,66,B,41.803788957585084,27.32510264404999,2.090189447879254,0.4292217086256725,B,592.4678999999742,Correct
10,410,67,B,57.579004643165646,44.91792566400663,2.8789502321582825,0.7055691264026783,B,561.6000999998505,Correct
10,410,68,A,24.132018906735,50.480636240148336,1.2066009453367499,0.7929479798029435,A,497.3368999999366,Correct
10,410,69,B,50.964600479373765,28.753906106671977,2.548230023968688,0.4516653009336569,B,569.0465000000131,Correct
10,410,70,B,81.6510220161003,59.35204550798902,4.082551100805015,0.9322997507171269,B,536.4928999999847,Correct
10,410,71,B,84.74745035388806,62.169990157133554,4.237372517694403,0.9765639217570026,B,524.6869000000061,Correct
10,410,72,A,60.804733380042734,84.03536855670102,3.040236669002137,1.3200244824972132,A,708.7129999999888,Correct
10,410,73,A,27.406388231884208,54.94191669496686,1.3703194115942103,0.8630256093152514,A,582.6529000000846,Correct
10,410,74,A,55.38467134626628,64.3513447491328,2.769233567313314,1.0108285595624986,B,804.7455000000809,Incorrect
10,410,75,B,81.70771202000174,52.769320602389925,4.085385601000087,0.8288985496969635,B,539.1219000000547,Correct
10,410,76,B,36.40309903957518,25.5439278240355,1.820154951978759,0.40124307997908915,B,564.5194999999603,Correct
10,410,77,A,21.54888153987748,46.27564298381881,1.077444076993874,0.7268961001905461,A,583.8367000001199,Correct
10,410,78,A,61.02925105102956,85.00110098851175,3.0514625525514782,1.3351941720627634,A,526.2407999998686,Correct
10,410,79,B,50.83352728078387,39.807169296285565,2.5416763640391933,0.6252895531070796,B,592.6965000001019,Correct
10,410,80,B,39.218167193336946,24.919479510169815,1.9609083596668473,0.3914342688021544,B,666.6544999998223,Correct
10,410,81,A,35.23820652749569,46.72295587656806,1.7619103263747846,0.7339224746791312,A,516.5910000000622,Correct
10,410,82,B,45.50621409069082,23.400876057121657,2.275310704534541,0.3675801015430934,B,442.950799999835,Correct
10,410,83,A,47.678030480150525,74.65037456738433,2.3839015240075265,1.1726053416431046,A,712.4923999999737,Correct
10,410,84,A,64.52919798991037,82.75491759776034,3.2264598994955183,1.2999112058677629,A,583.1180000000131,Correct
10,410,85,A,62.826017074731986,87.96944966655617,3.1413008537365994,1.3818208840639499,A,486.31670000008853,Correct
10,410,86,B,39.54429599732872,25.486241102307094,1.977214799866436,0.400336939073131,B,412.14140000010957,Correct
10,410,87,A,33.89672376375294,58.814103806133275,1.6948361881876468,0.9238497822240788,A,731.2945000001037,Correct
10,410,88,B,46.041336700337304,36.27532027481335,2.302066835016865,0.5698113984098525,B,477.0097000000533,Correct
10,410,89,B,61.72690758840369,32.22009174989605,3.0863453794201847,0.5061120176973126,B,598.4000999999353,Correct
10,410,90,B,69.93080599723207,43.154153220076395,3.4965402998616035,0.6778638536404016,B,445.3221000001122,Correct
10,410,91,A,41.53053051668032,53.811570299030436,2.076526525834016,0.8452701696478235,A,656.3663000001725,Correct
10,410,92,B,60.716460992818874,31.50640066378594,3.0358230496409435,0.49490138433203246,B,420.4970000000685,Correct
10,410,93,A,16.21289507970573,35.49384787563849,0.8106447539852866,0.5575360586686978,A,589.0961999998581,Correct
10,410,94,A,62.16739297126738,78.68595657847871,3.1083696485633694,1.2359961156381707,A,642.5705999999991,Correct
10,410,95,A,41.05456871197222,61.61883259995639,2.052728435598611,0.9679063590940115,A,1068.5488999999961,Correct
10,410,96,A,28.759791239165082,42.81770384554602,1.4379895619582541,0.672578919223754,B,1115.496599999915,Incorrect
10,410,97,A,52.58310310333806,67.58226501799663,2.6291551551669032,1.0615797364674835,A,643.2490000001962,Correct
10,410,98,B,37.12698959143145,11.025817781168481,1.8563494795715727,0.17319314070569305,B,422.8528000001006,Correct
10,410,99,B,64.63118957719131,44.00376318755586,3.2315594788595656,0.6912094958016525,B,609.6152000000075,Correct
10,410,100,A,37.297057659718284,60.4937703667066,1.8648528829859143,0.9502339228599668,A,452.64429999997446,Correct
10,410,101,A,22.026472669185193,45.24838041658245,1.1013236334592598,0.7107598975178585,A,610.7324999998127,Correct
10,410,102,B,78.21483666958689,60.39791541296418,3.910741833479344,0.9487282367675302,B,785.9256000001551,Correct
10,410,103,A,20.363041901856786,38.654645913057635,1.0181520950928393,0.6071857581378829,A,538.1991000001562,Correct
10,410,104,B,63.56416048574258,49.9933732844421,3.178208024287129,0.7852940711928776,B,576.0356999999203,Correct
10,410,105,B,50.24650279788979,41.72725273529823,2.5123251398944895,0.6554501532384875,B,739.0947999999753,Correct
10,410,106,A,13.52607566726434,33.92279083763789,0.676303783363217,0.5328579524239317,A,567.5195000001168,Correct
10,410,107,A,17.757895615199768,47.00315645197825,0.8878947807599884,0.7383238550253327,A,481.16479999998774,Correct
10,410,108,A,30.882522553708746,42.61933120393692,1.5441261276854374,0.6694628890559924,A,933.3781000000272,Correct
10,410,109,A,59.058496458957805,79.2050227668165,2.95292482294789,1.2441495882582152,A,783.842199999981,Correct
10,410,110,A,46.511314154253284,53.78143203859636,2.325565707712664,0.8447967589599652,A,616.4287000001423,Correct
10,410,111,A,65.72589065884493,85.48355362086333,3.2862945329422466,1.3427725202902672,A,981.9723000000522,Correct
10,410,112,A,55.78693469513587,77.45075959171196,2.7893467347567933,1.2165936867413574,A,432.44879999997465,Correct
10,410,113,B,68.84489205603302,58.416671235087975,3.442244602801651,0.9176069259966129,A,686.8249999999989,Incorrect
10,410,114,A,47.35175074971539,69.70365214365502,2.3675875374857696,1.0949024075144251,A,731.537200000048,Correct
10,410,115,A,21.801999125907574,42.25137471120972,1.0900999562953786,0.66368304198403,A,647.9704000000766,Correct
10,410,116,A,24.39032329500529,44.63630888809492,1.2195161647502646,0.7011455004310189,A,420.9421000000475,Correct
10,410,117,A,13.75909745266711,40.02401054427726,0.6879548726333554,0.6286956874655092,A,407.1900999999798,Correct
10,410,118,A,57.52804602684215,81.0401059576011,2.8764023013421074,1.2729750076126902,A,467.33949999998003,Correct
10,410,119,B,73.29431430490786,47.62749272075554,3.664715715245393,0.7481309062021346,B,698.2714000000669,Correct
10,410,120,A,54.86811372765828,80.09864167369973,2.743405686382914,1.2581865212230818,A,529.729800000041,Correct
10,410,121,A,51.97962227323732,70.81733065887002,2.598981113661866,1.1123960287237264,B,598.6872999999377,Incorrect
10,410,122,B,35.338855332762364,20.817538379054096,1.7669427666381181,0.3270011281872996,B,473.9916999999423,Correct
10,410,123,A,18.21035557716424,47.21511414000169,0.910517778858212,0.7416532786031643,A,461.3879999999426,Correct
10,410,124,A,48.08697446535767,57.544638851526386,2.4043487232678835,0.9039090733471656,A,671.9308000001547,Correct
10,410,125,A,33.028910684209684,57.20525739541024,1.6514455342104841,0.89857808190067,A,518.7621000000036,Correct
10,410,126,A,30.52526009416373,42.405707993845866,1.5262630047081864,0.6661073035187007,A,423.624000000018,Correct
10,410,127,B,50.57041060477975,43.774649298763,2.5285205302389873,0.6876105832523172,B,619.5032000000538,Correct
10,410,128,B,72.36567555702545,42.00848261777162,3.6182837778512726,0.6598677019022292,B,550.8197999999993,Correct
10,410,129,B,78.25342185996715,56.82324711649326,3.9126710929983575,0.8925774784714632,B,514.9814000001243,Correct
10,410,130,A,41.14067898619328,67.47228544272805,2.057033949309664,1.0598521813389399,A,619.2665000000943,Correct
10,410,131,A,23.648829811030126,51.04616536083206,1.1824414905515064,0.8018312904575989,A,470.83550000002106,Correct
10,410,132,A,54.328630869263584,78.98767949465349,2.7164315434631794,1.2407355681225427,A,655.4767999998603,Correct
10,410,133,B,81.25220319806658,60.87855822390369,4.062610159903329,0.9562781563867715,B,573.5217000001285,Correct
10,410,134,B,61.68746728103741,37.541257527264065,3.0843733640518702,0.5896966942708766,B,571.0944999998446,Correct
10,410,135,A,20.389745179063972,35.91846571896379,1.0194872589531985,0.5642059401545674,A,516.1892000000989,Correct
10,410,136,A,40.70433693983696,64.46383567898378,2.0352168469918483,1.0125955629565753,A,589.3109000001004,Correct
10,410,137,B,53.53029712593901,36.05730513556554,2.6765148562969507,0.5663868246106912,B,630.6974000001446,Correct
10,410,138,B,61.24286573401198,51.18343319237498,3.062143286700599,0.8039874885133459,B,703.8147999999183,Correct
10,410,139,B,77.6206805310494,57.12872314620957,3.88103402655247,0.8973758847254858,B,511.2941000002138,Correct
10,410,140,B,46.42936624034438,36.29905855952591,2.321468312017219,0.5701842785141615,A,597.9551999998876,Incorrect
10,410,141,B,83.29906363603389,59.39166634717601,4.164953181801695,0.9329221134037216,B,539.7382999999536,Correct
10,410,142,B,42.71825669619722,14.852796744483754,2.135912834809861,0.23330718568866277,B,461.7255999999088,Correct
10,410,143,B,58.87935511610224,25.954803935172507,2.943967755805112,0.4076971068405071,B,449.02239999987614,Correct
10,410,144,B,74.06682877002527,43.40862221577759,3.7033414385012633,0.6818610432777079,B,753.5699000000022,Correct
10,410,145,B,73.43836487312225,62.228948226720064,3.671918243656113,0.9774900329484167,B,720.465600000125,Correct
10,410,146,B,84.3864428603958,54.98200104531155,4.21932214301979,0.8636552528180854,B,476.3915000000907,Correct
10,410,147,A,38.74114408509556,71.38120104825462,1.937057204254778,1.1212532840880638,A,445.7828999998128,Correct
10,410,148,B,66.88081629204356,39.80559995320557,3.3440408146021783,0.6252649019236242,B,635.3241000001617,Correct
10,410,149,B,54.78122643460667,34.19164479503179,2.739061321730334,0.5370811005111179,B,536.5885999999591,Correct
10,410,150,B,39.59991294256468,18.006826562413586,1.979995647128234,0.2828505702147204,B,502.9394999999113,Correct
10,410,151,B,56.907505579447964,29.571443553951248,2.8453752789723983,0.4645071491256924,B,426.81420000008075,Correct
10,410,152,B,78.80716353575387,52.92029358771203,3.9403581767876936,0.8312700278048556,B,522.2841999998309,Correct
10,410,153,B,52.85676281116353,43.776595951686545,2.6428381405581765,0.6876411612049356,B,661.0782000000199,Correct
10,410,154,B,81.82323526666254,63.80369184929478,4.091161763333127,1.0022260479282572,B,1126.711699999987,Correct
10,410,155,A,37.835188902159494,52.28961996562188,1.891759445107975,0.8213634297149993,B,896.1348000000271,Incorrect
10,410,156,A,61.068572709282705,76.01026863889942,3.0534286354641353,1.1939665077667654,A,664.9838000000727,Correct
10,410,157,B,51.10853045353285,43.25290632957327,2.5554265226766426,0.6794150638569743,B,421.424800000068,Correct
10,410,158,A,23.26107133137745,46.71260429279728,1.1630535665688726,0.7337598723814948,A,481.2730000001011,Correct
10,410,159,A,41.71367605422452,63.511259770249275,2.085683802711226,0.9976325355722404,A,676.8417000000682,Correct
10,410,160,B,69.60180542278039,57.65070208297783,3.4800902711390194,0.9055751106908848,B,722.7029000000584,Correct
10,410,161,A,45.91467616188096,67.73213332419778,2.295733808094048,1.0639338623163208,A,763.0033000000367,Correct
10,410,162,B,59.722322023868905,51.6258914226788,2.986116101193445,0.81093760614256,B,687.4284000000443,Correct
10,410,163,B,88.29432025719584,69.05214062833565,4.414716012859792,1.0846684885631426,A,550.6524999998419,Incorrect
10,410,164,B,46.786143998778286,20.086427038885244,2.3393071999389146,0.3155168581111464,B,484.4365999999809,Correct
10,410,165,A,27.29414835091672,36.73610276388174,1.364707417545836,0.5770493528226528,A,652.4580000000242,Correct
10,410,166,B,69.20431215107924,52.990530059332855,3.460215607553962,0.8323732997211459,B,479.23340000011194,Correct
10,410,167,A,26.877791514689953,53.73274937845419,1.3438895757344977,0.844032053522666,A,465.73819999980515,Correct
10,410,168,B,58.08349024668776,40.07961608129331,2.9041745123343876,0.629569137198452,B,438.6984999998731,Correct
10,410,169,B,51.961544669984335,33.79857743105592,2.598077233499217,0.5309068127959553,B,686.2091999998938,Correct
10,410,170,A,49.7461109253341,69.40833470153856,2.4873055462667053,1.0902635719812752,A,547.4413999997978,Correct
10,410,171,B,85.47088013950696,65.13213801673079,4.273544006975348,1.0230932315297898,B,516.012099999898,Correct
10,410,172,B,64.89539632115441,55.311031801579546,3.2447698160577203,0.8688236558515686,B,548.5584999998991,Correct
10,410,173,B,82.86633172569937,59.01498048926728,4.143316586284969,0.9270051457841352,B,565.4449000001023,Correct
10,410,174,B,70.37552925368634,49.1648556281213,3.518776462684317,0.7722797462805434,B,824.7332999999344,Correct
10,410,175,A,25.87655467011001,37.84084764853196,1.2938277335055006,0.594402644891193,A,624.5069999999942,Correct
10,410,176,B,38.47372245600184,22.040830586308612,1.9236861228000919,0.34621655724482175,B,562.6956999999493,Correct
10,410,177,A,35.0643272542963,48.22732278659192,1.7532163627148152,0.757553014843304,B,663.4176000000025,Incorrect
10,410,178,B,52.16112993585491,25.198405029298428,2.6080564967927455,0.3958156206111202,B,477.2325000001274,Correct
10,410,179,A,34.876539862965515,55.01758099601139,1.7438269931482757,0.8642141413767541,A,559.7344999998768,Correct
10,410,180,B,49.782300910105846,42.56164019890024,2.4891150455052924,0.6685566808679851,B,437.78930000007676,Correct
10,410,181,A,56.66945084677053,82.55914915801594,2.8334725423385265,1.296836082407234,A,524.4669000001068,Correct
10,410,182,A,52.48162329587532,79.27073827596952,2.6240811647937665,1.2451818450621253,A,536.0462999999527,Correct
10,410,183,B,80.23217539074554,64.62287717661042,4.011608769537276,1.0150937809593739,B,720.8712999999989,Correct
10,410,184,B,52.291067419344884,41.263883409975215,2.614553370967244,0.6481715648968194,B,552.6904000000741,Correct
10,410,185,A,51.56809832981732,73.39462544019963,2.578404916490866,1.1528800804795285,A,506.03099999989354,Correct
10,410,186,B,84.36934134892431,62.42860965680791,4.218467067446215,0.9806263073582627,B,712.6651000000948,Correct
10,410,187,A,46.26266553289814,64.54636501796126,2.313133276644907,1.0138919307817615,A,784.4115999998849,Correct
10,410,188,A,10.653733337074058,31.00732525207782,0.5326866668537029,0.48706192609698484,A,508.83619999990515,Correct
10,410,189,A,57.53922270535655,82.89855099726046,2.8769611352678277,1.302167394031161,A,663.8677000000826,Correct
10,410,190,B,64.35641715513385,36.254972006272325,3.2178208577566925,0.5694917685550436,B,486.5758000000824,Correct
10,410,191,B,47.761204675748985,37.004152812115365,2.3880602337874492,0.5812598731342785,B,750.8424000000105,Correct
10,410,192,A,60.49857950752809,79.42688933801422,3.024928975376405,1.2476346602089747,A,502.01830000014525,Correct
10,410,193,A,61.70863178350585,71.65411680344263,3.0854315891752924,1.1255402347458017,A,645.4722999999376,Correct
10,410,194,B,49.70335377139475,22.305950090916156,2.4851676885697374,0.35038104468481385,B,858.4791999999197,Correct
10,410,195,A,46.84124441643764,56.454800100470756,2.342062220821882,0.8867899262775962,A,1113.3990000000722,Correct
10,410,196,B,87.51727084376716,64.92458189091977,4.375863542188358,1.0198329475295123,B,557.5509000000238,Correct
10,410,197,B,46.86599489879635,37.14511166073771,2.3432997449398174,0.5834740495507308,A,623.4991000001173,Incorrect
10,410,198,B,66.44073230405418,38.88584290756169,3.322036615202709,0.6108173920352128,B,463.763500000141,Correct
10,410,199,A,50.66889376471457,66.51932790461008,2.533444688235728,1.0448831593342678,A,506.298999999899,Correct
10,410,200,B,58.38044522750684,38.43998335368887,2.919022261375342,0.6038138465403146,B,483.1435999999485,Correct
10,410,201,A,47.22700649719454,65.19658556206458,2.361350324859727,1.0241055712046023,B,609.2068999996627,Incorrect
10,410,202,B,84.45678919489373,59.06665317933849,4.222839459744687,0.9278168185017301,B,522.3191999998562,Correct
10,410,203,A,18.7568446234482,33.33221887303034,0.93784223117241,0.523581269696796,A,487.6094999999623,Correct
10,410,204,B,64.08966074672531,46.37961894500815,3.204483037336266,0.728529350769658,B,630.2406999998311,Correct
10,410,205,A,41.012843562260045,69.93219662058584,2.0506421781130024,1.098492375763147,A,477.94840000005934,Correct
10,410,206,B,73.83307770533429,42.290034254816455,3.6916538852667147,0.6642903046749604,B,387.74560000001657,Correct
10,410,207,B,79.23629236146597,54.501409444229196,3.9618146180732987,0.8561061376013991,B,605.7605999999396,Correct
10,410,208,A,45.63805371458829,68.92345922160504,2.2819026857294147,1.0826471657529504,A,558.284299999741,Correct
10,410,209,A,24.141695746694474,44.28686871511188,1.2070847873347237,0.6956565070294556,A,1010.9999999999673,Correct
10,410,210,A,49.40517643710567,68.07584721962876,2.4702588218552837,1.0693329075604343,A,787.3172999998133,Correct
10,410,211,B,63.03038993403324,48.25171706179212,3.1515194967016615,0.757936199222097,A,408.8541000000987,Incorrect
10,410,212,B,33.266395683308126,21.53045554081187,1.6633197841654064,0.3381996047772811,B,583.5004000000481,Correct
10,410,213,B,59.31305054090229,44.041416643879074,2.9656525270451146,0.6918009549104888,B,503.48269999994955,Correct
10,410,214,A,24.40138447312181,52.828049862979995,1.2200692236560904,0.8298210667650662,A,699.6472999999241,Correct
10,410,215,A,48.52343844790871,56.68099798756591,2.4261719223954357,0.8903430343793747,A,859.933700000056,Correct
10,410,216,A,40.431263005590566,60.849420258465656,2.021563150279528,0.9558204582959683,A,426.05619999994815,Correct
10,410,217,B,77.46592146222449,46.60539248835301,3.8732960731112245,0.7320757932953937,B,491.72669999961727,Correct
10,410,218,A,37.66730100080636,68.05005759452796,1.883365050040318,1.0689278050766569,A,533.9483000002474,Correct
10,410,219,B,55.46038534038425,30.18630429529226,2.7730192670192126,0.4741653590655809,B,425.8089999998447,Correct
10,410,220,B,81.05850814419793,64.42459678818398,4.052925407209897,1.0119791999012169,B,580.3295999999136,Correct
10,410,221,A,39.71484975417402,55.972153122943034,1.985742487708701,0.8792085252832041,A,449.5990999998867,Correct
10,410,222,B,67.63263761064346,44.486957690961724,3.3816318805321726,0.6987994973124264,B,550.5717000000914,Correct
10,410,223,A,67.70296931655349,80.97675754270547,3.3851484658276747,1.2719799330384267,A,715.2796999998827,Correct
10,410,224,A,19.534562662274652,37.41230509720784,0.9767281331137326,0.5876711142362406,A,503.68920000028083,Correct
10,410,225,B,49.015078920599045,35.95613522353133,2.4507539460299523,0.564797651348636,B,438.28339999981836,Correct
10,410,226,B,59.34168629784142,41.402374179209936,2.967084314892071,0.6503469728129084,B,599.4639000000461,Correct
10,410,227,A,27.405905575454447,56.311646389098264,1.3702952787727225,0.8845412730376865,A,433.62930000012057,Correct
10,410,228,A,52.40793945964004,64.28343673771867,2.620396972982002,1.0097618630136058,B,531.3618999998653,Incorrect
10,410,229,A,54.175529899328886,71.83821717501618,2.7087764949664446,1.1284320766200948,A,494.9338000001262,Correct
10,410,230,B,70.86019912076871,47.36100768296496,3.5430099560384356,0.7439449690170624,B,483.94550000011805,Correct
10,410,231,A,62.4486953961182,77.55257459158894,3.12243476980591,1.2181929930195512,A,475.9311000002526,Correct
10,410,232,B,71.34096198527313,43.63684792044548,3.567048099263656,0.6854460042634328,B,472.40229999988514,Correct
10,410,233,B,77.0703492102176,58.54313293657755,3.85351746051088,0.9195933817584134,B,449.24019999962184,Correct
10,410,234,A,67.527663541217,83.87894736473231,3.37638317706085,1.3175674241594397,A,669.1117000000304,Correct
10,410,235,A,17.18543569131733,40.10454841314728,0.8592717845658666,0.6299607733513984,A,495.614100000239,Correct
10,410,236,A,61.986668522312236,73.89043173798476,3.099333426115612,1.160668187593155,B,793.8352000001032,Incorrect
10,410,237,A,32.98209331396041,49.59852732706494,1.6491046656980206,0.7790918453978991,A,565.132000000176,Correct
10,410,238,B,62.393632696433706,41.441972960490375,3.119681634821685,0.6509689890147171,B,608.9984000000186,Correct
10,410,239,A,44.51589578081137,76.86684881081662,2.2257947890405685,1.2074216376432942,A,631.1164999997345,Correct
10,410,240,A,61.65413516753783,83.38103719930912,3.082706758376892,1.309746269570234,A,1006.8751999997403,Correct
10,410,241,A,27.997322411943408,58.31940509735084,1.3998661205971703,0.9160790730778225,A,555.2606999999625,Correct
10,410,242,A,45.465537602618284,68.93496244569447,2.273276880130914,1.08282785797441,A,873.1123000002299,Correct
10,410,243,A,58.624524392774376,72.0469555686836,2.931226219638719,1.1317109316404332,A,506.23819999964326,Correct
10,410,244,B,39.395798138562796,25.569489497001726,1.9697899069281397,0.40164460179911005,B,686.4165000001776,Correct
10,410,245,B,72.95942199799683,40.86334737990439,3.647971099899842,0.6418799596489768,A,716.747899999973,Incorrect
10,410,246,B,63.71346999524984,37.55542319055144,3.1856734997624923,0.5899192079894607,B,576.6311000002133,Correct
10,410,247,A,26.20599348435755,51.731403669792385,1.3102996742178774,0.8125949886445392,A,450.59219999984634,Correct
10,410,248,A,22.294546557313854,48.52322611246136,1.1147273278656926,0.7622010534169252,A,459.4166000001678,Correct
10,410,249,A,45.699846085414535,52.50379886482652,2.2849923042707267,0.8247277439964757,B,706.3232999998945,Incorrect
10,410,250,B,80.39589665152343,56.194934806034375,4.019794832576172,0.8827079717779749,B,512.6785000002201,Correct
10,410,251,B,62.84796480784071,31.849469727352645,3.142398240392035,0.5002903005809078,B,667.1971000000667,Correct
10,410,252,B,72.13555822665188,50.14365773988416,3.606777911332594,0.7876547338987052,B,591.0937000003287,Correct
10,410,253,A,31.026410086422146,62.82949544437616,1.5513205043211074,0.9869234065840274,A,462.7967000001263,Correct
10,410,254,B,72.18659647021015,61.02286375374172,3.609329823510507,0.9585449023488292,B,589.4577999997637,Correct
10,410,255,B,88.99732796755,67.78169502546851,4.4498663983775,1.0647123756993784,B,644.3795999998656,Correct
10,410,256,B,78.46521067469506,61.18240781776842,3.9232605337347533,0.9610510146461799,B,466.98319999995874,Correct
10,410,257,A,21.298102247472713,50.12637436830104,1.0649051123736357,0.7873832473327314,A,492.43479999995543,Correct
10,410,258,B,37.21360267713767,26.004026717437366,1.8606801338568835,0.40847029649626965,B,584.5386999999391,Correct
10,410,259,A,23.441182347976078,38.14057410417048,1.172059117398804,0.5991107370467954,A,513.1248999996387,Correct
10,410,260,A,67.28339085432337,86.21257004211806,3.364169542716169,1.3542238834570681,A,508.9999000001626,Correct
10,410,261,B,49.0162071733052,37.174486761275155,2.45081035866526,0.5839354725509652,B,1208.113400000002,Correct
10,410,262,B,61.1085292639189,32.18377195037622,3.055426463195945,0.5055415076205558,B,538.0239000000984,Correct
10,410,263,A,14.859425096646923,38.522188873325106,0.7429712548323463,0.605105127823183,A,567.5631999997677,Correct
10,410,264,A,61.7226211340038,71.0909428981077,3.0861310567001903,1.1166939197273331,A,895.0193000000581,Correct
10,410,265,A,62.679502628541485,82.4052000627234,3.1339751314270745,1.2944178556732446,A,1456.7181999996137,Correct
10,410,266,B,74.12017782671334,44.158089428096176,3.7060088913356672,0.6936336467193402,B,587.4864000002162,Correct
10,410,267,A,55.168650084534065,84.72891385930224,2.7584325042267035,1.3309186666351316,A,489.5636999999624,Correct
10,410,268,B,57.54266538230921,37.76916850483339,2.8771332691154607,0.5932767115348978,B,616.4787000002434,Correct
10,410,269,B,76.51438050199428,50.97712212009727,3.825719025099714,0.8007467617682366,B,445.7118000000264,Correct
10,410,270,B,57.30845110131776,47.97320398198362,2.865422555065888,0.753561325994822,B,464.21090000012555,Correct
10,410,271,A,12.192330177531051,38.10717870690755,0.6096165088765525,0.5985861633732708,A,520.8201000000372,Correct
10,410,272,B,69.18372133604366,40.210283729738045,3.459186066802183,0.6316216598205311,B,499.0349999998216,Correct
10,410,273,A,40.15838507053592,65.18773906750121,2.0079192535267962,1.0239666107929508,A,537.4047999998766,Correct
10,410,274,A,59.91473245208944,73.66045027496251,2.995736622604472,1.1570556472196927,A,648.276899999928,Correct
10,410,275,B,57.640308539258626,43.08390020657781,2.8820154269629312,0.676760321884903,B,620.4444999998486,Correct
10,410,276,B,47.24331812033827,29.55380197721704,2.3621659060169136,0.46423003588636286,B,1268.2217000001401,Correct
10,410,277,B,67.6919190372752,58.51665074521053,3.38459595186376,0.9191774004691654,A,727.5362999998833,Incorrect
10,410,278,B,37.18535752812667,27.854170030879065,1.8592678764063337,0.43753227970425324,B,632.3650000003909,Correct
10,410,279,B,61.23785089047731,41.183569639352605,3.0618925445238654,0.6469099991379689,B,1696.398400000362,Correct
10,410,280,A,15.929951619727849,44.02963191533896,0.7964975809863923,0.691615840827458,A,530.0765000001775,Correct
10,410,281,A,12.60290889955099,36.043588533229524,0.6301454449775494,0.5661713647250358,A,477.43309999987105,Correct
10,410,282,B,42.0257358436056,30.833954102937895,2.1012867921802805,0.48433861845457277,B,563.774199999898,Correct
10,410,283,A,46.710359801239804,75.68176875458607,2.33551799006199,1.1888064436504457,A,475.2315999999155,Correct
10,410,284,A,50.884786111370346,60.17536382060487,2.5442393055685173,0.9452324045295264,A,967.0712000001913,Correct
10,410,285,B,62.51931733752122,41.457048206191516,3.1259658668760615,0.6512057904204459,B,907.543700000133,Correct
10,410,286,A,20.443460860815726,38.98947785755233,1.0221730430407863,0.6124452860229415,A,591.1552000002303,Correct
10,410,287,B,43.30266131498317,25.66759440121394,2.1651330657491585,0.4031856300308811,B,570.2153000001999,Correct
10,410,288,A,14.33453042338418,36.19398341456515,0.716726521169209,0.5685337619967435,A,535.9929999999622,Correct
10,410,289,A,47.30466472949533,62.72347497768381,2.3652332364747664,0.9852580409875734,A,533.7972000002082,Correct
10,410,290,A,49.095181463264026,70.33917811168875,2.4547590731632014,1.1048852260761268,A,792.3213999997643,Correct
10,410,291,A,19.674011086733028,35.118242691986495,0.9837005543366515,0.5516360662406411,A,997.841200000039,Correct
10,410,292,A,60.227841261338995,72.08161310821113,3.0113920630669497,1.132255330998289,A,704.6418999998423,Correct
10,410,293,B,46.06513902638754,27.222543606413275,2.3032569513193772,0.4276107150296786,B,592.65699999969,Correct
10,410,294,B,32.68478399354541,11.432535483201843,1.6342391996772705,0.1795818474296577,B,687.2701000002053,Correct
10,410,295,B,34.587268810625424,22.59330242590741,1.7293634405312712,0.3548947646078158,B,445.6286999998156,Correct
10,410,296,B,49.572494605588695,39.60950916681424,2.4786247302794346,0.622184715053806,B,506.6178000001855,Correct
10,410,297,A,18.13277754644383,43.724314152950924,0.9066388773221915,0.6868199206308142,A,461.1203000004025,Correct
10,410,298,B,86.1110746670044,64.83260074773747,4.30555373335022,1.0183881111110609,B,650.6494999998722,Correct
10,410,299,A,20.890577789816636,45.0870394006171,1.0445288894908318,0.7082255587654612,B,702.5466999998571,Incorrect
10,410,300,A,37.01563970035496,62.73718486948283,1.850781985017748,0.98547339546436,A,498.9728999998988,Correct
10,410,301,B,45.68562828232037,19.229862042653487,2.284281414116019,0.30206196661372703,B,453.76489999989644,Correct
10,410,302,A,31.273834782199536,44.40906810066808,1.563691739109977,0.6975760104891383,A,488.81089999986216,Correct
10,410,303,B,65.62356558852919,33.35259082444543,3.2811782794264595,0.5239012715613205,B,985.0643999998283,Correct
10,410,304,B,87.79741022983303,69.4272146082247,4.389870511491652,1.0905601368620035,A,695.736499999839,Incorrect
10,410,305,B,33.92666146798737,12.422537131003299,1.6963330733993687,0.19513275694853197,B,386.5242000001672,Correct
10,410,306,B,50.343109597197696,33.50311941064854,2.517155479859885,0.5262657690641752,B,644.7007000001577,Correct
10,410,307,A,44.55033429256431,70.6630538845255,2.2275167146282153,1.109972654819225,A,446.7050000002928,Correct
10,410,308,B,76.42605193684038,47.1867185018897,3.821302596842019,0.7412072409627312,B,495.01340000006167,Correct
10,410,309,B,45.6215891829207,22.73115931827496,2.281079459146035,0.35706021560935886,B,636.2278000001425,Correct
10,410,310,A,43.63100373921876,68.90149599784564,2.181550186960938,1.082302168240892,A,667.7129999998215,Correct
10,410,311,A,30.77559712526685,41.17478007895821,1.5387798562633423,0.6467719330461523,B,748.0021000001216,Incorrect
10,410,312,B,74.54122633720898,49.234453520198656,3.727061316860449,0.7733729874128211,B,501.12110000009125,Correct
10,410,313,B,32.14890881653634,17.735529710244066,1.607445440826817,0.2785890492261313,B,452.57600000013554,Correct
10,410,314,B,77.3574689103401,64.12820489552445,3.8678734455170054,1.007323486938403,B,605.2093999996941,Correct
10,410,315,A,25.312251971811314,44.60755761488014,1.2656125985905657,0.7006938764874545,A,484.3722999999045,Correct
10,410,316,A,68.97727759947712,83.75928888093756,3.4488638799738562,1.3156878330912936,A,506.4345000000685,Correct
10,410,317,B,77.80002226141015,62.19294055485278,3.8900011130705074,0.9769244257613611,B,1184.2325000002347,Correct
10,410,318,A,45.56658142930034,64.81879267226245,2.2783290714650173,1.018171214368698,A,881.9187000003694,Correct
10,410,319,A,50.09253075385243,72.27042868793333,2.5046265376926216,1.135221239188982,A,824.2949999998928,Correct
10,410,320,B,82.29997239890298,53.339824708610195,4.114998619945149,0.8378600072416855,B,929.677300000094,Correct
10,410,321,A,16.296951526064216,44.587411788107076,0.8148475763032108,0.7003774265805007,A,563.0863000001227,Correct
10,410,322,A,28.884920877201957,61.92494790212679,1.4442460438600977,0.972714807016261,A,492.01029999994716,Correct
10,410,323,A,50.61897458025166,64.3913102564893,2.530948729012583,1.0114563362840394,B,562.3027999999977,Incorrect
10,410,324,B,66.39178231271985,36.24695324799588,3.3195891156359925,0.5693658101945828,B,494.17510000012044,Correct
10,410,325,A,50.03320425948325,59.712039172394256,2.5016602129741625,0.9379545179742987,A,548.2508000000053,Correct
10,410,326,B,87.92612770112022,69.18465693904596,4.396306385056011,1.0867500499041847,B,640.4158999998799,Correct
10,410,327,B,84.13099897613036,68.63565452734031,4.206549948806518,1.0781263401870964,B,518.501600000036,Correct
10,410,328,B,69.16233769109887,37.56604242148935,3.4581168845549435,0.5900860144789672,B,398.20730000019466,Correct
10,410,329,A,31.2259926566698,63.6178152802785,1.5612996328334898,0.9993063056097771,A,515.7739999999649,Correct
10,410,330,A,45.75235607290709,55.89153503750639,2.2876178036453547,0.877942179358433,A,1103.3784999999625,Correct
10,410,331,A,44.886229067946914,58.369266877290066,2.2443114533973456,0.9168623000855824,A,557.7542999999423,Correct
10,410,332,A,42.31879635256744,63.58715403920941,2.1159398176283717,0.9988246799613142,A,492.1061000000009,Correct
10,410,333,A,20.612957848714927,51.83776278618021,1.0306478924357463,0.8142656737379705,A,516.9325000001663,Correct
10,410,334,A,39.169189935380935,54.761914894630735,1.9584594967690467,0.8601981476474071,A,486.3490000002457,Correct
10,410,335,A,42.143080172622476,69.9224808302408,2.107154008631124,1.0983397604852883,A,529.953199999909,Correct
10,410,336,B,52.02476434959823,38.08663927936394,2.6012382174799114,0.5982635307998712,B,428.4397999999783,Correct
10,410,337,B,42.609628691917905,22.92942926457044,2.1304814345958953,0.36017463264290656,B,526.6808999999739,Correct
10,410,338,B,85.27320991694417,61.31923901480239,4.263660495847208,0.9632003540630991,B,646.7133999999533,Correct
10,410,339,A,29.278562493829092,53.386380099303864,1.4639281246914546,0.8385912976086268,A,1363.9329999996335,Correct
10,410,340,B,65.37896104182471,45.51209326098934,3.2689480520912353,0.7149022891910882,B,568.0990999999267,Correct
10,410,341,B,52.51934652313639,29.765582457721123,2.6259673261568195,0.4675566758949895,B,612.8442999997787,Correct
10,410,342,A,12.729454573576788,36.08225107999673,0.6364727286788394,0.5667786745895005,A,511.59400000005917,Correct
10,410,343,B,32.300609849710796,14.472599762737492,1.6150304924855396,0.22733506546480742,B,399.6463999997104,Correct
10,410,344,B,68.02883852111977,59.24912644523377,3.4014419260559885,0.9306831018597959,B,548.8360999997894,Correct
10,410,345,B,42.75235218137912,14.3862448127275,2.1376176090689563,0.22597860508204493,B,474.0852999998424,Correct
10,410,346,B,82.51775888328403,65.72618878791269,4.125887944164202,1.0324245592228118,A,499.21260000019174,Incorrect
10,410,347,B,73.67019595574665,46.91140185955399,3.683509797787332,0.7368825772578668,B,377.6028000002043,Correct
10,410,348,B,66.15069543725642,36.93534910251025,3.307534771862821,0.5801791069911029,B,361.34169999968435,Correct
10,410,349,A,41.79712208743707,70.13360027233466,2.089856104371853,1.1016560169268483,A,431.6854999997304,Correct
10,410,350,B,40.694859821357994,18.240595286979502,2.0347429910679,0.286522600753397,B,424.51789999995526,Correct
10,410,351,B,84.29492298308294,65.4064693294622,4.214746149154147,1.0274024177134229,B,561.9212000001426,Correct
10,410,352,B,78.32508605338535,51.76058949549669,3.9162543026692673,0.813053438522647,B,424.2928999997275,Correct
10,410,353,B,78.42738233313571,50.78963453195437,3.9213691166567854,0.7978017136204917,B,422.66830000016853,Correct
10,410,354,A,52.22883284523698,75.57947399217474,2.611441642261849,1.1871996012799853,A,638.6988999997811,Correct
10,410,355,A,21.964892601990396,45.79376635290906,1.09824463009952,0.7193267997725327,A,535.5204000002232,Correct
10,410,356,B,42.53393033029881,26.965308200574487,2.1266965165149405,0.4235700707235471,B,949.6457000000191,Correct
10,410,357,B,44.74684117609227,36.57805394862533,2.237342058804613,0.5745667278380623,B,567.8437000001395,Correct
10,410,358,B,57.37488386646639,28.74680229975121,2.8687441933233195,0.4515537145954828,B,693.3773000000656,Correct
10,410,359,B,49.02055497087557,38.98312785442771,2.4510277485437784,0.6123455404071086,B,696.1854999999559,Correct
10,410,360,A,34.753826084428255,54.47268324924118,1.7376913042214128,0.8556549075856994,A,726.2327000003097,Correct
10,410,361,A,44.16326163145441,51.49374492389381,2.2081630815727205,0.8088618537936575,B,686.8110000000343,Incorrect
10,410,362,B,47.72423278415745,31.2011512647103,2.3862116392078723,0.49010653798378884,B,513.0460999998832,Correct
10,410,363,B,61.64201507244148,34.129026712932706,3.082100753622074,0.536097497977596,B,443.2762999999795,Correct
10,410,364,A,14.50146893195042,35.252355800435,0.725073446597521,0.5537427100219006,A,509.48349999998754,Correct
10,410,365,B,63.5899916733435,49.87919153378459,3.179499583667175,0.7835005084476794,A,665.6530000000203,Incorrect
10,410,366,B,73.36397964700669,53.54537494583203,3.6681989823503343,0.8410887828176843,B,392.2765000002073,Correct
10,410,367,A,56.68163736297218,75.14924853258327,2.8340818681486093,1.180441635563786,A,544.3108999998003,Correct
10,410,368,B,69.03161311809012,38.661622946237316,3.451580655904506,0.6072953531187886,B,427.338200000122,Correct
10,410,369,B,73.39466516548688,52.371690032517876,3.6697332582743445,0.8226525833111997,B,570.2642000001106,Correct
10,410,370,A,35.79259434194456,56.679306453443324,1.7896297170972277,0.8903164638235105,A,804.219600000124,Correct
10,410,371,A,66.21629266565355,77.59354236254052,3.3108146332826776,1.2188365132608285,A,915.3780999999981,Correct
10,410,372,A,56.67998241213709,66.55425055903676,2.833999120606854,1.0454317231072212,B,727.2791000000325,Incorrect
10,410,373,A,41.785446524793535,63.72240542376859,2.089272326239677,1.0009492037419088,B,472.40529999999126,Incorrect
10,410,374,A,58.09476629657681,84.56759103720397,2.904738314828841,1.32838461367133,A,578.6474000001363,Correct
10,410,375,A,55.94749286760961,67.46890600872055,2.797374643380481,1.0597990973136837,B,511.9018000000324,Incorrect
10,410,376,B,58.98564945431266,31.621432357374694,2.949282472715633,0.4967082979495746,B,410.10810000034326,Correct
10,410,377,B,38.35926478257355,28.87806044146904,1.9179632391286774,0.4536155126642057,B,573.162499999853,Correct
10,410,378,A,44.86815061932546,63.48734105472373,2.243407530966273,0.9972568212673486,A,892.6433999999972,Correct
10,410,379,B,73.41211154666443,61.62513602630814,3.670605577333222,0.9680053730836068,B,808.7620999999672,Correct
10,410,380,B,53.97591192856226,41.17297506251747,2.698795596428113,0.6467435799142033,B,578.1600000000253,Correct
10,410,381,A,47.88932281864479,75.63733637782104,2.3944661409322396,1.188108501508313,A,772.1298999999817,Correct
10,410,382,A,36.19215510723095,68.81095146966996,1.8096077553615475,1.0808798981181944,A,633.6545000003753,Correct
10,410,383,B,41.911761881951705,32.682331959513604,2.095588094097585,0.5133728699309542,B,822.0586999996158,Correct
10,410,384,B,56.96442484125079,47.69108789348465,2.8482212420625395,0.7491298568393824,B,614.6630000002915,Correct
10,410,385,A,50.577103216601145,78.8444970508166,2.528855160830057,1.2384864635541377,A,493.5912000000826,Correct
10,410,386,A,12.506578249849692,32.9102595027303,0.6253289124924847,0.5169531474075559,A,491.3766999998188,Correct
10,410,387,B,52.1176993114448,29.85058062909424,2.60588496557224,0.4688918240487612,B,881.7314999996597,Correct
10,410,388,B,86.8968921604167,58.91109082763761,4.344844608020835,0.9253732507953368,B,574.717999999848,Correct
10,410,389,B,81.74747015484677,60.949084324675766,4.087373507742338,0.9573859777871311,B,1432.1133000003101,Correct
10,410,390,B,46.97772505499911,30.74953605373691,2.3488862527499554,0.4830125828385718,B,647.8864999999132,Correct
10,410,391,A,23.332698678906482,47.39445641725187,1.1666349339453241,0.7444703805066004,A,885.1380999999492,Correct
10,410,392,B,78.32699396548213,56.94738616727895,3.9163496982741064,0.8945274501213227,B,634.6628000001147,Correct
10,410,393,B,53.945485128628206,22.145793043450855,2.6972742564314105,0.3478653036661257,B,595.2320000001237,Correct
10,410,394,A,42.86557998053662,66.02317965534498,2.143278999026831,1.0370896808593544,A,561.0558000003039,Correct
10,410,395,B,53.128308046771274,26.731828137998747,2.6564154023385633,0.4199025744768089,B,421.2035000000469,Correct
10,410,396,B,41.171929575034156,26.16421057604652,2.0585964787517077,0.41098645866342054,B,579.8488999998881,Correct
10,410,397,A,36.97069174971613,57.47076492758613,1.8485345874858066,0.9027486644634526,A,585.9193999999661,Correct
10,410,398,A,40.65235380051892,52.53207415710351,2.032617690025946,0.8251718912489531,B,848.5820000000786,Incorrect
10,410,399,A,47.122922168039246,56.32704099410371,2.3561461084019624,0.8847830909276369,B,489.6854000003259,Incorrect
10,410,400,B,53.988470455638264,22.192830108080045,2.699423522781913,0.3486041601495532,B,454.39410000017233,Correct
10,410,401,A,56.57798283862283,68.30250937650803,2.8288991419311413,1.072893308394928,A,630.1283999996485,Correct
10,410,402,A,28.4573249020823,61.5523384411836,1.4228662451041147,0.9668618712904752,A,478.43060000013793,Correct
10,410,403,A,22.986082460590104,36.21587160491405,1.1493041230295051,0.5688775808867459,A,618.3202999995956,Correct
10,410,404,B,70.3643136888628,39.55593608281397,3.51821568444314,0.6213431910181789,B,979.7131000000263,Correct
10,410,405,B,62.74815366471497,46.872111436770695,3.1374076832357485,0.7362654047400047,B,834.3079999999645,Correct
10,410,406,B,53.0471603112689,28.877546087841466,2.6523580155634447,0.45360743321631714,B,477.97140000011495,Correct
10,410,407,A,17.01031838636288,40.680495572176014,0.850515919318144,0.6390077301697015,A,452.59249999980966,Correct
10,410,408,B,59.36352742113411,40.46814606039936,2.9681763710567055,0.6356721518387468,B,480.7559000000765,Correct
10,410,409,A,46.613089756831485,56.05233122688948,2.3306544878415743,0.8804679599948888,A,556.9093000003704,Correct
10,410,410,A,55.655266289065935,63.547185082277124,2.782763314453297,0.9981968490539634,A,628.6174000001665,Correct
10,410,411,B,41.7984976552708,14.926749220945801,2.08992488276354,0.23446882847250247,B,609.5905000001949,Correct
10,410,412,B,46.58723988043424,32.72637332854125,2.329361994021712,0.5140646701379107,B,569.6571999997104,Correct
10,410,413,A,30.345610651748537,60.0862353098189,1.5172805325874268,0.9438323771559736,A,528.5601000000497,Correct
10,410,414,A,60.751544076152456,80.98957449228251,3.037577203807623,1.2721812612115901,A,577.3925999997118,Correct
10,410,415,A,58.35157016047689,76.09213142897727,2.9175785080238446,1.1952524054663198,A,1369.1422000001694,Correct
10,410,416,B,51.633007832112035,26.358236354057013,2.581650391605602,0.4140342084574447,B,819.0792000000329,Correct
10,410,417,B,77.78865216524387,63.7898989655467,3.8894326082621937,1.0020093898169833,B,667.9555999999138,Correct
10,410,418,A,65.51623162878445,89.76249305910369,3.2758115814392226,1.4099859438119247,A,603.9381000000503,Correct
10,410,419,A,19.6181058930755,42.8629477192254,0.980905294653775,0.6732896083296095,A,514.6141000000171,Correct
10,410,420,B,47.58634340502789,20.267198264763657,2.3793171702513947,0.31835640588714653,B,614.7172999999384,Correct
10,410,421,A,29.93607572515219,38.81565475135778,1.4968037862576093,0.6097148790557168,A,941.0918999997193,Correct
10,410,422,B,31.120006567308216,14.635278724254547,1.556000328365411,0.2298904206167854,B,506.0895999999957,Correct
10,410,423,B,60.03177099936943,39.092117580675996,3.0015885499684716,0.6140575470236005,B,797.4185000002763,Correct
10,410,424,B,46.394319468176555,32.6727556293625,2.3197159734088277,0.513222445288699,B,664.4725999999537,Correct
10,410,425,A,56.467817780651686,74.82926793831189,2.8233908890325843,1.1754153921425146,A,808.7581999998292,Correct
10,410,426,B,51.38073453323493,36.86303090296044,2.5690367266617464,0.5790431353689702,B,943.1380999999419,Correct
10,410,427,A,20.710516114399407,38.014370149566844,1.0355258057199703,0.5971283299636115,A,698.1535999998414,Correct
10,410,428,A,13.874302120918383,39.52187341021285,0.6937151060459192,0.6208081358081523,A,478.8829999997688,Correct
10,410,429,A,39.94525530106406,65.5310447420234,1.997262765053203,1.0293592437180237,A,749.0075999999135,Correct
10,410,430,B,69.47929100414882,58.57276471943192,3.473964550207441,0.9200588367150536,B,1232.900100000279,Correct
10,410,431,B,62.280905313558776,41.13918292183118,3.1140452656779387,0.6462127742095575,B,631.7945000000691,Correct
10,410,432,A,35.09994180059002,57.30529659648487,1.7549970900295009,0.9001494939965051,A,798.7049999996998,Correct
10,410,433,B,48.8330001015216,30.93844199902768,2.44165000507608,0.48597991048829636,B,499.07459999985804,Correct
10,410,434,A,30.27615039643222,40.63900156384813,1.5138075198216112,0.6383559438110471,B,460.78110000007655,Incorrect
10,410,435,B,34.28192876023221,15.756192047902964,1.7140964380116106,0.24749768593120933,B,433.50509999982023,Correct
10,410,436,B,77.27377911177987,62.92639650902972,3.8636889555889935,0.988445524948231,A,739.9963999996544,Incorrect
10,410,437,B,52.18806189416471,27.1826143050012,2.6094030947082354,0.4269835070297829,B,421.10890000003565,Correct
10,410,438,A,59.02589190605953,68.62141870335378,2.9512945953029766,1.0779027243868273,A,659.2289000000164,Correct
10,410,439,B,56.16572201595351,46.955843209751684,2.8082861007976754,0.7375806603543504,B,416.2016999998741,Correct
10,410,440,B,79.02460921187696,64.06254982870811,3.951230460593848,1.0062921795604973,B,479.10710000041945,Correct
10,410,441,B,69.47325560370588,60.06669968863456,3.4736627801852937,0.9435255123359932,B,788.6137999998937,Correct
10,410,442,A,53.47429612856891,70.06271591861245,2.6737148064284453,1.1005425681023076,A,773.5348999999587,Correct
10,410,443,B,75.39829917719302,64.14293644909606,3.7699149588596517,1.0075548896407858,B,823.9629999998215,Correct
10,410,444,B,63.16980494711176,51.836814678231825,3.1584902473555876,0.8142507808931433,B,938.7489000000642,Correct
10,410,445,B,52.26278913922173,34.909687713943306,2.6131394569610866,0.5483600923061908,B,495.45339999986027,Correct
10,410,446,B,45.574838873745605,24.60324801712722,2.27874194368728,0.3864669161252726,B,633.1571999999142,Correct
10,410,447,A,20.766984522215484,43.05288499015356,1.038349226110774,0.6762731360045635,A,724.7305999999298,Correct
10,410,448,B,38.86117417314006,21.817421787608684,1.9430587086570028,0.3427072600411067,B,600.9232999999767,Correct
10,410,449,B,58.77458620922781,26.233755412980766,2.9387293104613907,0.4120788664074592,B,998.9746999999625,Correct
10,410,450,B,66.20306418272487,45.109739831438965,3.3101532091362436,0.7085821362989777,B,636.8056000001161,Correct
10,410,451,B,58.83561888429666,47.806537567616374,2.941780944214833,0.7509433360799402,A,775.0957999996899,Incorrect
10,410,452,B,55.94194285107494,46.752329273726154,2.797097142553747,0.7343838709227455,B,600.7252999997945,Correct
10,410,453,A,14.884497088842416,34.42089927634357,0.7442248544421207,0.5406822214825759,A,594.6763000001738,Correct
10,410,454,A,20.118676801778154,49.60964476479253,1.0059338400889077,0.7792664777013576,A,575.6342000004224,Correct
10,410,455,A,21.45943056836854,41.434669804310865,1.072971528418427,0.6508542713057093,A,473.0549000000792,Correct
10,410,456,B,81.08119853912025,50.62133740373851,4.054059926956012,0.7951581085123757,B,639.654800000244,Correct
10,410,457,A,24.94314310358847,35.14274004332721,1.2471571551794234,0.552020869735663,A,579.5604999998432,Correct
10,410,458,A,32.41588323472631,62.63067184286592,1.6207941617363155,0.9838002927547035,A,627.0322999998825,Correct
10,410,459,A,24.896502127117557,46.823141573424074,1.244825106355878,0.7354961879253195,B,825.3930999999284,Incorrect
10,410,460,B,33.84930928244313,17.0491789305762,1.6924654641221566,0.2678078763901804,B,519.4666000002144,Correct
10,410,461,A,54.19086930588102,61.29753019705945,2.7095434652940513,0.9628593527514024,A,925.8286999997836,Correct
10,410,462,B,67.45279566785588,37.615977008214855,3.3726397833927937,0.5908703851330519,B,519.5168000000194,Correct
10,410,463,A,58.107445911337415,75.05357735558785,2.905372295566871,1.1789388362297404,A,957.3249999998552,Correct
10,410,464,A,32.86376701589565,45.171461120684086,1.6431883507947822,0.7095516520432904,A,550.7041999999274,Correct
10,410,465,B,78.90694183022225,62.687584930805656,3.9453470915111124,0.9846942814495264,B,498.05879999985336,Correct
10,410,466,A,23.29344131291868,49.67161759003059,1.164672065645934,0.7802399445638083,A,700.8233999999902,Correct
10,410,467,A,56.36932955723099,77.2483200992227,2.81846647786155,1.2134137746293538,A,641.5836000001036,Correct
10,410,468,B,84.13441629039144,62.99941194521866,4.206720814519572,0.9895924487378799,B,544.4526999999653,Correct
10,410,469,B,54.12780391377361,46.589177744290645,2.7063901956886802,0.7318210926912628,B,403.5073999998531,Correct
10,410,470,B,64.32945279429507,33.57396756108767,3.2164726397147536,0.5273786492088751,B,439.8926999997457,Correct
10,410,471,B,74.7075174656314,45.52586622762259,3.7353758732815696,0.7151186344450541,B,539.8041000003104,Correct
10,410,472,B,41.103079285705014,27.72614678608427,2.0551539642852505,0.435521295277573,B,534.004399999958,Correct
10,410,473,A,38.7287900879851,60.51145374959277,1.9364395043992548,0.9505116927887958,A,524.0732999995998,Correct
10,410,474,B,54.57574971618001,42.9657159405779,2.728787485809,0.6749038877757271,B,458.7513999999828,Correct
10,410,475,A,26.178031674345288,42.386656108428454,1.3089015837172644,0.6658080372023788,A,1228.9749999999913,Correct
10,410,476,A,30.151248265388766,50.55126346173546,1.5075624132694383,0.7940573896053512,A,1863.2399999996778,Correct
10,410,477,A,66.39124721731702,88.5999267820835,3.319562360865851,1.3917243954359353,A,845.6080999999358,Correct
10,410,478,A,20.27390458501147,43.9015902592638,1.0136952292505734,0.6896045671970619,A,657.1477999996205,Correct
10,410,479,A,38.63970000596462,71.50698788726508,1.9319850002982308,1.1232291391348315,A,572.7672999996685,Correct
10,410,480,A,46.093640129506596,70.92772287877003,2.3046820064753297,1.114130065658983,A,1573.640399999931,Correct
10,410,481,A,58.5155438921892,69.2547244165764,2.92577719460946,1.0878506672675103,A,589.3790000000081,Correct
10,410,482,A,43.00196845549705,55.779122854484726,2.1500984227748523,0.8761764129166587,A,465.8115000001999,Correct
10,410,483,B,79.67532957074746,66.53470636678752,3.9837664785373734,1.0451247236532686,B,578.9192000002004,Correct
10,410,484,A,22.225951563239974,53.08031552508383,1.1112975781619987,0.8337836465191582,A,488.99580000033893,Correct
10,410,485,A,23.376732496689034,48.942675735991536,1.1688366248344517,0.7687897526960921,A,554.107699999804,Correct
10,410,486,A,51.45004601741708,80.51860541234093,2.572502300870854,1.2647832962035281,A,745.8795000002283,Correct
10,410,487,A,65.09891434358826,79.49514473409678,3.254945717179413,1.248706813463479,B,597.4521999996796,Incorrect
10,410,488,A,38.541361099009755,60.57942556119743,1.9270680549504877,0.9515793915087379,A,624.5092999997723,Correct
10,410,489,B,42.48351077521906,29.62901944027483,2.124175538760953,0.4654115490331829,B,519.434899999851,Correct
10,410,490,A,48.23903909326655,70.81153024051217,2.4119519546633272,1.1123049159652225,A,478.33459999992556,Correct
10,410,491,A,33.18085120237511,62.308182890862064,1.6590425601187553,0.9787346481423075,A,588.9970999996876,Correct
10,410,492,A,42.46785104690139,68.62110943998711,2.123392552345069,1.0778978664892236,A,923.0999000001248,Correct
10,410,493,A,29.777591178417232,45.92695543035496,1.4888795589208614,0.7214189289087449,A,625.7439000000886,Correct
10,410,494,A,22.733173112540488,48.41498143834872,1.1366586556270244,0.7605007500520126,A,418.5386999997718,Correct
10,410,495,A,32.44779297164586,50.81135599563629,1.622389648582293,0.7981429135741334,A,474.00910000033036,Correct
10,410,496,B,49.95782055956893,43.135738771695685,2.4978910279784463,0.6775746001616378,B,913.7774000000718,Correct
10,410,497,A,38.13966815499559,63.313184959228636,1.9069834077497796,0.9945211837164223,A,435.7090000003154,Correct
10,410,498,A,34.76384764736814,53.896223765138004,1.7381923823684071,0.846599903183946,A,685.3989000001093,Correct
10,410,499,A,12.524397199377908,39.10430293772475,0.6262198599688954,0.6142489541645292,A,725.4179999999906,Correct
10,410,500,B,59.28170528644451,39.62266919064825,2.9640852643222257,0.6223914322247959,B,637.9761999996845,Correct
10,410,501,A,52.356822209657054,73.94800082360997,2.6178411104828525,1.1615724806755252,A,484.90240000000995,Correct
10,410,502,A,21.282553584647676,43.96335325760995,1.0641276792323837,0.6905747381064017,A,455.6688999996368,Correct
10,410,503,B,55.82038862326506,45.49490758540383,2.791019431163253,0.7146323372302562,B,701.1880000000019,Correct
10,410,504,B,54.902844179923584,43.529913953806656,2.745142208996179,0.6837662894433741,B,969.6183999999448,Correct
10,410,505,A,28.243772676910577,44.99588938258121,1.412188633845529,0.7067937776302805,A,532.1266999999352,Correct
10,410,506,A,36.48063979429908,65.38389281440791,1.824031989714954,1.0270477866442318,B,848.8259000000653,Incorrect
10,410,507,B,40.75954611463304,21.66753731268479,2.037977305731652,0.34035288021456633,B,460.72120000008,Correct
10,410,508,B,73.7351752469388,60.061862313371705,3.68675876234694,0.9434495270230508,B,617.7176999999574,Correct
10,410,509,B,37.74961851505071,25.024905840495492,1.8874809257525356,0.39309030172638476,B,526.4274999999543,Correct
10,410,510,A,48.846385507643085,68.3305531824608,2.4423192753821543,1.0733338194687276,A,773.3406000002105,Correct
10,410,511,B,49.336941496613306,36.3430052082402,2.4668470748306652,0.5708745908579149,B,567.8443000001607,Correct
10,410,512,B,60.110310013164735,43.8490908689658,3.0055155006582366,0.6887799087026713,B,513.1951000003028,Correct
10,410,513,B,82.99352544929282,52.87171715901793,4.1496762724646405,0.8305069910472407,B,680.1383000001806,Correct
10,410,514,A,35.208951279445216,61.53850954583449,1.7604475639722608,0.966644647510295,A,618.6545999998998,Correct
10,410,515,A,40.14741857317052,50.23995969962856,2.007370928658526,0.7891674415450017,B,516.8393999997534,Incorrect
10,410,516,A,24.323594579233806,41.72927823482203,1.2161797289616902,0.6554819697106068,A,491.4792999998099,Correct
10,410,517,A,35.52713811430516,51.52611269266292,1.776356905715258,0.8093702855165481,A,455.38729999998395,Correct
10,410,518,A,17.653669098664103,31.71015508673981,0.8826834549332051,0.498101951323474,A,528.7842999996428,Correct
10,410,519,A,19.024830634965202,34.044132628143345,0.9512415317482601,0.5347639848120586,A,595.5143999999564,Correct
10,410,520,B,62.16399032408988,50.40060546846681,3.1081995162044938,0.7916908593810644,A,893.7767000002168,Incorrect
10,410,521,B,39.644771639008816,27.385029178465075,1.9822385819504407,0.43016303242704,B,359.18500000025233,Correct
10,410,522,B,67.42314530901075,56.286687116722476,3.3711572654505373,0.884149213704013,B,492.45169999994687,Correct
10,410,523,A,35.52832435931206,48.95940786333405,1.776416217965603,0.7690525803377829,B,707.6210999998693,Incorrect
10,410,524,B,61.05187366377561,49.46654687397698,3.0525936831887805,0.7770187012887062,B,945.1186000001144,Correct
10,410,525,A,31.63703559343739,53.87171356557103,1.5818517796718694,0.8462148978694576,A,557.043700000122,Correct
10,410,526,B,64.46330656745346,36.67288489612596,3.223165328372673,0.5760563288780669,B,379.67200000002777,Correct
10,410,527,A,21.414864134528976,34.75109890450241,1.0707432067264488,0.5458689851127855,A,483.9550000001509,Correct
10,410,528,B,73.7677766305833,42.84047748814794,3.688388831529165,0.6729366467652222,B,1125.0923999996303,Correct
10,410,529,A,13.699797054317344,34.235109848805905,0.6849898527158672,0.537763847979241,A,477.13160000012067,Correct
10,410,530,A,13.080453050521054,34.44496414022818,0.6540226525260527,0.5410602314805235,B,532.8636999997798,Incorrect
10,410,531,A,58.555083571013455,78.75733366547048,2.927754178550673,1.2371173042988108,A,599.0944000000127,Correct
10,410,532,B,46.246473606670506,32.35542415427444,2.3123236803335256,0.5082378141342516,B,1144.1750999997566,Correct
10,410,533,B,53.10569762020345,21.54093416303342,2.655284881010173,0.3383642025902359,B,810.9894000003806,Correct
10,410,534,B,48.786838281979826,20.97263768154163,2.4393419140989914,0.3294374223336583,B,759.6825999999055,Correct
10,410,535,B,65.30406860554588,54.83307188975466,3.265203430277294,0.8613158791130712,B,583.69249999987,Correct
10,410,536,A,32.61292213729385,64.40017195792525,1.6306461068646925,1.0115955355646868,A,1074.7069000003648,Correct
10,410,537,A,44.849384637051266,64.05720067578679,2.242469231852563,1.0062081552628945,A,798.6479999999574,Correct
10,410,538,B,70.64694933716555,52.692425013199966,3.5323474668582775,0.8276906766065003,B,948.4192999998413,Correct
10,410,539,A,25.985523507631747,51.329875334753325,1.2992761753815874,0.8062877963067048,A,659.6232000001692,Correct
10,410,540,B,53.035872885059504,23.372956653153974,2.6517936442529755,0.3671415445711061,B,609.4521999998506,Correct
10,410,541,A,38.042714380366284,45.86760785433208,1.9021357190183141,0.7204866993645358,A,613.5945000000902,Correct
10,410,542,B,40.9113695447418,20.067027450027116,2.04556847723709,0.31521213008194954,B,1659.4114999998055,Correct
10,410,543,A,68.89647146890191,85.70418349377206,3.4448235734450954,1.3462381662297296,B,792.1228000000156,Incorrect
10,410,544,B,86.82868787791408,65.50451429948959,4.341434393895704,1.0289425045012202,A,652.5694000001749,Incorrect
10,410,545,B,58.93902654446298,32.48907222529294,2.946951327223149,0.5103371531246423,B,365.4117999999471,Correct
10,410,546,A,13.433941000386447,33.452510915862554,0.6716970500193225,0.5254708126870308,A,513.8271999999233,Correct
10,410,547,A,35.34655514319285,66.29217734855995,1.7673277571596426,1.0413150867435381,A,470.5061999998179,Correct
10,410,548,B,80.41567232435185,52.088313316981186,4.020783616217592,0.8182013122725574,B,546.3917999995829,Correct
10,410,549,A,25.51005394393178,57.59305678038448,1.275502697196589,0.9046696203951785,A,421.46409999986645,Correct
