subject,day,trial,cat,x,y,xt,yt,resp,rt,fb
5,305,0,A,49.17821804881002,58.61326847762437,2.458910902440501,0.9206950682609546,B,529.3485000001965,Incorrect
5,305,1,A,49.95559121203787,57.155850675938645,2.4977795606018933,0.8978020029660203,B,531.2764000009338,Incorrect
5,305,2,A,29.868419171174892,50.275099208255135,1.4934209585587446,0.7897194116557618,A,827.5675999993837,Correct
5,305,3,B,50.02869656050585,23.075767214411528,2.5014348280252925,0.36247330378371734,B,460.7152999997197,Correct
5,305,4,B,81.17349790918176,59.94327567869624,4.058674895459088,0.9415867725214991,B,512.8614000004745,Correct
5,305,5,A,39.54053312292901,70.72024042999433,1.9770266561464507,1.1108709389748705,A,453.0150999999023,Correct
5,305,6,B,66.81089393385948,39.363015856810335,3.3405446966929735,0.6183128071944696,B,439.5426999999472,Correct
5,305,7,B,87.33542050672725,59.92796557543408,4.366771025336362,0.9413462819818286,B,457.4518999997963,Correct
5,305,8,A,58.17721836473513,69.36454958610643,2.9088609182367566,1.0895757969963844,B,370.0174999994488,Incorrect
5,305,9,A,28.413053333858972,43.859233235119106,1.4206526666929487,0.6889392246176573,A,499.9969999989844,Correct
5,305,10,B,41.9210447972435,17.899191876028816,2.0960522398621753,0.2811598485146311,B,570.9234999994806,Correct
5,305,11,B,43.83698953841815,19.528179994512186,2.1918494769209076,0.3067479340436932,B,401.06379999997444,Correct
5,305,12,A,22.381780968317397,42.02967014472718,1.11908904841587,0.6602005147973858,A,391.3727999988623,Correct
5,305,13,A,22.93635050193097,46.56091822480948,1.1468175250965487,0.7313771931972827,A,530.9649000009813,Correct
5,305,14,A,22.352992129085766,49.86468069094363,1.1176496064542882,0.7832725726613468,A,487.1330999994825,Correct
5,305,15,B,58.81854140757086,44.44015161897507,2.9409270703785433,0.6980642692529432,B,470.57540000059817,Correct
5,305,16,B,46.46421560871096,39.43845363061661,2.3232107804355477,0.6194977809744342,B,511.13440000153787,Correct
5,305,17,A,52.41934646626062,73.23227948192692,2.620967323313031,1.1503299561302807,A,739.5773999996891,Correct
5,305,18,A,17.9871042950438,36.78558322570713,0.8993552147521899,0.5778265900994873,A,774.0675999993982,Correct
5,305,19,B,79.48751626105289,65.73092077739886,3.974375813052644,1.0324988891398448,B,560.8599000006507,Correct
5,305,20,A,49.49340943678752,74.36173540249965,2.474670471839376,1.1680714082434045,A,430.3822999991098,Correct
5,305,21,B,74.73954041628978,47.21608230918935,3.7369770208144892,0.7416684865692014,B,424.63800000041374,Correct
5,305,22,B,34.06511393227585,23.00379043643278,1.7032556966137924,0.3613426951990819,A,370.02399999983027,Incorrect
5,305,23,B,72.8461961653846,57.63613985665676,3.64230980826923,0.9053463677747338,B,440.63549999918905,Correct
5,305,24,B,74.20721887481224,47.64641378259717,3.7103609437406124,0.7484281175465336,B,336.13789999981236,Correct
5,305,25,A,45.81829088375227,71.5313074682094,2.2909145441876135,1.1236111502189967,B,717.9217999982939,Incorrect
5,305,26,A,37.28269920596289,68.00853122814601,1.8641349602981447,1.068275510438878,A,618.9398999995319,Correct
5,305,27,A,22.09455819931305,39.914227705747756,1.1047279099656524,0.6269712226704367,A,492.31369999870367,Correct
5,305,28,A,60.44929541506312,68.99285962273588,3.0224647707531562,1.0837373047046945,B,433.0204000016238,Incorrect
5,305,29,A,34.34270067864017,56.24168583219543,1.7171350339320086,0.8834423351796515,A,560.4946999992535,Correct
5,305,30,B,48.46278784935808,27.504924102243645,2.423139392467904,0.4320463374857674,B,529.323699998713,Correct
5,305,31,A,33.85956322784938,58.38321860942422,1.6929781613924688,0.9170814533814702,A,480.2628999987064,Correct
5,305,32,B,61.391262404853634,33.61296369734734,3.069563120242682,0.527991199084834,B,456.7994000008184,Correct
5,305,33,A,24.887451856218114,42.02126389805275,1.2443725928109057,0.6600684697834026,A,482.1960000008403,Correct
5,305,34,B,60.73461699573629,45.931921659751985,3.0367308497868146,0.7214969382576938,B,478.0825999987428,Correct
5,305,35,B,55.83616284555237,43.9061994928078,2.7918081422776186,0.6896769688682644,B,618.242199998349,Correct
5,305,36,B,51.3906460528002,24.279349173835108,2.5695323026400096,0.38137912499230897,B,518.3922000014718,Correct
5,305,37,A,42.83008210244901,63.20725378305279,2.1415041051224506,0.9928572206921216,B,806.6853000000265,Incorrect
5,305,38,B,39.9821507801245,29.556677533229383,1.999107539006225,0.4642752050145796,B,677.893199999744,Correct
5,305,39,B,46.99458153069739,28.880097115729974,2.3497290765348695,0.4536475046686853,B,440.37399999979243,Correct
5,305,40,A,62.919096240499606,76.29357693698455,3.1459548120249803,1.1984167041065918,B,529.7817000009672,Incorrect
5,305,41,A,50.923896221570786,67.67051764599847,2.5461948110785393,1.0629660055064363,A,514.8943000003783,Correct
5,305,42,B,57.24537756012635,47.051139897293865,2.8622688780063172,0.7390775772218201,B,519.3328999994264,Correct
5,305,43,B,41.867862808481,13.375209425248272,2.09339314042405,0.21009729835292465,B,527.0593999994162,Correct
5,305,44,B,40.422094673230646,22.70023507867432,2.021104733661532,0.35657445878962285,B,530.9692999999243,Correct
5,305,45,B,41.752732742164,23.368038349995363,2.0876366371082,0.3670642880457499,B,482.41349999989325,Correct
5,305,46,B,74.31546954533867,64.26952347678966,3.7157734772669335,1.0095433140219958,B,530.6999000003998,Correct
5,305,47,B,73.69705303128684,44.875526710566156,3.684852651564342,0.7049031251994359,B,453.7705000002461,Correct
5,305,48,A,33.855737268805974,43.4395456771395,1.6927868634402987,0.6823467878728985,A,796.3820000004489,Correct
5,305,49,B,67.80716832593701,37.705449344865876,3.3903584162968508,0.5922758133106636,B,396.4314999993803,Correct
5,305,50,B,39.151193880968805,14.984113678362803,1.9575596940484403,0.23536990726249457,A,490.48839999886695,Incorrect
5,305,51,A,44.904092119087274,55.48899281830416,2.2452046059543638,0.8716190609654055,A,601.4355000006617,Correct
5,305,52,A,63.85663177925153,86.18634517271879,3.1928315889625765,1.3538119441718373,A,632.8857000007702,Correct
5,305,53,A,52.665987294705516,68.79733390534723,2.633299364735276,1.0806659939180143,A,706.5413999989687,Correct
5,305,54,B,32.53520771927046,18.331335267863043,1.626760385963523,0.28794794104005006,B,619.6632999999565,Correct
5,305,55,A,67.57528823523299,83.33153435870264,3.378764411761649,1.3089686807683283,A,632.1232999998756,Correct
5,305,56,B,71.38798627743653,58.20593566993992,3.5693993138718265,0.9142966994800167,B,572.5296000000526,Correct
5,305,57,B,68.68109419344277,35.99945771868713,3.434054709672139,0.5654781595112194,B,454.505199999403,Correct
5,305,58,A,57.37745918624114,78.53134880189333,2.868872959312057,1.2335675423626284,A,454.76869999947667,Correct
5,305,59,B,80.67328402352382,49.69371683034526,4.033664201176191,0.7805870786189206,B,444.6014000004652,Correct
5,305,60,A,51.03408276415446,57.91582313725527,2.551704138207723,0.9097396224730346,A,444.9021000000357,Correct
5,305,61,B,68.5581982227954,52.303634769718556,3.42790991113977,0.8215835737429575,B,572.0989999990707,Correct
5,305,62,B,69.77470639598458,54.742979079075376,3.488735319799229,0.8599007045522146,A,565.1841999988392,Incorrect
5,305,63,A,50.304386719974396,77.00379144703084,2.5152193359987196,1.2095727275427632,A,551.9665000010718,Correct
5,305,64,A,30.7463991483138,58.46321172168972,1.53731995741569,0.9183379822506256,A,594.2057000011118,Correct
5,305,65,B,42.97614303363285,18.50316606825267,2.148807151681643,0.2906470529408727,B,435.8336000004783,Correct
5,305,66,B,85.42088542808726,64.85215242632309,4.271044271404363,1.0186952281601105,B,470.9160000002157,Correct
5,305,67,A,40.805379433774085,56.03539606957435,2.0402689716887044,0.8802019431658457,A,438.122999999905,Correct
5,305,68,A,54.719690747203266,72.43557877240956,2.7359845373601632,1.1378154106496332,A,574.9351000013121,Correct
5,305,69,A,34.83964080222637,66.24563725892774,1.7419820401113184,1.0405840367251082,A,705.468899999687,Correct
5,305,70,A,30.87406561274726,59.72285092266686,1.5437032806373627,0.938124348550443,A,490.56540000128734,Correct
5,305,71,A,36.12201357302027,67.08895968653458,1.8061006786510134,1.053830914440994,A,519.2943000001833,Correct
5,305,72,B,42.64039086593799,29.35280426622063,2.1320195432968996,0.46107277122508933,B,557.9250000009779,Correct
5,305,73,A,60.332676448779296,71.29473957934039,3.0166338224389646,1.1198951505102661,A,535.3160000013304,Correct
5,305,74,B,75.9307445430981,46.776562128873906,3.7965372271549054,0.734764519721284,B,410.9709999993356,Correct
5,305,75,A,47.03885793214043,55.01063588236415,2.3519428966070217,0.8641050477866914,A,577.0056999990629,Correct
5,305,76,A,27.083705383727235,44.07017715515825,1.3541852691863618,0.6922527239652294,A,424.1696999997657,Correct
5,305,77,A,13.977191957222974,41.59174931574971,0.6988595978611487,0.6533216705015379,A,400.21119999983057,Correct
5,305,78,B,71.63829951670473,57.54654269997678,3.5819149758352364,0.9039389789286921,B,437.19249999958265,Correct
5,305,79,A,20.747975606701278,46.21151730689277,1.037398780335064,0.7258888164128595,A,493.4648999987985,Correct
5,305,80,B,83.02691923512884,52.363734566637234,4.1513459617564425,0.8225276191453672,B,483.0235999997967,Correct
5,305,81,A,53.423386382733554,74.88937347005404,2.671169319136678,1.1763595276273207,A,668.1480999995983,Correct
5,305,82,B,75.45420298677864,42.72977276287524,3.772710149338932,0.6711977010070505,B,587.0460999994975,Correct
5,305,83,B,68.95083407964417,53.40550372488817,3.4475417039822083,0.8388916908168549,B,492.99969999992754,Correct
5,305,84,B,30.770105166678224,13.72496525046665,1.5385052583339112,0.21559125000820611,A,510.1323000017146,Incorrect
5,305,85,A,43.93277529116721,51.706148871488985,2.1966387645583607,0.81219828720045,B,929.7111999985646,Incorrect
5,305,86,A,34.377097017811906,58.082617250789006,1.7188548508905952,0.9123596182817326,A,491.1078999994061,Correct
5,305,87,B,53.43513953636431,45.85003913352479,2.6717569768182154,0.7202107305434301,B,612.8098999997746,Correct
5,305,88,B,46.59309550298356,30.00899581665759,2.329654775149178,0.4713802039960916,B,520.3879000000597,Correct
5,305,89,A,54.68798905442987,63.66705920711485,2.734399452721494,1.0000798274036922,A,574.8139000006631,Correct
5,305,90,A,14.343626116241172,31.99563434883733,0.7171813058120585,0.502586249086263,A,541.3860000007844,Correct
5,305,91,A,36.95230055790182,47.55544161668291,1.8476150278950911,0.7469991301059468,A,918.2173999997758,Correct
5,305,92,A,18.08709492874004,33.85748952470057,0.9043547464370021,0.5318322017989634,A,521.5838999993139,Correct
5,305,93,A,58.487054142852124,81.87699794519264,2.9243527071426065,1.286120876213019,A,694.8253999998997,Correct
5,305,94,A,49.561632890013286,56.458199460172786,2.4780816445006644,0.8868433232949303,A,653.470200000811,Correct
5,305,95,B,66.62495805090555,53.2790305809346,3.3312479025452775,0.8369050553172505,B,461.77130000069155,Correct
5,305,96,A,29.41973498852154,39.6211851722328,1.470986749426077,0.622368121318037,A,465.3718999998091,Correct
5,305,97,B,54.896318527197835,27.469485467412746,2.7448159263598915,0.43148966871157735,B,457.9463999998552,Correct
5,305,98,B,42.148927065878965,22.0173360822234,2.1074463532939482,0.3458475064376526,B,513.9634999995906,Correct
5,305,99,B,59.86922119129167,33.111030523897504,2.9934610595645834,0.520106851233319,B,528.0664000001707,Correct
5,305,100,A,52.70779524075379,72.22128962398537,2.6353897620376894,1.1344493645774658,A,509.87269999859564,Correct
5,305,101,A,46.52879547547137,75.47502401306186,2.3264397737735685,1.185558904844742,A,536.3569000001007,Correct
5,305,102,A,34.213964420172594,47.68393849180783,1.71069822100863,0.7490175543004552,A,495.52330000005895,Correct
5,305,103,B,76.1610251586867,48.63948169167159,3.808051257934335,0.7640271917848536,B,488.6489000000438,Correct
5,305,104,B,45.02518197194644,22.224524368933885,2.251259098597322,0.3491020124348502,B,568.3829999998125,Correct
5,305,105,B,60.82812225161467,30.991527350940792,3.0414061125807335,0.48681377324621367,B,492.82169999969483,Correct
5,305,106,A,65.2516551363024,85.86717036278499,3.2625827568151204,1.3487983579813425,A,577.8016000003845,Correct
5,305,107,A,22.2976664476122,47.62267606485251,1.11488332238061,0.7480552463481358,A,474.6627000004082,Correct
5,305,108,A,25.54429985047748,44.23746194774469,1.2772149925238738,0.6948804273424637,A,429.72650000046997,Correct
5,305,109,B,88.25569522696266,68.36189415464898,4.412784761348132,1.0738261223086414,B,529.0262999988045,Correct
5,305,110,B,61.65590436796763,43.35605374571898,3.0827952183983816,0.6810352996809749,A,479.65339999973367,Incorrect
5,305,111,A,51.30809259229384,66.46524413251787,2.565404629614692,1.0440336134288513,A,481.0765000001993,Correct
5,305,112,B,41.4873824655362,25.792483294578652,2.07436912327681,0.4051473801804288,B,460.95450000029814,Correct
5,305,113,B,64.78174454986187,33.01295782061426,3.2390872274930933,0.5185663288125574,B,465.11330000066664,Correct
5,305,114,B,36.92756408514086,12.583084515027341,1.846378204257043,0.19765462935954692,B,555.8736999992107,Correct
5,305,115,B,75.27723204971889,44.59530714829921,3.7638616024859446,0.700501446608386,B,748.9872999994986,Correct
5,305,116,B,45.528131638550036,31.02500332822752,2.276406581927502,0.48733961266779224,B,653.8184999990335,Correct
5,305,117,A,32.61522579806256,44.10528933625825,1.630761289903128,0.6928042648162058,A,625.9959999988496,Correct
5,305,118,A,47.1546990480864,76.07501586582443,2.35773495240432,1.1949835548290049,A,660.219400000642,Correct
5,305,119,A,67.57620795401648,84.33053253520153,3.378810397700824,1.3246609074295206,A,481.21350000110397,Correct
5,305,120,B,61.88137998908102,50.39916973236753,3.0940689994540507,0.7916683068911545,B,584.6782999997231,Correct
5,305,121,B,59.4753381125003,46.82556420087548,2.973766905625015,0.7355342424683382,B,493.92960000113817,Correct
5,305,122,A,27.332181073805486,37.219276399544476,1.3666090536902744,0.5846390265436844,A,446.23069999943255,Correct
5,305,123,B,73.7956045766708,52.82266745161024,3.68978022883354,0.829736520044977,B,909.114000000045,Correct
5,305,124,B,75.5684727772554,43.658563547445866,3.77842363886277,0.6857871125346954,B,496.469599998818,Correct
5,305,125,A,13.72763941583829,42.01098215541541,0.6863819707919145,0.6599069645477247,A,532.6131000001624,Correct
5,305,126,B,46.310910561964874,22.766847045541738,2.3155455280982435,0.35762079711838207,B,572.8933999998844,Correct
5,305,127,B,39.6135915884464,24.829461596296337,1.98067957942232,0.3900202707175724,B,491.55550000068615,Correct
5,305,128,A,48.224978308899544,66.85489177277408,2.411248915444977,1.0501541842494388,A,585.0540999999794,Correct
5,305,129,B,64.9927815317173,42.11559772425995,3.249639076585865,0.6615502620603902,B,414.33040000083565,Correct
5,305,130,B,50.337021415118386,31.629814493321813,2.5168510707559193,0.4968399642331388,B,472.54120000070543,Correct
5,305,131,A,49.86463908125202,75.51445136530191,2.493231954062601,1.186178228245481,A,444.71119999980147,Correct
5,305,132,A,47.95610408734211,65.82796753793284,2.3978052043671054,1.0340232960895859,A,540.7211000001553,Correct
5,305,133,B,37.34867515657858,23.909611315649258,1.8674337578289288,0.3755712962971555,B,440.89460000031977,Correct
5,305,134,A,63.16046475956341,86.68422069533628,3.1580232379781705,1.361632554593124,A,440.62839999969583,Correct
5,305,135,B,66.00834143380834,54.72545826926546,3.300417071690417,0.8596254883152958,A,884.7786000005726,Incorrect
5,305,136,A,41.66309245262191,56.49544928641149,2.0831546226310955,0.8874284421972253,A,561.4788999992015,Correct
5,305,137,B,76.69182554651417,57.25016779620337,3.8345912773257083,0.8992835328266773,A,643.4160000007978,Incorrect
5,305,138,A,36.55202982140894,57.90365060119666,1.827601491070447,0.9095484167237481,A,662.2017000008782,Correct
5,305,139,A,26.688393762184205,49.69208424037431,1.3344196881092103,0.7805614339556253,A,510.24109999889333,Correct
5,305,140,A,32.66988442875453,50.66137814032034,1.6334942214377264,0.7957870669318245,A,615.0634000005084,Correct
5,305,141,A,56.42224281821659,65.44017852083839,2.8211121409108295,1.0279319204533521,A,585.009499998705,Correct
5,305,142,B,82.9085514289848,65.59526637019817,4.14542757144924,1.030368034694401,B,505.58039999850735,Correct
5,305,143,B,38.17320652677796,26.275758164425824,1.908660326338898,0.412738644084311,B,541.4818999997806,Correct
5,305,144,A,36.00485030556263,52.84097892689392,1.8002425152781314,0.830024156026115,A,481.3618000007409,Correct
5,305,145,A,12.618669486459783,30.62810474737414,0.6309334743229891,0.4811051443386464,A,461.796299998241,Correct
5,305,146,A,42.065527489747204,57.94062660419218,2.1032763744873604,0.9101292344205973,A,635.038500000519,Correct
5,305,147,A,45.57234244854003,71.79043790185996,2.2786171224270015,1.1276815615523874,A,473.13130000111414,Correct
5,305,148,A,13.607768646980404,38.01944206699366,0.6803884323490201,0.5972079994562501,A,416.56520000105957,Correct
5,305,149,B,67.5533168903985,44.49267982835653,3.377665844519925,0.6988893804364383,B,519.7700999997323,Correct
5,305,150,B,70.65481777361069,41.98163719285273,3.5327408886805345,0.6594460149536908,B,752.6307999996789,Correct
5,305,151,A,61.966967255682405,79.56904473878956,3.09834836278412,1.2498676320226945,A,470.96870000132185,Correct
5,305,152,A,48.58026448400498,67.63986754048096,2.429013224200249,1.0624845547748085,A,618.8578000001144,Correct
5,305,153,B,85.46136289763739,64.25854568133329,4.2730681448818695,1.009370875214204,B,396.56100000138395,Correct
5,305,154,A,59.9694259505526,70.59201127424897,2.99847129752763,1.108856720106542,A,551.0524000001169,Correct
5,305,155,A,66.08599769395653,88.75553356626364,3.3042998846978264,1.3941686610860806,A,519.8837999996613,Correct
5,305,156,A,22.26988385034276,49.155137845734444,1.1134941925171382,0.7721270997117647,A,456.1379000006127,Correct
5,305,157,B,40.08232504907001,26.164030873928127,2.0041162524535,0.4109836359091456,B,435.7698000003438,Correct
5,305,158,A,26.367710409433347,37.63523997878265,1.3183855204716672,0.5911729671671623,A,560.1944000009098,Correct
5,305,159,B,61.855904709446556,45.70277216338934,3.0927952354723276,0.7178974663859603,B,371.81150000105845,Correct
5,305,160,B,60.38889405264369,36.019150246726845,3.019444702632185,0.5657874890183202,B,528.517799999463,Correct
5,305,161,B,58.13325735724512,39.8580050354706,2.906662867862256,0.626088079030897,B,365.25129999972705,Correct
5,305,162,B,59.96726291149703,37.964177372810155,2.998363145574851,0.5963399036700012,B,539.5791999999346,Correct
5,305,163,A,53.09814632929445,61.0495641599878,2.654907316464722,0.9589643113493821,A,545.9485999999742,Correct
5,305,164,A,18.728937946524727,32.34243840433729,0.9364468973262363,0.5080338344512321,A,681.1653000004299,Correct
5,305,165,B,38.832490014025296,27.201608127964537,1.941624500701265,0.42728186130320894,B,505.9873999998672,Correct
5,305,166,A,16.17304871310109,35.73644450649892,0.8086524356550544,0.5613467576351817,A,577.1783000000141,Correct
5,305,167,A,56.76140221998479,68.94783240412883,2.8380701109992397,1.0830300188087572,A,800.9128000012424,Correct
5,305,168,B,61.61525378700172,32.641726671587385,3.0807626893500863,0.5127350435597248,B,421.62529999950493,Correct
5,305,169,A,67.63903701501131,84.57593704163719,3.3819518507505655,1.3285157124024014,A,592.1194999991712,Correct
5,305,170,B,53.48450814973165,25.1169264699326,2.6742254074865826,0.3945357583934763,B,418.34730000118725,Correct
5,305,171,A,17.458157392882402,47.65280596101425,0.87290786964412,0.7485285256503114,A,614.5037000005686,Correct
5,305,172,B,47.94694770819841,26.83367543652576,2.3973473854099208,0.4215023881010111,B,472.45199999997567,Correct
5,305,173,A,24.62712639702211,54.09138030954248,1.2313563198511055,0.8496654150149512,A,434.41530000018247,Correct
5,305,174,B,81.63433447351119,64.6542032126586,4.08171672367556,1.0155858491829493,B,566.0024999997404,Correct
5,305,175,A,16.89396599508146,46.70239862469557,0.844698299754073,0.7335995621218283,A,427.2642000014457,Correct
5,305,176,B,40.7955679047345,12.996932215575637,2.0397783952367248,0.20415533383828466,B,505.0616999997146,Correct
5,305,177,A,41.605903665181685,57.760793060031226,2.0802951832590844,0.9073044157145721,A,551.9590999992943,Correct
5,305,178,A,29.84903795554392,44.23119341559273,1.492451897777196,0.6947819614696767,A,428.97329999868816,Correct
5,305,179,A,35.09120341252963,62.63774773908822,1.7545601706264815,0.9839114406726512,A,400.84700000079465,Correct
5,305,180,B,35.475908619191614,10.85123746443892,1.7737954309595807,0.17045083950319825,B,501.27099999917846,Correct
5,305,181,A,35.9775501236304,45.00353089445185,1.79887750618152,0.7069138102180561,A,430.6586000002426,Correct
5,305,182,A,38.401845088805324,47.39555658765357,1.920092254440266,0.744487661942859,A,468.73709999999846,Correct
5,305,183,B,45.99551645127627,17.264976148803246,2.299775822563814,0.27119761116741636,B,433.7298999998893,Correct
5,305,184,A,25.771412431668878,54.65999297134105,1.2885706215834438,0.8585971618201738,A,367.83099999956903,Correct
5,305,185,A,49.12123540797964,67.76276415562116,2.456061770398982,1.064415010291186,A,499.13829999968584,Correct
5,305,186,A,24.78224335654285,46.916901009011255,1.2391121678271424,0.7369689576955466,A,510.76190000094357,Correct
5,305,187,A,54.73624345966617,72.26817936829062,2.7368121729833086,1.1351859069586563,A,484.823899998446,Correct
5,305,188,A,35.900894576729804,66.47039257605164,1.7950447288364901,1.0441144849907666,A,463.58580000014626,Correct
5,305,189,B,51.29542420634627,40.47578141512327,2.5647712103173137,0.6357920877102876,A,605.4175000008399,Incorrect
5,305,190,B,71.04442069494144,49.71264249072211,3.5522210347470717,0.7808843621969419,B,482.4145000002318,Correct
5,305,191,B,42.03902695147268,30.412212906735512,2.101951347573634,0.4777139232360449,B,510.55730000007316,Correct
5,305,192,B,50.26599736934739,32.510744206835575,2.5132998684673695,0.5106775758146578,B,593.102099999669,Correct
5,305,193,A,30.086891493534022,53.56237874472184,1.5043445746767012,0.841355877866061,A,547.8087999999843,Correct
5,305,194,B,54.4727108099573,24.039949984103053,2.723635540497865,0.3776186513136211,B,522.4569000001793,Correct
5,305,195,B,42.181514116642234,15.76504501924024,2.1090757058321117,0.24763674807978747,B,530.7293000005302,Correct
5,305,196,A,61.323662226118145,76.75139391493431,3.0661831113059073,1.20560807637967,A,592.016299999159,Correct
5,305,197,B,78.73325141767144,58.89984586694257,3.936662570883572,0.9251966153657896,B,677.8352000001178,Correct
5,305,198,A,24.78737701762488,38.709261317854,1.239368850881244,0.6080436549102884,A,432.8730000015639,Correct
5,305,199,B,59.378233258850805,36.404994172469024,2.9689116629425403,0.5718483112310396,B,672.0270999994682,Correct
5,305,200,B,74.34288985313891,43.384025380627826,3.7171444926569457,0.6814746770946676,B,503.2477000004292,Correct
5,305,201,B,69.29016598177449,47.219355093550725,3.464508299088725,0.7417198953457336,B,439.5476999998209,Correct
5,305,202,A,33.582441531888165,57.91478954923893,1.6791220765944082,0.9097233869104397,A,454.75579999947513,Correct
5,305,203,A,44.665422938337,52.530936080270436,2.23327114691685,0.8251540143798631,A,536.6713000003074,Correct
5,305,204,B,60.853200304219435,41.02145580865231,3.0426600152109717,0.6443635210401022,B,525.9354999998322,Correct
5,305,205,B,62.579215267535595,53.824472530188714,3.1289607633767798,0.8454728374209324,A,439.0488999997615,Incorrect
5,305,206,B,49.414745289381585,27.384094381678466,2.4707372644690793,0.430148348673453,B,744.4744999993418,Correct
5,305,207,B,61.771850356521654,29.834855904116353,3.0885925178260827,0.46864482064641005,B,556.8894000007276,Correct
5,305,208,A,24.979198361886056,50.67855524014812,1.248959918094303,0.7960568841849692,A,355.24509999959264,Correct
5,305,209,A,60.107250123551864,87.66633274435482,3.005362506177593,1.377059534584117,A,494.2795000006299,Correct
5,305,210,A,53.85285900913054,78.70867144082243,2.692642950456527,1.2363529198615024,A,448.8022000005003,Correct
5,305,211,A,26.889465951036797,45.934099147032036,1.34447329755184,0.7215311421479051,A,388.9483000002656,Correct
5,305,212,B,64.09729710000617,41.20551284810034,3.204864855000309,0.6472546822549593,B,497.9273999997531,Correct
5,305,213,B,42.31450156494705,24.236088341507028,2.1157250782473525,0.38069958542715854,B,648.8336999991589,Correct
5,305,214,B,62.970600059568085,45.46483165395348,3.1485300029784042,0.7141599056037847,B,773.8412999988213,Correct
5,305,215,B,39.85006763326648,18.7920297569953,1.9925033816633237,0.29518451315308614,B,528.6188999998558,Correct
5,305,216,A,36.897211836489255,47.268119748537885,1.8448605918244627,0.7424858887550462,A,473.4892000014952,Correct
5,305,217,B,37.78489493363807,23.761668330118436,1.8892447466819036,0.3732474133146866,B,480.1169000002119,Correct
5,305,218,A,31.081312464568896,59.880109578188645,1.5540656232284449,0.9405945617349463,A,389.109700001427,Correct
5,305,219,B,60.53760657407854,53.133554633846174,3.026880328703927,0.8346199244840152,B,560.6643000010081,Correct
5,305,220,A,22.09310641926249,54.31020812388605,1.1046553209631245,0.8531027542846656,A,545.7934999994905,Correct
5,305,221,A,60.76257488483912,86.09688113637594,3.0381287442419556,1.3524066463751616,A,451.4840000010736,Correct
5,305,222,B,63.836933410862095,48.22676613257328,3.1918466705431046,0.7575442709424264,B,516.034899999795,Correct
5,305,223,A,26.25419345783065,56.47156056832258,1.3127096728915324,0.8870531990909662,A,431.0865000006743,Correct
5,305,224,B,50.53762689896258,24.152805092211167,2.5268813449481287,0.37939137520638366,B,406.54389999872365,Correct
5,305,225,A,52.99754244723361,75.71051562742926,2.649877122361681,1.1892579984731348,A,506.71519999923476,Correct
5,305,226,B,74.51904986658306,55.82016504472215,3.7259524933291526,0.8768211021333444,B,431.14689999856637,Correct
5,305,227,B,57.22123422036837,46.59242647719389,2.8610617110184187,0.7318721236683744,B,589.7848999993585,Correct
5,305,228,B,62.01119128835724,51.00932905880812,3.100559564417862,0.8012526671784798,A,731.5930999993725,Incorrect
5,305,229,B,32.16478946858793,11.51963751996033,1.608239473429396,0.1809500430236236,B,450.4916999994748,Correct
5,305,230,B,49.971209118054475,25.147691995408586,2.498560455902724,0.39501902213757223,B,403.8865000002261,Correct
5,305,231,A,42.794472550293264,61.12241188686677,2.1397236275146634,0.9601086007673505,A,479.5373999986623,Correct
5,305,232,B,51.54185173170772,21.694238343170007,2.577092586585386,0.3407722990206445,B,450.2692999994906,Correct
5,305,233,B,76.39059721864783,54.124424979814705,3.8195298609323913,0.8501844794817889,B,456.0480000000098,Correct
5,305,234,B,49.19336755344546,27.9292136172553,2.459668377672273,0.4387110616025463,B,467.12139999908686,Correct
5,305,235,B,55.325632681312435,24.19194195422539,2.766281634065622,0.3800061355973259,B,425.1893000000564,Correct
5,305,236,A,47.15346439719257,56.4642974096607,2.357673219859629,0.8869391096614961,A,414.4700000015291,Correct
5,305,237,A,43.79966637117742,55.97541324530228,2.189983318558871,0.8792597351654722,A,727.8542000003654,Correct
5,305,238,B,69.52972162723827,44.90414946554712,3.4764860813619136,0.7053527303833045,B,772.5527999991755,Correct
5,305,239,A,50.82223321443685,63.26492671756894,2.5411116607218425,0.993763145029056,A,605.707300001086,Correct
5,305,240,B,57.14776168130442,32.76423246543569,2.857388084065221,0.5146593600696048,B,553.5418999988906,Correct
5,305,241,B,81.46952366880969,52.99654347071214,4.0734761834404845,0.8324677581662068,B,415.67529999883845,Correct
5,305,242,B,78.19344147717527,51.00145939524588,3.9096720738587636,0.8011290507923129,B,402.98819999952684,Correct
5,305,243,A,65.52911528198878,80.53108270508177,3.2764557640994387,1.2649792890595848,A,430.8694999999716,Correct
5,305,244,A,49.42762173822375,70.61147647468731,2.4713810869111876,1.1091624787600307,A,417.3785000002681,Correct
5,305,245,B,38.8699316498387,29.510269797789505,1.9434965824919348,0.46354623401094125,B,427.29850000068836,Correct
5,305,246,A,39.10689466277342,65.17933848537693,1.9553447331386709,1.0238346547575132,A,448.550899998736,Correct
5,305,247,A,39.47588632334994,62.842803156073465,1.973794316167497,0.9871324436305493,A,474.8017999991134,Correct
5,305,248,B,49.42050802750294,39.81134997884622,2.471025401375147,0.6253552231151773,B,461.5637000006245,Correct
5,305,249,A,53.769160628267,81.81495099456009,2.68845803141335,1.2851462449915945,A,425.472400000217,Correct
5,305,250,A,66.28817943699924,81.8920945282326,3.3144089718499625,1.2863580127848822,A,415.5322000005981,Correct
5,305,251,A,20.91864387334279,45.338408311949365,1.0459321936671395,0.7121740523913728,A,419.1421999985323,Correct
5,305,252,A,13.767786136840396,32.43514376845377,0.6883893068420198,0.5094900469055156,A,683.716400000776,Correct
5,305,253,B,44.99574480229526,28.584287708062632,2.249787240114763,0.44900094135873303,B,571.43619999988,Correct
5,305,254,A,33.453436998258475,51.79915150411014,1.6726718499129236,0.8136591691374855,A,462.76679999937187,Correct
5,305,255,B,70.45183764939888,49.98066617575641,3.5225918824699445,0.785094468396401,B,513.5620000000927,Correct
5,305,256,A,46.74510225957043,66.7752877935133,2.3372551129785215,1.0489037678672277,A,698.1330999988131,Correct
5,305,257,B,40.95332178960206,32.15718198170621,2.047666089480103,0.5051238333693914,B,424.1946000001917,Correct
5,305,258,B,84.89062406924288,58.570834075491604,4.244531203462144,0.9200285102309557,B,353.88699999930395,Correct
5,305,259,B,41.66939230571977,29.267031612444654,2.0834696152859884,0.4597254575301818,B,452.09020000038436,Correct
5,305,260,A,55.393044420857294,69.76313181529851,2.7696522210428647,1.095836712011791,A,408.51719999955094,Correct
5,305,261,A,42.78596582805546,55.612019893448924,2.1392982914027727,0.873551565742743,A,460.1325000003271,Correct
5,305,262,A,52.202850094566216,82.66475739009663,2.6101425047283104,1.2984949726375505,A,536.2919999988662,Correct
5,305,263,B,43.44648869943703,35.44445618517494,2.1723244349718516,0.5567602158091545,B,401.1441000002378,Correct
5,305,264,B,41.68441481195178,18.319095166732676,2.084220740597589,0.2877556739810983,B,462.1229999993375,Correct
5,305,265,A,22.284371096005945,36.98696466546535,1.1142185548002972,0.5809898823580559,A,533.0106999990676,Correct
5,305,266,B,66.48474379388655,47.76604056159606,3.3242371896943275,0.7503072105969112,B,400.04790000057255,Correct
5,305,267,A,43.84544733455657,56.93141317177752,2.1922723667278285,0.8942765468947073,A,599.521399999503,Correct
5,305,268,B,63.936877411262834,33.567642667575655,3.1968438705631415,0.5272792980139148,B,453.05630000075325,Correct
5,305,269,B,33.51209644697894,14.570383171094633,1.675604822348947,0.22887104365149627,A,379.1548999997758,Incorrect
5,305,270,B,45.72007735016855,27.085732073115587,2.2860038675084273,0.4254616844900068,B,439.0246999992087,Correct
5,305,271,B,86.72761137248051,67.63215684488007,4.336380568624025,1.0623634354515394,B,574.817400000029,Correct
5,305,272,A,53.411435950853864,73.05202824858634,2.6705717975426935,1.1474985763779642,A,563.5125000007974,Correct
5,305,273,A,33.39436106761494,54.45334254349716,1.669718053380747,0.855351104490296,B,635.2439999991475,Incorrect
5,305,274,A,68.75521933903597,84.35974871309286,3.437760966951799,1.3251198340786676,B,754.4080999996368,Incorrect
5,305,275,A,40.59275784618614,54.452586385509186,2.029637892309307,0.8553392267883961,B,728.2233000005363,Incorrect
5,305,276,B,77.37826999704248,49.00720853767602,3.868913499852124,0.7698034315745299,B,436.08320000021195,Correct
5,305,277,B,45.81529230251483,18.59455365925654,2.2907646151257413,0.2920825658635077,B,555.2894000011293,Correct
5,305,278,A,53.480109567930995,78.14386172614087,2.6740054783965497,1.2274809096099037,A,592.5908999997773,Correct
5,305,279,A,46.51797940185175,66.00218697821512,2.325898970092587,1.0367599286581028,A,671.7542999995203,Correct
5,305,280,A,64.12913251456132,82.18322851093794,3.206456625728066,1.2909311346912693,A,549.0193000005092,Correct
5,305,281,B,31.561521617900446,10.26032513184807,1.5780760808950223,0.16116881028828312,B,659.0741999989405,Correct
5,305,282,B,72.28663973353889,60.89974217862881,3.6143319866769446,0.9566109131694638,B,427.1021999993536,Correct
5,305,283,A,26.294484471904497,47.62439366140034,1.3147242235952248,0.748082226291618,A,401.4557999998942,Correct
5,305,284,B,59.26256409942669,46.276079294340406,2.9631282049713343,0.7269029537401928,B,406.44910000082746,Correct
5,305,285,B,61.00568494001703,44.88394306428386,3.0502842470008513,0.7050353289744837,B,466.59419999923557,Correct
5,305,286,A,55.79281466847544,64.45131054121723,2.789640733423772,1.0123988185526123,B,537.232299999232,Incorrect
5,305,287,B,86.29486574800394,66.5965919455289,4.314743287400197,1.046096820050954,B,461.6697000001295,Correct
5,305,288,B,50.187991340388365,29.47429671142575,2.5093995670194182,0.46298117009170475,B,487.6167999991594,Correct
5,305,289,A,52.392086685307575,73.3707531807846,2.6196043342653788,1.1525050959055143,A,685.1365000002261,Correct
5,305,290,B,50.98492137569224,20.04342967266312,2.549246068784612,0.31484145706191063,B,492.6266000002215,Correct
5,305,291,B,67.68234713076215,35.65633709048143,3.3841173565381073,0.5600884332868886,B,492.9115000013553,Correct
5,305,292,A,47.477330245912384,68.94012718887159,2.3738665122956193,1.0829089855705245,A,647.1177000003081,Correct
5,305,293,A,68.03586064328834,85.97370300003193,3.4017930321644174,1.3504717687340555,A,606.8648999989819,Correct
5,305,294,B,64.3785430410153,46.70034929834635,3.218927152050765,0.7335673713788108,B,520.5580000001646,Correct
5,305,295,A,47.89291822815277,76.25413085720632,2.394645911407639,1.1977970865343708,A,766.3606999994954,Correct
5,305,296,B,87.84753815562652,63.89707198046138,4.392376907781326,1.0036928595985786,B,420.69420000007085,Correct
5,305,297,A,39.127902715080424,57.60012011679372,1.9563951357540212,0.9047805710240441,B,668.717700000343,Incorrect
5,305,298,A,33.355067506020625,63.590851493318006,1.6677533753010312,0.9988827594346368,A,440.07979999878444,Correct
5,305,299,B,39.323629747380785,27.270716260643304,1.966181487369039,0.42836740931284356,B,535.2302000010241,Correct
5,305,300,B,47.38561048178414,33.27689764688896,2.369280524089207,0.5227122859086292,B,529.4778000006772,Correct
5,305,301,A,33.964951800643405,60.96761708519933,1.6982475900321703,0.9576770897086888,A,425.4743999990751,Correct
5,305,302,B,50.80619791540134,30.9416898394061,2.540309895770067,0.48603092744566073,B,372.52559999978985,Correct
5,305,303,A,47.15494816607852,66.27923532853004,2.357747408303926,1.041111793968295,A,443.1800000002113,Correct
5,305,304,B,37.74857487761675,13.091324513204217,1.8874287438808375,0.20563804458221174,B,490.0788000013563,Correct
5,305,305,A,39.461715496219,59.38052206164858,1.97308577481095,0.9327470593760091,A,457.53549999972165,Correct
5,305,306,B,82.74774990947064,59.59860845696883,4.137387495473532,0.9361727524629389,B,532.039600000644,Correct
5,305,307,B,79.5147968329057,62.05695868771825,3.975739841645285,0.9747884275873047,B,531.7746000000625,Correct
5,305,308,A,30.25074100928314,45.02803280314605,1.5125370504641569,0.7072986852998191,A,412.8780999999435,Correct
5,305,309,A,54.35481549490483,73.22596982464219,2.7177407747452413,1.150230844265419,B,418.4432000001834,Incorrect
5,305,310,B,44.20699133174085,16.379772425670964,2.2103495665870425,0.2572928635998028,B,505.10250000115775,Correct
5,305,311,B,32.9728120695782,16.503481772517297,1.6486406034789098,0.259236085475967,B,576.8174999993789,Correct
5,305,312,B,74.0679923003967,50.236069120579124,3.7033996150198347,0.7891063284722021,B,551.1771999990742,Correct
5,305,313,A,13.568734503973413,33.31182195068665,0.6784367251986707,0.523260875589842,A,2117.2771000001376,Correct
5,305,314,B,56.782001069549736,44.39446422638991,2.8391000534774866,0.697346613368407,B,416.0621999999421,Correct
5,305,315,A,59.45676251202934,86.89251950686837,2.9728381256014673,1.3649045046734272,A,799.5105000009062,Correct
5,305,316,B,37.914756020567765,13.01233241883195,1.8957378010283883,0.2043972396653538,B,425.9928999999829,Correct
5,305,317,B,71.15550576572211,56.89158037480767,3.5577752882861056,0.8936508547830451,A,549.3535999994492,Incorrect
5,305,318,A,25.734161737813107,44.58910338148979,1.2867080868906553,0.7004039980672208,A,421.9195999994554,Correct
5,305,319,B,65.49377158958572,39.882169309293154,3.274688579479286,0.6264676505564983,B,485.37820000092324,Correct
5,305,320,A,41.58075050180812,59.333018346218395,2.079037525090406,0.9320008727589406,A,500.0006999998732,Correct
5,305,321,B,61.94200296679768,30.572021324230512,3.097100148339884,0.4802241879879654,B,367.6273000000947,Correct
5,305,322,B,85.44400396016937,62.13197090343583,4.272200198008468,0.9759667167164441,B,508.04930000049353,Correct
5,305,323,B,86.21170072599475,65.58853910059987,4.310585036299738,1.0302623629906573,B,499.22479999986535,Correct
5,305,324,A,26.730339208902436,50.68088126528204,1.3365169604451217,0.7960934213023331,A,617.3276000008627,Correct
5,305,325,A,53.98583015105248,81.41562668921895,2.699291507552624,1.2788736734712969,A,577.9094000008627,Correct
5,305,326,B,54.28838907259785,44.54701805925386,2.7144194536298927,0.6997429233714187,B,494.89250000078755,Correct
5,305,327,A,40.07629181521832,59.139887234430844,2.003814590760916,0.9289671763490837,A,508.4279000002425,Correct
5,305,328,A,27.647829498617746,39.03070370994392,1.3823914749308872,0.6130928601979986,A,638.3338000014191,Correct
5,305,329,B,57.850319815430105,31.991422131074927,2.8925159907715052,0.5025200837243746,B,577.1254999999655,Correct
5,305,330,B,69.98936226008041,58.581358611054725,3.49946811300402,0.9201938292489935,B,566.6724999991857,Correct
5,305,331,B,30.71803744607403,14.309504068921616,1.5359018723037017,0.224773164297187,A,519.2456999993738,Incorrect
5,305,332,A,47.15740598653884,76.32870147346992,2.357870299326942,1.1989684390355075,A,742.4383999987185,Correct
5,305,333,A,50.516690459680085,71.50147518974218,2.5258345229840042,1.1231425458846345,A,783.8151999985712,Correct
5,305,334,B,80.49959243741941,51.40962414551657,4.024979621870971,0.8075404876968365,B,454.1789000013523,Correct
5,305,335,B,67.66557966574419,43.050212869717946,3.3832789832872097,0.6762311624349133,B,491.98249999972177,Correct
5,305,336,B,41.822476541398125,21.486513519497528,2.091123827069906,0.337509365120556,B,632.9771000000619,Correct
5,305,337,B,47.92524404390626,29.836895021563656,2.396262202195313,0.4686768510283713,B,539.4643999989057,Correct
5,305,338,B,35.33140928197655,18.122489536985608,1.7665704640988276,0.2846673999707594,B,468.3242999999493,Correct
5,305,339,A,16.04324429391657,41.78563727463356,0.8021622146958285,0.6563672554377831,A,418.9736999996967,Correct
5,305,340,B,60.682026110150595,28.987197072470792,3.0341013055075297,0.455329826855169,B,418.16370000015013,Correct
5,305,341,A,24.458717163241168,38.99201812109109,1.2229358581620584,0.6124851883892992,A,436.6420999995171,Correct
5,305,342,B,38.97321358519642,27.520230191815287,1.948660679259821,0.4322867649785346,B,468.64690000074916,Correct
5,305,343,A,49.16875414480763,69.14897048493656,2.4584377072403814,1.0861894883938705,A,549.7739000002184,Correct
5,305,344,A,63.60426220769074,77.861878142773,3.180213110384537,1.2230515218401967,A,603.5629999987577,Correct
5,305,345,A,58.06194762248637,77.49136824007947,2.903097381124319,1.2172315658982753,A,440.57900000007066,Correct
5,305,346,B,59.05605458920103,39.69472579883647,2.9528027294600516,0.6235232947794295,B,532.4517999997624,Correct
5,305,347,A,46.345719948709224,67.69857844340986,2.317285997435461,1.0634067834814438,A,517.5477000011597,Correct
5,305,348,A,23.1608041660715,50.81453332117209,1.158040208303575,0.79819282288694,A,473.1563000004826,Correct
5,305,349,B,49.208516804321114,18.330700068973638,2.4604258402160557,0.28793796335922744,B,460.4951000001165,Correct
5,305,350,A,21.82677037349378,34.368671637761786,1.0913385186746891,0.5398618316541616,A,434.85490000057325,Correct
5,305,351,A,40.51488906529672,63.98571535390626,2.0257444532648363,1.0050852664525975,A,469.3313000007038,Correct
5,305,352,A,56.90510033282536,75.95666428933882,2.8452550166412682,1.193124492612865,A,558.7658999993437,Correct
5,305,353,A,47.139795810958134,63.163492162825996,2.3569897905479067,0.9921698147690532,A,687.6037000001816,Correct
5,305,354,A,44.815087111852776,52.20039948698781,2.240754355592639,0.8199619577138666,B,714.1083999995317,Incorrect
5,305,355,B,41.039139063312305,28.231702005473977,2.051956953165615,0.44346253809366637,B,655.924300001061,Correct
5,305,356,A,58.96855049081962,83.56673589356572,2.948427524540981,1.3126632178385227,A,537.3252999997931,Correct
5,305,357,A,43.91519135200491,71.22490435107306,2.1957595676002457,1.118798181309834,A,544.7576999995363,Correct
5,305,358,A,45.728589557651425,67.7536018075431,2.2864294778825713,1.0642710884641278,A,1202.761399999872,Correct
5,305,359,B,33.297018184547156,10.702960501735056,1.6648509092273576,0.1681217104195629,B,745.6536000008782,Correct
5,305,360,B,57.45170119253678,40.272911956159135,2.872585059626839,0.6326054217006903,B,970.2448999996705,Correct
5,305,361,A,50.78213522479851,77.95307816576994,2.5391067612399256,1.2244840884514687,A,535.7572999982949,Correct
5,305,362,B,66.36176270134857,58.11691993615848,3.3180881350674283,0.9128984436035085,B,776.8699999996898,Correct
5,305,363,A,28.797185472583664,48.97634958526714,1.439859273629183,0.7693187002836037,A,539.622899999813,Correct
5,305,364,A,20.097576127873904,36.54902011988521,1.0048788063936953,0.5741106655226846,A,469.32059999926423,Correct
5,305,365,B,79.05274061307831,47.49880181845142,3.9526370306539156,0.7461094342358224,B,453.8916000001336,Correct
5,305,366,A,66.56670123225561,80.4189035051636,3.3283350616127803,1.2632171823078422,A,472.63099999872793,Correct
5,305,367,B,51.64839278793063,20.972270370931817,2.5824196393965315,0.32943165263209134,B,518.7447999996948,Correct
5,305,368,B,58.666055315032544,51.560802794349186,2.9333027657516273,0.8099151963595973,A,523.6965000003693,Incorrect
5,305,369,B,66.97206575791392,33.701995618805704,3.3486032878956964,0.5293897092367769,B,362.4053000003187,Correct
5,305,370,A,30.46161340747621,42.84643103405489,1.5230806703738105,0.6730301648456427,A,839.6321000000171,Correct
5,305,371,B,78.55163104107861,57.95952852277043,3.9275815520539306,0.9104261450633181,B,402.64940000088245,Correct
5,305,372,B,64.8499997333209,52.66989955722157,3.242499986666045,0.827336847571398,B,399.38120000078925,Correct
5,305,373,B,69.8944665321572,59.16774816342319,3.49472332660786,0.9294048147983064,B,770.4127000015433,Correct
5,305,374,A,45.46178970136434,68.78147804897783,2.2730894850682173,1.080416930708582,A,453.4712999993644,Correct
5,305,375,A,26.836947192011127,59.61239415512083,1.3418473596005562,0.9363892977031336,A,480.01510000176495,Correct
5,305,376,B,85.64423196090638,66.71740315012794,4.282211598045319,1.0479945180151522,B,379.0314000016224,Correct
5,305,377,A,21.865304481858104,49.996079885328584,1.0932652240929053,0.7853365863801834,A,414.92789999938395,Correct
5,305,378,B,72.65069128293703,54.2444626281858,3.6325345641468516,0.8520700264531729,B,441.1321000006865,Correct
5,305,379,B,45.77679132496416,33.14576310685119,2.288839566248208,0.5206524293705566,B,694.932799999151,Correct
5,305,380,B,80.90240959347676,50.937402885824405,4.045120479673838,0.8001228534952475,B,450.243600000249,Correct
5,305,381,A,49.736936237740494,80.62683992843061,2.486846811887025,1.266483440006589,A,457.16949999950884,Correct
5,305,382,A,30.911905818949773,54.96870722885504,1.5455952909474886,0.8634464340374957,A,643.6996000011277,Correct
5,305,383,A,22.827933231454836,46.22837840634817,1.1413966615727418,0.7261536699437623,A,496.94760000056704,Correct
5,305,384,B,33.08578046249281,15.164813238414755,1.6542890231246403,0.23820832931432517,B,547.7062999998452,Correct
5,305,385,A,64.57587511112017,78.77433908762956,3.2287937555560084,1.2373844248454415,B,404.28609999980836,Incorrect
5,305,386,A,48.3816398585075,71.08490493316445,2.419081992925375,1.1165990755957915,A,522.9283999997278,Correct
5,305,387,A,14.246495716247644,34.608206445817885,0.7123247858123821,0.543624435620502,A,448.72169999871403,Correct
5,305,388,B,77.01247796716011,60.129475244731324,3.8506238983580054,0.9445115884652863,B,495.9257999998954,Correct
5,305,389,A,23.748201124571892,38.82103997383329,1.1874100562285945,0.6097994699325516,A,382.5213999989501,Correct
5,305,390,A,39.539997431519474,70.62606274952374,1.9769998715759738,1.1093915994293775,A,463.38549999927636,Correct
5,305,391,A,30.398627522961185,42.050456466467494,1.5199313761480593,0.6605270255757584,A,585.8831999994436,Correct
5,305,392,B,50.5105498027757,39.25707964205067,2.525527490138785,0.616648765024279,B,414.6039999995992,Correct
5,305,393,B,63.81842980293102,43.50362083913439,3.190921490146551,0.6833532781639022,B,542.8898999998637,Correct
5,305,394,A,27.850148738716342,47.63377730186498,1.392507436935817,0.7482296241713564,A,408.57640000103856,Correct
5,305,395,B,65.75135144211984,51.85227172474623,3.2875675721059916,0.8144935796120225,B,457.3968999993667,Correct
5,305,396,A,38.34982067646565,52.82989169086052,1.9174910338232822,0.8298499981297595,A,517.2945000012987,Correct
5,305,397,B,71.53264609915604,40.7558680707491,3.576632304957802,0.640191678608701,B,487.51789999914763,Correct
5,305,398,A,47.5594381593058,61.295025878305495,2.3779719079652897,0.9628200150044041,B,544.3598000001657,Incorrect
5,305,399,A,30.809280446239843,49.044330736477946,1.540464022311992,0.770386545709736,A,413.0668000016158,Correct
5,305,400,A,43.2262073263537,58.66426940612025,2.161310366317685,0.921496188972399,A,599.8540999989928,Correct
5,305,401,A,37.47865862099743,53.06349196733581,1.8739329310498716,0.8335193826920158,A,519.2830999985745,Correct
5,305,402,B,81.32271205293088,59.79771446039967,4.066135602646544,0.9393003022512586,B,636.2687999990158,Correct
5,305,403,A,35.474050769196516,45.474509546733934,1.7737025384598257,0.7143119255880912,A,488.1567000011273,Correct
5,305,404,A,18.78962683186539,45.56576979692834,0.9394813415932696,0.7157454382459688,A,448.722799999814,Correct
5,305,405,B,31.594514852061103,16.563840999739476,1.5797257426030553,0.26018420600005476,B,528.179299999465,Correct
5,305,406,A,57.324668620321475,74.16033928500025,2.8662334310160738,1.1649078854274166,A,533.4452000006422,Correct
5,305,407,B,43.71204647578727,24.26495413976137,2.1856023237893636,0.3811530083258378,B,572.0966999997472,Correct
5,305,408,A,12.220831574028505,33.67001127369309,0.6110415787014253,0.5288873003185987,A,421.79229999965173,Correct
5,305,409,A,63.33276498649194,87.98675345538265,3.1666382493245973,1.3820926913432325,B,419.5893999985856,Incorrect
5,305,410,A,18.941390201242754,48.28317578825127,0.9470695100621377,0.7584303517417739,A,515.03109999976,Correct
5,305,411,B,74.0389856525305,62.27749303408387,3.7019492826265252,0.978252572999337,B,447.4673000004259,Correct
5,305,412,A,33.051406841985845,54.76204491615919,1.6525703420992923,0.8602001900208,A,411.3226000008581,Correct
5,305,413,B,72.16304956870059,58.37723794427916,3.608152478435029,0.9169875093130535,B,400.34379999997327,Correct
5,305,414,B,75.34773805476257,53.32513092724084,3.7673869027381284,0.8376291978636685,B,488.8764999996056,Correct
5,305,415,B,68.04522913024286,52.97009396331302,3.4022614565121434,0.8320522902755261,B,358.9988000003359,Correct
5,305,416,B,67.11032127228556,49.329160376674416,3.355516063614278,0.7748606392355653,B,403.14519999992626,Correct
5,305,417,B,81.91077814354097,62.7022090448434,4.095538907177048,0.9849239964956575,B,356.5194999991945,Correct
5,305,418,B,40.89463291220676,28.564015915072694,2.044731645610338,0.44868251277907156,A,429.66119999982766,Incorrect
5,305,419,B,53.59554328817957,41.440945322016304,2.6797771644089785,0.6509528469073137,B,448.14799999949173,Correct
5,305,420,A,25.96100822041701,55.67461535199309,1.2980504110208506,0.874534812906295,A,419.4620999987819,Correct
5,305,421,A,14.301046761140608,32.89313093405393,0.7150523380570304,0.516684092479955,A,380.0687000002654,Correct
5,305,422,B,46.405100346119845,22.190232563262853,2.320255017305992,0.34856335801097793,B,356.88310000114143,Correct
5,305,423,A,37.887990979623574,68.01260392130126,1.8943995489811787,1.068339484153362,A,385.2905000003375,Correct
5,305,424,A,22.843994100265952,50.22980773478939,1.1421997050132975,0.7890079748542107,A,376.78479999885894,Correct
5,305,425,B,77.94652234750255,60.786830772766905,3.8973261173751275,0.9548373049536524,B,515.5680999996548,Correct
5,305,426,B,66.60143692243506,44.91741442539369,3.3300718461217524,0.705561095885325,B,373.5075999993569,Correct
5,305,427,B,68.59868703238355,38.74529498485898,3.4299343516191776,0.6086096704280121,B,444.96110000000044,Correct
5,305,428,A,36.848719384658345,46.3685917268337,1.8424359692329173,0.7283561356316262,A,417.10539999985485,Correct
5,305,429,B,41.919325100392975,19.57263365224646,2.0959662550196487,0.30744621046650916,B,475.62380000090343,Correct
5,305,430,B,59.41186420049752,42.08939577120099,2.9705932100248758,0.6611386827441916,B,351.4892000002874,Correct
5,305,431,A,29.713703982264192,47.20696075693688,1.4856851991132094,0.7415252055614728,A,696.6050999999425,Correct
5,305,432,B,46.43522008803321,36.093652391953796,2.3217610044016608,0.5669577659789284,B,378.86029999936,Correct
5,305,433,B,76.07797549883435,62.176168716742865,3.8038987749417172,0.9766609743443945,B,412.83560000010766,Correct
5,305,434,B,79.879129594213,54.20393152006892,3.9939564797106497,0.8514333652956637,B,352.41230000065116,Correct
5,305,435,B,77.06201236291867,62.773342880937534,3.853100618145933,0.9860413641801326,B,384.6936000009009,Correct
5,305,436,A,17.15411965122926,38.85606625656498,0.8577059825614629,0.6103496614951139,A,386.3619000003382,Correct
5,305,437,A,65.3845181918692,88.96183500410835,3.2692259095934606,1.3974092364938706,B,301.134400000592,Incorrect
5,305,438,B,48.30956884229529,40.916590554405175,2.4154784421147646,0.6427163014783042,B,430.499800000689,Correct
5,305,439,A,33.91377056422593,67.12331051673156,1.6956885282112963,1.054370496019952,A,377.03329999931157,Correct
5,305,440,A,64.70053370343088,84.46247908089666,3.235026685171544,1.3267335189226326,A,385.5751999999484,Correct
5,305,441,B,39.38448093937424,28.79386420061419,1.9692240469687121,0.45229296120555834,B,535.1066999992327,Correct
5,305,442,B,51.056999149292395,35.91984890890066,2.5528499574646197,0.5642276672512883,B,424.54320000069856,Correct
5,305,443,B,64.86572512556074,43.385612247348284,3.2432862562780373,0.6814996035388236,B,428.42490000111866,Correct
5,305,444,B,65.71780496282476,33.15526354536666,3.2858902481412375,0.5208016619097868,B,415.46809999999823,Correct
5,305,445,B,58.36749424748373,42.138168368655386,2.9183747123741863,0.6619048009134877,B,358.87499999989814,Correct
5,305,446,A,17.999324636649327,45.78583225582615,0.8999662318324664,0.7192021712669902,A,369.9456000013015,Correct
5,305,447,B,62.91313013637404,44.72206591838361,3.1456565068187023,0.702492568712762,B,601.7087000000174,Correct
5,305,448,A,23.98829555044771,38.785390787221544,1.1994147775223853,0.6092394938187222,A,445.59529999969527,Correct
5,305,449,A,28.934266462654705,42.21063137969408,1.4467133231327352,0.6630430472291685,A,515.6825000012759,Correct
5,305,450,A,51.869702362074484,74.93338196925181,2.5934851181037244,1.1770508115161968,A,542.4192999998922,Correct
5,305,451,A,46.20382825845758,56.4040532567972,2.3101914129228787,0.8859927967212076,B,511.85549999900104,Incorrect
5,305,452,B,69.91969986924512,43.54293510572753,3.495984993462256,0.6839708252194536,B,387.1732999996311,Correct
5,305,453,A,19.530041941400704,35.812783492775495,0.9765020970700351,0.5625458876275264,A,465.2647999992041,Correct
5,305,454,A,58.02548738981227,82.23025386160973,2.9012743694906136,1.2916698071722843,B,484.2871999990166,Incorrect
5,305,455,A,61.48698210770685,85.63959729684412,3.074349105385343,1.345223648620769,A,400.4439000000275,Correct
5,305,456,B,80.86099533658454,57.8824246621661,4.043049766829227,0.9092150004531283,A,593.5839999983727,Incorrect
5,305,457,A,37.25365617525315,59.14144539232947,1.8626828087626575,0.928991651836121,A,425.31139999846346,Correct
5,305,458,A,48.98789076607523,55.64099983938608,2.4493945383037614,0.8740067816690309,A,552.4721000001591,Correct
5,305,459,A,64.54160945875446,86.01953998119342,3.227080472937723,1.3511917743504538,A,482.99169999881997,Correct
5,305,460,A,55.07019541831679,80.22115581155452,2.7535097709158394,1.260110968800309,A,472.8196999985812,Correct
5,305,461,B,62.08261313512075,35.52574494779316,3.1041306567560376,0.5580370967064584,B,461.25039999969886,Correct
5,305,462,B,62.862674233769255,41.99340838597286,3.143133711688463,0.6596309164228418,B,509.2360999988159,Correct
5,305,463,A,13.144063128011474,38.353127768651596,0.6572031564005738,0.6024495222009327,A,351.763700000447,Correct
5,305,464,B,46.7539648609618,19.531258319455645,2.3376982430480897,0.30679628825883193,B,394.8358999987249,Correct
5,305,465,B,37.93327275347208,20.30221713641206,1.896663637673604,0.31890648103668473,B,470.1379000016459,Correct
5,305,466,B,74.91418167828732,43.520598188412166,3.745709083914366,0.6836199577427445,B,581.613300000754,Correct
5,305,467,B,74.1727539262248,43.31154933541595,3.70863769631124,0.6803362260386732,B,349.61829999883776,Correct
5,305,468,A,54.92351399203134,75.41186156979543,2.746175699601567,1.1845667515059988,A,615.2610999997705,Correct
5,305,469,A,46.17281900413907,63.35027674117864,2.3086409502069536,0.9951038200648359,A,435.1931999990484,Correct
5,305,470,B,74.49886231874365,54.282211792725086,3.724943115937182,0.8526629889431518,B,502.4989000012283,Correct
5,305,471,A,28.764169300059063,49.53866884408871,1.4382084650029532,0.7781515905460333,A,422.7957000002789,Correct
5,305,472,A,36.73114042210762,58.2519664026336,1.836557021105381,0.9150197485383659,A,420.33380000066245,Correct
5,305,473,B,59.683214203595085,36.23050429900818,2.9841607101797543,0.5691074307080876,B,450.9792999997444,Correct
5,305,474,A,58.59171259331355,67.97092997543938,2.9295856296656773,1.0676848713425329,B,397.1799999999348,Incorrect
5,305,475,A,35.30331057151173,58.25681246095721,1.7651655285755865,0.9150958702445074,A,450.69100000000617,Correct
5,305,476,B,46.94740577633352,21.24143340481991,2.3473702888166756,0.33365965568149525,B,470.30479999921226,Correct
5,305,477,A,25.86498288153515,40.93409733877506,1.2932491440767575,0.6429912974041261,A,392.5364000006084,Correct
5,305,478,A,66.53807752593153,84.10892994830542,3.326903876296576,1.321179982134474,A,484.1454999987036,Correct
5,305,479,A,46.812378684477345,66.6493323936698,2.3406189342238672,1.0469252650730865,A,389.24820000102045,Correct
5,305,480,A,26.55196798464191,53.94117929722986,1.3275983992320954,0.8473060630307359,A,475.06330000032904,Correct
5,305,481,B,84.3773197287004,68.29928176715806,4.21886598643502,1.0728426092258154,B,521.6842999998335,Correct
5,305,482,B,55.50558057814993,33.71182774685121,2.7752790289074967,0.5295441519429616,B,795.0769999988552,Correct
5,305,483,A,19.030611989409373,46.411386170345054,0.9515305994704687,0.7290283491783748,A,431.5262000000075,Correct
5,305,484,B,38.47102631990619,25.630589472352614,1.9235513159953093,0.4026043579675944,B,499.40090000018245,Correct
5,305,485,B,64.92550017729945,42.82868584013138,3.2462750088649726,0.6727514239913097,B,434.8833000003651,Correct
5,305,486,A,17.537512929122027,41.297183774861935,0.8768756464561014,0.6486946458052694,A,420.5425000000105,Correct
5,305,487,B,60.10506056529871,34.20109438783097,3.0052530282649355,0.5372295343677044,B,372.85890000021027,Correct
5,305,488,A,19.4797983400683,34.83565100925225,0.973989917003415,0.5471971264684237,A,393.82950000072015,Correct
5,305,489,B,79.57081436482945,48.416905702089906,3.9785407182414723,0.760530976316177,B,379.4978000005358,Correct
5,305,490,A,56.77505761313469,68.45767515410606,2.838752880656734,1.0753306467298804,A,395.7786999999371,Correct
5,305,491,A,19.308160745679878,50.33735413046743,0.9654080372839939,0.7906973096871215,A,421.49290000088513,Correct
5,305,492,B,83.72987237509481,55.35383113310854,4.186493618754741,0.8694959461791189,B,405.18080000038026,Correct
5,305,493,A,15.27620299831813,34.19009182404821,0.7638101499159065,0.5370567064999515,A,354.713200000333,Correct
5,305,494,A,34.96986836449131,47.43537830533094,1.7484934182245655,0.7451131800214016,A,491.3185000004887,Correct
5,305,495,B,67.63401253417516,53.59021078806461,3.3817006267087577,0.8417930625805613,B,502.3508000012953,Correct
5,305,496,B,64.0041543698218,55.082987336743805,3.20020771849109,0.8652415417744698,B,602.2479000002932,Correct
5,305,497,B,55.66459640036445,41.654879399161096,2.7832298200182226,0.6543133155328665,B,648.8960000006045,Correct
5,305,498,A,44.08660247464865,66.2953264351552,2.2043301237324324,1.0413645524801038,A,389.56580000012764,Correct
5,305,499,B,36.11258133696008,17.144963936834486,1.8056290668480042,0.26931246375010576,B,437.3431999993045,Correct
5,305,500,B,54.65633347535352,33.88994957962956,2.732816673767676,0.5323420831494635,B,432.93269999958284,Correct
5,305,501,B,87.64232223625467,69.22822031535321,4.382116111812734,1.0874343418190466,B,606.7364000009547,Correct
5,305,502,B,58.34679499695484,34.45501107952695,2.917339749847742,0.5412180484339839,B,419.7205999989819,Correct
5,305,503,A,33.75382323357888,57.34352523670625,1.687691161678944,0.9007499880728863,A,387.68680000066524,Correct
5,305,504,B,32.32121088830698,19.179213231251897,1.6160605444153489,0.3012663769446656,B,592.1408000012889,Correct
5,305,505,A,23.28679629483134,35.03976363674939,1.164339814741567,0.5504033201236732,A,579.4916999984707,Correct
5,305,506,B,54.55133612975156,45.70538593927874,2.7275668064875784,0.7179385234816216,B,488.45629999959783,Correct
5,305,507,B,48.72750254914558,32.35883560267063,2.4363751274572794,0.5082914010403495,B,538.4496000006038,Correct
5,305,508,B,39.67963131862085,20.613058665292442,1.9839815659310427,0.3237891683544908,B,443.8142000017251,Correct
5,305,509,B,59.62415395169346,45.414236516594215,2.981207697584673,0.7133651590446084,B,418.73519999899145,Correct
5,305,510,A,62.2920815535353,82.34682358472291,3.114604077676765,1.2935008801011012,A,572.6648999989266,Correct
5,305,511,A,39.4704955867332,55.763317477568336,1.97352477933666,0.8759281426366201,A,517.2382000000653,Correct
5,305,512,B,88.44909301393143,69.51841734286721,4.422454650696571,1.0919927460677044,B,623.4636999997747,Correct
5,305,513,B,42.040745937074846,34.10766058525219,2.1020372968537426,0.5357618796288122,A,392.55459999913,Incorrect
5,305,514,A,24.714442176981123,55.30803348999457,1.2357221088490562,0.8687765584833259,A,444.47480000053474,Correct
5,305,515,B,38.06696376966991,23.91539610608679,1.9033481884834955,0.375662163572861,B,449.4627000003675,Correct
5,305,516,A,28.635589032480347,40.49469279873111,1.4317794516240172,0.6360891470293458,A,438.9277000009315,Correct
5,305,517,B,50.076852232414126,20.670741763185816,2.503842611620706,0.32469525233738145,B,338.31800000007206,Correct
5,305,518,A,34.64160757751929,45.30353467595615,1.7320803788759644,0.7116262585981714,A,405.6263000002218,Correct
5,305,519,A,47.75108337660963,57.085022550675866,2.3875541688304818,0.8966894373760549,B,424.3960000003426,Incorrect
5,305,520,A,34.01182261072475,48.014313370623185,1.7005911305362376,0.7542070707615399,A,516.8162999998458,Correct
5,305,521,B,81.08107420290573,53.06077840676899,4.054053710145286,0.8334767581823069,B,435.4548999999679,Correct
5,305,522,A,49.40570162558844,58.10437614876829,2.4702850812794224,0.9127014062519423,A,414.2305999994278,Correct
5,305,523,B,52.36353388652828,34.4838995214712,2.618176694326414,0.5416718270189125,B,536.480599999777,Correct
5,305,524,B,46.92327855543778,32.46523340064692,2.346163927771889,0.5099626937427517,B,565.197600000829,Correct
5,305,525,B,49.505471894374296,18.543567404764563,2.4752735947187148,0.2912816756507775,B,444.9120999997831,Correct
5,305,526,A,17.766408388423816,38.522182154675804,0.8883204194211908,0.6051050222868867,A,441.0680000000866,Correct
5,305,527,A,40.90805610223321,62.55651185444415,2.0454028051116606,0.9826353903806229,A,548.1297000005725,Correct
5,305,528,A,49.84980080175716,71.32231678150123,2.492490040087858,1.1203283321888415,A,540.4093999986799,Correct
5,305,529,B,33.35641694242214,18.972188304516035,1.6678208471211071,0.29801443699994884,B,548.9902000008442,Correct
5,305,530,A,58.338036469923,71.0575425946148,2.9169018234961497,1.1161692689869285,A,669.2949999996927,Correct
5,305,531,A,48.24893750063482,59.27158429268639,2.412446875031741,0.9310358689026588,B,595.3869000004488,Incorrect
5,305,532,A,29.644800525330435,38.62864128469003,1.4822400262665218,0.606777278390688,B,621.5943999995943,Incorrect
5,305,533,A,16.36086741977731,44.76443193922431,0.8180433709888655,0.7031580526119369,A,498.293200000262,Correct
5,305,534,B,60.201516094239174,36.07324391201904,3.0100758047119585,0.5666371903257587,B,471.5470999999525,Correct
5,305,535,A,35.00755377044251,68.20760450061982,1.7503776885221256,1.0714025460905268,A,449.7703000015463,Correct
5,305,536,A,35.39138202729067,54.37649392614179,1.7695691013645334,0.8541439692316852,A,583.8612999996258,Correct
5,305,537,B,40.98205043189786,22.29416450526963,2.049102521594893,0.350195917138387,B,483.43910000039614,Correct
5,305,538,A,57.889216939257125,84.06249555125129,2.8944608469628563,1.3204505923311785,A,410.92290000051435,Correct
5,305,539,B,38.80757041711567,27.676882277645635,1.9403785208557836,0.4347474501886053,A,565.7021999995777,Incorrect
5,305,540,B,77.68952762813817,49.42059249487258,3.8844763814069085,0.7762968515897327,B,468.349800001306,Correct
5,305,541,B,49.79853550324952,23.2329740681192,2.489926775162476,0.3649427032672272,B,483.8101999994251,Correct
5,305,542,B,80.517397665364,55.96652943543946,4.0258698832682,0.8791201886064676,B,504.2272000009689,Correct
5,305,543,A,33.325195660415346,42.6067041013461,1.6662597830207673,0.6692645429923151,A,454.57320000059553,Correct
5,305,544,A,14.10622718034524,43.03915958392689,0.705311359017262,0.6760575378277172,A,480.81120000097144,Correct
5,305,545,A,46.30632269601813,58.0512484867195,2.3153161348009066,0.9118668788879679,A,524.4065999995655,Correct
5,305,546,B,67.45678510038867,42.761121826695884,3.372839255019434,0.6716901309500296,B,400.00289999989036,Correct
5,305,547,A,32.47269744344469,65.78440669038231,1.6236348721722345,1.0333390438963415,A,410.77430000041204,Correct
5,305,548,B,75.73893949797517,63.04278395378712,3.786946974898758,0.9902737346553305,B,469.2943000009109,Correct
5,305,549,B,59.20231881277715,28.387035680101548,2.9601159406388575,0.4459025137489918,B,461.3407999986521,Correct
