subject,day,trial,cat,x,y,xt,yt,resp,rt,fb
6,106,0,B,75.03449231866233,49.01323083654016,3.7517246159331163,0.7698980296238764,A,670.5096999999967,Incorrect
6,106,1,A,26.1434442584192,53.99323215333875,1.3071722129209602,0.8481237073824862,A,906.34399999999,Correct
6,106,2,A,24.200501815408213,43.770622320262106,1.2100250907704106,0.6875473276219443,A,848.7592000000035,Correct
6,106,3,B,65.20433350816779,43.483809520636086,3.2602166754083894,0.6830420827006413,B,465.6088000000125,Correct
6,106,4,A,22.60362073715713,54.47702151568278,1.1301810368578564,0.8557230529156106,A,639.9600000000021,Correct
6,106,5,A,47.57656425879516,56.615162267473096,2.3788282129397578,0.8893088893064376,B,559.4076000000001,Incorrect
6,106,6,B,61.317552509528184,53.207726480301815,3.0658776254764093,0.8357850131236565,B,604.6680000000038,Correct
6,106,7,A,54.125838885328534,79.36022970580734,2.706291944266427,1.246587573154814,B,698.7718000000029,Incorrect
6,106,8,A,58.65965512048802,85.30340256516527,2.932982756024401,1.3399427141246798,B,726.6249000000045,Incorrect
6,106,9,B,66.00412815510082,41.490352447495965,3.300206407755041,0.6517289322195231,B,845.0302999999906,Correct
6,106,10,A,62.08881606561319,81.18938881221624,3.104440803280659,1.2753199372095192,A,961.1683999999912,Correct
6,106,11,A,20.858607945184527,35.13032166800777,1.0429303972592263,0.5518258023522976,A,1042.8026999999956,Correct
6,106,12,B,57.58935032780579,29.048842337161105,2.8794675163902896,0.45629814840856747,B,1609.4441999999844,Correct
6,106,13,A,54.443175186554924,64.43598950382092,2.7221587593277463,1.0121581562599642,A,970.9125999999912,Correct
6,106,14,B,40.244087391829645,21.418316928614388,2.0122043695914824,0.33643813557596425,B,937.2506999999928,Correct
6,106,15,A,42.788103311140304,69.4703316782644,2.139405165557015,1.0912374182144087,A,2567.7261999999814,Correct
6,106,16,A,36.1916166058038,61.8303340459891,1.8095808302901901,0.971228616039411,A,1512.3787999999934,Correct
6,106,17,B,70.36003347176245,54.19769934702707,3.5180016735881225,0.8513354705504429,B,851.2110000000064,Correct
6,106,18,A,43.85539288926569,63.02204849562758,2.1927696444632843,0.9899480228402162,A,1303.6314000000004,Correct
6,106,19,B,72.93784209423079,57.45272204321908,3.6468921047115397,0.9024652474985672,B,1045.5278999999962,Correct
6,106,20,B,49.63391924187961,41.898244341960634,2.4816959620939802,0.6581360831150682,B,987.8220999999883,Correct
6,106,21,A,36.2931141925554,48.401323703507835,1.81465570962777,0.7602862148548085,A,884.9734000000069,Correct
6,106,22,B,65.91869231677103,46.993002557946014,3.2959346158385516,0.7381643580308479,B,698.7617999999998,Correct
6,106,23,A,21.908189767835875,48.82004436309703,1.0954094883917938,0.7668634635951671,A,709.5312000000149,Correct
6,106,24,A,26.526129547497522,47.791520214184885,1.326306477374876,0.7507074440438566,A,716.1552000000029,Correct
6,106,25,B,70.34990387968962,60.89396070845325,3.517495193984481,0.9565200980483113,B,681.1441000000116,Correct
6,106,26,A,17.34102765871494,34.934595242867786,0.8670513829357469,0.5487513388556319,A,614.9789000000112,Correct
6,106,27,A,44.2960279868328,76.05794426354882,2.2148013993416398,1.1947153947275346,B,1172.7631999999915,Incorrect
6,106,28,A,41.849133655961225,51.57203982841753,2.092456682798061,0.8100917072779836,B,1459.1377000000136,Incorrect
6,106,29,A,52.51645285675577,76.46290734776083,2.625822642837788,1.2010765399792123,A,1299.4242000000042,Correct
6,106,30,A,29.98594075203681,39.222675679598275,1.4992970376018406,0.6161083488458049,A,1050.5866000000026,Correct
6,106,31,B,74.75229516683018,58.51581617927555,3.7376147583415094,0.919164291138114,B,626.4977000000158,Correct
6,106,32,B,68.42658830652827,49.83502522366763,3.4213294153264138,0.7828067456706813,B,632.4630999999954,Correct
6,106,33,A,49.622701241483206,75.55004649282968,2.4811350620741606,1.1867373552012053,B,580.8983000000012,Incorrect
6,106,34,B,36.01601223983323,16.882510874189304,1.8008006119916615,0.2651898606825146,A,913.3152999999936,Incorrect
6,106,35,B,47.87774650437932,31.583598402768565,2.393887325218966,0.49611400358034025,A,2485.5022000000135,Incorrect
6,106,36,B,66.62592013711802,51.0094284489811,3.3312960068559003,0.8012542283956661,B,953.9089999999817,Correct
6,106,37,A,58.850759801668026,80.09529538090428,2.9425379900834012,1.2581339577787667,A,708.9675,Correct
6,106,38,A,21.02516790284996,33.45503942634841,1.051258395142498,0.5255105304368652,A,801.1478999999895,Correct
6,106,39,B,83.86521677211908,60.440424723341025,4.193260838605954,0.9493959714534753,B,909.2589999999916,Correct
6,106,40,B,52.02444209286777,41.51147518996519,2.601222104643389,0.6520607274823481,B,1661.024000000026,Correct
6,106,41,B,84.11628323580622,63.514237386867606,4.205814161790311,0.9976793078647073,A,1576.592699999992,Incorrect
6,106,42,A,52.59853299143463,77.28963216635647,2.6299266495717313,1.2140627030624143,A,692.2529999999938,Correct
6,106,43,B,55.684873140803916,37.934731875074355,2.7842436570401956,0.5958773748731607,B,713.5168000000078,Correct
6,106,44,B,68.60625749512675,59.69255528310913,3.430312874756338,0.9376484657570913,B,1420.2904999999646,Correct
6,106,45,B,76.76800983997657,51.30502601558125,3.8384004919988284,0.8058974641139164,B,773.6700000000383,Correct
6,106,46,B,52.10400726708533,23.486318759399158,2.6052003633542666,0.3689222323719827,B,844.289300000014,Correct
6,106,47,A,32.61828773838233,56.07718490191033,1.6309143869191163,0.8808583606091898,B,1102.528100000029,Incorrect
6,106,48,A,48.14994070399696,75.22501207007207,2.4074970351998477,1.1816317264277094,A,671.9041000000061,Correct
6,106,49,B,52.61317928238461,43.26075931347428,2.6306589641192306,0.6795384182396352,B,961.8975000000205,Correct
6,106,50,B,41.708261260326886,32.47039884742337,2.085413063016344,0.5100438323909787,A,1466.4779000000294,Incorrect
6,106,51,B,64.33457136397772,53.408099974348815,3.216728568198886,0.8389324726080173,B,776.286099999993,Correct
6,106,52,B,61.44868229563025,48.3609520897549,3.0724341147815126,0.7596520590289099,B,707.6124000000164,Correct
6,106,53,B,51.83706731209489,35.12018483137155,2.591853365604744,0.5516665732947628,B,675.3274999999803,Correct
6,106,54,A,60.170886176674244,78.9325226576963,3.008544308833712,1.2398691665536428,A,1072.0330999999987,Correct
6,106,55,A,42.64169260151422,58.704855082941584,2.132084630075711,0.9221337072931135,A,1754.851799999983,Correct
6,106,56,A,43.10144440541805,60.970327523659236,2.1550722202709025,0.957719665176457,A,1180.469799999969,Correct
6,106,57,A,69.58725160042252,88.01507885955279,3.479362580021126,1.3825376257514868,A,1353.2151999999655,Correct
6,106,58,A,57.582301202868784,78.34722406599607,2.879115060143439,1.2306753177744334,B,2196.2513000000286,Incorrect
6,106,59,B,54.94582814580416,22.64123593768923,2.747291407290208,0.35564770245018845,B,1011.4634999999907,Correct
6,106,60,B,76.29029997192595,55.23913621139132,3.814514998596297,0.8676943225617644,B,986.627599999963,Correct
6,106,61,B,39.21284108441343,28.728674810208236,1.9606420542206713,0.45126896865560173,A,1002.6954999999589,Incorrect
6,106,62,A,58.43232284136413,72.6412557903916,2.9216161420682067,1.1410461776931564,B,1133.7407000000326,Incorrect
6,106,63,B,42.894352612351575,26.953999572790714,2.144717630617579,0.4233924352137087,B,966.851599999984,Correct
6,106,64,B,35.07646609718512,12.575082016560675,1.753823304859256,0.1975289264075807,A,1374.0773000000104,Incorrect
6,106,65,B,69.17309870041566,48.11165931433906,3.458654935020783,0.7557361772697127,B,841.1161999999877,Correct
6,106,66,B,35.59936066013394,20.905659581672786,1.779968033006697,0.32838533280116144,A,833.6749000000054,Incorrect
6,106,67,A,22.595464876159905,48.440409277131494,1.1297732438079953,0.7609001696095957,A,974.3556999999896,Correct
6,106,68,A,16.16653864964804,32.69025503670909,0.808326932482402,0.51349732533651,A,776.5992999999867,Correct
6,106,69,B,56.0289313453344,36.18372691594592,2.80144656726672,0.5683726532931748,B,847.2724999999741,Correct
6,106,70,A,54.781996204167,78.2469756906208,2.73909981020835,1.2291006199763672,B,1158.1491999999685,Incorrect
6,106,71,A,15.845914723430923,42.913438516548524,0.7922957361715461,0.6740827159193307,A,879.2344000000298,Correct
6,106,72,B,70.98281758875807,51.716993921297615,3.5491408794379034,0.8123686408444827,B,773.592600000029,Correct
6,106,73,A,47.478219968401156,60.12393236758606,2.3739109984200577,0.9444245211546897,A,789.124299999969,Correct
6,106,74,B,49.44417244139183,35.45586994030851,2.4722086220695916,0.5569395026555419,B,915.4573999999798,Correct
6,106,75,B,49.23569808552362,31.243906832978737,2.461784904276181,0.49077814087964966,B,1652.870699999994,Correct
6,106,76,B,68.5888465957417,40.56527871748122,3.429442329787085,0.6371979080483069,B,1026.1348000000226,Correct
6,106,77,B,67.02235850634005,57.245732211827395,3.351117925317003,0.8992138588302276,A,1407.3930000000132,Incorrect
6,106,78,A,53.59021557525688,81.55083771147174,2.679510778762844,1.2809975632422654,A,985.3390000000104,Correct
6,106,79,A,64.33375324786354,80.30184275793171,3.2166876623931775,1.2613783963902048,A,990.8909999999764,Correct
6,106,80,A,44.779026564597494,65.1258626652794,2.238951328229875,1.0229946585396976,A,1404.1546000000267,Correct
6,106,81,A,64.70389149048825,78.88166018493963,3.235194574524412,1.239070220699864,A,1486.0724000000118,Correct
6,106,82,A,42.438512121838386,70.9646965860523,2.1219256060919194,1.1147108472948528,A,1720.3033999999775,Correct
6,106,83,B,64.77891496565614,54.30754419937381,3.2389457482828075,0.8530609094562787,B,2160.3626999999506,Correct
6,106,84,A,39.12268911400317,68.48070282015853,1.9561344557001588,1.0756923644623793,A,2005.0401000000306,Correct
6,106,85,A,68.17530762704847,83.46739113151406,3.4087653813524237,1.311102713965352,A,2924.5439000000033,Correct
6,106,86,B,40.750237198511044,17.4599387742777,2.0375118599255524,0.274260076926992,B,2352.7109999999993,Correct
6,106,87,A,29.753750902096883,63.01937994825383,1.4876875451048444,0.9899061053960907,A,1317.142199999978,Correct
6,106,88,B,54.47834848639828,22.240803632830023,2.723917424319914,0.34935772651415986,B,3208.4418999999684,Correct
6,106,89,B,56.82505071274204,49.39954863714919,2.841252535637102,0.7759662954455979,B,1250.110300000017,Correct
6,106,90,B,65.8310019597837,38.09898024450532,3.291550097989185,0.5984573822270028,B,1104.756000000009,Correct
6,106,91,B,66.2670558495827,48.7480664651157,3.313352792479135,0.7657328374175721,B,1459.5649000000321,Correct
6,106,92,A,53.39013172778009,76.45624595838365,2.6695065863890046,1.2009719031195618,A,892.9519000000141,Correct
6,106,93,A,17.39132440232693,33.519153504640855,0.8695662201163465,0.5265176320236414,A,770.2409999999986,Correct
6,106,94,B,51.91874403952292,29.135699326549265,2.595937201976146,0.45766249480744126,B,1177.7017,Correct
6,106,95,B,81.41820044500264,65.01330233028018,4.070910022250132,1.021226564932102,B,2112.313599999993,Correct
6,106,96,A,12.56499317750205,30.8796956455994,0.6282496588751024,0.485057124926519,A,910.6763000000342,Correct
6,106,97,B,59.94196477445787,34.3022916594777,2.9970982387228933,0.5388191373935479,B,1347.1132000000239,Correct
6,106,98,B,59.651968410261844,36.497066752448845,2.9825984205130918,0.5732945839353479,B,744.3789999999808,Correct
6,106,99,B,53.062552546850675,42.87024659337814,2.653127627342534,0.6734042587766981,B,1107.7088000000117,Correct
6,106,100,B,57.625811288791766,48.59014708340818,2.881290564439588,0.7632522455704133,B,916.6121000000089,Correct
6,106,101,B,59.42022536230937,35.38909438881842,2.971011268115468,0.5558905947455386,B,782.5167999999962,Correct
6,106,102,B,75.18930744605449,55.69459983876381,3.7594653723027243,0.8748487284904183,A,1091.5175999999747,Incorrect
6,106,103,B,39.73089843728648,27.513012485349563,1.9865449218643239,0.4321733895104922,B,744.7542999999541,Correct
6,106,104,A,49.786076603970926,72.1394621768139,2.489303830198546,1.1331640220429864,A,1076.6098000000284,Correct
6,106,105,B,62.84157647949727,49.01708679376023,3.1420788239748636,0.7699585988582519,B,1017.9039999999873,Correct
6,106,106,A,66.55783557466509,79.97151156418064,3.3278917787332545,1.2561895661325053,A,870.3423000000612,Correct
6,106,107,A,24.666651896134894,41.11731390166074,1.2333325948067446,0.6458692564440143,A,892.1931999999515,Correct
6,106,108,A,39.885014322394035,56.63813836680954,1.9942507161197016,0.8896697970308552,B,734.9105000000691,Incorrect
6,106,109,A,43.85199613863245,74.54176048969565,2.1925998069316224,1.170899235700389,A,1492.9994999999963,Correct
6,106,110,B,52.52562487923072,44.978420095378645,2.6262812439615355,0.7065193707085854,B,799.7903000000406,Correct
6,106,111,A,22.99030112511895,51.37665603846996,1.1495150562559475,0.8070226258823345,A,782.6747999999952,Correct
6,106,112,B,57.991592034568306,45.308511130027796,2.8995796017284152,0.7117044285559335,B,917.895700000031,Correct
6,106,113,B,48.80933887997988,30.9798371616912,2.4404669439989943,0.48663014418288575,B,1086.7392999999765,Correct
6,106,114,B,65.18285609853851,37.866862583949676,3.2591428049269258,0.5948112865411527,B,642.8978999999799,Correct
6,106,115,A,61.44251546445102,75.1456067468273,3.072125773222551,1.180384430526901,A,824.7671999999966,Correct
6,106,116,A,44.57980774486586,57.34742171659378,2.228990387243293,0.9008111938358339,B,1263.9806000000817,Incorrect
6,106,117,B,57.37349190111351,25.96282495086314,2.868674595055676,0.40782310066034716,B,673.575200000073,Correct
6,106,118,A,38.26594552824892,47.2416415827663,1.913297276412446,0.7420699706997035,B,1088.7325999999575,Incorrect
6,106,119,B,59.907417981338156,48.27553389675408,2.9953708990669075,0.7583103131908383,B,761.0750000000053,Correct
6,106,120,B,54.31925458383399,33.975658627905844,2.7159627291916997,0.5336883977315183,B,1591.1912000000257,Correct
6,106,121,A,43.05759216001745,60.97277763593352,2.1528796080008727,0.9577581514500639,A,1167.7221999999574,Correct
6,106,122,B,68.47849734551633,36.66441775442762,3.4239248672758165,0.5759233273272849,B,1031.4489999999523,Correct
6,106,123,A,48.45439992207281,80.133797188266,2.4227199961036403,1.2587387427545544,A,718.3719000000792,Correct
6,106,124,A,46.506887038707646,65.64423383615318,2.3253443519353825,1.0311372138509467,A,973.5892999999578,Correct
6,106,125,B,54.123684696419865,43.700556678773765,2.7061842348209932,0.6864467390991001,B,582.9793999999993,Correct
6,106,126,A,50.91077332758423,79.36467298679497,2.5455386663792114,1.2466573680493571,A,941.910699999994,Correct
6,106,127,A,49.243192978789864,78.06985605524217,2.462159648939493,1.226318431249807,A,818.8487000001032,Correct
6,106,128,B,57.13389617913256,35.978397461144034,2.856694808956628,0.5651473457593188,B,623.3015999999907,Correct
6,106,129,B,48.579561570264076,25.871496984628607,2.428978078513204,0.4063885243213986,B,826.6320999999834,Correct
6,106,130,B,75.94878239889816,44.648675094239266,3.797439119944908,0.7013397483428983,B,751.8773000000465,Correct
6,106,131,B,63.63040490182764,44.357883278637175,3.1815202450913818,0.6967720011848003,B,548.8942000000634,Correct
6,106,132,A,59.59173665067388,69.02798318695437,2.979586832533694,1.0842890243612782,A,878.2781999999543,Correct
6,106,133,A,39.71969762502825,47.966189113055925,1.9859848812514127,0.753451136691376,B,1904.1975000000093,Incorrect
6,106,134,B,68.91224799663746,59.26777507707003,3.445612399831873,0.9309760338836772,B,597.7381999999807,Correct
6,106,135,A,20.226763217219474,45.11211001987671,1.0113381608609737,0.7086193671318958,A,885.2276999999731,Correct
6,106,136,B,66.18233440736428,36.56632130973206,3.3091167203682144,0.5743824319772907,B,643.6267999999927,Correct
6,106,137,A,58.52066877155012,83.48484906659752,2.9260334385775058,1.3113769425683774,A,1556.9676000000072,Correct
6,106,138,B,57.48052857092355,46.367970378371425,2.8740264285461774,0.7283463755128039,B,757.8568000000132,Correct
6,106,139,B,48.880507982879465,38.70770195233746,2.4440253991439733,0.6080191604540333,B,1131.1026999999285,Correct
6,106,140,A,54.14772870040407,77.80349896183802,2.7073864350202035,1.222134503810457,A,834.8628999999619,Correct
6,106,141,A,29.522779977599065,45.74129128475184,1.4761389988799534,0.718502523329436,B,786.8727000000035,Incorrect
6,106,142,B,67.08058766290021,44.66255381620591,3.3540293831450105,0.7015577547977563,B,579.1465999999446,Correct
6,106,143,A,63.744264385958324,88.70819667377326,3.187213219297916,1.3934250949176232,A,1070.7800000000134,Correct
6,106,144,B,67.10439522478482,53.26568956704285,3.355219761239241,0.8366954951610815,B,666.0762000000204,Correct
6,106,145,A,29.411454721560517,39.78044637707582,1.4705727360780259,0.6248697904737205,A,926.8083999999135,Correct
6,106,146,A,28.33589202841923,50.933899198524564,1.4167946014209616,0.8000678177038391,A,1013.156800000047,Correct
6,106,147,B,85.48141567500927,61.88544989085858,4.274070783750464,0.972094373706103,B,806.0087000000067,Correct
6,106,148,B,75.53607302494913,53.68004031841155,3.7768036512474565,0.843204101543628,B,593.3294999999816,Correct
6,106,149,B,48.85982674472409,20.81036505521394,2.4429913372362044,0.32688844987990934,A,996.642100000031,Incorrect
6,106,150,A,30.700120042628086,43.610594149718125,1.5350060021314045,0.6850336109972024,A,1083.2616000000144,Correct
6,106,151,B,39.080148088754925,28.108996761685184,1.9540074044377462,0.4415350886314473,B,839.4573000000491,Correct
6,106,152,A,27.399625224599255,57.058296161417346,1.3699812612299627,0.8962696202352971,A,1103.760100000045,Correct
6,106,153,B,68.1404221396722,56.263595197834356,3.40702110698361,0.8837864866903319,B,867.0731999999362,Correct
6,106,154,A,22.8764741537971,48.13126444059145,1.1438237076898552,0.7560441338727487,A,1873.1366000000662,Correct
6,106,155,B,52.20068592872113,41.77380319648149,2.6100342964360563,0.6561813661728603,B,1548.2223000000204,Correct
6,106,156,A,42.04388101797432,49.825484610719585,2.102194050898716,0.7826568820729397,B,885.3147999999464,Incorrect
6,106,157,A,62.44871213430926,76.6721836689219,3.1224356067154635,1.204363844744862,B,1269.0693000000692,Incorrect
6,106,158,A,42.189709115124735,50.55397042820862,2.109485455756237,0.7940999105352794,B,728.6874000000125,Incorrect
6,106,159,B,43.129178383086085,35.28315813777395,2.156458919154304,0.5542265520053878,B,592.4345999999332,Correct
6,106,160,A,31.87794972001513,46.97008278001263,1.5938974860007564,0.7378043350009607,B,1338.383399999998,Incorrect
6,106,161,A,23.2075485972143,49.36122481973747,1.160377429860715,0.775364306329407,A,618.0921999999782,Correct
6,106,162,B,52.03982165329898,44.58090333154019,2.6019910826649486,0.7002751919838169,B,772.8769000000284,Correct
6,106,163,A,68.97268701805146,84.48592840218456,3.4486343509025734,1.3271018600000812,A,939.5547000000306,Correct
6,106,164,B,45.16770615044534,17.568539317765396,2.258385307522267,0.275965970274976,B,930.9863999999379,Correct
6,106,165,A,27.057913434494992,44.706305258167504,1.3528956717247496,0.7022450008410088,A,724.1068000000723,Correct
6,106,166,A,24.710344044921698,48.59724888280761,1.235517202246085,0.7633638003745159,A,690.739399999984,Correct
6,106,167,A,41.809167592524304,65.72004762125337,2.0904583796262153,1.0323280940025048,A,1497.1045999999433,Correct
6,106,168,A,46.86592550487755,70.26008284519017,2.343296275243878,1.1036428005352985,B,1664.8698999999851,Incorrect
6,106,169,A,32.14876358908958,45.17613336060518,1.6074381794544792,0.7096250434163499,A,1293.8411000000087,Correct
6,106,170,B,55.944905349109376,29.115100104975475,2.7972452674554686,0.45733892299161183,B,864.3306000000166,Correct
6,106,171,B,63.29569456249236,34.03610891324311,3.164784728124618,0.5346379485931332,B,662.7194999999801,Correct
6,106,172,B,54.589092400527846,25.362084327212678,2.7294546200263925,0.3983866890104809,B,606.46220000001,Correct
6,106,173,B,42.79306075170472,24.87479118396282,2.1396530375852363,0.39073230621558874,B,975.5374999999731,Correct
6,106,174,A,38.07326337224635,69.55033094226715,1.9036631686123175,1.092494043714827,A,845.090300000038,Correct
6,106,175,B,61.778871998554116,47.399290350813835,3.088943599927706,0.7445463117574316,B,679.3347999999924,Correct
6,106,176,A,31.25451835482194,52.08232143907566,1.5627259177410968,0.8181071920745114,A,690.3859000000239,Correct
6,106,177,B,46.16079113954636,16.68486074853148,2.308039556977318,0.262085179768776,B,749.4584999999461,Correct
6,106,178,A,48.27980789297356,78.76255592233643,2.413990394648678,1.2371993353178368,A,1772.1021999999493,Correct
6,106,179,A,30.07555086523429,38.825654618324876,1.5037775432617144,0.6098719565987203,A,1289.619900000048,Correct
6,106,180,A,12.973688815796102,38.37098838024705,0.648684440789805,0.6027300760318173,A,604.6650000000682,Correct
6,106,181,A,37.15365556078857,65.02281244271224,1.8576827780394285,1.0213759494288588,A,1481.4107000000831,Correct
6,106,182,A,14.172709334776098,35.33860175652653,0.708635466738805,0.5550974583321955,A,548.7059999999246,Correct
6,106,183,B,61.544868429884104,32.45836461101157,3.077243421494205,0.5098547990474643,B,671.5024999999741,Correct
6,106,184,A,37.267708133751896,54.77861563718012,1.863385406687595,0.86046048229792,A,831.8212000000358,Correct
6,106,185,A,15.633777051793949,32.715742657299465,0.7816888525896973,0.5138976839445312,A,623.5358999999789,Correct
6,106,186,A,48.93406621846292,62.73930189631376,2.446703310923146,0.9855066496440575,A,1546.5969000000541,Correct
6,106,187,A,33.49276920878132,56.08916382184828,1.6746384604390658,0.8810465250435647,A,975.023100000044,Correct
6,106,188,B,60.8459219662929,40.377423810340794,3.0422960983146448,0.6342470900672411,B,609.491700000035,Correct
6,106,189,B,57.29141856795636,30.250861775424497,2.8645709283978182,0.47517942559216947,B,737.261999999987,Correct
6,106,190,A,19.427760217807972,45.59780523287017,0.9713880108903986,0.7162486496970157,A,564.571899999919,Correct
6,106,191,A,32.83156569249648,61.745055411794176,1.6415782846248244,0.9698890623859365,A,872.9995999999574,Correct
6,106,192,A,49.66871488209227,63.189986858943655,2.4834357441046135,0.9925859924824648,A,1203.5049000000981,Correct
6,106,193,B,49.771632375729155,18.645656219952645,2.4885816187864576,0.2928852830098203,B,738.4366,Correct
6,106,194,A,19.258424677248396,49.34071222034189,0.9629212338624198,0.7750420951715711,A,760.2409999999509,Correct
6,106,195,A,54.606890258998945,83.87184145610853,2.730344512949947,1.3174558048077922,A,1358.8749000000462,Correct
6,106,196,A,63.9255204147573,86.32692414526426,3.1962760207378653,1.3560201535088274,B,764.7342999999864,Incorrect
6,106,197,B,34.254507662950196,18.12023827744958,1.71272538314751,0.2846320372686608,B,929.9771999999393,Correct
6,106,198,A,55.95935709665343,66.0741743377644,2.797967854832671,1.0378907034576594,A,1210.2259999999205,Correct
6,106,199,B,62.07957884329045,45.298422690639555,3.1039789421645225,0.7115459597205921,B,654.6913999999333,Correct
6,106,200,B,71.16821293322174,38.28239333590272,3.558410646661087,0.6013384283295342,B,754.009300000007,Correct
6,106,201,A,32.59707934839203,57.990584630390046,1.6298539674196013,0.9109139732610528,A,771.6496000000461,Correct
6,106,202,A,15.993453597775755,42.79399168281665,0.7996726798887878,0.6722064494425976,A,663.2802000000311,Correct
6,106,203,A,46.46065716227326,68.77215115188835,2.323032858113663,1.0802704241516965,A,874.8899999999367,Correct
6,106,204,B,77.06124718318664,57.95316738422757,3.853062359159332,0.9103262245327447,B,1211.4082000000508,Correct
6,106,205,B,72.46314175229087,42.88168428798829,3.6231570876145436,0.6735839216635044,B,588.0470999999261,Correct
6,106,206,B,31.327287535038103,17.958668429389462,1.566364376751905,0.2820941040301244,B,857.0121999999856,Correct
6,106,207,B,76.07396027581959,46.637851082253235,3.8036980137909793,0.7325856516961077,B,1021.9785000000456,Correct
6,106,208,A,46.96223680470526,64.72043118339278,2.3481118402352634,1.0166261557145526,A,624.491799999987,Correct
6,106,209,B,75.30120060156405,48.19270840624981,3.7650600300782027,0.7570092934283473,B,1385.8973999999762,Correct
6,106,210,A,18.590991248209153,36.941917137104014,0.9295495624104576,0.5802822774372441,A,640.2583999999933,Correct
6,106,211,A,48.86453958624682,75.45763023214992,2.443226979312341,1.185285683973086,B,912.8030000000535,Incorrect
6,106,212,A,40.57186372616233,51.23541668747271,2.0285931863081164,0.8048040433448809,A,1200.3144999999904,Correct
6,106,213,A,39.032953724480286,61.66865629522994,1.9516476862240142,0.9686889878692415,B,1899.6677999999747,Incorrect
6,106,214,B,39.27039190705736,21.087480197382742,1.963519595352868,0.3312413643540893,B,565.0499999999283,Correct
6,106,215,B,71.2857014400284,45.9642239089066,3.56428507200142,0.7220043408008864,B,1346.2612999999237,Correct
6,106,216,B,70.67767887906112,57.23114124267763,3.5338839439530556,0.8989846644227794,B,911.5249000000176,Correct
6,106,217,A,43.20247064129743,57.661507880170184,2.1601235320648713,0.9057448477562631,A,1548.0151000000433,Correct
6,106,218,B,39.40038860246069,20.9753535022761,1.9700194301230343,0.3294800823459977,B,785.7497999999623,Correct
6,106,219,B,63.06368110531792,40.43275620215771,3.153184055265896,0.6351162492454291,B,1063.9044999999214,Correct
6,106,220,A,64.71215399364172,74.84745747184621,3.235607699682086,1.1757011126671326,A,954.0891999999985,Correct
6,106,221,A,53.07066097037871,62.85016154965259,2.6535330485189355,0.9872480290066015,B,810.6929000000491,Incorrect
6,106,222,B,60.05074060435486,37.000802078225725,3.002537030217743,0.5812072399294194,B,528.4934999999678,Correct
6,106,223,B,52.024593270423026,41.55153112927136,2.601229663521151,0.6526899247056325,B,748.1086999999889,Correct
6,106,224,B,77.40826349501978,52.124759661104164,3.8704131747509893,0.8187738101072922,B,663.6978000000227,Correct
6,106,225,A,24.152464958515363,43.325593236695354,1.2076232479257683,0.6805568271241087,A,737.3911000000817,Correct
6,106,226,B,69.72500770245053,59.5709491504675,3.486250385122526,0.9357382810923991,A,913.6598999999705,Incorrect
6,106,227,B,45.30752695236821,24.231213645768268,2.2653763476184103,0.3806230138855516,B,600.0342999999475,Correct
6,106,228,A,44.20367232339134,74.24412809430581,2.210183616169567,1.1662240369662535,A,643.9202999999907,Correct
6,106,229,A,61.70220928602668,81.64407603898127,3.0851104643013336,1.28246214746595,A,1146.239899999955,Correct
6,106,230,B,87.63981428070434,64.62774090956425,4.381990714035217,1.015170180297958,B,1267.1281000000363,Correct
6,106,231,B,42.13509537665606,21.698105548576407,2.106754768832803,0.3408330449411178,B,819.7237000000541,Correct
6,106,232,B,39.71255880168043,28.31470122777766,1.9856279400840213,0.444766286828881,B,962.3140999999578,Correct
6,106,233,B,42.25346373924555,33.498536390997685,2.1126731869622772,0.5261937791598433,B,718.753500000048,Correct
6,106,234,B,32.35794288337148,13.281017314333493,1.617897144168574,0.2086177321345447,B,723.4381000000667,Correct
6,106,235,B,76.07905106026718,64.7513013488645,3.8039525530133584,1.0171110631398579,B,1294.771800000035,Correct
6,106,236,A,14.441290003432702,35.860402844850626,0.722064500171635,0.5632938906607662,A,562.6856000000089,Correct
6,106,237,A,13.651944353130716,33.10285100960148,0.6825972176565358,0.5199783677232074,A,541.9827000000623,Correct
6,106,238,A,47.208055956608916,70.35051231509652,2.360402797830446,1.1050632633269275,A,826.7172999999275,Correct
6,106,239,A,26.68416737114803,48.53219634289484,1.3342083685574013,0.7623419574670794,A,1003.0083999999988,Correct
6,106,240,B,61.16569724074204,43.74437845956498,3.058284862037102,0.6871350900221046,B,1078.3040999999685,Correct
6,106,241,B,48.416358539570645,36.531806775807624,2.420817926978532,0.5738402789461953,B,583.7159000000156,Correct
6,106,242,B,62.05105295379623,39.487926450979984,3.1025526476898113,0.6202748982194639,B,597.2633999999744,Correct
6,106,243,B,77.87864500005473,61.61554162638156,3.8939322500027367,0.9678546646019819,B,1042.231799999854,Correct
6,106,244,A,13.765000164864812,32.17291631748452,0.6882500082432407,0.5053709877378427,A,593.9922000000024,Correct
6,106,245,B,61.831443253674244,45.8299376887289,3.091572162683712,0.7198949777869433,B,800.6279999999606,Correct
6,106,246,A,18.710943118100754,42.813131906713,0.9355471559050378,0.6725071033765017,A,673.7891999998737,Correct
6,106,247,B,73.11065328107297,51.94141944382527,3.6555326640536485,0.8158939087087376,B,785.4888000001665,Correct
6,106,248,A,29.45154844953447,40.789034724159876,1.4725774224767236,0.6407126591821982,A,1040.3727999998864,Correct
6,106,249,B,69.7773314507215,40.437185856685645,3.488866572536075,0.6351858300960436,B,687.3186999998779,Correct
6,106,250,B,57.02517346532152,41.25171789455828,2.851258673266076,0.6479804694275144,B,631.3548000000537,Correct
6,106,251,B,87.76486220815718,66.45133986580602,4.388243110407859,1.0438152057180736,B,636.6104000001087,Correct
6,106,252,A,19.877892737487898,33.277277191612285,0.9938946368743948,0.5227182477832016,A,589.7148999999899,Correct
6,106,253,B,43.49750463792418,32.7691871484646,2.174875231896209,0.5147371880486273,B,1001.0423000001083,Correct
6,106,254,A,47.01981467290828,56.73666027639423,2.350990733645414,0.8912173755676999,B,734.0090000000146,Incorrect
6,106,255,A,63.77162166947637,75.58528748057158,3.1885810834738186,1.1872909193421812,A,1092.9424999999355,Correct
6,106,256,A,37.644929433051104,52.26758927776402,1.8822464716525553,0.8210173724793605,B,753.367100000105,Incorrect
6,106,257,B,60.25806741141056,45.31636358478872,3.012903370570528,0.7118277746268813,B,483.3247000001393,Correct
6,106,258,B,78.79403224243123,54.72151810253757,3.9397016121215613,0.8595635963210645,B,571.6185000001133,Correct
6,106,259,A,48.477865922697646,70.93652039623613,2.4238932961348825,1.1142682567401896,A,722.7915000000849,Correct
6,106,260,B,57.81419354526176,39.15929511014008,2.890709677263088,0.6151127691888539,B,643.0884999999762,Correct
6,106,261,A,23.67226411590508,47.09808489676051,1.183613205795254,0.7398149875490561,A,774.9702999999499,Correct
6,106,262,A,12.130689614626107,34.76859616272626,0.6065344807313053,0.5461438314022554,A,484.5048999998198,Correct
6,106,263,A,17.664659569975402,32.14767038871969,0.88323297849877,0.5049744256161395,A,579.6760000000631,Correct
6,106,264,B,52.473724543433946,31.784989755561178,2.623686227171697,0.49927745155248915,B,652.8006000000914,Correct
6,106,265,B,62.497586994523544,31.618751998294194,3.1248793497261773,0.4966661949675931,B,545.7819000000654,Correct
6,106,266,B,79.2239278739201,63.50552189652125,3.9611963936960053,0.9975424052624845,B,1052.2942000000057,Correct
6,106,267,A,41.98431239548878,50.01293250733744,2.099215619774439,0.7856013067476671,A,1524.8957999999675,Correct
6,106,268,A,41.125522106239636,66.00876622185164,2.056276105311982,1.036863275175476,A,817.2711999998228,Correct
6,106,269,B,57.95236651885422,49.82117688246856,2.8976183259427106,0.7825892164358044,B,642.1600000001035,Correct
6,106,270,B,62.32670702377194,38.204949960406,3.116335351188597,0.6001219506318857,B,965.7525999998597,Correct
6,106,271,A,53.9520175686465,82.7091632086575,2.697600878432325,1.299192497604388,B,1722.9706999999053,Incorrect
6,106,272,B,64.09792662609694,44.083738414086156,3.2048963313048464,0.692465743722336,B,741.5126999999302,Correct
6,106,273,A,40.40537575692761,50.91728646145439,2.0202687878463808,0.7998068654401607,A,736.2789000001158,Correct
6,106,274,A,42.52839431600305,56.24336615871318,2.1264197158001523,0.8834687296868706,A,688.0417000002126,Correct
6,106,275,A,41.10686545128435,66.72639369760408,2.0553432725642176,1.0481357412046663,A,603.3789999999044,Correct
6,106,276,B,82.11388286691007,61.837470547546914,4.105694143345504,0.9713407159437429,B,648.0497999998533,Correct
6,106,277,B,51.046046527176486,19.810712016368626,2.5523023263588245,0.3111859366650336,B,742.4482000001262,Correct
6,106,278,A,17.51774489245134,40.525910026434495,0.875887244622567,0.6365795060954378,A,579.6943000000283,Correct
6,106,279,B,84.59776470860096,58.4248286356803,4.229888235430048,0.9177350621454791,B,764.8051999999552,Correct
6,106,280,A,13.54309439217328,38.38366160973679,0.6771547196086641,0.6029291466551284,A,660.032499999943,Correct
6,106,281,A,42.18664638309924,61.26659875724662,2.1093323191549618,0.9623734828309977,B,1423.3277000000726,Incorrect
6,106,282,A,26.705520897866332,42.52578502152109,1.3352760448933165,0.6679934690587476,A,660.308299999997,Correct
6,106,283,B,33.44148570646725,10.316734426195993,1.6720742853233623,0.16205488541187119,A,1320.2037000000928,Incorrect
6,106,284,A,17.676256885081546,44.42278263277749,0.8838128442540772,0.69779143785575,A,643.5387000001356,Correct
6,106,285,B,59.64415857124433,41.14925474330267,2.9822079285622167,0.646370982011273,B,552.7973999999176,Correct
6,106,286,B,33.41427398706651,18.442521428243026,1.6707136993533254,0.28969444916320314,B,1121.0840999999618,Correct
6,106,287,A,55.91789060234999,71.46801631972855,2.7958945301174998,1.122616975183473,A,830.6099999999788,Correct
6,106,288,B,46.38421252752123,23.47811486830446,2.3192106263760617,0.3687933659520129,B,724.9701000000641,Correct
6,106,289,B,44.173686011313734,36.71008033869506,2.208684300565687,0.5766405935236775,B,617.4439999999777,Correct
6,106,290,A,16.76981637970819,35.33470087662956,0.8384908189854094,0.5550361834540612,A,632.1307000000616,Correct
6,106,291,B,40.64422519515221,25.554869850396067,2.0322112597576107,0.4014149569272379,B,1128.3272999999099,Correct
6,106,292,B,41.29260865075161,32.55759546202198,2.0646304325375806,0.5114135136101832,B,691.6658999998617,Correct
6,106,293,A,51.50681030572433,81.1840612645853,2.5753405152862165,1.2752362522870244,A,1870.7065000000966,Correct
6,106,294,A,28.18736592821287,44.291733125737814,1.4093682964106435,0.6957329170128881,A,690.9205000001748,Correct
6,106,295,A,60.05327558735577,69.83605053095246,3.002663779367788,1.0969821165188292,B,672.2021000000495,Incorrect
6,106,296,B,45.171871489831574,33.68267144025567,2.2585935744915786,0.5290861657499297,B,773.7019999999575,Correct
6,106,297,B,83.9306768517304,63.70695763417641,4.196533842586519,1.000706550430424,B,1159.086299999899,Correct
6,106,298,B,46.621304207604894,32.28521143466162,2.331065210380245,0.5071349153136305,B,691.5311000000202,Correct
6,106,299,A,27.87598704297782,59.9833106928869,1.393799352148891,0.9422156410538378,A,1040.7823999998982,Correct
6,106,300,B,54.31640457580496,27.292136487426674,2.715820228790248,0.42870387744834787,B,756.1197999998512,Correct
6,106,301,B,70.12755926268468,40.17268720936382,3.5063779631342347,0.6310310950594902,B,543.4169000000111,Correct
6,106,302,B,77.72754430161704,58.627547475754795,3.886377215080852,0.9209193622390903,B,590.8775000000333,Correct
6,106,303,A,60.17488573076808,82.99098336453574,3.008744286538404,1.303619318261091,A,739.8811000000478,Correct
6,106,304,A,21.851939253142472,44.87867184985318,1.0925969626571237,0.7049525289318289,A,593.9551999999821,Correct
6,106,305,B,33.825994032708586,10.410210827066585,1.6912997016354294,0.16352320928316655,A,558.9385000000675,Incorrect
6,106,306,B,76.31128893692215,60.13422810253827,3.815564446846108,0.9445862461811357,B,441.7043000000831,Correct
6,106,307,A,40.99716025363561,72.87743170533248,2.049858012681781,1.144756020289822,A,925.3104000001713,Correct
6,106,308,B,83.67924824280914,54.42337221276327,4.183962412140457,0.8548803316359999,B,571.4106999998876,Correct
6,106,309,B,67.59134991788588,50.36854489171389,3.379567495894294,0.7911872530190802,B,588.249899999937,Correct
6,106,310,B,71.1079169146048,42.075618651980506,3.55539584573024,0.6609222722615381,B,682.9055000000608,Correct
6,106,311,B,78.52485602329809,54.55284585491644,3.926242801164904,0.8569140988511095,B,496.68769999993856,Correct
6,106,312,A,39.36261328851628,63.40237442110634,1.968130664425814,0.9959221685074855,A,556.0322999999698,Correct
6,106,313,A,53.12474855757506,69.34207550700354,2.656237427878753,1.0892227749873553,A,901.9674999999552,Correct
6,106,314,A,26.59606694211226,43.80073786724061,1.329803347105613,0.6880203815276769,A,579.7924999999395,Correct
6,106,315,A,50.14973670990695,70.58850306276445,2.5074868354953477,1.1088016132494072,B,1358.8331000000835,Incorrect
6,106,316,A,25.49385957929199,58.334784951799875,1.2746929789645995,0.9163206592665745,A,531.2530000001061,Correct
6,106,317,B,74.9914440843254,44.02091113713377,3.74957220421627,0.6914788551637429,B,1109.2157999999017,Correct
6,106,318,B,74.275528649491,46.38027590104178,3.7137764324745497,0.7285396702109028,B,521.3705000001028,Correct
6,106,319,A,26.44824387750326,40.490244029946595,1.3224121938751632,0.636019265932691,A,625.3851999999824,Correct
6,106,320,B,75.535554240756,64.05103209832978,3.7767777120378003,1.0061112594747845,B,851.0650000000624,Correct
6,106,321,B,60.91564483139128,38.953584752004076,3.0457822415695643,0.611881478439417,B,607.8075000000354,Correct
6,106,322,A,65.10161792591616,77.30244008288159,3.255080896295808,1.2142638893447297,B,949.8730000000251,Incorrect
6,106,323,A,26.437855579037482,46.562472004933014,1.3218927789518742,0.7314015999183899,A,658.312799999976,Correct
6,106,324,A,25.581475261223613,53.06782712724099,1.2790737630611806,0.8335874792245671,A,742.4605999999585,Correct
6,106,325,B,85.06854745977923,55.663843971486386,4.253427372988961,0.8743656164569505,B,598.4736000000339,Correct
6,106,326,B,60.69673978450984,42.66765699259833,3.034836989225492,0.6702219887691805,B,714.4080000000486,Correct
6,106,327,A,55.81712669578934,72.09940994559338,2.790856334789467,1.1325348830661752,B,608.7013000001207,Incorrect
6,106,328,A,53.58002111705193,72.27233972565328,2.6790010558525967,1.1352512576992906,B,1541.411700000026,Incorrect
6,106,329,A,30.78620182681456,41.59571663703977,1.5393100913407278,0.6533839890386344,B,505.262299999913,Incorrect
6,106,330,A,52.074901603698386,68.97986529930402,2.6037450801849196,1.083533190349535,A,852.6050000000396,Correct
6,106,331,A,47.656101471157704,55.65148183588747,2.3828050735578854,0.8741714324850495,B,953.3567999999377,Incorrect
6,106,332,A,34.338803866726714,62.367190608317514,1.7169401933363357,0.9796615392006233,A,979.3108000001212,Correct
6,106,333,B,60.9920637485044,38.13342033576064,3.04960318742522,0.5989983659153862,B,710.3732000000491,Correct
6,106,334,B,64.12217779266199,51.23572200107069,3.2061088896330996,0.8048088391996632,B,635.6217000000015,Correct
6,106,335,B,72.54073204237812,48.287025636869636,3.627036602118906,0.7584908250224583,B,534.3987000001107,Correct
6,106,336,B,64.0404597486763,31.213123482065022,3.202022987433815,0.4902945971342326,B,519.7974000000158,Correct
6,106,337,B,70.77020508813978,52.44631229772979,3.538510254406989,0.8238247471121197,B,584.0843000000859,Correct
6,106,338,B,71.70005546977764,47.78698957088173,3.5850027734888816,0.7506362768652706,B,665.4590000000553,Correct
6,106,339,B,81.47113494552374,66.78770624803293,4.0735567472761876,1.049098836494667,B,1352.352699999983,Correct
6,106,340,A,38.628051232911304,46.04673226558156,1.9314025616455652,0.7233003790368356,A,601.2643999999909,Correct
6,106,341,A,18.277350279638448,40.76816618838593,0.9138675139819225,0.6403848569888052,A,593.7837999999829,Correct
6,106,342,A,21.1789445051449,47.919998997214634,1.058947225257245,0.7527255840483988,A,513.8348000000406,Correct
6,106,343,A,17.71154145875561,39.8825555807127,0.8855770729377807,0.6264737180937682,A,669.695099999899,Correct
6,106,344,B,69.46054483290494,38.84667472228496,3.473027241645247,0.6102021396196138,B,1346.6905000000224,Correct
6,106,345,A,43.33815828497002,61.167825065953174,2.166907914248501,0.9608219493163205,A,1023.6737000000176,Correct
6,106,346,A,48.43757923155649,69.61720131128425,2.4218789615778245,1.0935444410150614,A,727.9642999999396,Correct
6,106,347,A,44.78282504321035,76.11987405127914,2.2391412521605174,1.1956881855583945,A,880.2134000000024,Correct
6,106,348,A,45.69904987070976,53.369900974328345,2.2849524935354877,0.8383324441188235,B,625.9153999999398,Incorrect
6,106,349,B,54.935604396349405,44.47299074418975,2.7467802198174702,0.698580105025567,B,683.857499999931,Correct
6,106,350,A,46.89579435944215,68.72856022790253,2.3447897179721076,1.0795856995189113,A,1140.7055999998192,Correct
6,106,351,A,40.183117150496265,58.85607786464354,2.009155857524813,0.9245091091933649,A,1107.3661000000357,Correct
6,106,352,B,58.856892269655255,51.66100122329555,2.942844613482763,0.8114891096009931,B,808.3337000000483,Correct
6,106,353,A,43.76911393048789,66.26756482325752,2.1884556965243944,1.0409284741001559,B,1328.8832999999158,Incorrect
6,106,354,A,37.36357170865027,53.61919201067891,1.8681785854325137,0.8422482985608468,B,1235.3928999998516,Incorrect
6,106,355,A,21.662238658947757,39.36970680935291,1.083111932947388,0.6184179084312359,A,728.6682999999812,Correct
6,106,356,B,74.9231252601856,52.1906454542851,3.74615626300928,0.8198087417264579,B,650.3311999999823,Correct
6,106,357,A,44.34955811700314,63.07370961569506,2.2174779058501572,0.9907595138166175,B,1131.1774999999216,Incorrect
6,106,358,B,80.48467368499965,51.659787615820115,4.024233684249982,0.8114700462993472,B,731.5098999999918,Correct
6,106,359,B,41.62457281398067,17.833653739357857,2.0812286406990337,0.2801303778711539,B,956.0668999999962,Correct
6,106,360,B,71.48104053999913,52.83441963715588,3.5740520269999565,0.8299211229438461,A,1443.5170999997808,Incorrect
6,106,361,A,20.250464594376144,45.47875352996173,1.0125232297188071,0.7143785899207433,A,594.1381000000092,Correct
6,106,362,A,50.18987479514575,79.05444272548534,2.5094937397572874,1.241784282500099,A,1055.4334000000836,Correct
6,106,363,A,38.33481550980099,49.72010729435398,1.9167407754900494,0.7810016190581937,B,1004.6826000000237,Incorrect
6,106,364,B,59.61650679848657,46.160106267275815,2.9808253399243285,0.7250812536909892,B,1011.0374000000775,Correct
6,106,365,B,77.94336494093717,50.59079436739343,3.8971682470468583,0.7946783396193755,B,1195.335200000045,Correct
6,106,366,A,31.6514671990988,61.507218801487596,1.58257335995494,0.9661531336474671,A,1107.0824999999331,Correct
6,106,367,A,51.03196585847847,75.13838829619885,2.5515982929239236,1.180271043369578,A,661.5900000001602,Correct
6,106,368,B,78.8745818006113,61.27777790131161,3.9437290900305646,0.9625490844153377,B,987.9484000000502,Correct
6,106,369,B,57.5349652475617,46.38140908385643,2.8767482623780847,0.7285574702049313,B,1126.7379000000801,Correct
6,106,370,A,67.85374622111536,88.7832243238384,3.392687311055768,1.3946036264889266,A,819.1434000000299,Correct
6,106,371,B,73.94939448054669,44.03553902110427,3.6974697240273344,0.6917086294278393,B,699.7466999998778,Correct
6,106,372,B,72.431568068047,49.69281169658531,3.62157840340235,0.7805728608110668,B,502.5190000001203,Correct
6,106,373,B,48.11200155981669,32.594674828739436,2.4056000779908344,0.5119959549405798,B,984.4637000001057,Correct
6,106,374,A,56.18017433890343,68.70316500579327,2.8090087169451716,1.0791867923028375,B,2436.082400000032,Incorrect
6,106,375,A,40.09093909677096,70.46408418504639,2.004546954838548,1.1068472460883723,A,608.2483999998658,Correct
6,106,376,A,14.744449624257346,42.42133896382154,0.7372224812128673,0.6663528342209211,A,513.0532999999105,Correct
6,106,377,B,60.4154999582672,41.301328877560586,3.02077499791336,0.6487597569262016,B,769.3555000000742,Correct
6,106,378,A,24.270252762994946,41.7407758661317,1.2135126381497472,0.6556625740808874,A,548.6977999998999,Correct
6,106,379,A,31.362945991346464,49.37349734988048,1.5681472995673231,0.7755570827820983,A,657.6871000002029,Correct
6,106,380,B,32.73132086479218,16.245488494546706,1.636566043239609,0.2551835365422272,B,1169.6858999998767,Correct
6,106,381,B,82.88780133604956,53.212733812523325,4.144390066802478,0.8358636681142623,B,991.2199000000328,Correct
6,106,382,B,67.19770938971261,42.25335616941193,3.3598854694856306,0.6637141666566874,B,659.9164000001565,Correct
6,106,383,B,63.36127641055128,32.47839990742666,3.1680638205275637,0.5101695127476151,B,563.9516000001095,Correct
6,106,384,B,47.325640147712164,20.88566593209296,2.366282007385608,0.32807127328796926,B,679.5477999999093,Correct
6,106,385,A,42.726874939106835,70.73109618324845,2.1363437469553417,1.111041460748232,A,747.4419000000125,Correct
6,106,386,B,49.06083830298987,41.90693443685989,2.4530419151494938,0.6582725868065407,B,693.4079000000111,Correct
6,106,387,A,51.53803481096834,79.50424716943432,2.5769017405484167,1.24884979418341,A,722.3825999999463,Correct
6,106,388,A,24.874908313444024,39.581904284149516,1.2437454156722012,0.6217510985708924,A,678.2556999999088,Correct
6,106,389,B,37.59992208113508,22.85273984411939,1.8799961040567539,0.3589699980434212,A,1453.7126000000171,Incorrect
6,106,390,A,56.00797285850261,68.39550124116487,2.800398642925131,1.0743540211891758,B,1072.7863999998135,Incorrect
6,106,391,A,67.04453409572773,79.87929176555144,3.3522267047863865,1.2547409809230603,A,610.1928000000498,Correct
6,106,392,B,74.3192445793192,62.44523834816265,3.71596222896596,0.980887510231257,B,843.2835000000978,Correct
6,106,393,B,61.779909703191635,30.915055647168092,3.0889954851595816,0.4856125585323146,B,816.80080000001,Correct
6,106,394,A,33.20467923288446,57.69795813123264,1.660233961644223,0.9063174069610597,A,920.2809000000798,Correct
6,106,395,A,49.5665030693576,57.07689591532365,2.47832515346788,0.8965617844864503,B,1563.060399999813,Incorrect
6,106,396,A,24.958845760110332,51.70328540589267,1.2479422880055167,0.8121533079880439,A,492.44339999995645,Correct
6,106,397,B,54.88913988052775,30.253646724897198,2.7444569940263874,0.4752231714761897,B,794.5474999999078,Correct
6,106,398,A,41.48733360898521,52.05492407602763,2.0743666804492604,0.8176768353021142,A,1334.7183999999288,Correct
6,106,399,A,32.28500830227742,51.69496158291308,1.614250415113871,0.8120225576824315,A,835.7088000000203,Correct
6,106,400,A,58.057722041975836,76.41454590503898,2.9028861020987917,1.2003168802133524,A,841.4945000001808,Correct
6,106,401,A,65.29535043656915,81.47056433887609,3.2647675218284578,1.2797366320541388,A,695.0586000000385,Correct
6,106,402,B,75.17922036268683,56.04260722883282,3.7589610181343414,0.8803152157905971,B,664.1466000000946,Correct
6,106,403,B,38.64160043815737,26.984541777517055,1.9320800219078682,0.42387219104367224,B,827.4816000000556,Correct
6,106,404,A,55.856484951291485,79.5187017097305,2.792824247564574,1.2490768455714372,A,704.7649999999521,Correct
6,106,405,A,32.544204743897815,50.82330968312931,1.6272102371948907,0.79833068165819,A,614.8329000000103,Correct
6,106,406,B,72.61599229017773,40.525540725659305,3.630799614508886,0.6365737051324263,B,771.2552000000414,Correct
6,106,407,B,87.38744777162412,69.58383262946373,4.369372388581207,1.093020286986725,B,1359.4293999999536,Correct
6,106,408,A,14.875842027712075,30.55200098641602,0.7437921013856038,0.4799097092569634,A,577.6740000001155,Correct
6,106,409,B,76.0480158637541,53.15493486673523,3.8024007931877053,0.8349557643968968,A,884.4196000000011,Incorrect
6,106,410,A,27.490423090196224,58.22267697756,1.3745211545098113,0.9145596713251702,A,646.3976000000002,Correct
6,106,411,A,31.24642688446348,61.936538569801556,1.5623213442231743,0.9728968727983471,A,554.2639999998755,Correct
6,106,412,A,56.45588488637233,75.25532717726296,2.822794244318617,1.1821079150179281,B,1182.1434999999383,Incorrect
6,106,413,B,87.13575505460997,64.40080557034474,4.356787752730498,1.0116054883252983,B,683.9350000000195,Correct
6,106,414,A,41.85002062317478,65.63445692055288,2.0925010311587386,1.0309836384198232,A,1321.4877000000342,Correct
6,106,415,A,28.350049806047544,53.56841842199193,1.4175024903023772,0.8414507488947698,A,535.311800000045,Correct
6,106,416,A,59.44952567757693,84.45018916196524,2.9724762838788465,1.3265404693274916,A,936.9678000000476,Correct
6,106,417,B,78.02052405676025,54.76609564805547,3.9010262028380125,0.8602638187686349,B,654.2289999999866,Correct
6,106,418,A,65.81098542111677,76.69655553445888,3.290549271055838,1.204746677113488,A,1190.8199999998033,Correct
6,106,419,B,45.693706457002556,30.939043457602505,2.2846853228501276,0.4859893581774969,B,657.2983000000931,Correct
6,106,420,B,79.08468233568846,51.58475306346304,3.9542341167844226,0.8102914063070952,B,675.2595000000383,Correct
6,106,421,A,55.609219663260355,63.79331217385703,2.780460983163018,1.0020630043677479,A,1036.6685000001326,Correct
6,106,422,B,60.05247783309237,43.81729257717328,3.0026238916546184,0.6882804223032107,A,750.5959999998595,Incorrect
6,106,423,A,28.277553951710686,55.510309983371975,1.4138776975855343,0.8719539102112678,A,583.1878999999844,Correct
6,106,424,B,79.64473468518835,66.98422738793816,3.982236734259418,1.0521857833416737,B,1039.4851000000926,Correct
6,106,425,A,50.05977992550442,80.8247622967555,2.502988996275221,1.2695923972981418,A,787.0742999998583,Correct
6,106,426,B,61.123049462845316,47.582776230640704,3.056152473142266,0.7474285012179394,B,893.5759999999391,Correct
6,106,427,A,51.381375425989994,59.708833947499876,2.5690687712995,0.9379041704193922,A,741.8471000000864,Correct
6,106,428,A,65.64301949269174,82.32207351742765,3.282150974634587,1.2931121069531482,A,765.3076999999939,Correct
6,106,429,B,68.37157954336612,38.48917119605174,3.4185789771683064,0.6045864873613801,B,681.773499999963,Correct
6,106,430,A,23.178124963165565,45.75633840003469,1.1589062481582784,0.7187388828635877,A,599.8449000001074,Correct
6,106,431,A,30.32614421766067,45.65633291956952,1.5163072108830336,0.7171680004498471,A,649.2121999999654,Correct
6,106,432,B,46.928503663984266,39.30263696031974,2.346425183199213,0.6173643777062358,B,796.838600000001,Correct
6,106,433,A,48.129675096585125,74.7289937395047,2.406483754829256,1.173840288710928,A,761.2596000001304,Correct
6,106,434,B,35.06719738013395,13.529048108555969,1.7533598690066976,0.21251379073951157,B,773.688699999866,Correct
6,106,435,B,65.51904546821247,57.05497847857048,3.2759522734106237,0.8962175061950037,B,652.3354999999356,Correct
6,106,436,B,67.5688283895536,46.78726908061379,3.3784414194776797,0.7349327041259256,B,522.6975000000493,Correct
6,106,437,B,60.33065120151782,37.466507972568905,3.016532560075891,0.5885225310114295,B,606.0406999999941,Correct
6,106,438,A,50.89838780652213,72.85603422543986,2.5449193903261063,1.1444199094616418,A,863.1718999999975,Correct
6,106,439,B,56.06883517820506,45.92041948904273,2.803441758910253,0.7213162625826909,B,626.7424999998639,Correct
6,106,440,A,13.667779806961999,33.237496003302795,0.6833889903481,0.5220933663384808,A,553.392199999962,Correct
6,106,441,A,27.77634028756285,44.69798001738087,1.3888170143781426,0.7021142282645355,A,516.4296000000377,Correct
6,106,442,B,47.059306043712006,21.891407933184286,2.3529653021856003,0.3438694316981453,B,846.9552999999905,Correct
6,106,443,A,51.14344610754354,66.3416974454316,2.557172305377177,1.0420929466062234,A,1057.7215999999225,Correct
6,106,444,B,60.59297191396468,28.850647407388337,3.029648595698234,0.45318490973180303,B,596.2170999998762,Correct
6,106,445,B,41.423591971845035,31.84359037607817,2.0711795985922516,0.5001979479470491,B,696.9397999998819,Correct
6,106,446,A,16.274089807466385,35.30682888436179,0.8137044903733193,0.5545983712233146,A,543.3118999999351,Correct
6,106,447,B,58.96482667224888,26.176926888099537,2.9482413336124442,0.41118620602605316,B,606.74640000002,Correct
6,106,448,A,41.18769499113335,65.70491791547724,2.0593847495566675,1.0320904371399184,A,689.5214000001033,Correct
6,106,449,B,85.0679995690182,67.92093313726912,4.25339997845091,1.0668995228450409,B,604.0437999999995,Correct
6,106,450,A,25.153219899276003,52.47895042920597,1.2576609949638,0.824337425682482,A,534.2431999999917,Correct
6,106,451,B,57.399737981405536,48.853331137145744,2.8699868990702773,0.7673863310192328,B,591.3854000000356,Correct
6,106,452,A,28.84736849732841,39.04125840517497,1.4423684248664204,0.6132586529629923,A,623.9586000001509,Correct
6,106,453,B,44.73167742261109,32.94397692413941,2.2365838711305543,0.5174827794245401,B,857.6220999998441,Correct
6,106,454,A,45.29099802744245,63.44729817958527,2.2645499013721224,0.9966278292555306,A,1457.930000000033,Correct
6,106,455,A,58.91771376453458,78.73724756353224,2.9458856882267295,1.2368017925473684,A,785.1302999999916,Correct
6,106,456,A,44.324602980701044,74.6128775709449,2.216230149035052,1.172016340200376,A,681.4363999999387,Correct
6,106,457,B,77.20151231988262,64.45783836519848,3.8600756159941314,1.0125013573719295,A,854.3560000000525,Incorrect
6,106,458,A,23.65371771753881,52.53183730421652,1.1826858858769405,0.8251681707725044,A,716.4642000000185,Correct
6,106,459,B,64.96380115878242,47.17462788464208,3.2481900579391207,0.7410173219911187,B,1109.0591999998196,Correct
6,106,460,B,40.21047678806285,30.46888485114274,2.0105238394031426,0.4786041240571169,B,741.6138999999475,Correct
6,106,461,A,49.48657804594079,67.28046203262365,2.4743289022970396,1.0568390262590872,B,853.3399000000372,Incorrect
6,106,462,A,66.93975103557632,86.28402803555478,3.346987551778816,1.3553463429931731,A,796.2721999999758,Correct
6,106,463,B,64.00264285181987,49.32534006519438,3.2001321425909937,0.7748006299231648,B,971.1945999999898,Correct
6,106,464,A,58.9047514526317,77.24388463027522,2.945237572631585,1.2133441024460507,A,719.3565999998555,Correct
6,106,465,B,70.09883017122566,42.91158897381731,3.5049415085612825,0.6740536633700461,B,765.1393000001008,Correct
6,106,466,B,67.44915685364805,52.986902064896626,3.3724578426824023,0.8323163113178055,B,1352.7711000001545,Correct
6,106,467,A,27.673968065586585,45.621876478806385,1.3836984032793294,0.7166267599439956,A,636.0728000001927,Correct
6,106,468,B,57.11278539732315,41.398126678307534,2.8556392698661575,0.6502802532247529,B,849.3599999999333,Correct
6,106,469,B,60.50139870266914,48.59446591141588,3.025069935133457,0.7633200855621189,B,879.9589000000196,Correct
6,106,470,A,34.628284142784274,61.85939338709769,1.7314142071392138,0.9716850791021358,A,683.033099999875,Correct
6,106,471,B,44.16483467618521,17.760809747880774,2.20824173380926,0.27898614712874115,B,911.7525999999998,Correct
6,106,472,B,45.52112598127448,17.69454423632344,2.276056299063724,0.2779452509072667,B,722.7834000000257,Correct
6,106,473,A,66.40061694878267,79.21124538801256,3.3200308474391336,1.244247332963393,A,1467.6251999999295,Correct
6,106,474,A,68.12168845844064,81.7831560393737,3.4060844229220324,1.2846468110034208,A,726.4079000001402,Correct
6,106,475,B,59.73738427724045,34.81945965455229,2.9868692138620223,0.5469427932635382,B,1170.3136000000995,Correct
6,106,476,A,10.70881989344069,31.06914402229635,0.5354409946720345,0.48803297306884724,A,541.917999999896,Correct
6,106,477,A,44.85149833046714,61.55250780920281,2.242574916523357,0.9668645317170997,B,1721.8295000000126,Incorrect
6,106,478,B,70.59601144156895,53.31739760324246,3.5298005720784476,0.8375077230943628,B,1802.6413000000048,Correct
6,106,479,A,49.686376375548505,69.5450798790439,2.484318818777425,1.0924115602065982,A,1083.7761000000228,Correct
6,106,480,B,81.73400168339427,52.109235965103665,4.086700084169713,0.8185299644607335,B,860.0797999999941,Correct
6,106,481,A,25.562846985316668,55.131465915365276,1.2781423492658335,0.866003041506738,A,585.5856000000585,Correct
6,106,482,B,88.84663126745134,64.01743701045254,4.4423315633725675,1.005583549068425,B,491.5338000000702,Correct
6,106,483,B,77.62217722704793,54.68369056370824,3.8811088613523963,0.8589694027306164,B,574.2901999999503,Correct
6,106,484,B,52.48762653875788,27.84693372303393,2.6243813269378937,0.43741861204642635,B,481.93049999986215,Correct
6,106,485,A,10.665780926857021,34.97024766797843,0.5332890463428511,0.5493113658396831,A,581.5204999998969,Correct
6,106,486,B,73.73926522361079,53.034594746344816,3.6869632611805394,0.8330654662061435,B,503.192399999989,Correct
6,106,487,A,68.21415806616193,81.12536531707207,3.4107079033080963,1.274314258499509,B,427.91200000010576,Incorrect
6,106,488,B,67.78156249199057,51.74743050782455,3.389078124599529,0.8128467376276498,B,574.6626000000106,Correct
6,106,489,A,36.42242194654544,55.289240205846795,1.8211210973272722,0.8684813542662487,A,806.7180000000462,Correct
6,106,490,A,13.808136733419381,35.40649185476241,0.6904068366709691,0.5561638735015422,A,534.7120999999788,Correct
6,106,491,B,49.22632984272752,26.077248420804715,2.461316492136376,0.40962046032318056,B,500.80610000009074,Correct
6,106,492,A,25.029356035668652,36.13136991415993,1.2514678017834326,0.5675502314323007,A,545.7538000000568,Correct
6,106,493,B,50.969303452135094,43.64485421030956,2.5484651726067544,0.6855717667705303,B,722.0781999999417,Correct
6,106,494,A,37.259885858684996,50.2684910882532,1.8629942929342496,0.7896156115495011,B,1200.4299999998693,Incorrect
6,106,495,B,77.30252975992796,45.54441490994942,3.865126487996398,0.7154099964657127,B,563.2367999999133,Correct
6,106,496,B,73.44471019743278,48.124817905295345,3.672235509871639,0.755942871933112,B,625.3027999998721,Correct
6,106,497,B,37.873740876283414,17.770997033495348,1.8936870438141709,0.279146168636975,A,1481.0303000001568,Incorrect
6,106,498,B,40.183924974869,29.688551257075282,2.00919624874345,0.4663466726247586,B,851.2842999998611,Correct
6,106,499,B,48.54443168501998,30.552715165679835,2.427221584250999,0.47992092755860616,B,472.7918999999474,Correct
6,106,500,B,76.44622444085164,44.30852642446703,3.822311222042582,0.6959967055324743,B,630.335900000091,Correct
6,106,501,B,41.693166053142164,31.561575768199468,2.0846583026571084,0.49576807284546537,A,905.9116999999333,Incorrect
6,106,502,B,76.71182001057882,63.24211332669439,3.8355910005289413,0.9934047931231812,B,489.6744000000126,Correct
6,106,503,B,78.98344518549108,49.130521339448286,3.9491722592745537,0.7717404245352365,B,520.0330000000122,Correct
6,106,504,B,57.55174441174773,41.65866516418045,2.8775872205873863,0.6543727821907316,B,999.815000000126,Correct
6,106,505,A,57.61167095630303,67.69676938013569,2.8805835478151516,1.0633783667819836,B,1392.6347999999962,Incorrect
6,106,506,A,37.78446913535489,50.91843466400323,1.8892234567677446,0.7998249013636219,A,945.757599999979,Correct
6,106,507,B,41.78866749483167,24.572932837808224,2.089433374741583,0.38599072640206855,A,1056.9393999999193,Incorrect
6,106,508,B,50.12748949314526,21.490330511913815,2.5063744746572634,0.3375693222972251,B,636.2811999999849,Correct
6,106,509,B,78.80055759316484,63.19810068070828,3.940027879658242,0.9927134440967061,B,966.7973000000529,Correct
6,106,510,B,82.67122560902217,63.22685566830674,4.133561280451108,0.9931651263856731,B,683.218399999987,Correct
6,106,511,A,34.25690544451433,53.74689401573916,1.7128452722257166,0.8442542369655767,A,777.8315999998995,Correct
6,106,512,B,39.97087433896046,28.53330065058336,1.9985437169480234,0.4482000385327078,B,772.6118999999017,Correct
6,106,513,A,50.39354219488656,75.41736509943705,2.5196771097443276,1.1846532007474535,A,768.7969999997222,Correct
6,106,514,B,35.16211377290152,21.75512643191013,1.758105688645076,0.34172872688203,A,811.8440999996892,Incorrect
6,106,515,A,50.88199138065785,60.49576090464344,2.5440995690328925,0.9502651901567624,B,654.3108000000757,Incorrect
6,106,516,A,31.5297450592011,58.074319951636184,1.5764872529600549,0.912229284611417,A,699.3105999999898,Correct
6,106,517,B,44.51288759417034,16.591931180806416,2.225644379708517,0.26062544553244427,B,605.2365999998983,Correct
6,106,518,A,54.65939227456516,71.96017718989081,2.7329696137282578,1.1303478200539039,A,762.2253999998065,Correct
6,106,519,A,26.9899720905971,50.23049740785299,1.349498604529855,0.7890188082133605,A,1099.9162000002798,Correct
6,106,520,B,68.05945467573022,41.329180312806244,3.4029727337865108,0.649197246248,B,753.425899999911,Correct
6,106,521,B,53.45728463244734,27.74464991869024,2.672864231622367,0.4358119418048895,B,683.6988000000019,Correct
6,106,522,A,44.7531215547378,65.66381562030713,2.23765607773689,1.031444803797158,A,594.582199999877,Correct
6,106,523,B,52.75162905028415,21.431080068247294,2.6375814525142074,0.33663861850450166,B,566.20729999986,Correct
6,106,524,A,60.856823798338766,79.59632111537293,3.0428411899169383,1.2502960883441487,A,804.5325000002777,Correct
6,106,525,A,26.207924945566887,39.60154938246628,1.3103962472783446,0.6220596830536474,A,551.8967000002704,Correct
6,106,526,B,37.78720544346064,22.330713344077104,1.889360272173032,0.35077002495586096,A,643.7393000001066,Incorrect
6,106,527,B,71.51050327507946,61.18417969276669,3.5755251637539733,0.9610788471935682,B,1063.067300000057,Correct
6,106,528,B,54.60193167015211,24.88854296112406,2.7300965835076054,0.39094831862610646,B,773.4903999999005,Correct
6,106,529,B,45.978704917243846,24.197955241922305,2.298935245862192,0.38010059209958863,B,764.3871999998737,Correct
6,106,530,B,47.04094283280306,32.713415983488,2.352047141640153,0.5138611366377641,B,714.4986000002973,Correct
6,106,531,A,50.18084939271795,77.92958115166927,2.5090424696358977,1.224114998217069,A,724.4314000004124,Correct
6,106,532,A,31.823432866001447,52.498509410103736,1.5911716433000722,0.8246446574359826,A,600.3028000000086,Correct
6,106,533,A,62.4558202935778,73.57650095425572,3.12279101467889,1.155736974373661,B,943.7460999997711,Incorrect
6,106,534,A,65.51768712636381,84.54446702128982,3.2758843563181905,1.3280213824787432,A,824.0405999999894,Correct
6,106,535,B,67.29691377068089,52.94876698787233,3.3648456885340443,0.8317172869286875,B,550.6617999999435,Correct
6,106,536,A,69.59520376236159,87.33170692044209,3.47976018811808,1.3718032444335886,B,760.6474999997772,Incorrect
6,106,537,A,58.868922786121175,73.67587724191509,2.943446139306059,1.1572979734499194,A,830.4222000001573,Correct
6,106,538,B,41.49672199945962,21.49506613595955,2.0748360999729814,0.33764370930578635,B,653.6283999998886,Correct
6,106,539,A,22.132070193238967,52.28315245155915,1.1066035096619484,0.8212618382416671,A,553.7752999998702,Correct
6,106,540,A,45.50466384212601,61.204821565364284,2.2752331921063003,0.9614030889701128,B,886.7559000000256,Incorrect
6,106,541,B,48.09553287560195,37.26013268542156,2.4047766437800973,0.5852807955815066,B,741.671000000224,Correct
6,106,542,B,47.91742156067016,20.521411225135385,2.3958710780335077,0.32234957373090223,B,780.0661000001128,Correct
6,106,543,A,26.179065021133713,56.32692569185651,1.3089532510566857,0.8847812797641729,A,833.3003999996436,Correct
6,106,544,B,58.06184731824546,39.834728504419225,2.9030923659122734,0.6257224521361368,B,830.0090000002456,Correct
6,106,545,A,32.028021162213335,59.755140464531976,1.6014010581106668,0.9386315514879991,A,689.6209000001363,Correct
6,106,546,A,39.83770972618781,60.129757270289936,1.9918854863093907,0.9445160185124016,A,1259.8500999997668,Correct
6,106,547,A,67.19682198004915,89.97349237838887,3.3598410990024576,1.4133003133688185,A,746.4609000003293,Correct
6,106,548,A,21.116025678030915,42.35717072965398,1.0558012839015458,0.6653448819556478,A,634.7771000000648,Correct
6,106,549,B,60.55109103758476,28.19299787033821,3.027554551879238,0.442854574960636,B,787.8740999999536,Correct
