subject,day,trial,cat,x,y,xt,yt,resp,rt,fb
4,404,0,B,36.38971513966426,11.003307489758537,1.819485756983213,0.17283954987507485,B,797.1711999998661,Correct
4,404,1,B,33.46016758919221,15.390120167993114,1.6730083794596107,0.2417474422881564,B,656.527899998764,Correct
4,404,2,B,39.71783985418506,16.86976885357675,1.9858919927092529,0.2649897094907731,B,573.2370000005176,Correct
4,404,3,B,32.92835362923772,14.31523436189639,1.646417681461886,0.22486317552874935,B,527.4830999987898,Correct
4,404,4,B,47.98274063001955,23.509286636486355,2.3991370315009775,0.3692830109416112,B,598.3562999972492,Correct
4,404,5,B,31.06931559644716,12.17166145221421,1.553465779822358,0.19119201100129118,B,525.2789000005578,Correct
4,404,6,B,55.99789209283692,46.753574447171204,2.799894604641846,0.7344034300614826,A,4805.317999998806,Incorrect
4,404,7,B,61.51436259619483,53.94381617945807,3.0757181298097414,0.8473474830799185,A,3146.2875999968674,Incorrect
4,404,8,B,63.443019361662515,44.8410956608655,3.172150968083126,0.7043622835354609,B,896.4477000008628,Correct
4,404,9,B,64.24419499649527,32.25099158998294,3.2122097498247633,0.5065973912503831,B,493.1327999984205,Correct
4,404,10,B,79.1857093951908,65.37356096633522,3.9592854697595397,1.0268854943542158,A,1557.6980000005278,Incorrect
4,404,11,B,74.81652755205089,47.73146373859084,3.7408263776025446,0.749764079131223,B,477.14880000057747,Correct
4,404,12,A,40.979997466739206,48.26982966797528,2.0489998733369603,0.7582207113747088,A,793.6187000013888,Correct
4,404,13,B,66.1004795595178,41.517933191883586,3.30502397797589,0.6521621695392665,B,766.2337999972806,Correct
4,404,14,B,55.49788986738706,45.96404039284731,2.774894493369353,0.722001458137368,B,1049.3377999991935,Correct
4,404,15,B,86.44954374528027,59.330563655329925,4.322477187264013,0.9319623145646304,B,1524.0999000016018,Correct
4,404,16,B,79.81713449390176,48.21596923010867,3.9908567246950883,0.7573746735951046,B,526.0999999991327,Correct
4,404,17,B,48.30891622587255,19.407766499159088,2.415445811293628,0.3048564832817215,B,818.8018000000739,Correct
4,404,18,B,64.68381854858208,53.53078170924592,3.2341909274291036,0.8408595527934294,A,776.0307999997167,Incorrect
4,404,19,B,76.26136638353537,55.5990025034297,3.8130683191767685,0.8733470890584762,B,553.1641999987187,Correct
4,404,20,B,67.92619313130419,54.73140464662197,3.39630965656521,0.8597188937923892,B,645.8917000018118,Correct
4,404,21,A,29.16734792404199,47.975323682637146,1.4583673962020995,0.7535946221748264,A,482.85540000142646,Correct
4,404,22,B,50.34236719355251,29.11444552211171,2.517118359677626,0.45732864082803193,B,449.7570999992604,Correct
4,404,23,B,79.78288252004359,63.70982359120005,3.9891441260021794,1.0007515687780788,B,1120.988299997407,Correct
4,404,24,B,32.457382025467425,16.68239466102422,1.6228691012733714,0.2620464425567964,B,689.529200000834,Correct
4,404,25,A,61.275101292830286,83.75857934540262,3.0637550646415144,1.3156766877331734,A,953.2798000000184,Correct
4,404,26,A,35.55609993530045,68.87814048467219,1.7778049967650225,1.0819353006978594,A,746.4061999999103,Correct
4,404,27,B,73.64305788889699,59.733890517543685,3.682152894444849,0.9382977581012613,B,1734.252900001593,Correct
4,404,28,B,54.89742656212399,26.726100067159244,2.7448713281061994,0.41981259815046573,B,676.3659000025655,Correct
4,404,29,B,49.925784483455686,20.364824376595617,2.4962892241727843,0.31988991326579563,B,458.4134000033373,Correct
4,404,30,B,68.1975373387202,50.0630686455334,3.4098768669360093,0.7863888433648463,B,1434.7380999970483,Correct
4,404,31,A,22.879748527023747,53.72443840979069,1.1439874263511873,0.8439015051321788,A,2976.002999999764,Correct
4,404,32,A,17.34520867122964,32.46800430494484,0.867260433561482,0.5100062190056824,A,465.7017999998061,Correct
4,404,33,A,48.05219345417998,63.20749621659604,2.402609672708999,0.9928610288293138,A,576.0382000007667,Correct
4,404,34,A,61.665378259976386,72.78627134984443,3.0832689129988196,1.1433240767743225,A,643.9030000001367,Correct
4,404,35,A,28.69798474681772,42.18245391925322,1.434899237340886,0.6626004367155794,A,1040.9130999978515,Correct
4,404,36,B,81.26033691276831,64.18130450226279,4.0630168456384155,1.0081575736105914,B,555.9725999992224,Correct
4,404,37,A,35.59976494026296,65.10439340823892,1.7799882470131478,1.0226574202387158,A,850.6314000005659,Correct
4,404,38,A,62.494741871948456,77.11479728832654,3.124737093597423,1.2113164032203636,A,568.4053000004496,Correct
4,404,39,B,70.53711356617748,40.15646835431894,3.5268556783088743,0.6307763298801969,B,958.766799998557,Correct
4,404,40,B,54.82677244033317,46.28256949407677,2.7413386220166585,0.7270049015592532,B,967.0833999989554,Correct
4,404,41,B,46.90839055855436,32.56458319908862,2.3454195279277177,0.511523276727352,B,498.1088999993517,Correct
4,404,42,B,57.91482282772086,46.73145587922846,2.8957411413860434,0.7340559924086985,B,782.008300000598,Correct
4,404,43,B,46.7940512692765,39.280559142169054,2.3397025634638253,0.6170175801496884,B,471.3682000001427,Correct
4,404,44,B,64.69070264761724,56.97828755439151,3.234535132380862,0.8950128479750157,B,734.8496999984491,Correct
4,404,45,A,37.196245294974425,50.06887783643804,1.8598122647487214,0.7864800939221929,A,1065.3634000009333,Correct
4,404,46,B,86.36430538391372,62.94953206997523,4.318215269195686,0.9888089374897463,B,614.0716000008979,Correct
4,404,47,B,43.99668182696351,21.735845980442473,2.1998340913481753,0.3414258702585865,B,482.5055000001157,Correct
4,404,48,A,37.39000244893789,63.553692665228624,1.8695001224468946,0.9982990699279287,A,636.1614999987069,Correct
4,404,49,A,49.49912224264945,77.9870851417321,2.4749561121324724,1.2250182687807363,A,512.619299999642,Correct
4,404,50,A,22.351361798136878,49.957072221431204,1.1175680899068439,0.784723855428515,A,554.5523000000685,Correct
4,404,51,B,54.50925022125892,37.86136590460022,2.7254625110629456,0.5947249449038355,B,601.7397000032361,Correct
4,404,52,A,66.3704955866298,82.08556932621784,3.3185247793314896,1.289397107804908,A,565.8882000025187,Correct
4,404,53,B,52.75760398903253,39.189368029584905,2.6378801994516268,0.6155851535028531,B,3437.9393000017444,Correct
4,404,54,B,75.1747025161912,51.088831627409164,3.75873512580956,0.8025014906057725,B,527.0317000031355,Correct
4,404,55,A,29.886864585772564,56.76249982266135,1.4943432292886283,0.8916232622113242,A,655.6431999997585,Correct
4,404,56,B,50.389859164584045,23.90664764209862,2.5194929582292023,0.3755247430218839,B,609.2758000013418,Correct
4,404,57,A,44.91763586610211,75.13678335299493,2.2458817933051054,1.1802458329806835,A,474.0903999991133,Correct
4,404,58,A,57.837772482340924,86.17740133649804,2.8918886241170463,1.3536714547210071,A,509.1930000016873,Correct
4,404,59,A,66.18051037688318,85.21481966441797,3.3090255188441584,1.3385512571735727,A,433.0779999982042,Correct
4,404,60,B,48.35252718282803,36.85006274072329,2.4176263591414013,0.5788394319528962,B,738.179100000707,Correct
4,404,61,A,15.944660992003474,31.351159110915948,0.7972330496001737,0.49246285572189125,A,980.6595000009111,Correct
4,404,62,A,37.21618775048766,64.64498399545366,1.8608093875243832,1.015441034057735,A,609.1243999981089,Correct
4,404,63,A,58.23036487175169,70.65252720719691,2.911518243587585,1.109807302158414,A,777.9449999979988,Correct
4,404,64,B,64.3212187156431,52.104945935311044,3.216060935782155,0.8184625768303326,B,788.4381999974721,Correct
4,404,65,B,67.40431556105202,38.542593452532714,3.370215778052601,0.6054256422038742,B,536.0749999999825,Correct
4,404,66,B,53.19115117296256,22.703260104847335,2.659557558648128,0.3566219757896331,B,475.94000000026426,Correct
4,404,67,A,68.33997124060109,83.24443040554826,3.416998562030054,1.307600455071686,A,477.3365000000922,Correct
4,404,68,B,82.7392116602864,62.834316246464795,4.13696058301432,0.9869991315661579,B,854.9893000017619,Correct
4,404,69,B,71.86297256158949,49.07328997904274,3.593148628079474,0.7708414364282115,B,548.2539000004181,Correct
4,404,70,A,21.752907704230175,52.76479768765979,1.0876453852115089,0.8288275039185184,A,579.9772999998822,Correct
4,404,71,A,51.59599621608533,79.80603069691765,2.579799810804267,1.2535901987479898,A,541.3952000017161,Correct
4,404,72,A,55.12688217073554,66.89223764507803,2.7563441085367772,1.0507408118397987,A,658.6454000025697,Correct
4,404,73,B,57.952271025170596,47.71885914639075,2.8976135512585297,0.7495660866599364,B,697.8751999995438,Correct
4,404,74,B,71.14529535469161,51.87151328908703,3.5572647677345803,0.8147958253979055,B,699.7660999986692,Correct
4,404,75,A,34.14209495474402,50.18351264502052,1.7071047477372008,0.7882807732846349,A,762.1600999991642,Correct
4,404,76,B,77.66052412437513,51.925833798175994,3.8830262062187564,0.8156490899593714,B,585.0747999975283,Correct
4,404,77,B,60.15310777433513,43.03205422505554,3.0076553887167568,0.6759459271115605,B,666.4666000033321,Correct
4,404,78,A,46.05889820469337,64.03255594930056,2.3029449102346686,1.0058210368045002,A,525.799700000789,Correct
4,404,79,B,65.44467394979817,46.79414015947994,3.272233697489909,0.7350406347803665,B,817.1374000012293,Correct
4,404,80,B,49.950192911431934,42.1643852628751,2.4975096455715966,0.6623166149248907,B,745.6807000016852,Correct
4,404,81,B,80.56653107695473,59.2248413753249,4.028326553847736,0.9303016328737077,B,598.941800002649,Correct
4,404,82,B,58.89864266194637,48.52332757739669,2.9449321330973186,0.7622026472244025,B,2316.4646000004723,Correct
4,404,83,A,41.0352584442934,62.271019962909875,2.0517629222146696,0.9781508942351052,A,1077.5983999992604,Correct
4,404,84,B,45.064423776555884,28.92506387977277,2.253221188827794,0.4543538409465481,B,399.5524999991176,Correct
4,404,85,B,53.275878594290006,23.665383913980747,2.6637939297145006,0.3717349812427199,B,425.25450000175624,Correct
4,404,86,B,50.43017466233391,28.985835355071522,2.5215087331166957,0.45530843704827995,B,476.83600000164006,Correct
4,404,87,A,67.98602426790467,82.09041854294934,3.3993012133952334,1.2894732791232049,A,496.7011000007915,Correct
4,404,88,A,22.054463732446763,51.61780243294327,1.1027231866223381,0.8108105445889198,A,541.1127000006672,Correct
4,404,89,B,47.80804970796158,18.43445119688802,2.390402485398079,0.2895676822655149,B,483.47239999930025,Correct
4,404,90,B,73.92658043780195,62.06458124390612,3.6963290218900973,0.9749081624199116,B,1204.6085000001767,Correct
4,404,91,A,30.03377461027486,52.303701739623975,1.501688730513743,0.8215846257037718,A,541.1931999988155,Correct
4,404,92,A,51.23933504259314,63.559327981689535,2.561966752129657,0.9983875892719,A,664.8165999977209,Correct
4,404,93,B,42.0726596930774,32.66705126669036,2.10363298465387,0.5131328413693778,B,414.6101999976963,Correct
4,404,94,A,26.693893879689334,54.89879015888404,1.3346946939844668,0.8623481792705887,A,508.15439999860246,Correct
4,404,95,B,51.793226497873576,26.175385937702508,2.5896613248936786,0.41116200083381893,B,410.2430999992066,Correct
4,404,96,A,28.473455431244894,48.20073900816311,1.4236727715622448,0.757135437828221,A,1037.2649999990244,Correct
4,404,97,A,29.490494767341488,46.932301472427795,1.4745247383670743,0.7372108676092028,A,715.9339999998338,Correct
4,404,98,B,48.2494364368864,38.64677830693038,2.41247182184432,0.6070621740698293,B,935.8217000008153,Correct
4,404,99,A,37.990326703625335,59.77225551332658,1.8995163351812667,0.938900394045794,A,1035.4024000007485,Correct
4,404,100,A,53.56470046868687,82.74807001469897,2.6782350234343437,1.2998036442845606,A,593.4642999964126,Correct
4,404,101,A,53.87532168297772,78.59905118498695,2.693766084148886,1.2346310089094157,A,634.067099999811,Correct
4,404,102,B,43.53061662992252,31.913902663769964,2.176530831496126,0.5013024107793972,B,585.5292000014742,Correct
4,404,103,B,48.205123499769215,21.245313321844538,2.410256174988461,0.3337206012756008,B,483.48149999947054,Correct
4,404,104,A,66.55277231406923,89.0663032800469,3.3276386157034614,1.399050220334979,A,493.42109999997774,Correct
4,404,105,B,56.25150898561203,42.22443845416099,2.8125754492806014,0.6632599282477325,B,630.2633999985119,Correct
4,404,106,B,56.56687473741306,29.784363077955952,2.8283437368706528,0.4678516811877875,B,388.08919999792124,Correct
4,404,107,B,38.06979066116515,22.28330715502122,1.9034895330582575,0.3500253702794977,B,602.9921999979706,Correct
4,404,108,A,64.96155701249549,77.1222639705942,3.248077850624775,1.2114336895911575,A,1277.2005000006175,Correct
4,404,109,A,21.180036904356594,41.92112031050135,1.0590018452178298,0.6584954179886247,A,612.6573000001372,Correct
4,404,110,A,34.81015688998996,66.29575033548937,1.7405078444994981,1.0413712110909825,A,1016.2921000010101,Correct
4,404,111,B,68.93446081766052,60.399249278798415,3.4467230408830263,0.9487491890830586,B,1670.3527999998187,Correct
4,404,112,A,57.62559166786538,67.71515162410736,2.881279583393269,1.0636671143950733,B,1087.7819999986968,Incorrect
4,404,113,A,30.112993647323876,39.82496870317375,1.505649682366194,0.6255691455366704,A,1375.7790000017849,Correct
4,404,114,A,27.12891381906319,39.959875499427454,1.3564456909531595,0.6276882565368203,A,1011.0964000014064,Correct
4,404,115,B,35.484248277723594,18.989917617394813,1.7742124138861797,0.29829292839541466,B,551.8378000015218,Correct
4,404,116,A,51.79780669138073,70.45835372161503,2.5898903345690365,1.106757232179284,A,1399.0350999993098,Correct
4,404,117,A,15.59280524924852,36.50347873615379,0.7796402624624261,0.5733953031398598,A,1160.9564999998838,Correct
4,404,118,A,42.99018898651457,58.901373284329786,2.1495094493257283,0.9252206079820029,A,1571.1848000028112,Correct
4,404,119,A,56.69325096627594,84.55677638152557,2.8346625483137973,1.3282147374571782,A,534.7920000021986,Correct
4,404,120,B,77.4114932301464,49.10846885471664,3.87057466150732,0.7713940249151048,B,1182.77450000096,Correct
4,404,121,B,60.901561346189325,32.29253042200956,3.0450780673094666,0.5072498816980507,B,453.7080000009155,Correct
4,404,122,B,46.833967284721496,22.856663472166964,2.3416983642360747,0.3590316302486695,B,444.0901000016311,Correct
4,404,123,B,83.92457258373281,67.1076223982453,4.19622862918664,1.0541240676310264,B,2230.864400000428,Correct
4,404,124,A,26.706876185530632,42.8008284169461,1.3353438092765315,0.6723138406111757,A,1299.5684999987134,Correct
4,404,125,A,62.255346658680864,80.45017587720541,3.1127673329340433,1.2637084075791767,A,645.7904999988386,Correct
4,404,126,A,39.391907902912536,52.89375118595339,1.9695953951456266,0.8308531007329879,A,892.161899999337,Correct
4,404,127,B,34.56314586483249,13.757063344231828,1.7281572932416247,0.2160954456860407,B,643.8845000011497,Correct
4,404,128,B,50.02800385102677,39.450075735753366,2.5014001925513383,0.6196803405750188,B,796.1544000027061,Correct
4,404,129,B,56.72931780605884,38.68465325771608,2.836465890302942,0.6076571124055464,B,494.982300002448,Correct
4,404,130,B,83.5523530315298,59.70403337077828,4.17761765157649,0.9378287631365846,B,641.2208000001556,Correct
4,404,131,A,11.881428013221868,30.537656962820083,0.5940714006610933,0.4796843938612038,A,639.5592999979272,Correct
4,404,132,B,67.39449766773615,35.23434500361562,3.369724883386807,0.5534597970870353,B,536.1209000002418,Correct
4,404,133,B,58.881349759009815,40.57044316146682,2.9440674879504907,0.6372790309447321,B,408.9578999992227,Correct
4,404,134,B,75.24223240798642,50.560005104349784,3.7621116203993212,0.7941947030064387,B,516.5625999979966,Correct
4,404,135,B,51.387462039832826,36.561012605356936,2.5693731019916415,0.574299043043966,B,434.3503000018245,Correct
4,404,136,A,65.62528896185857,84.21447393573939,3.2812644480929287,1.3228378632122397,A,539.4933000025048,Correct
4,404,137,B,60.10076642170328,45.01087954217268,3.005038321085164,0.707029242506524,B,442.41300000066985,Correct
4,404,138,A,37.288559561883524,63.092571619227215,1.8644279780941762,0.9910557974752606,A,979.772700000467,Correct
4,404,139,A,41.51283554370791,51.492113383571215,2.0756417771853957,0.8088362256181999,A,933.7615000004007,Correct
4,404,140,B,64.17329310895757,42.048136746432085,3.2086646554478784,0.6604905874986504,B,489.89070000243373,Correct
4,404,141,B,57.96454752495546,44.935567776699685,2.898227376247773,0.7058462480608299,B,772.9478999972343,Correct
4,404,142,B,62.95254334259795,43.387084096838485,3.1476271671298974,0.6815227232965516,B,507.5555999974313,Correct
4,404,143,A,48.15273657526436,57.538853748361184,2.407636828763218,0.903818201159145,B,1825.7015999988653,Incorrect
4,404,144,B,58.90793370405402,30.833667846015203,2.945396685202701,0.4843341219413459,B,506.7799999997078,Correct
4,404,145,B,71.46641107868265,38.54330083756262,3.5733205539341326,0.6054367537819403,B,605.5716999981087,Correct
4,404,146,B,61.87751526080411,31.90101704828224,3.093875763040206,0.5011000040046312,B,553.1904000017676,Correct
4,404,147,B,76.46189376670031,47.706974846322765,3.823094688335016,0.7493794085110033,B,780.7467999991786,Correct
4,404,148,A,27.602557630872894,43.94029202173901,1.3801278815436446,0.6902124930604273,A,1239.2825999995694,Correct
4,404,149,A,44.189773185856524,66.63727045365913,2.209488659292826,1.0467357965624584,A,1142.6912999995693,Correct
4,404,150,A,23.701334947889855,52.01364936458576,1.1850667473944927,0.8170284936508901,A,1023.3178999988013,Correct
4,404,151,A,39.23850138890393,67.7565342869488,1.9619250694451964,1.0643171517429164,A,732.842299999902,Correct
4,404,152,A,50.303876674076,75.39481023597861,2.5151938337038002,1.1842989097807348,A,565.4240999974718,Correct
4,404,153,B,60.177343293387246,50.9782334730683,3.008867164669362,0.8007642188598834,B,948.6160000014934,Correct
4,404,154,B,47.670654630918726,25.729760163876946,2.3835327315459365,0.4041621275473156,B,415.65149999951245,Correct
4,404,155,A,44.900577569694654,63.78697243285409,2.245028878484733,1.0019634199489453,A,1016.8077000016638,Correct
4,404,156,B,72.63838464420655,48.60551910489461,3.6319192322103278,0.7634937087192762,B,603.847999998834,Correct
4,404,157,A,24.91221954158423,36.955672429335635,1.2456109770792114,0.5804983450623585,B,1409.3723000005411,Incorrect
4,404,158,A,45.09055248277113,72.13971964661111,2.2545276241385563,1.1331680663691037,A,847.4731999995129,Correct
4,404,159,A,60.11661566301778,85.3515656143843,3.0058307831508895,1.3406992575326846,A,504.28649999958,Correct
4,404,160,B,45.993557883707965,27.595931047835307,2.2996778941853986,0.4334758712442494,B,467.89799999896786,Correct
4,404,161,B,62.53294329456702,44.59758899687503,3.126647164728351,0.700537289801998,B,489.4281000015326,Correct
4,404,162,A,21.558663085697294,38.85657534762582,1.0779331542848647,0.6103576582787977,A,894.1483000016888,Correct
4,404,163,A,21.17867856989914,44.55459732754865,1.058933928494957,0.6998619782393912,A,1615.8422999978939,Correct
4,404,164,B,88.98058437993318,63.74148526402212,4.449029218996659,1.0012489091717698,B,723.9688000008755,Correct
4,404,165,B,42.75768074409595,22.884313191771415,2.1378840372047976,0.3594659510285853,B,482.87209999762126,Correct
4,404,166,A,49.11870856081097,63.15497193180643,2.4559354280405485,0.9920359792931633,A,1236.8118000013055,Correct
4,404,167,B,53.80556350817732,40.63794959634987,2.690278175408866,0.6383394195442254,B,968.9677999995183,Correct
4,404,168,A,63.935418998839395,74.62078009011299,3.19677094994197,1.1721404726811924,A,1730.3575000005367,Correct
4,404,169,B,43.79366626521843,15.139773147766462,2.1896833132609212,0.2378150004901957,B,545.5771000015375,Correct
4,404,170,A,35.9429738295313,44.32603913593688,1.7971486914765649,0.6962717945609649,B,2025.613500001782,Incorrect
4,404,171,B,76.79067118182383,47.627393540146336,3.8395335590911914,0.7481293482767685,B,593.6258000001544,Correct
4,404,172,A,40.16752158444476,65.78890828579452,2.0083760792222383,1.0334097547917236,A,825.6594999984372,Correct
4,404,173,B,46.02333507162502,38.64326033318024,2.301166753581251,0.6070069138673845,B,1271.9939000016893,Correct
4,404,174,B,83.54373273843808,66.01825601888942,4.1771866369219035,1.0370123405587657,B,1123.0888000027335,Correct
4,404,175,B,53.51748810177494,27.90985138408928,2.675874405088747,0.438406920355189,B,485.2437999979884,Correct
4,404,176,A,33.739246368306546,43.3158685831954,1.6869623184153273,0.6804040726241379,A,1304.0303999987373,Correct
4,404,177,A,65.22326907943525,87.20836477655492,3.2611634539717627,1.369865790568019,A,590.7048000008217,Correct
4,404,178,A,35.694066251461905,46.35179478995637,1.7847033125730951,0.728092289964143,A,753.2117000009748,Correct
4,404,179,B,61.42173523919861,50.493497260523384,3.0710867619599305,0.7931500002385832,B,933.348800001113,Correct
4,404,180,A,40.40261994758736,71.86650486127448,2.020130997379368,1.1288764185567752,A,560.0911000001361,Correct
4,404,181,B,87.35046323778357,68.36698780965287,4.367523161889179,1.073906133254342,B,908.8315000008151,Correct
4,404,182,A,52.699066101790244,77.69418633790873,2.634953305089512,1.2204174251290527,B,848.4282999997959,Incorrect
4,404,183,A,63.233924461671435,81.31819326287713,3.161696223083572,1.2773431927892491,A,488.73579999781214,Correct
4,404,184,A,38.424341543036796,56.59014221781276,1.92121707715184,0.8889158752854109,A,891.5147999978217,Correct
4,404,185,A,31.042338055970497,58.094449260679795,1.5521169027985249,0.9125454750584832,A,564.0959000011208,Correct
4,404,186,A,47.63403238570818,60.95341448457247,2.381701619285409,0.9574539957797328,A,711.1129999975674,Correct
4,404,187,A,17.296332381289805,38.785831285750234,0.8648166190644901,0.6092464131534305,A,560.5088999982399,Correct
4,404,188,B,45.49479490898938,22.95383195548627,2.2747397454494687,0.3605579492154515,B,492.9210000009334,Correct
4,404,189,B,51.80176729746425,31.133923375879903,2.5900883648732127,0.4890505247754591,B,598.9040999993449,Correct
4,404,190,A,59.63505496008848,72.4320675108014,2.9817527480044244,1.137760255881268,A,1239.7448000010627,Correct
4,404,191,A,20.432445005944974,43.73872090244964,1.0216222502972487,0.6870462213227506,A,790.9233000027598,Correct
4,404,192,A,59.28239660702995,79.40794335980627,2.964119830351498,1.2473370574792089,A,538.2762999979605,Correct
4,404,193,A,54.38830289552011,73.9471082290703,2.7194151447760055,1.1615584598332829,A,579.6524999968824,Correct
4,404,194,B,53.82859992653852,44.990567116191166,2.691429996326926,0.7067101756653233,B,876.2912000020151,Correct
4,404,195,A,48.37167325464294,67.51473564550129,2.418583662732147,1.060518987564819,A,767.2567000008712,Correct
4,404,196,A,67.4111526382693,84.85039458771502,3.370557631913465,1.332826881454803,A,479.031799997756,Correct
4,404,197,A,54.994189407519116,79.85310927604382,2.7497094703759557,1.2543297073396114,A,516.269600000669,Correct
4,404,198,A,43.03799245666142,50.54104161696221,2.151899622833071,0.7938968252431223,A,698.6445999973512,Correct
4,404,199,B,47.76899248063203,31.151255072116,2.3884496240316015,0.489322770423307,B,744.7161000018241,Correct
4,404,200,A,50.63255955915707,81.55016311996044,2.5316279779578537,1.2809869667835851,A,395.22569999826374,Correct
4,404,201,A,20.535064233553616,33.84352254613728,1.0267532116776807,0.531612809012727,A,549.9664999988454,Correct
4,404,202,A,24.806598360480415,50.729831743456366,1.2403299180240208,0.796862333615444,A,572.87919999726,Correct
4,404,203,A,60.569901670102276,69.8925075796922,3.028495083505114,1.0978689417666496,A,1615.6716000004963,Correct
4,404,204,B,39.28145909278287,22.593255293206187,1.9640729546391436,0.35489402424907635,B,377.0693999977084,Correct
4,404,205,A,38.163131162875736,56.58878899864974,1.908156558143787,0.8888946189685046,A,821.5091000020038,Correct
4,404,206,A,25.197864622784657,49.32511563907422,1.259893231139233,0.7747971046459129,A,463.1702000006044,Correct
4,404,207,B,67.28975299771696,34.0538160381531,3.364487649885848,0.5349160914608002,B,532.1786000022257,Correct
4,404,208,B,66.73249044664952,38.533823612871096,3.3366245223324764,0.6052878858846037,B,424.01170000084676,Correct
4,404,209,A,53.24917767018832,61.00668345918526,2.662458883509416,0.9582907428762717,A,2710.661599998275,Correct
4,404,210,B,75.95204839698552,57.38715537686575,3.7976024198492757,0.9014353287118871,B,903.8043000000471,Correct
4,404,211,A,66.377218336337,81.73428354867042,3.31886091681685,1.2838791237146403,A,1067.913300001237,Correct
4,404,212,A,35.579737308714435,58.14145037476622,1.778986865435722,0.9132837668321054,A,597.6202000019839,Correct
4,404,213,A,56.285481200574125,83.21419628157435,2.814274060028706,1.3071255385628653,A,490.8897000022989,Correct
4,404,214,B,76.44674180680876,50.98622155948471,3.822337090340438,0.8008896954278936,B,1539.1648000004352,Correct
4,404,215,A,57.93594295587397,75.43070570522657,2.896797147793699,1.1848627544931676,A,654.7840999992331,Correct
4,404,216,B,43.606323598346506,30.713058872100817,2.1803161799173254,0.4824396006093138,B,558.7875999990501,Correct
4,404,217,B,71.14889852656242,42.72361308265592,3.557444926328121,0.671100944976423,B,935.9332000021823,Correct
4,404,218,A,35.88181918622065,46.03458690063556,1.7940909593110326,0.7231096000903879,A,1336.7508000010275,Correct
4,404,219,A,27.50847215630531,60.552527390460746,1.3754236078152655,0.9511568760308311,A,464.8021000029985,Correct
4,404,220,A,14.440264115942842,38.09270690263894,0.722013205797142,0.5983588408033984,A,593.6299999993935,Correct
4,404,221,A,37.7508167850469,45.50178464285593,1.8875408392523452,0.7147403617961052,A,683.8286999991396,Correct
4,404,222,B,78.371391156335,64.7679258907732,3.91856955781675,1.0173722008335062,B,720.3006999989157,Correct
4,404,223,A,22.327645313636967,48.06898604160098,1.1163822656818483,0.7550658670690197,A,931.8612000024586,Correct
4,404,224,A,63.43859357184738,77.02549379127453,3.171929678592369,1.2099136271689712,A,1653.259099999559,Correct
4,404,225,B,44.77298107488985,36.83909504622218,2.2386490537444925,0.5786671518105386,B,1342.6504000017303,Correct
4,404,226,B,88.89516375330822,65.47542803541384,4.444758187665411,1.0284856185335167,A,567.2369000021718,Incorrect
4,404,227,A,28.386575672513523,44.040160982939945,1.419328783625676,0.6917812310345799,A,649.7750000016822,Correct
4,404,228,B,78.575143861385,53.9693458403686,3.9287571930692504,0.8477485020557441,B,1277.6224999979604,Correct
4,404,229,B,50.58361275956119,29.183956712970613,2.5291806379780595,0.458420520060755,B,382.76570000016363,Correct
4,404,230,A,54.82655122196441,77.71753385368456,2.7413275610982204,1.2207841670492572,A,934.7929000032309,Correct
4,404,231,B,61.55229019282358,39.45737409775643,3.077614509641179,0.6197949829772789,B,902.7577000015299,Correct
4,404,232,B,46.10796317484483,17.487580984633766,2.3053981587422414,0.27469427975190996,B,442.9115000020829,Correct
4,404,233,A,31.521526779346296,47.88096246469576,1.5760763389673147,0.7521123996294844,A,916.0276000002341,Correct
4,404,234,A,30.75155654992642,50.06743713857979,1.537577827496321,0.7864574634931553,A,472.2284999988915,Correct
4,404,235,B,34.33202295435284,15.393161756170638,1.716601147717642,0.2417952194435252,B,667.0036000032269,Correct
4,404,236,B,69.37921766587431,44.45727076127941,3.4689608832937155,0.6983331761114384,B,507.57050000174786,Correct
4,404,237,A,45.76539622905188,57.4031839802469,2.288269811452594,0.9016871054250348,A,887.9970000016328,Correct
4,404,238,A,34.616149327968266,49.40281339532587,1.7308074663984132,0.7760175781471159,A,675.2917999983765,Correct
4,404,239,B,65.90979265978879,49.770325295148034,3.2954896329894394,0.7817904415700566,B,849.3762999969476,Correct
4,404,240,B,34.14531948816067,15.045867512469322,1.7072659744080338,0.23633993422029478,B,486.1062999989372,Correct
4,404,241,A,43.13854918399576,50.586456639748334,2.156927459199788,0.7946102027528599,A,773.0335000014747,Correct
4,404,242,A,61.034472319689684,83.07108340683783,3.0517236159844843,1.3048775267833335,A,542.1679999999469,Correct
4,404,243,A,47.594865859729296,55.47116708433647,2.379743292986465,0.8713390549910169,A,1155.14020000046,Correct
4,404,244,B,78.09133162150698,61.74512636358648,3.904566581075349,0.9698901768940836,B,595.947800000431,Correct
4,404,245,A,34.6039253809696,58.603218962101685,1.73019626904848,0.9205372108402636,A,571.991099997831,Correct
4,404,246,A,10.886522548139741,32.496287829880515,0.544326127406987,0.5104504955764602,A,604.5615000002726,Correct
4,404,247,A,28.566693090453086,44.57322221153397,1.4283346545226545,0.7001545372329024,A,950.7574999988719,Correct
4,404,248,B,75.02515231806632,63.14226767944661,3.7512576159033157,0.9918364213637485,B,776.1951000029512,Correct
4,404,249,A,58.06832113929897,73.04608589373177,2.9034160569649488,1.1474052340861838,A,2274.9350999984017,Correct
4,404,250,A,68.50468135474362,85.33145047408908,3.4252340677371813,1.3403832896477976,A,500.88440000035916,Correct
4,404,251,B,80.02110940400613,51.94770091293661,4.001055470200306,0.8159925777948072,B,1000.2395000010438,Correct
4,404,252,A,18.374580909557615,33.101094315069666,0.9187290454778807,0.5199507736300286,A,535.1386000002094,Correct
4,404,253,A,68.13873548540832,87.57510734918137,3.406936774270416,1.3756265694276284,A,542.071699997905,Correct
4,404,254,A,45.475388006112915,70.03458846169707,2.2737694003056457,1.10010074304226,A,585.1320999972813,Correct
4,404,255,B,59.88684387846311,37.430473505554275,2.9943421939231554,0.5879565029271835,B,621.5192999989085,Correct
4,404,256,B,79.1586179404756,47.559934170291505,3.95793089702378,0.7470696989730099,B,581.0131999969599,Correct
4,404,257,A,29.670870667068904,51.16167651237253,1.483543533353445,0.803645735383035,A,855.4669000004651,Correct
4,404,258,A,39.89679000007901,60.33417211384929,1.9948395000039505,0.9477269593664555,B,755.6619000024511,Incorrect
4,404,259,B,43.81994337316311,33.18626312558667,2.1909971686581557,0.5212886021772046,B,911.2606999988202,Correct
4,404,260,A,24.08321067529546,51.76081319008515,1.2041605337647732,0.8130569523090259,A,1594.005399998423,Correct
4,404,261,B,55.42496900127772,30.90904732501255,2.7712484500638856,0.48551818002859337,B,611.1506000015652,Correct
4,404,262,A,54.22716710602121,72.3318722721981,2.7113583553010607,1.1361863927536637,A,1307.4642999999924,Correct
4,404,263,B,48.834248522863874,29.286680367114638,2.4417124261431935,0.4600340994467989,B,765.0820999988355,Correct
4,404,264,B,85.6320464681157,61.67695640676912,4.281602323405785,0.968819365716419,B,984.1655999989598,Correct
4,404,265,A,24.764042203559693,48.34170024265975,1.2382021101779848,0.759349651721899,A,836.5668000005826,Correct
4,404,266,B,58.768101404076624,46.042430715733424,2.9384050702038316,0.7232328104498259,B,1918.807399997604,Correct
4,404,267,B,42.833492202954105,26.37985268379687,2.1416746101477053,0.41437375697098616,B,584.7830999991857,Correct
4,404,268,B,61.83929474742314,38.12521766782981,3.091964737371157,0.5988695187088295,B,667.8215000029013,Correct
4,404,269,A,52.81536657621658,74.45851186625276,2.6407683288108292,1.1695915693812406,A,825.6484999983513,Correct
4,404,270,A,36.77617973977377,63.31105216624688,1.8388089869886883,0.9944876818826068,A,586.4710999994713,Correct
4,404,271,B,59.28825072211257,44.509645155637415,2.9644125361056286,0.6991558711741951,A,2688.8628999986395,Incorrect
4,404,272,B,56.12876369236631,38.82950413958723,2.8064381846183157,0.6099324247373085,B,480.58990000208723,Correct
4,404,273,A,57.878103852498896,81.60960888189395,2.8939051926249446,1.281920738628472,A,1219.9131000015768,Correct
4,404,274,B,69.17353206940784,60.10043743244927,3.458676603470392,0.9440554635765781,B,1160.859799998434,Correct
4,404,275,A,62.32981437194587,75.6606640883648,3.1164907185972934,1.1884749323286596,A,1259.9469000015233,Correct
4,404,276,A,15.9823107207697,35.20470192523133,0.7991155360384851,0.552994164700626,A,589.3452999989677,Correct
4,404,277,A,68.8543508133032,83.83651706870552,3.44271754066516,1.3169009306280028,A,594.0403000022343,Correct
4,404,278,B,66.5332734497385,33.758787849444246,3.3266636724869247,0.5302817995095521,B,674.3721999991976,Correct
4,404,279,A,27.061756338539467,49.85278220921508,1.3530878169269733,0.7830856717474103,A,538.6475000013888,Correct
4,404,280,A,17.798900398596153,39.58395781600641,0.8899450199298076,0.62178335537387,A,604.3226000001596,Correct
4,404,281,B,42.38642629912354,18.20817507114735,2.119321314956177,0.2860133451939666,B,524.0741000015987,Correct
4,404,282,B,50.0805748450767,42.87779138123098,2.5040287422538348,0.6735227720271548,B,2389.978399998654,Correct
4,404,283,B,62.32049415889031,30.57242306738239,3.116024707944516,0.48023049855463823,B,446.5740999985428,Correct
4,404,284,B,53.11665050920426,25.39880767770283,2.655832525460213,0.3989635380510563,B,430.89250000048196,Correct
4,404,285,A,21.047915113702963,45.804538523950725,1.0523957556851482,0.7194960086395715,A,500.1224999978149,Correct
4,404,286,A,41.84508023046811,49.09407236375013,2.092254011523406,0.7711678853638155,A,677.5186999984726,Correct
4,404,287,B,43.74341004893222,14.477202225184872,2.187170502446611,0.227407360775873,B,533.5494999999355,Correct
4,404,288,A,53.123473139940614,80.75883215324369,2.656173656997031,1.2685567690256077,A,612.7478999987943,Correct
4,404,289,B,47.67270620395433,36.68324754709235,2.3836353101977164,0.5762191050188056,B,1272.6151999995636,Correct
4,404,290,B,64.6727676663883,45.83856458448081,3.2336383833194144,0.720030488748531,B,568.3650999999372,Correct
4,404,291,A,47.11318726120185,75.48972155012747,2.355659363060093,1.1857897732170977,A,631.2868999993952,Correct
4,404,292,A,55.395494861900815,78.98887096884758,2.769774743095041,1.2407542837554182,A,628.5157999991497,Correct
4,404,293,A,46.060140546080945,73.97192387331802,2.3030070273040475,1.1619482630615965,A,738.0326999991667,Correct
4,404,294,B,56.98746392979638,30.584714015902517,2.849373196489819,0.4804235643225206,B,543.3016999995743,Correct
4,404,295,B,36.221106562988226,26.568732733251856,1.811055328149411,0.4173406778498735,B,429.368400000385,Correct
4,404,296,A,38.361246101247836,54.435316683861714,1.918062305062392,0.8550679549492692,A,563.7631000026886,Correct
4,404,297,A,60.56225071471916,80.09318513949844,3.0281125357359584,1.2581008101842774,A,658.1144000010681,Correct
4,404,298,A,25.19401396730777,46.545908203364874,1.2597006983653884,0.73114141633178,A,1101.4635999999882,Correct
4,404,299,A,45.49164467397101,72.99311774669881,2.2745822336985504,1.1465732123782186,A,682.1480000035081,Correct
4,404,300,A,20.833679392033947,49.95751693025152,1.0416839696016973,0.7847308408983296,A,550.0221999973292,Correct
4,404,301,A,11.343867606613365,33.55409759241973,0.5671933803306682,0.5270665324709038,A,503.18000000333996,Correct
4,404,302,B,67.40027918298752,37.9012345034285,3.3700139591493756,0.5953511993897748,B,574.5963000008487,Correct
4,404,303,B,50.8830725086679,38.93263925876781,2.544153625433395,0.6115524674010325,B,454.6263000011095,Correct
4,404,304,B,56.89461879535094,29.696298619084814,2.8447309397675467,0.46646836790262786,B,447.7502000008826,Correct
4,404,305,B,41.50626443888845,20.15992414092065,2.0753132219444224,0.3166713478902192,B,452.44690000254195,Correct
4,404,306,B,64.51327409899102,34.052133538931265,3.225663704949551,0.5348896628248253,B,388.772100002825,Correct
4,404,307,B,62.82779021312452,46.92227182018717,3.1413895106562264,0.737053322200217,B,643.6314000020502,Correct
4,404,308,B,71.60699356230647,40.794027437679574,3.5803496781153235,0.640791084542773,B,459.4026999984635,Correct
4,404,309,B,46.96338724572898,18.01876327621552,2.3481693622864492,0.2830380716766611,B,502.18690000110655,Correct
4,404,310,B,38.49273832009341,14.719677546357048,1.9246369160046704,0.23121615421422967,B,636.0061000013957,Correct
4,404,311,A,51.40948078523444,61.22241774271101,2.570474039261722,0.9616794890775314,A,1028.8235000007262,Correct
4,404,312,A,57.871146608303675,72.73155997155479,2.8935573304151836,1.1424646724538097,A,466.63970000008703,Correct
4,404,313,B,53.808046565299904,34.41139660510989,2.690402328264995,0.5405329538718899,B,1647.904400000698,Correct
4,404,314,A,24.783426988786502,50.794224220359425,1.239171349439325,0.7978738082773694,A,612.3428999999305,Correct
4,404,315,A,31.0274982248578,61.42639316747558,1.55137491124289,0.9648835275572978,A,423.3897000012803,Correct
4,404,316,A,64.068214299628,80.53981828218662,3.2034107149813997,1.265116507183872,A,699.5375000005879,Correct
4,404,317,B,33.491400309295884,13.38328605316958,1.6745700154647942,0.21022416572764147,B,477.22430000067106,Correct
4,404,318,A,32.27386462267415,55.479039260882985,1.6136932311337073,0.8714627108510484,A,1083.3045999970636,Correct
4,404,319,A,66.7893800556906,89.93263257472974,3.3394690027845297,1.4126584890738052,A,498.17520000215154,Correct
4,404,320,A,19.316758445859808,32.71104707434458,0.9658379222929904,0.5138239258999541,A,752.0038000002387,Correct
4,404,321,B,60.29763619451791,31.691259628336773,3.014881809725895,0.49780514215694804,B,999.2046999977902,Correct
4,404,322,B,69.28100629599706,41.775935888362824,3.4640503147998527,0.6562148664185941,B,737.1402000026137,Correct
4,404,323,A,54.06765470941331,63.121446128588445,2.703382735470665,0.9915093572076867,B,10772.48630000031,Incorrect
4,404,324,B,69.47844331817062,40.54271918880829,3.473922165908531,0.6368435438005704,B,506.33230000312324,Correct
4,404,325,B,35.13040207858214,19.307354305657444,1.7565201039291067,0.3032792122345434,B,380.77290000001085,Correct
4,404,326,B,80.65352807926027,57.84268729142554,4.032676403963013,0.908590807293171,B,640.1587999971525,Correct
4,404,327,B,30.96988459582717,10.94716292255372,1.5484942297913584,0.17195763307572667,B,629.1487000016787,Correct
4,404,328,A,49.716488488244224,72.79748401743073,2.485824424412211,1.1435002049449037,A,869.9789999991481,Correct
4,404,329,A,30.63162662163611,45.7327250570151,1.5315813310818056,0.7183679653388024,A,715.2195000016945,Correct
4,404,330,A,63.233070918668275,81.39861718331743,3.1616535459334134,1.2786064887773896,A,443.561399999453,Correct
4,404,331,A,55.5130997861757,76.99627927998688,2.775654989308785,1.2094547266987739,A,909.4869000000472,Correct
4,404,332,B,84.78978131182538,67.54491761665665,4.239489065591269,1.0609930848590814,A,1263.1527000012284,Incorrect
4,404,333,B,77.33588906332722,54.092825448508144,3.866794453166361,0.849688115204741,B,447.45059999695513,Correct
4,404,334,A,23.472681093593174,46.87830096367358,1.1736340546796586,0.7363626296012413,A,900.945800000045,Correct
4,404,335,B,79.63971445660118,49.80737267351309,3.981985722830059,0.7823723804285887,B,778.505899997981,Correct
4,404,336,A,46.105814815729,58.33817347960714,2.30529074078645,0.9163738861369034,A,908.1842000014149,Correct
4,404,337,A,64.97575300763887,77.55993636566848,3.248787650381944,1.2183086314963794,A,1675.3972999977123,Correct
4,404,338,A,53.196316848130564,66.08531972103002,2.659815842406528,1.0380657747286028,A,610.2854999990086,Correct
4,404,339,A,41.286476828586366,57.438587840817405,2.064323841429318,0.90224322796642,A,633.5041999991518,Correct
4,404,340,B,62.459868686546685,49.175625971344196,3.122993434327334,0.7724489264362718,A,1525.0730000007025,Incorrect
4,404,341,A,36.21899078193469,65.1606634249013,1.8109495390967345,1.0235413075935353,A,554.092700000183,Correct
4,404,342,A,57.81299232376589,75.41441873013852,2.8906496161882944,1.1846069192867383,A,572.8678999985277,Correct
4,404,343,A,51.30776602061836,61.884902042099846,2.565388301030918,0.9720857681179242,A,921.5609999992012,Correct
4,404,344,B,64.34680755760505,39.742472226944095,3.2173403778802525,0.6242732939183198,B,380.8719000007841,Correct
4,404,345,B,32.48151646161019,11.415881783283048,1.6240758230805097,0.17932025172305788,B,459.5573999977205,Correct
4,404,346,A,52.97858986768999,67.13573419797207,2.6489294933845,1.0545656467485305,A,769.6259999975155,Correct
4,404,347,A,17.491128167197633,44.93660195121183,0.8745564083598816,0.7058624928360793,A,610.4699999996228,Correct
4,404,348,A,17.80729893421083,37.82847034631473,0.8903649467105416,0.5942082226826084,A,455.1802999994834,Correct
4,404,349,A,60.80018512795613,77.87337595712906,3.0400092563978065,1.223232129085763,A,617.9331000021193,Correct
4,404,350,B,57.32378488525975,42.618890260642786,2.8661892442629875,0.6694559627349247,B,474.20689999853494,Correct
4,404,351,B,87.56259045352158,65.11328159337657,4.378129522676079,1.0227970355243767,B,982.1020999988832,Correct
4,404,352,B,44.49993963338294,32.56379122239971,2.224996981669147,0.5115108363866135,B,500.21019999985583,Correct
4,404,353,A,32.917340868951186,48.132863922133396,1.6458670434475593,0.7560692584700573,A,1053.2821000015247,Correct
4,404,354,B,44.92656384375158,20.156567261618637,2.246328192187579,0.31661861815344816,B,455.7935000011639,Correct
4,404,355,B,62.57068477533827,40.15741642309255,3.1285342387669135,0.6307912221096683,B,861.0509999998612,Correct
4,404,356,A,35.59959855364393,44.97982933217002,1.7799799276821966,0.7065415069483401,A,2320.8943999998155,Correct
4,404,357,A,28.969290992966926,49.59458026725555,1.4484645496483464,0.7790298451273969,A,738.0866999992577,Correct
4,404,358,A,63.062410624001075,75.26926318753397,3.1531205312000536,1.1823268213553668,A,875.4656999990402,Correct
4,404,359,A,32.89732205200043,64.5040716506235,1.6448661026000218,1.013227588121142,A,638.7763999991876,Correct
4,404,360,B,71.76449504177336,40.49159310617198,3.5882247520886676,0.636040457172485,B,761.558000001969,Correct
4,404,361,A,23.344696185187722,36.35673777881565,1.1672348092593863,0.5710903015720887,A,698.1000999985554,Correct
4,404,362,B,80.33703972807966,57.37502395684986,4.016851986403983,0.9012447688118895,B,659.2516000018804,Correct
4,404,363,A,31.82118379275049,49.32397242180383,1.5910591896375246,0.7747791470310225,A,1203.5611999999674,Correct
4,404,364,B,81.60259699311581,58.729847434077655,4.0801298496557905,0.9225262862267385,B,2723.299599998427,Correct
4,404,365,B,75.83859732290786,48.29477901475044,3.791929866145393,0.7586126147974123,B,1480.015100001765,Correct
4,404,366,A,30.191004463221915,55.16888715809234,1.509550223161096,0.8665908530129357,A,620.1712000001862,Correct
4,404,367,A,47.42255906964593,76.66391587481058,2.371127953482296,1.204233974538654,A,550.633700000617,Correct
4,404,368,A,33.12955379694622,56.51688132897394,1.656477689847311,0.8877650959345533,A,643.4198999995715,Correct
4,404,369,A,57.83743537995833,78.01299131446953,2.8918717689979165,1.225425201990509,A,985.4216999992786,Correct
4,404,370,A,30.280620256737652,41.6582220446839,1.5140310128368828,0.6543658216859566,A,1848.0664000016986,Correct
4,404,371,B,54.10762874374816,45.671659993448586,2.705381437187408,0.7174087575633445,A,1057.2144999969169,Incorrect
4,404,372,A,26.311521907405393,55.6236683982457,1.3155760953702695,0.873734540028217,A,539.4371000002138,Correct
4,404,373,A,11.397556834377564,33.962884653044114,0.5698778417188782,0.5334877446036046,A,708.5517000014079,Correct
4,404,374,B,57.405144147200886,39.08619778272346,2.8702572073600443,0.6139645590548084,B,2637.9879000014625,Correct
4,404,375,A,12.733836839648504,34.90015488524448,0.6366918419824252,0.54821035098315,A,618.0973999980779,Correct
4,404,376,A,21.59737762979869,33.1464719181065,1.0798688814899344,0.5206635633517187,A,884.6250999995391,Correct
4,404,377,A,22.18939687012045,36.92807401872352,1.1094698435060224,0.5800648302422096,A,444.91959999868413,Correct
4,404,378,B,55.55089605354898,38.94661797960544,2.7775448026774487,0.611772044634483,B,710.5764999978419,Correct
4,404,379,B,68.33210999224582,44.054369514990746,3.4166054996122908,0.6920044181341253,B,584.8143000002892,Correct
4,404,380,B,76.38524626130706,49.41425284603183,3.8192623130653534,0.7761972686186108,B,518.3673999999883,Correct
4,404,381,B,51.02716039617508,40.398009999407414,2.5513580198087538,0.6345704571689267,B,668.7001999998756,Correct
4,404,382,A,64.12750091936502,79.14389127360278,3.2063750459682514,1.2431893370082994,A,551.4908999975887,Correct
4,404,383,A,33.5211309645015,60.919494265162044,1.676056548225075,0.956921178219193,A,982.6959999991232,Correct
4,404,384,A,34.742576111944686,43.87022341665307,1.7371288055972343,0.689111857985501,A,1237.5963000013144,Correct
4,404,385,B,86.70450065478943,59.977590163853094,4.335225032739471,0.9421257831939016,B,825.729300002422,Correct
4,404,386,A,36.298117340236246,61.34311660105465,1.8149058670118123,0.9635754223108768,A,525.088099999266,Correct
4,404,387,B,62.15380357831343,50.34283953760819,3.1076901789156715,0.7907834742609983,B,667.7124000016192,Correct
4,404,388,B,37.63802467001044,20.726583921777653,1.881901233500522,0.325572418913345,B,671.5729999996256,Correct
4,404,389,A,45.17958837491753,52.51181000150554,2.2589794187458763,0.8248535826371641,A,772.821999998996,Correct
4,404,390,A,63.561177920296224,79.47364781363058,3.1780588960148113,1.2483691406264217,A,692.3010999998951,Correct
4,404,391,B,66.17219440791641,52.58903433587549,3.3086097203958205,0.8260666196448392,B,1036.8693999989773,Correct
4,404,392,B,45.43297520275992,20.630715672323348,2.271648760137996,0.3240665239723542,B,482.97180000008666,Correct
4,404,393,A,28.08906807402669,53.84806327889873,1.4044534037013348,0.8458434000351327,A,663.9166999993904,Correct
4,404,394,A,68.24515478958867,87.36152219283886,3.4122577394794336,1.3722715816372213,A,468.641800001933,Correct
4,404,395,B,48.774339814881756,35.92661623990365,2.438716990744088,0.5643339682381053,B,552.2619000003033,Correct
4,404,396,B,77.94361723132303,48.90028787541965,3.897180861566152,0.7681239257392221,B,491.00320000070496,Correct
4,404,397,A,52.92682335669707,66.17610833848114,2.6463411678348536,1.0394918789966732,A,549.5048000011593,Correct
4,404,398,B,55.97217665323084,46.999382245926995,2.7986088326615417,0.738264569935314,B,1177.9431000031764,Correct
4,404,399,B,84.33515373161802,64.00999759308917,4.216757686580901,1.0054666909737464,B,686.3603999991028,Correct
4,404,400,A,60.457055385177526,77.00981621754234,3.022852769258876,1.2096673644166553,A,516.7708999979368,Correct
4,404,401,B,73.68118060645355,44.486061218063085,3.6840590303226777,0.698785415549064,B,797.0120999998471,Correct
4,404,402,B,61.29312504287254,51.34647111289179,3.064656252143627,0.8065484821801069,B,466.3140000011481,Correct
4,404,403,A,43.67222406736868,62.631663672985844,2.183611203368434,0.9838158723857954,A,608.6247999992338,Correct
4,404,404,B,69.14535358417267,42.86575627903144,3.457267679208633,0.6733337250838786,B,486.1538000004657,Correct
4,404,405,B,68.38635464190584,54.262344794984905,3.419317732095292,0.8523509188724047,B,762.0677000013529,Correct
4,404,406,B,87.7256334920781,67.53695318585476,4.386281674603905,1.0608679798725953,B,993.779700002051,Correct
4,404,407,A,59.691120964945924,74.41951863004734,2.9845560482472964,1.1689790650592273,A,3069.6695999977237,Correct
4,404,408,A,53.206166920446336,72.18420237008652,2.6603083460223167,1.1338667993555138,A,573.436099999526,Correct
4,404,409,B,72.14519630570867,53.09096227320719,3.6072598152854334,0.833950885247603,B,743.0973999980779,Correct
4,404,410,B,42.09335864706682,16.07904520807881,2.1046679323533413,0.2525690515121928,B,428.65050000182237,Correct
4,404,411,A,36.763031678101555,63.583690111820964,1.8381515839050777,0.9987702687171336,A,589.2098999975133,Correct
4,404,412,B,50.577772721955,41.51441547887762,2.52888863609775,0.6521069134325816,B,787.0504999991681,Correct
4,404,413,B,52.94331983854778,38.89302813011562,2.647165991927389,0.610930257247162,B,405.2574999986973,Correct
4,404,414,A,55.9600058089118,84.63142630952969,2.79800029044559,1.3293873357842219,A,527.2077000008721,Correct
4,404,415,A,40.853822386270714,71.09326331331224,2.0426911193135355,1.1167303687241323,A,462.1146999998018,Correct
4,404,416,A,22.365803798712907,52.391945949095195,1.1182901899356452,0.822970762504755,A,506.2163000002329,Correct
4,404,417,B,65.36520269093792,42.81579326037321,3.268260134546896,0.6725489078220392,B,539.0987999999197,Correct
4,404,418,B,51.89319563739241,29.71191674242565,2.5946597818696207,0.46671369681038005,B,483.40429999734624,Correct
4,404,419,A,36.40470105201492,69.68580554200598,1.8202350526007463,1.0946220737512644,A,637.6182999993034,Correct
4,404,420,B,54.657650232251,35.32625872342639,2.73288251161255,0.5549035744216435,B,699.4164999996428,Correct
4,404,421,B,49.00056239777649,36.55183503901189,2.4500281198888247,0.5741548821689287,B,430.1981999997224,Correct
4,404,422,A,43.01922078396092,56.85428230273986,2.150961039198046,0.8930649780370388,A,1224.971399999049,Correct
4,404,423,A,16.955967486612327,41.917044838945145,0.8477983743306163,0.6584314006311202,A,568.959399999585,Correct
4,404,424,B,77.34360936966081,45.289039282190636,3.8671804684830406,0.7113985654853483,B,719.3227999996452,Correct
4,404,425,A,53.971123381128876,71.05876354547053,2.698556169056444,1.116188447638122,A,605.4427999988548,Correct
4,404,426,A,36.03609643055841,64.55433346275815,1.8018048215279205,1.0140170988199337,A,590.8335999993142,Correct
4,404,427,A,67.77341319351584,84.37533918794941,3.3886706596757916,1.3253647286850443,A,491.80799999885494,Correct
4,404,428,B,63.99402494386991,56.05015930220398,3.1997012471934956,0.8804338434817082,B,1680.2621999995608,Correct
4,404,429,A,41.30561767213118,65.87389887464984,2.065280883606559,1.0347447838395842,A,499.8568000009982,Correct
4,404,430,A,45.77138814340588,75.8596365799878,2.2885694071702942,1.1916003849184058,A,817.6550999996834,Correct
4,404,431,B,87.96519309286961,63.68990936258848,4.398259654643481,1.0004387568065387,B,809.1115999995964,Correct
4,404,432,A,56.81365370903869,73.42517610183899,2.8406826854519345,1.1533599691503709,A,427.88669999936246,Correct
4,404,433,B,59.72997874525875,34.17819832356652,2.986498937262937,0.5368698838312578,B,387.0853000007628,Correct
4,404,434,A,48.72179545596309,64.09880166960788,2.4360897727981548,1.0068616221457465,A,845.8682999989833,Correct
4,404,435,B,80.69999950312814,65.77800118946895,4.034999975156407,1.0332384265232817,B,1932.209900001908,Correct
4,404,436,B,69.44433938024206,38.48396186568258,3.472216969012103,0.6045046593912907,B,596.5012999986357,Correct
4,404,437,B,88.63274281480886,69.2691346980985,4.431637140740444,1.0880770234403403,B,806.7435000011756,Correct
4,404,438,B,45.03241434779005,25.28795566591952,2.2516207173895024,0.3972222787217858,B,556.245100000524,Correct
4,404,439,B,66.9039570334421,44.29491800818484,3.345197851672105,0.6957829450293785,B,581.3801000003878,Correct
4,404,440,B,61.55947871517216,29.742461069093387,3.0779739357586084,0.467193485971721,B,442.91549999979907,Correct
4,404,441,A,48.2553206798331,78.33574133308792,2.412766033991655,1.2304949474276967,A,537.5573999990593,Correct
4,404,442,A,42.80374860760601,69.11465235078082,2.1401874303803003,1.0856504204031276,A,1012.3284000001149,Correct
4,404,443,A,32.874411654546776,53.53231060050112,1.643720582727339,0.8408835685611067,A,536.7709999991348,Correct
4,404,444,A,25.05416232578026,50.2280752688562,1.252708116289013,0.7889807613429691,A,622.5782000001345,Correct
4,404,445,A,55.44739872505309,82.45511019117029,2.7723699362526544,1.2952018421375873,A,438.03420000040205,Correct
4,404,446,A,54.439973565417205,76.47870146746206,2.72199867827086,1.2013246334313286,A,409.391000001051,Correct
4,404,447,B,46.40316851300817,24.64434974903881,2.3201584256504084,0.3871125406203889,B,444.17109999994864,Correct
4,404,448,A,20.17784330595551,39.053842689570544,1.0088921652977754,0.6134563264400313,A,1044.9923000014678,Correct
4,404,449,A,45.78797742285731,76.23665612725594,2.289398871142865,1.1975225941181928,A,599.760499997501,Correct
4,404,450,A,49.60688639143167,77.18645150624289,2.4803443195715835,1.2124419450433874,A,472.31449999890174,Correct
4,404,451,A,35.47733249330237,59.137025705731105,1.7738666246651185,0.928922227561378,A,412.22389999893494,Correct
4,404,452,B,61.335360785313966,46.593476612141345,3.0667680392656984,0.7318886191495553,A,1248.1048999979976,Incorrect
4,404,453,B,83.34631935013263,55.44268185635685,4.167315967506632,0.8708916100762341,B,554.8759000012069,Correct
4,404,454,A,46.592958695310855,71.27769144390327,2.3296479347655428,1.1196273590250327,A,581.0934999972233,Correct
4,404,455,B,63.79174497823153,53.81164360183282,3.1895872489115766,0.8452713210855508,B,1280.4137999992236,Correct
4,404,456,A,64.25664005872211,79.55466752069755,3.2128320029361053,1.2496417952090098,A,533.69770000063,Correct
4,404,457,B,60.79560840396083,37.79619317198596,3.0397804201980416,0.593701214013859,B,809.5624999987194,Correct
4,404,458,B,72.73818143123448,61.3195749326201,3.636909071561724,0.9632056306478407,B,588.6076999995566,Correct
4,404,459,B,69.86616535348327,41.81745758620205,3.4933082676741636,0.6568670877230758,B,497.03950000184705,Correct
4,404,460,A,11.114157916282661,37.10184884585841,0.555707895814133,0.5827944788437387,A,528.5135000012815,Correct
4,404,461,B,51.25537117946205,40.97128038321826,2.5627685589731026,0.6435753673004303,B,600.820499999827,Correct
4,404,462,A,61.18305890518164,72.38836350723255,3.0591529452590818,1.1370737549985466,A,492.36430000019027,Correct
4,404,463,B,46.06460278865034,32.808445977081945,2.303230139432517,0.5153538642864911,B,511.1591999993834,Correct
4,404,464,B,53.436379346283616,22.562459649157944,2.671818967314181,0.3544102874035537,B,539.328699996986,Correct
4,404,465,B,83.23328273980651,66.77210955716716,4.161664136990326,1.0488538442474458,B,702.0880999989458,Correct
4,404,466,A,51.24520772397085,81.08439197600192,2.5622603861985427,1.273670650763014,A,541.5594999976747,Correct
4,404,467,A,32.4596530685629,51.20060508601315,1.6229826534281449,0.8042572239878554,A,525.8407999972405,Correct
4,404,468,A,56.642271733952754,66.7658338939518,2.8321135866976372,1.0487552663601767,A,1146.5306999998575,Correct
4,404,469,B,87.4996561006526,67.58521784239873,4.37498280503263,1.0616261193247283,B,870.6936999988102,Correct
4,404,470,B,57.30331640010363,37.97091998294671,2.8651658200051817,0.5964458163423563,B,675.43360000127,Correct
4,404,471,A,40.97903875252374,70.81974715640929,2.048951937626187,1.1124339869783104,A,447.30340000023716,Correct
4,404,472,A,67.19810140659482,80.8821866396837,3.3599050703297406,1.2704944167675438,A,418.88230000040494,Correct
4,404,473,A,26.806605907018977,54.862753997588975,1.340330295350949,0.8617821245726478,A,983.0318000022089,Correct
4,404,474,B,64.72575555592562,50.41673455656327,3.2362877777962806,0.7919442145044291,B,1030.2502000013192,Correct
4,404,475,A,33.82549815372262,48.109825244879474,1.6912749076861309,0.7557073677740108,A,767.9376999985834,Correct
4,404,476,A,60.13947966634311,83.08430570557077,3.006973983317155,1.3050852221661484,A,581.7456999975548,Correct
4,404,477,B,77.64769304468076,57.011874980409374,3.882384652234038,0.895540438029169,B,820.362299997214,Correct
4,404,478,A,51.0748656137813,81.18227353835067,2.5537432806890648,1.2752081707489977,A,475.02479999820935,Correct
4,404,479,B,82.6697256965955,52.29979547478503,4.133486284829775,0.8215232662391667,B,489.92569999973057,Correct
4,404,480,B,52.79517173911269,29.68677679949821,2.6397585869556344,0.46631879951031746,B,459.8856999982672,Correct
4,404,481,B,73.88790259756735,59.32394505478385,3.6943951298783673,0.9318583498303673,B,682.2119999997085,Correct
4,404,482,B,68.26066392706431,47.95775869464568,3.413033196353216,0.7533187119886545,B,593.1340999995882,Correct
4,404,483,A,41.22029045118485,56.51820182980773,2.0610145225592422,0.8877858383131458,A,1222.6613000020734,Correct
4,404,484,A,49.44305518619529,56.24989041431498,2.4721527593097643,0.8835712124542144,A,1454.6685999994224,Correct
4,404,485,B,47.242578195573664,25.758083781128384,2.3621289097786833,0.40460703388671665,B,479.5268000016222,Correct
4,404,486,A,25.18734135837326,40.5880880308605,1.259367067918663,0.6375561959050356,A,726.4221000004909,Correct
4,404,487,B,52.25078214583059,27.589208322176468,2.6125391072915294,0.4333702709165399,B,554.9013999989256,Correct
4,404,488,B,44.26680064465589,14.74865024490822,2.2133400322327943,0.23167125629884483,B,456.6811999975471,Correct
4,404,489,B,60.04798166921641,51.131811031770525,3.002399083460821,0.803176609510759,A,1276.2904000010167,Incorrect
4,404,490,B,82.0725320947187,51.17127048965585,4.103626604735934,0.8037964372257951,B,684.8472999990918,Correct
4,404,491,B,51.316790508325774,37.464494904603185,2.5658395254162887,0.5884909098137681,B,655.0812000023143,Correct
4,404,492,A,38.39187455395178,67.38568437381682,1.919593727697589,1.058491854929517,A,535.9066999990318,Correct
4,404,493,B,57.78542877763846,40.73028245382551,2.8892714388819227,0.6397897806778774,B,628.9199999991979,Correct
4,404,494,B,67.49226154296974,47.499635020483595,3.3746130771484872,0.7461225221427387,B,705.3522000023804,Correct
4,404,495,B,53.223928686620546,29.034915061053884,2.6611964343310275,0.45607937926705266,B,404.3974000014714,Correct
4,404,496,B,67.91503257539384,55.74340134692144,3.395751628769692,0.8756153007879787,B,585.9102000031271,Correct
4,404,497,B,39.76309769863491,17.50547759052657,1.9881548849317454,0.27497539897989515,B,428.95430000135093,Correct
4,404,498,A,60.29915453853878,70.88850585716294,3.014957726926939,1.1135140461241007,A,1110.100699999748,Correct
4,404,499,A,47.1324543718033,61.740987935757175,2.356622718590165,0.969825170621754,A,813.0122000002302,Correct
4,404,500,B,55.50843406290268,38.14902555552076,2.775421703145134,0.5992434921341665,B,413.5625999988406,Correct
4,404,501,A,22.14131446921596,49.22062833305346,1.107065723460798,0.7731558218809721,A,692.4747000011848,Correct
4,404,502,A,43.07751928380917,63.186255759892425,2.1538759641904583,0.9925273845156188,A,564.7672999984934,Correct
4,404,503,B,86.32838329485143,58.806825773340364,4.316419164742572,0.9237354591523048,B,532.7647999984038,Correct
4,404,504,B,46.7382172329433,23.78177492766553,2.3369108616471648,0.37356324701039983,B,564.5010999978695,Correct
4,404,505,A,44.27361469840154,63.25302946332418,2.213680734920077,0.9935762633963899,A,598.7385000007635,Correct
4,404,506,A,18.261971100581725,32.714914667547475,0.9130985550290862,0.5138846779119206,A,660.8512999991945,Correct
4,404,507,A,28.55259978767488,58.627057196633764,1.4276299893837439,0.9209116609526663,A,889.523800000461,Correct
4,404,508,B,64.32926869206496,37.844582690782985,3.2164634346032477,0.5944613147976763,B,618.6697999983153,Correct
4,404,509,B,43.97846861531181,36.12108655271238,2.1989234307655905,0.5673887007684114,B,869.7376000018266,Correct
4,404,510,B,43.171294118446184,18.838161905920888,2.158564705922309,0.2959091552538808,B,441.89409999671625,Correct
4,404,511,A,48.24557333454051,74.94143923086307,2.4122786667270253,1.1771773746856267,A,520.5153000024438,Correct
4,404,512,A,45.66492775648998,53.3679957438004,2.2832463878244993,0.8383025168276734,A,1313.3277000015369,Correct
4,404,513,A,54.338685524480205,78.31696444799208,2.7169342762240105,1.2302000008063245,A,904.5223000030091,Correct
4,404,514,B,34.11546908968168,17.130746472890724,1.7057734544840841,0.2690891363487138,B,387.8436999984842,Correct
4,404,515,A,66.20596119610255,89.72598253468635,3.310298059805127,1.4094124378354838,A,539.3154000012146,Correct
4,404,516,A,49.11881499975749,72.62114728191716,2.4559407499878745,1.1407303139806666,A,934.1219000016281,Correct
4,404,517,B,75.48481784101553,46.00557523148828,3.774240892050776,0.7226538858570807,B,475.0988000014331,Correct
4,404,518,A,69.33980342809937,83.80612495824174,3.4669901714049685,1.316423532473202,A,713.1613999990805,Correct
4,404,519,A,40.470726087151824,71.89612416285016,2.023536304357591,1.1293416774579483,A,1021.3269000014407,Correct
4,404,520,B,36.3109498838482,20.032077986480616,1.8155474941924101,0.3146631451923266,B,476.5317999990657,Correct
4,404,521,B,70.17584093131602,44.59186349380089,3.508792046565801,0.7004473538100189,B,723.1204999989131,Correct
4,404,522,A,47.06106524673845,67.2584101485518,2.3530532623369225,1.0564926360740978,A,554.0748000021267,Correct
4,404,523,A,13.5305600827929,35.13876263661564,0.676528004139645,0.551958392777136,A,626.0564000003797,Correct
4,404,524,B,88.75661834316831,67.3750283490208,4.437830917158416,1.058324470483439,B,1747.4676999991061,Correct
4,404,525,B,80.05589698344406,58.15107526884455,4.002794849172203,0.9134349543147458,B,558.2639999993262,Correct
4,404,526,A,61.037184204941255,79.11018349044653,3.0518592102470627,1.2426598563886369,A,760.48720000108,Correct
4,404,527,A,34.143378997657116,47.20067187407297,1.707168949882856,0.7414264200204501,A,961.6065000009257,Correct
4,404,528,A,43.37992411238294,67.00554643919371,2.1689962056191465,1.0525206622157033,A,628.6770000006072,Correct
4,404,529,A,36.77048393620523,45.248185286505816,1.8385241968102617,0.7107568324217821,A,578.4858000006352,Correct
4,404,530,A,44.966586909958096,73.53908082471497,2.248329345497905,1.1551491803533531,A,874.1958999999042,Correct
4,404,531,B,46.14051113239919,37.0522951608784,2.3070255566199593,0.5820160913802811,A,855.1969000000099,Incorrect
4,404,532,B,61.35012485386524,32.68827866342419,3.0675062426932618,0.5134662805375471,B,624.582600001304,Correct
4,404,533,A,20.630074799134587,37.56566652783441,1.0315037399567293,0.5900801099552428,A,592.878200000996,Correct
4,404,534,B,64.44461386415287,42.55381010480564,3.2222306932076434,0.6684336860375626,B,538.2735999992292,Correct
4,404,535,A,30.973133972171958,59.9980018179029,1.548656698608598,0.9424464087059541,A,515.6624000010197,Correct
4,404,536,A,18.068613267647176,39.9685384900677,0.9034306633823589,0.6278243344755878,A,620.2434000006178,Correct
4,404,537,B,85.9302557069009,67.66413920160262,4.296512785345045,1.0628658131361597,B,830.7568999989599,Correct
4,404,538,B,71.15266387347178,51.07560023133478,3.557633193673589,0.8022936523222525,B,586.590899998555,Correct
4,404,539,B,80.27367445901112,64.03434487471898,4.013683722950556,1.005849137179262,B,1000.4126000021643,Correct
4,404,540,A,19.98192509961254,38.10422890416519,0.9990962549806269,0.598539827980146,A,530.6368999990809,Correct
4,404,541,B,66.26080582943567,49.42007685944787,3.313040291471783,0.7762887520074218,B,1766.2406999988889,Correct
4,404,542,B,72.57267055006757,61.769235977919244,3.6286335275033785,0.9702688898304273,B,1035.2252999982738,Correct
4,404,543,B,37.4861458195834,19.07665458146707,1.8743072909791698,0.2996553894410351,B,564.9162999980035,Correct
4,404,544,B,82.90830292917099,57.64990680381557,4.145415146458549,0.9055626184750161,B,606.8779000015638,Correct
4,404,545,A,44.370518780304856,69.72743662430338,2.2185259390152425,1.095276013262797,A,971.0058000018762,Correct
4,404,546,B,40.69130518333808,20.96546661930448,2.034565259166904,0.3293247795514449,B,640.8339000008709,Correct
4,404,547,A,63.94493215450181,75.45579031828407,3.19724660772509,1.1852567826736653,B,2530.509500000335,Incorrect
4,404,548,B,44.08056490922731,20.289070140859163,2.2040282454613656,0.31869996851345583,B,850.2307000017026,Correct
4,404,549,A,29.80393376727754,57.24259401809272,1.4901966883638773,0.8991645641983156,A,628.7512000017159,Correct
