subject,day,trial,cat,x,y,xt,yt,resp,rt,fb
8,308,0,B,70.25722044382961,47.302986210142365,3.5128610221914807,0.7430335698532127,B,1355.2508000000216,Correct
8,308,1,B,33.920637505201725,11.37888659905932,1.6960318752600865,0.17873913272818057,B,756.3659999998436,Correct
8,308,2,B,67.8276958644147,39.62586334790575,3.391384793220735,0.6224416059296688,B,950.6177999999181,Correct
8,308,3,A,29.27107916815317,57.997094950545076,1.4635539584076585,0.9110162371309105,A,814.3473000000085,Correct
8,308,4,A,51.22770357576834,73.5476618708095,2.561385178788417,1.1552839711102063,A,639.7458999999799,Correct
8,308,5,B,45.18852015371985,26.855686709877155,2.2594260076859927,0.42184814037429563,B,762.8061000000343,Correct
8,308,6,B,81.42737704248206,61.119861560520846,4.071368852124103,0.9600685403347874,B,914.2722999999933,Correct
8,308,7,A,43.38748517207405,57.260516353678405,2.1693742586037024,0.8994460875873714,A,1965.894500000104,Correct
8,308,8,B,71.26736131854612,48.95169540481724,3.5633680659273064,0.7689314333226954,B,3304.655799999864,Correct
8,308,9,A,35.695355413215346,44.989886161337886,1.7847677706607672,0.706699479251501,A,774.1936999998416,Correct
8,308,10,B,53.8297345475107,40.730298758918515,2.691486727375535,0.6397900367976793,B,1665.841700000101,Correct
8,308,11,A,16.622950398521027,45.98366563403796,0.8311475199260514,0.7223097307051154,A,706.3912999999502,Correct
8,308,12,B,39.577125941782654,30.64644336740971,1.9788562970891326,0.48139320670854996,B,698.6824000000524,Correct
8,308,13,B,43.64828794760987,19.06300568827091,2.1824143973804935,0.2994409931280616,B,611.2636999998813,Correct
8,308,14,A,35.4077346245576,60.82273548726938,1.77038673122788,0.9554012948902033,A,646.0331999999198,Correct
8,308,15,B,32.43412565828976,12.926353345707238,1.621706282914488,0.2030466835428985,B,827.5630000000547,Correct
8,308,16,A,32.678974324290344,54.20215631013777,1.6339487162145172,0.8514054803632723,A,631.4307000000099,Correct
8,308,17,A,58.76176602785033,74.25616490335068,2.9380883013925168,1.1664131107205935,A,1658.7898000000223,Correct
8,308,18,B,71.19667109893528,48.46798726860031,3.559833554946764,0.7613333636865918,B,1453.8758999999573,Correct
8,308,19,A,51.24133899473936,60.03748630629815,2.562066949736968,0.9430666295993204,A,1512.0836000000963,Correct
8,308,20,A,41.75163221454445,56.984807377694445,2.0875816107272227,0.8951152611199715,A,782.9962000000705,Correct
8,308,21,A,12.355477720381298,30.10792941337723,0.6177738860190649,0.4729342492993298,A,957.0876000000226,Correct
8,308,22,A,20.189165372233553,34.94009024453343,1.0094582686116778,0.548837654139953,A,2214.2068000000563,Correct
8,308,23,B,76.24033769900868,60.87199204173575,3.812016884950434,0.9561750150384668,B,2559.3461000000843,Correct
8,308,24,A,62.32442489205229,88.16119639614116,3.116221244602615,1.3848328346490202,A,930.1158000000669,Correct
8,308,25,A,56.1679890448741,72.49945651860779,2.808399452243705,1.1388187999405541,A,1843.7976000000162,Correct
8,308,26,A,35.840935706793964,60.1702378557122,1.7920467853396982,0.9451518860612796,A,750.312299999905,Correct
8,308,27,A,50.626397101581986,81.35945614646548,2.531319855079099,1.2779913486489844,A,571.549799999957,Correct
8,308,28,A,30.68063615440606,60.37816693571293,1.5340318077203028,0.9484180284122694,A,409.6679000001586,Correct
8,308,29,A,30.003254986647697,54.9409464913028,1.500162749332385,0.863010369391734,A,753.414199999952,Correct
8,308,30,B,51.10791836535519,20.679719408089127,2.5553959182677595,0.3248362728537553,B,642.7791999999499,Correct
8,308,31,B,48.148517362806786,37.03620852787662,2.407425868140339,0.5817634031399842,B,924.4473999999627,Correct
8,308,32,B,82.33747144462843,59.13406545467538,4.116873572231421,0.9288757280465307,B,578.5338999999112,Correct
8,308,33,B,40.91613002952819,23.122407576655828,2.0458065014764095,0.3632059288806546,B,724.783699999989,Correct
8,308,34,B,38.77051937473947,28.367194728814297,1.9385259687369736,0.4455908528149705,B,835.1396999998997,Correct
8,308,35,A,33.245254487468536,49.72801058552302,1.662262724373427,0.781125763665573,A,678.7593999999899,Correct
8,308,36,A,23.344785814194775,52.602914706019504,1.1672392907097389,0.8262846519892066,A,733.9013999999224,Correct
8,308,37,A,40.84497871870703,57.07731126225587,2.0422489359353517,0.896568308740805,A,490.6220000000303,Correct
8,308,38,B,58.64680392996606,29.18711714687212,2.9323401964983034,0.45847016404039065,B,559.6105000001899,Correct
8,308,39,B,39.198437409522256,15.71850420618679,1.9599218704761128,0.2469056866978834,B,1286.2695999999687,Correct
8,308,40,B,34.12213209448024,14.928142376550518,1.706106604724012,0.2344907121095679,B,879.6752000000652,Correct
8,308,41,A,39.51564783680297,47.357063915027936,1.9757823918401485,0.7438830204551702,A,2461.222300000145,Correct
8,308,42,A,17.083789693629164,31.894538438774497,0.8541894846814583,0.5009982382444561,A,465.67030000005616,Correct
8,308,43,A,57.96688002858848,74.01215281021788,2.898344001429424,1.1625801777247284,A,803.5909000000174,Correct
8,308,44,A,47.73601473351504,55.7362064693349,2.386800736675752,0.8755022839151323,A,1022.0879999999397,Correct
8,308,45,A,30.090531014929944,62.23516294759856,1.5045265507464973,0.9775876535556967,A,508.74500000008993,Correct
8,308,46,B,57.29055058222404,45.008632261919516,2.8645275291112022,0.7069939423108546,B,687.7943000001778,Correct
8,308,47,B,60.63753314512609,30.59675728740217,3.0318766572563045,0.48061273958886314,B,565.5855999998494,Correct
8,308,48,A,45.41977318244669,57.18563732885125,2.2709886591223345,0.8982698906158466,A,1051.4032000000952,Correct
8,308,49,A,53.3747890986421,76.83432880088796,2.668739454932105,1.2069108145218614,A,681.7590999999084,Correct
8,308,50,B,52.763650829967766,30.660934466923514,2.6381825414983884,0.4816208323674249,B,714.6241000000373,Correct
8,308,51,B,83.88567940336817,63.971604140606864,4.194283970168408,1.0048636080324247,B,572.3047999999835,Correct
8,308,52,B,41.94778826304493,23.21506124229116,2.0973894131522464,0.36466132925709527,B,1446.2413999999626,Correct
8,308,53,A,15.17651541787691,35.80215235712873,0.7588257708938455,0.5623788941392905,A,1528.1569000001127,Correct
8,308,54,B,61.13382264966065,37.88683675377258,3.0566911324830324,0.5951250400670385,B,982.5999999998203,Correct
8,308,55,B,82.7232458916659,66.31517358426277,4.136162294583295,1.0416763107692593,B,574.2826000000605,Correct
8,308,56,A,25.685147634881616,43.521158173131724,1.2842573817440808,0.6836287539621501,A,876.1153999998896,Correct
8,308,57,A,45.9568528523783,72.58732363149029,2.2978426426189147,1.1401990133221733,A,741.5299000001596,Correct
8,308,58,A,56.53496810361368,81.26182333130716,2.826748405180684,1.2764577359747311,A,695.4673999998704,Correct
8,308,59,A,18.11062034952528,45.39691059030656,0.905531017476264,0.7130930040308988,A,597.302099999979,Correct
8,308,60,B,33.08619947545658,11.88174928691242,1.6543099737728288,0.18663808135779913,B,528.5926999999901,Correct
8,308,61,B,65.58039012124205,55.83892596608328,3.2790195060621024,0.8771157979969579,A,1529.7527999998692,Incorrect
8,308,62,A,34.95962677261644,60.46778932438525,1.747981338630822,0.9498258136015202,A,838.4338000000753,Correct
8,308,63,B,82.01892924219496,65.78613877296945,4.100946462109748,1.0333662513859974,B,556.8140999998832,Correct
8,308,64,A,13.38974714650286,36.32335744957709,0.669487357325143,0.5705659645865373,A,626.6316999999617,Correct
8,308,65,B,52.32389944512516,23.554322110386206,2.616194972256258,0.3699904265113847,B,624.1588999998839,Correct
8,308,66,A,26.61089555489466,59.23845946303599,1.330544777744733,0.930515545295253,A,556.8508999999722,Correct
8,308,67,A,59.886623057043835,81.53451590622885,2.9943311528521916,1.2807411809250435,A,628.8623000000371,Correct
8,308,68,B,38.144636466104856,17.250940148548178,1.9072318233052428,0.27097713419098085,B,584.2053999999735,Correct
8,308,69,B,32.68314804334199,15.847551569050143,1.6341574021670993,0.24893275793356662,B,618.9965000000939,Correct
8,308,70,B,68.86409791038717,45.57107949355366,3.4432048955193584,0.7158288427655232,B,857.8915000000507,Correct
8,308,71,B,74.754648092744,59.028999164503134,3.7377324046372,0.9272253506198055,B,1308.9787999999771,Correct
8,308,72,B,82.96170077325361,64.82644602896403,4.14808503866268,1.0182914330146429,B,478.9161999999578,Correct
8,308,73,A,56.311307775352674,70.43250583177453,2.815565388767634,1.1063512144751155,A,1079.4699000000492,Correct
8,308,74,A,64.79808924108912,88.73786635035754,3.2399044620544557,1.3938911451075808,A,598.6579999998867,Correct
8,308,75,B,73.14034530550711,52.24419598288773,3.6570172652753556,0.8206499114627273,B,1068.245299999944,Correct
8,308,76,B,49.894912869730526,38.937136604388826,2.4947456434865263,0.6116231115408508,B,1374.4081000002097,Correct
8,308,77,A,26.75625605982792,36.99032681094608,1.337812802991396,0.5810426948157689,A,679.8624999998992,Correct
8,308,78,A,27.750513594092375,50.82932149052017,1.387525679704619,0.79842511490786,A,860.8103999999912,Correct
8,308,79,B,69.67088181940171,52.9651175005042,3.4835440909700854,0.8319741201805209,B,1761.786900000061,Correct
8,308,80,B,51.16287418938463,39.777975277586464,2.5581437094692316,0.6248309745337102,B,1268.6069999999745,Correct
8,308,81,A,48.24811597466868,58.766934664005184,2.4124057987334337,0.9231088510721502,A,1089.3003999999564,Correct
8,308,82,B,57.00670658530434,38.03054501250968,2.850335329265217,0.5973824041165817,B,1000.0290000000405,Correct
8,308,83,B,60.446990804919444,50.80575596839224,3.0223495402459726,0.7980549485518842,B,1351.6718999999284,Correct
8,308,84,B,56.700874208159135,33.435306146573204,2.8350437104079567,0.5252005608030001,B,606.6111000000092,Correct
8,308,85,B,51.7493500699901,29.33012140018107,2.587467503499505,0.46071646959852813,B,684.9405999998908,Correct
8,308,86,A,51.850337188231016,64.04257699925171,2.5925168594115506,1.0059784470890392,A,641.1106999998992,Correct
8,308,87,A,54.80465784812539,72.31453181566205,2.740232892406269,1.1359140094993463,A,534.9069999999756,Correct
8,308,88,A,26.86777599804263,36.72095687692905,1.3433887999021317,0.5768114417867395,A,792.3656000000392,Correct
8,308,89,B,67.22520971427834,52.423409903615635,3.361260485713917,0.8234649971466264,B,1156.2001999998301,Correct
8,308,90,B,47.460001203514686,36.935215010858876,2.3730000601757344,0.5801770006843685,B,658.0300999999054,Correct
8,308,91,A,34.17616179713314,43.243227889188724,1.708808089856657,0.6792630352709228,A,963.0899000001136,Correct
8,308,92,A,37.4235553197396,67.39877048871783,1.87117776598698,1.0586974111417022,A,554.8515999998926,Correct
8,308,93,B,73.3691953252936,49.81894612293602,3.6684597662646805,0.7825541757470074,B,812.2776000000158,Correct
8,308,94,A,23.559835056871393,50.7795914233553,1.1779917528435697,0.7976439568395212,A,690.12859999998,Correct
8,308,95,A,43.416679480806394,58.019240431854314,2.17083397404032,0.911364097537867,A,585.5460999998741,Correct
8,308,96,B,43.05429758195751,22.065413216050846,2.152714879097876,0.3466027002898423,B,784.1945999998643,Correct
8,308,97,A,34.61711106362879,61.45723595444248,1.7308555531814394,0.965368004922055,A,543.6586000000716,Correct
8,308,98,B,66.53822218628012,54.87678840526539,3.326911109314006,0.8620025765329163,B,697.3261000000548,Correct
8,308,99,A,44.964100917881446,55.88478889812834,2.248205045894072,0.877836211248882,A,814.3389000001662,Correct
8,308,100,A,58.511291437279226,68.20889882422337,2.925564571863961,1.071422877278148,A,522.1781000000192,Correct
8,308,101,A,68.91106689169075,83.15377084604995,3.4455533445845377,1.3061763780411983,A,1214.3687999998747,Correct
8,308,102,A,48.916630973316515,74.38254116293638,2.4458315486658257,1.1683982243641065,A,540.1979000000665,Correct
8,308,103,B,52.41639883499591,29.838274556453335,2.6208199417497955,0.4686985207117452,B,909.0438999999151,Correct
8,308,104,A,25.408457825397026,38.53846955849586,1.2704228912698512,0.6053608642278224,A,594.2717000000357,Correct
8,308,105,B,59.25943536670653,44.80132785614876,2.9629717683353265,0.7037376123197236,B,880.9406000000308,Correct
8,308,106,B,78.68842633298898,56.66213078760234,3.934421316649449,0.8900466690953776,B,533.3706999999777,Correct
8,308,107,B,57.7576187934698,43.99504858223148,2.88788093967349,0.6910726071013223,B,1351.3081999999486,Correct
8,308,108,B,87.63940052186062,66.92268557433432,4.381970026093032,1.0512190867941418,B,607.5667000000067,Correct
8,308,109,A,51.65896431982212,60.66034814883654,2.582948215991106,0.9528505205429204,B,3993.5665000000427,Incorrect
8,308,110,B,46.85340943251088,25.70640701916171,2.342670471625544,0.40379529720793766,B,550.8084000000508,Correct
8,308,111,B,74.59001583934878,48.65056030352189,3.729500791967439,0.7642012142128578,B,654.2922999999519,Correct
8,308,112,B,74.46093372745173,51.67400026145865,3.7230466863725864,0.8116932980149778,B,552.7667999999721,Correct
8,308,113,B,47.152745293501795,35.087112719972005,2.35763726467509,0.5511470777837052,B,688.2831999998871,Correct
8,308,114,A,40.587752842169444,66.96144673676581,2.029387642108472,1.0518279457098385,A,622.8790999998637,Correct
8,308,115,A,34.73135688847494,63.31091846617437,1.7365678444237471,0.9944855817267789,A,579.8594999996567,Correct
8,308,116,A,53.8734783408959,67.70290910825663,2.6936739170447948,1.0634748094057829,A,1087.4427999997351,Correct
8,308,117,A,49.446972292344995,63.27027710803847,2.4723486146172498,0.9938471887660205,A,596.4629000000059,Correct
8,308,118,B,63.89424647030648,43.26661562455125,3.194712323515324,0.6796304089589179,B,1349.0504000001238,Correct
8,308,119,A,67.38264658727522,88.16030696350633,3.3691323293637607,1.3848188634738627,A,710.9730000001946,Correct
8,308,120,A,33.5668020154461,65.94769791570351,1.678340100772305,1.0359040164656652,A,1209.2110999997203,Correct
8,308,121,B,65.3660952512113,33.10725231942892,3.268304762560565,0.5200475033363077,B,861.6345999998885,Correct
8,308,122,B,34.43827303787088,14.86094299924396,1.721913651893544,0.23343514675920748,B,583.8454999998248,Correct
8,308,123,B,46.092902128360315,22.382528896636614,2.304645106418016,0.35158394175217417,B,693.6848999998801,Correct
8,308,124,B,38.176163064033034,12.875879411236202,1.9088081532016516,0.20225384083423859,B,562.9457999998522,Correct
8,308,125,B,54.38011491808859,37.175274954198294,2.7190057459044294,0.58394785345645,B,657.3038999999881,Correct
8,308,126,A,36.2914108470433,68.6519191862809,1.814570542352165,1.0783818248523014,A,695.6575999997767,Correct
8,308,127,B,64.70039017419342,54.764161905161046,3.235019508709671,0.8602334436062798,A,1570.7250000000386,Incorrect
8,308,128,A,31.961024145151185,42.57525713673367,1.5980512072575592,0.6687705752272944,A,1695.4148999998324,Correct
8,308,129,B,78.56004408841392,63.130830699258574,3.9280022044206957,0.9916567696990586,B,1130.478800000219,Correct
8,308,130,B,74.83685402330364,55.812489875350686,3.7418427011651825,0.8767005408547822,B,2758.1176000003325,Correct
8,308,131,B,79.83528557427397,63.83215844179407,3.991764278713698,1.0026732001175997,B,572.7188999999271,Correct
8,308,132,B,87.71364684829655,69.35548990750047,4.385682342414827,1.0894334878976226,B,540.7863000000361,Correct
8,308,133,A,54.54004436281174,66.75598667408947,2.727002218140587,1.048600586592288,A,1073.2158999999228,Correct
8,308,134,B,54.21683995136922,41.39832210188685,2.710841997568461,0.6502833229311584,B,804.8003999997491,Correct
8,308,135,B,39.20351095383205,26.53876944906787,1.9601755476916025,0.4168700156825243,B,747.1949999999197,Correct
8,308,136,B,49.71390375332966,23.11374753172246,2.485695187666483,0.36306989721294247,B,1192.4543000000085,Correct
8,308,137,B,50.73716179684491,43.44366054390884,2.5368580898422453,0.6824114240489639,B,813.0996999998388,Correct
8,308,138,A,56.067923652707115,64.9285450348894,2.8033961826353555,1.0198952004494128,A,841.8479000001753,Correct
8,308,139,A,39.749989827683194,51.52287595280412,1.9874994913841595,0.8093194429257382,A,557.4535999999171,Correct
8,308,140,B,59.17839084393049,45.974364876203474,2.9589195421965244,0.7221636347426874,A,1013.7416000002304,Incorrect
8,308,141,A,37.282836869382976,53.10171470341628,1.8641418434691488,0.8341197840263684,A,672.5381999999627,Correct
8,308,142,B,41.16578562280084,26.63942704991695,2.058289281140042,0.4184511415793015,B,753.6110999999437,Correct
8,308,143,B,72.35788255814624,44.123060758725224,3.617894127907312,0.6930834176675362,B,496.8263000000661,Correct
8,308,144,A,41.683752288473656,71.9541224610144,2.084187614423683,1.130252712595116,A,944.0273000000161,Correct
8,308,145,B,69.8264182740662,51.636185177262206,3.4913209137033103,0.8110993000614455,B,635.884399999668,Correct
8,308,146,B,56.92614837555677,25.437515196939046,2.8463074187778385,0.3995715543414121,B,818.5248999998294,Correct
8,308,147,A,17.222763664159608,47.39266225311109,0.8611381832079803,0.7444421978421804,A,629.3274999998175,Correct
8,308,148,A,52.85117736470275,69.84505258522124,2.6425588682351373,1.097123520456619,A,648.641900000257,Correct
8,308,149,B,79.50710627241845,58.031117371409536,3.975355313620923,0.9115506600681361,B,514.3084999999701,Correct
8,308,150,A,48.0945476886143,57.77754722750081,2.4047273844307147,0.9075675895617694,B,1978.3434999999372,Incorrect
8,308,151,B,71.2496962017454,62.0424257145934,3.5624848100872697,0.9745601441792854,B,542.2163000002911,Correct
8,308,152,A,28.451785591678664,49.91080606622781,1.4225892795839332,0.783997108362031,A,729.0207999999438,Correct
8,308,153,A,35.70500790964793,57.42309430823066,1.7852503954823964,0.9019998561256565,A,614.8026999999274,Correct
8,308,154,B,58.06456057566338,32.93061898825119,2.903228028783169,0.5172729534582724,B,1828.0628000002253,Correct
8,308,155,A,32.07581025939571,52.43197245502328,1.6037905129697856,0.8235994973896177,A,972.0907000000807,Correct
8,308,156,B,37.32914498012424,12.01386022263138,1.866457249006212,0.1887132750833669,B,523.0057999997371,Correct
8,308,157,A,41.712828588069726,62.26177921492597,2.0856414294034864,0.9780057409052054,A,1495.9956000002421,Correct
8,308,158,B,64.32989359494543,38.21183258667558,3.2164946797472713,0.6002300626725153,B,1022.9086000003917,Correct
8,308,159,B,52.040572604947606,41.35050622123896,2.6020286302473803,0.6495322328343167,B,903.4634000004189,Correct
8,308,160,B,50.14974521921951,37.39819154517877,2.5074872609609757,0.5874494190793876,B,1402.0147000001089,Correct
8,308,161,A,41.33754723501081,56.11204896773387,2.0668773617505405,0.8814060040745173,A,959.7708000001148,Correct
8,308,162,A,30.444625715111886,54.6599399563257,1.5222312857555942,0.8585963290622601,A,1832.972499999869,Correct
8,308,163,B,33.309238827351905,20.04290027193959,1.6654619413675953,0.31483314125479145,B,879.8366000000897,Correct
8,308,164,B,67.97843568388387,35.781090382066516,3.398921784194193,0.5620480534086629,B,1187.7736000001278,Correct
8,308,165,A,40.047233262167296,72.06910617632285,2.002361663108365,1.1320588725715932,A,1290.9536999995908,Correct
8,308,166,A,35.37408567376471,55.94472894293936,1.7687042836882356,0.8787777472710528,A,1982.8070000003208,Correct
8,308,167,A,19.110203119875937,40.40771152552112,0.9555101559937969,0.6347228483847639,A,873.8715999998021,Correct
8,308,168,B,66.72235275477577,57.84527689616003,3.3361176377387887,0.9086314847092186,B,1989.7353000001203,Correct
8,308,169,A,16.418584792661033,42.005786780842456,0.8209292396330516,0.6598253557947694,A,515.5602999998337,Correct
8,308,170,B,48.69526549571469,30.47050378878481,2.434763274785735,0.4786295542701316,B,1244.3668000000798,Correct
8,308,171,A,64.33465527748851,77.03264529010269,3.216732763874426,1.210025962649875,A,4133.762400000251,Correct
8,308,172,A,33.658305719261435,64.83556885622563,1.6829152859630716,1.0184347340501683,A,1057.3895000002267,Correct
8,308,173,B,45.521355981710116,29.887979033478324,2.2760677990855056,0.46947927681110635,B,1035.1004999997713,Correct
8,308,174,B,51.320921853246986,29.682518175236957,2.5660460926623494,0.4662519051968497,B,523.6428000002888,Correct
8,308,175,B,67.91589213358644,51.59308275466846,3.3957946066793223,0.8104222487905832,B,744.4015000000945,Correct
8,308,176,B,39.57150598138824,14.454474036271638,1.978575299069412,0.2270503472192769,B,912.1198999996523,Correct
8,308,177,B,48.11250190274135,24.99906260479026,2.4056250951370672,0.392684357129202,B,744.4203999998535,Correct
8,308,178,B,66.79272394338118,40.869390995562256,3.339636197169059,0.6419748925417361,B,598.754099999951,Correct
8,308,179,A,39.91988995081454,67.03644481390731,1.995994497540727,1.053006012750744,A,1265.2806000000965,Correct
8,308,180,B,61.34083263414518,31.558293040145422,3.067041631707259,0.4957165078737738,B,2373.443800000132,Correct
8,308,181,A,34.41245150036369,43.07394004272538,1.7206225750181843,0.6766038679969664,B,3802.6819000001524,Incorrect
8,308,182,A,13.442546605529706,36.20400250409976,0.6721273302764854,0.5686911414871315,A,1042.7417999999307,Correct
8,308,183,A,37.066174783953905,57.36676963993963,1.8533087391976952,0.9011151103050616,A,1052.4222000003647,Correct
8,308,184,A,65.1030098027804,84.0896219548759,3.2551504901390205,1.3208766928829054,A,1385.6791999996858,Correct
8,308,185,A,24.936292010211005,39.21234951478992,1.2468146005105503,0.6159461458282965,A,1171.0818999999901,Correct
8,308,186,A,21.436237451253152,38.81512044337424,1.0718118725626575,0.6097064861655375,A,1045.0206999998954,Correct
8,308,187,A,55.5801603654718,81.05935191994698,2.77900801827359,1.2732773224822758,A,1267.3822999995537,Correct
8,308,188,A,46.78687581547659,67.69210815231028,2.33934379077383,1.0633051483865186,A,627.9586000000563,Correct
8,308,189,B,46.14709789889014,38.48634775661958,2.307354894944507,0.6045421368784905,B,1588.5446000002048,Correct
8,308,190,A,38.53470991690782,56.63314415768502,1.926735495845391,0.889591348177375,A,1746.133799999825,Correct
8,308,191,A,20.792607915062774,43.29777954969832,1.0396303957531388,0.6801199307504131,A,1010.6567000002542,Correct
8,308,192,B,53.659954200999316,40.24151722706691,2.682997710049966,0.6321122744493025,B,968.4728999995968,Correct
8,308,193,B,43.68137082113087,33.93155702359558,2.1840685410565435,0.5329956513509552,B,1029.1638000003331,Correct
8,308,194,A,56.737951592299325,77.64847310640924,2.8368975796149662,1.2196993633677995,A,653.4538999999313,Correct
8,308,195,B,51.21115393499491,41.46751417828681,2.5605576967497456,0.6513701895256822,B,932.6587999998992,Correct
8,308,196,B,44.20876937566462,15.582407291324394,2.2104384687832312,0.24476788135834374,B,510.88629999958357,Correct
8,308,197,A,31.256221106953248,64.00015302820782,1.5628110553476626,1.0053120529102013,A,483.3099000002221,Correct
8,308,198,A,69.50336544621334,84.30876850336614,3.475168272310667,1.324319038816888,A,672.8468999999677,Correct
8,308,199,A,26.491367267543183,57.848408677067106,1.3245683633771592,0.9086806786086702,A,1541.562299999896,Correct
8,308,200,A,16.913299456405603,33.83926835778524,0.8456649728202802,0.5315459843783582,A,1325.8450000002995,Correct
8,308,201,B,79.59734259593831,64.2943229150663,3.9798671297969155,1.009932862687511,B,2123.6876000002667,Correct
8,308,202,A,35.86278462112744,47.60623132191715,1.793139231056372,0.747796932930156,A,1656.1302000000069,Correct
8,308,203,B,80.27365023564364,56.76232350095361,4.013682511782182,0.8916204925564157,B,516.7914999997265,Correct
8,308,204,A,52.77669279449015,61.623328828001284,2.6388346397245077,0.9679769856789848,B,2443.1633999997757,Incorrect
8,308,205,A,57.43482881872541,67.13841201443307,2.8717414409362703,1.0546077097911384,A,1099.1947000002256,Correct
8,308,206,B,54.857633402231926,34.7278661422798,2.7428816701115966,0.5455040457371797,B,2095.9203000002162,Correct
8,308,207,A,24.935845350258298,50.37296187057868,1.2467922675129148,0.7912566347608436,A,528.4899000002952,Correct
8,308,208,B,66.0850181609137,53.76636311776088,3.3042509080456854,0.8445600569049939,B,1509.185499999603,Correct
8,308,209,A,37.18703407989967,66.99228719398144,1.8593517039949834,1.0523123864789485,A,560.0027999998929,Correct
8,308,210,B,67.70130087796277,55.764588364288635,3.385065043898138,0.8759481056785402,B,1830.5976000001465,Correct
8,308,211,B,45.67655037397682,27.60027500353136,2.2838275186988413,0.43354410594076065,B,570.2016000000185,Correct
8,308,212,B,57.91098675100137,48.96395458032638,2.8955493375500687,0.7691240000012882,B,840.027100000043,Correct
8,308,213,B,44.17599615399292,33.52671971012629,2.208799807699646,0.5266364817014844,B,930.8088000002499,Correct
8,308,214,B,60.40916191055202,39.549888332337936,3.020458095527601,0.6212481931758477,B,1538.8356999997086,Correct
8,308,215,A,47.94272308058923,76.74529846648858,2.397136154029462,1.2055123292993828,A,1528.1043999998474,Correct
8,308,216,A,48.63470357091965,74.99769937094428,2.431735178545982,1.178061106899472,A,1033.5113999999521,Correct
8,308,217,B,83.6647026296248,56.57160679191679,4.18323513148124,0.888624721496281,B,1225.2313999997568,Correct
8,308,218,B,34.278226663147734,11.87846321747281,1.7139113331573868,0.18658646389974579,B,1291.4441999996598,Correct
8,308,219,A,30.17045280317871,57.22820465089314,1.5085226401589356,0.8989385365468954,A,1444.8654000002534,Correct
8,308,220,B,70.92475655096264,44.720729481869114,3.546237827548132,0.7024715760170824,B,735.631199999716,Correct
8,308,221,A,54.047282784839645,77.29688676585563,2.7023641392419826,1.2141766580448707,A,1866.9480999997177,Correct
8,308,222,B,44.86071412498817,33.24233577916352,2.2430357062494086,0.5221693893599262,B,1553.053699999964,Correct
8,308,223,A,37.76427242367418,49.1185800944146,1.888213621183709,0.7715528518968737,A,5977.0785000000615,Correct
8,308,224,A,42.853436064790394,57.40924304692144,2.14267180323952,0.9017822810217966,A,1029.2950000002747,Correct
8,308,225,A,21.353371521544187,49.014847444122154,1.0676685760772093,0.7699234232363931,A,869.5414999997411,Correct
8,308,226,B,65.33253741848293,45.620281380176884,3.2666268709241466,0.7166017041933147,B,968.3540000000903,Correct
8,308,227,A,61.69930932955188,70.88136284345691,3.084965466477594,1.1134018439271838,A,1081.4577000001009,Correct
8,308,228,A,41.364394720836735,69.65242309617035,2.068219736041837,1.0940977035182842,A,945.4723999997441,Correct
8,308,229,A,28.45020048625048,52.80827310568533,1.422510024312524,0.8295104141879225,A,1890.0438000000577,Correct
8,308,230,A,25.548361414870506,38.64921234137524,1.2774180707435252,0.6071004077934821,A,1452.2785999997723,Correct
8,308,231,B,79.3765383854226,62.032698357077734,3.96882691927113,0.9744073472047352,B,862.7556000001277,Correct
8,308,232,A,14.314676593959184,42.58943168172011,0.7157338296979592,0.6689932284592814,A,1091.5273999999044,Correct
8,308,233,A,30.140980356917137,60.97002732725282,1.5070490178458567,0.957714949702332,A,905.5798999997933,Correct
8,308,234,B,56.0385177793718,27.529929280703907,2.8019258889685896,0.43243911791052964,B,692.9276999999274,Correct
8,308,235,A,42.91876527251724,58.71549482251907,2.145938263625862,0.9223008359315772,A,1159.1591999999764,Correct
8,308,236,A,53.079973429389455,60.56204662633858,2.6539986714694725,0.9513064038383391,A,2700.6940000001123,Correct
8,308,237,B,41.42388528390705,13.05689533224534,2.0711942641953525,0.2050972322723641,B,704.8414000000776,Correct
8,308,238,B,79.41541684008482,62.68526396903934,3.970770842004241,0.9846578238673549,B,924.7141999999258,Correct
8,308,239,B,72.03757315430407,51.447462428137065,3.6018786577152038,0.8081348500503617,B,1450.796099999934,Correct
8,308,240,B,46.9533542283754,25.005262477240734,2.3476677114187705,0.3927817444979201,B,2032.6112000002468,Correct
8,308,241,B,62.42681214433578,49.54198222077857,3.121340607216789,0.7782036369453705,B,1776.1188999998012,Correct
8,308,242,B,53.81574328321604,33.39951607838859,2.6907871641608017,0.5246383717265988,B,930.0235000000612,Correct
8,308,243,A,28.205036702892144,42.452880773823026,1.4102518351446072,0.6668482918138291,A,1754.607599999872,Correct
8,308,244,A,11.106169246005805,36.11971404123347,0.5553084623002903,0.5673671414085157,A,844.275700000253,Correct
8,308,245,A,40.72584853684351,70.89720170119162,2.0362924268421754,1.1136506401226867,A,1589.1405000002123,Correct
8,308,246,A,21.6969835800181,45.340446895289396,1.084849179000905,0.7122060743835965,A,1855.6610999999066,Correct
8,308,247,B,50.90976502308719,36.53418066689263,2.5454882511543593,0.5738775679401608,B,852.906300000086,Correct
8,308,248,B,53.34422069643518,45.39654157288765,2.6672110348217593,0.7130872075188374,B,689.8992999999791,Correct
8,308,249,B,52.83729493165392,45.81346787686646,2.641864746582696,0.7196362705871784,B,535.7276999998248,Correct
8,308,250,A,54.500884038197356,68.85081256961158,2.7250442019098675,1.0815060348118979,A,2032.8018999998676,Correct
8,308,251,A,16.89067201303693,45.667121765252176,0.8445336006518466,0.717337471241534,A,1182.9274000001533,Correct
8,308,252,A,19.496672321383077,47.56716970461794,0.9748336160691538,0.7471833544804334,A,548.7469999998211,Correct
8,308,253,A,49.64318973848849,64.25582514138307,2.4821594869244246,1.0093281410725967,A,834.2684000003828,Correct
8,308,254,A,43.36347718246584,58.86252907798724,2.168173859123292,0.9246104446156014,A,944.0945999999713,Correct
8,308,255,B,71.28597449655287,53.12446765352541,3.564298724827643,0.8344771865309202,B,2415.8356999996613,Correct
8,308,256,B,40.422391859575,22.952056776732082,2.0211195929787498,0.36053006477278665,B,1222.7236000003359,Correct
8,308,257,A,65.87127679931609,89.45903509460825,3.2935638399658047,1.405219237252264,A,1364.0009000000646,Correct
8,308,258,B,76.2567643210704,47.38617180468405,3.8128382160535206,0.744340246116696,B,1016.7049000001498,Correct
8,308,259,B,38.36425386173214,28.37993156936885,1.918212693086607,0.4457909226385511,B,1192.2051000001375,Correct
8,308,260,A,48.300302397162234,64.3266364464403,2.415015119858112,1.0104404424513915,A,1370.6903000002058,Correct
8,308,261,B,68.29349878274202,38.96033781038897,3.4146749391371007,0.6119875552324733,B,3224.2498999999043,Correct
8,308,262,B,58.99230201985019,34.981811933839225,2.9496151009925096,0.5494930169030453,B,1586.1770000001343,Correct
8,308,263,B,73.18565540403736,52.29672354821135,3.6592827702018678,0.8214750125293855,B,1990.8816000001934,Correct
8,308,264,A,24.802493117664685,36.76252420521929,1.2401246558832342,0.5774643798526694,A,1262.4269000002641,Correct
8,308,265,A,36.61223287153852,59.94708662609872,1.8306116435769257,0.9416466347433132,A,1168.0680999998003,Correct
8,308,266,A,18.45176694105555,40.19759422324134,0.9225883470527775,0.6314223335185924,A,1117.569999999887,Correct
8,308,267,B,71.69950020722912,57.308809243107056,3.5849750103614557,0.9002046705206197,B,1036.79000000011,Correct
8,308,268,A,13.696519492368346,33.478650483727,0.6848259746184172,0.5258814120588856,A,544.9604000000363,Correct
8,308,269,B,61.31521216397122,39.6168419716645,3.065760608198561,0.6222998984830449,B,584.9739000000227,Correct
8,308,270,A,46.632579615296855,59.70722396129297,2.331628980764843,0.9378788808151922,A,821.4044999999714,Correct
8,308,271,A,16.4716759637547,44.29632371532598,0.823583798187735,0.6958050258255172,A,466.96239999982936,Correct
8,308,272,B,43.172485739255066,19.544721369763394,2.1586242869627537,0.3070077653585406,B,594.9245000001611,Correct
8,308,273,B,82.02319005537981,55.28732919796821,4.101159502768991,0.8684513362246871,B,628.0920999997761,Correct
8,308,274,B,48.520974109674995,23.456135630813726,2.42604870548375,0.3684481168968509,B,494.8559999997997,Correct
8,308,275,B,69.28906267132808,55.722213022849004,3.4644531335664044,0.8752824753717395,B,1553.6376999998538,Correct
8,308,276,A,60.4902172953462,78.89396743475642,3.02451086476731,1.2392635425279157,A,649.3749000001117,Correct
8,308,277,B,52.427291049441315,22.50133545165605,2.6213645524720657,0.3534501507544111,B,478.9511999997558,Correct
8,308,278,A,60.80929798959424,74.59366572081655,3.040464899479712,1.1717145611642503,A,557.5254000000314,Correct
8,308,279,B,61.5864161699386,38.65779295577027,3.0793208084969304,0.6072351917692157,B,841.418099999828,Correct
8,308,280,B,72.3276601749652,56.53745708642326,3.6163830087482602,0.8880882991767777,B,510.1693999999952,Correct
8,308,281,B,33.65935721146837,10.772131521417137,1.6829678605734184,0.16920824625593558,B,816.9035000000804,Correct
8,308,282,A,40.42318474889201,50.841955308948585,2.021159237444601,0.7986235664636673,B,696.9318000001294,Incorrect
8,308,283,B,40.396016899069245,20.461671608099117,2.0198008449534623,0.32141118602085517,B,580.5078999997022,Correct
8,308,284,A,39.688202966487786,65.29641761345967,1.9844101483243892,1.0256737294008802,A,869.3469999998342,Correct
8,308,285,A,40.27939028637546,63.288454104660204,2.0139695143187732,0.9941327123612765,A,870.7655000002887,Correct
8,308,286,B,64.41816495967227,36.734933289317134,3.2209082479836133,0.5770309827591492,B,909.1384000003018,Correct
8,308,287,B,72.00801997733811,46.52917738659559,3.6004009988669052,0.7308786092765251,B,570.082100000036,Correct
8,308,288,B,45.87235049865095,37.7227560850564,2.2936175249325474,0.5925476669498644,B,955.5242999999791,Correct
8,308,289,B,51.71518156001028,42.378242914834296,2.5857590780005135,0.6656758830664357,B,561.5978000000723,Correct
8,308,290,B,61.26959642354406,48.230473055959024,3.0634798211772027,0.7576024991588066,B,1227.2671999999147,Correct
8,308,291,B,70.51512863461431,46.667721634521406,3.5257564317307155,0.7330548572339295,B,2036.10290000006,Correct
8,308,292,B,50.06939948228189,30.56992046645613,2.503469974114094,0.48019118779121417,B,1810.739300000023,Correct
8,308,293,A,16.840281431127334,40.06928455460529,0.8420140715563668,0.6294068499567347,A,608.5737999997036,Correct
8,308,294,B,45.77435240967106,28.926994065273256,2.288717620483553,0.45438416022949,B,831.2293999997564,Correct
8,308,295,B,44.652322326093255,19.79015045910456,2.232616116304663,0.3108629564787978,B,567.537099999754,Correct
8,308,296,A,40.6042593699711,57.371973770784,2.030212968498555,0.9011968566012067,A,594.0339999997377,Correct
8,308,297,B,53.42677291943998,41.39746186288471,2.6713386459719994,0.6502698103285113,B,780.5121000001236,Correct
8,308,298,A,34.1475411794873,61.679502352473314,1.7073770589743649,0.9688593573380226,A,526.1751999996704,Correct
8,308,299,A,45.31912020205489,69.21393208401616,2.2659560101027445,1.0872099028060402,A,605.9358000002248,Correct
8,308,300,A,65.40653074792593,84.86551205693797,3.270326537396296,1.3330643461060618,A,721.2764000000789,Correct
8,308,301,A,48.52218207631993,56.7639197871083,2.4261091038159965,0.8916455669606987,B,2834.090599999854,Incorrect
8,308,302,A,59.281099279831054,72.96467689991718,2.9640549639915523,1.1461264646016636,A,541.7277000001377,Correct
8,308,303,B,57.72052762031506,49.10618170945738,2.886026381015753,0.7713580985213838,B,1451.7845999998826,Correct
8,308,304,B,79.55563921619735,56.55303040022184,3.9777819608098675,0.888332924217886,B,585.6335000003128,Correct
8,308,305,A,39.243150009669996,53.9588612711339,1.9621575004834997,0.8475838108273255,A,1375.7041999997455,Correct
8,308,306,A,43.54104996483726,69.52057192047812,2.177052498241863,1.0920265900936745,A,1515.3126000000157,Correct
8,308,307,B,71.63310256184069,45.63923867037894,3.5816551280920343,0.7168994846114684,B,463.4443999998439,Correct
8,308,308,A,38.51326039160033,58.0107333884236,1.9256630195800168,0.9112304692121386,A,606.0893000003489,Correct
8,308,309,B,74.26097818176302,49.31277782022272,3.7130489090881507,0.774603302640587,B,549.8520999999528,Correct
8,308,310,A,28.84652670411599,42.38822119673045,1.4423263352057996,0.6658326215519376,A,2077.0455000001675,Correct
8,308,311,B,73.39735261541205,55.96088918966845,3.6698676307706024,0.8790315918330744,B,1557.6022999998713,Correct
8,308,312,A,50.640307987554806,67.54917410579105,2.5320153993777406,1.0610599456340553,A,762.0686000000205,Correct
8,308,313,B,77.3523084443172,49.98981551463357,3.8676154222158603,0.7852381858754095,B,1189.940299999762,Correct
8,308,314,B,72.59733654109198,49.56928003874664,3.629866827054599,0.7786324300673081,B,2632.1705000000293,Correct
8,308,315,A,15.370103312378532,35.409073440757375,0.7685051656189266,0.5562044249595242,A,2072.189999999864,Correct
8,308,316,A,36.82429873099063,57.73719981328431,1.8412149365495312,0.9069338138612998,A,1180.0703999997495,Correct
8,308,317,B,70.63169087733795,39.92524695853622,3.5315845438668974,0.6271443126884781,B,883.5466999998971,Correct
8,308,318,B,72.12476322978729,56.2714959534501,3.6062381614893644,0.8839105914693329,B,1164.3880999999965,Correct
8,308,319,B,35.68449457321773,23.785409433638428,1.7842247286608863,0.37362033769671926,B,961.0906000002615,Correct
8,308,320,A,28.048560634761436,58.41547358338803,1.4024280317380717,0.9175881133277023,A,1529.3979000002764,Correct
8,308,321,B,60.779355034941005,27.76727061337374,3.03896775174705,0.43616726684607343,B,814.9492999996255,Correct
8,308,322,A,42.151028714447044,51.88628144418887,2.1075514357223524,0.8150278030357807,A,2051.393000000189,Correct
8,308,323,A,39.236668542375796,57.52000682224538,1.9618334271187898,0.9035221543360044,A,1663.263299999926,Correct
8,308,324,B,76.20728576735905,54.234783456894874,3.8103642883679525,0.851917986386071,B,760.3950000002442,Correct
8,308,325,A,44.810146344444526,68.94972153161835,2.2405073172222263,1.083059693153971,A,588.2649000000129,Correct
8,308,326,A,48.77747048504412,76.57081137235828,2.438873524252206,1.2027714924340527,A,698.3817000000272,Correct
8,308,327,B,81.84987921612486,61.318475537769814,4.092493960806243,0.9631883613939154,B,512.1565999997983,Correct
8,308,328,A,31.87594851307614,43.69356006898495,1.593797425653807,0.6863368366095373,B,851.2203999998746,Incorrect
8,308,329,A,24.58546320407558,38.64315053258322,1.229273160203779,0.6070051891236397,A,1160.7275999999729,Correct
8,308,330,B,78.94103380592625,53.155562208547146,3.947051690296313,0.8349656186590347,B,546.984899999643,Correct
8,308,331,B,35.00792146067561,14.805635275537476,1.7503960730337806,0.23256637506679215,B,630.5744000001141,Correct
8,308,332,B,73.6864620035802,56.92946342960171,3.6843231001790104,0.8942459204162276,B,688.7977999999748,Correct
8,308,333,B,57.316773860589045,33.46164385438993,2.865838693029452,0.5256142725499473,B,525.780300000406,Correct
8,308,334,B,39.26007142943027,20.261191999246417,1.9630035714715135,0.3182620596890242,B,475.8726999998544,Correct
8,308,335,B,75.32925637782638,51.37984233267522,3.766462818891319,0.8070726760746715,B,527.753599999869,Correct
8,308,336,B,61.38028950705202,50.24887364882491,3.069014475352601,0.7893074615315505,B,452.47580000022936,Correct
8,308,337,B,47.60769660362695,19.439160920329186,2.3803848301813475,0.3053496256962799,B,453.28779999999824,Correct
8,308,338,B,63.2160878624932,31.547449675290288,3.1608043931246597,0.49554618069692835,B,464.0850999999202,Correct
8,308,339,B,40.23584434402325,13.834832806872448,2.011792217201162,0.2173170455485677,B,507.69499999978507,Correct
8,308,340,B,38.149597381953676,23.9733369682886,1.9074798690976837,0.37657229650804036,B,518.9789999999448,Correct
8,308,341,A,36.05136397864687,51.058993218672214,1.8025681989323434,0.8020327899773585,A,601.7836999999417,Correct
8,308,342,B,83.81869428783193,59.56859901325837,4.190934714391597,0.9357013652234435,B,789.6439999999529,Correct
8,308,343,A,48.628609696994616,56.14951175323675,2.431430484849731,0.8819944681331118,B,1559.3512000000374,Incorrect
8,308,344,A,46.74459786410553,55.71724806780454,2.337229893205276,0.8752044860402741,A,806.783699999869,Correct
8,308,345,A,45.42543189835318,70.39605476378536,2.2712715949176587,1.1057786424380642,A,673.0449000001499,Correct
8,308,346,B,69.67198266122017,55.69807705890693,3.4835991330610083,0.8749033485367009,B,1400.7591999998112,Correct
8,308,347,B,51.248422311391586,40.79158769532806,2.5624211155695793,0.6407527611595323,B,601.0659999997188,Correct
8,308,348,A,48.390164459434864,76.55199757771672,2.4195082229717433,1.2024759660388926,A,592.8454999998394,Correct
8,308,349,B,38.83211252109665,17.624206953431102,1.9416056260548322,0.27684039545122646,B,747.6019999999153,Correct
8,308,350,B,75.03863939349235,60.67330236066584,3.7519319696746174,0.9530540048265002,B,871.7008000003261,Correct
8,308,351,B,55.51752484517092,45.99123621819268,2.775876242258546,0.7224286491629347,B,1749.804099999892,Correct
8,308,352,B,55.412699688303384,39.627004223970154,2.770634984415169,0.6224595267689818,B,751.5014999999039,Correct
8,308,353,A,25.218879429720147,50.854001906206555,1.2609439714860073,0.7988127939708993,A,830.141200000071,Correct
8,308,354,A,48.348451071196195,67.95778508791584,2.4174225535598097,1.067478391932152,A,1207.849299999907,Correct
8,308,355,A,53.701844541744194,81.91655991825621,2.68509222708721,1.286742314232709,A,650.5747000001065,Correct
8,308,356,B,47.77994823009599,36.749715218337954,2.3889974115047994,0.5772631767572377,B,1220.2840999998443,Correct
8,308,357,A,36.735285181870275,60.51899824303393,1.8367642590935136,0.950630201414645,A,617.2819000003074,Correct
8,308,358,B,79.44645326795569,54.9160771008564,3.9723226633977844,0.8626197219201056,B,555.4681999997229,Correct
8,308,359,A,34.54400036258157,50.49783479051481,1.7272000181290788,0.7932181340003619,B,2591.640699999971,Incorrect
8,308,360,A,58.61519149780872,70.5866675290567,2.9307595748904363,1.1087727807533485,A,4475.2276999997775,Correct
8,308,361,B,57.08755819527986,34.7888132639993,2.854377909763993,0.5464614008864368,B,604.1258999998718,Correct
8,308,362,A,43.58016090452303,72.08660565095285,2.1790080452261513,1.1323337536762896,A,610.2035999997497,Correct
8,308,363,A,41.970091329600805,57.437574054908914,2.09850456648004,0.9022273034546078,A,1050.8012000000235,Correct
8,308,364,A,27.674490513472115,46.727058447282786,1.3837245256736057,0.7339869177092224,A,675.0667999999678,Correct
8,308,365,B,79.1288574776899,62.07059341005823,3.9564428738844954,0.9750026013049898,B,554.2703000000984,Correct
8,308,366,A,29.264693147586193,49.75918454021139,1.4632346573793098,0.7816154430007346,A,708.7654000001748,Correct
8,308,367,A,48.81830037529668,60.62014757792265,2.440915018764834,0.9522190514516546,A,672.8941999999734,Correct
8,308,368,B,55.1933707198477,36.75785709343038,2.759668535992385,0.5773910690321218,B,689.2096999999922,Correct
8,308,369,A,62.15190158425017,72.60054274855852,3.107595079212508,1.1404066587275161,A,615.2701999999408,Correct
8,308,370,A,61.55315838783632,88.36511988852486,3.0776579193918163,1.3880360573768549,A,554.9033000002055,Correct
8,308,371,B,73.69902215985577,56.15899218257552,3.6849511079927884,0.8821433863689293,B,551.0675999998966,Correct
8,308,372,B,56.749271715280145,29.982131728818523,2.837463585764007,0.47095822389108855,B,484.5970000001216,Correct
8,308,373,A,35.155594235024424,61.39816134585569,1.757779711751221,0.9644400631403053,A,1194.659700000102,Correct
8,308,374,B,49.238396550557255,36.13684752611364,2.4619198275278626,0.5676362735596656,B,473.85220000023764,Correct
8,308,375,A,61.40916222935107,71.88546398982194,3.0704581114675533,1.1291742278515913,B,2899.0028999996866,Incorrect
8,308,376,B,60.03300019304172,44.88933588611385,3.001650009652086,0.7051200392216997,B,590.5566999999792,Correct
8,308,377,B,58.425534116563135,51.42044098119202,2.9212767058281566,0.8077103981543019,B,887.1321999999964,Correct
8,308,378,A,37.04311754403246,54.343388996102185,1.8521558772016231,0.8536239582066352,B,2415.7607000001917,Incorrect
8,308,379,B,65.91877718132709,47.841241952564104,3.295938859066354,0.7514884712839359,B,881.3994000001912,Correct
8,308,380,A,40.99335050902458,62.564409273966334,2.049667525451229,0.9827594427563887,A,541.5533999998843,Correct
8,308,381,A,18.47937909702257,33.46371155417329,0.9239689548511285,0.5256467519021935,A,520.3317999998944,Correct
8,308,382,B,61.73576043971924,33.09742850579585,3.086788021985962,0.5198931912326082,B,545.4691999998431,Correct
8,308,383,B,63.71811874429276,35.32580832958825,3.185905937214638,0.5548964996517778,B,550.7443000001331,Correct
8,308,384,B,43.323155820182606,25.134811010595577,2.1661577910091303,0.3948166881012745,B,493.6284999998861,Correct
8,308,385,B,81.57138293076937,51.12336812830232,4.078569146538468,0.8030439886932056,B,529.790999999932,Correct
8,308,386,B,81.03817203719149,64.71098441112278,4.051908601859575,1.0164777661627347,B,721.802900000057,Correct
8,308,387,A,61.95619710367389,73.41012483697764,3.0978098551836943,1.1531235444347927,A,695.6528999999136,Correct
8,308,388,A,55.60394959831052,70.93782246652304,2.7801974799155262,1.1142887096124288,A,740.5805000003056,Correct
8,308,389,B,71.84742964593988,41.68504015458431,3.5923714822969943,0.6547870795711879,B,527.1216999999524,Correct
8,308,390,A,40.820787473219205,66.81046570935024,2.0410393736609604,1.0494563412770375,A,581.9973000002392,Correct
8,308,391,B,67.05789781683731,57.70722062131761,3.3528948908418656,0.906462901815084,B,1571.5492000003906,Correct
8,308,392,B,32.03506003395944,15.085203502105912,1.601753001697972,0.23695782250061476,B,995.8690000003116,Correct
8,308,393,B,81.94875465443795,62.15594395922388,4.097437732721898,0.9763432845961831,B,808.2718999999088,Correct
8,308,394,B,78.34372833217503,58.06364976408238,3.9171864166087516,0.9120616776972597,B,958.3732000000964,Correct
8,308,395,A,65.39980388940756,84.65474698487468,3.2699901944703784,1.3297536560959249,A,1300.4600000003848,Correct
8,308,396,B,70.1178696244248,53.01551616922407,3.5058934812212397,0.8327657806175263,B,841.4659999998548,Correct
8,308,397,B,80.75967998396855,61.39330432382796,4.037983999198428,0.9643637692167021,B,799.5151999998598,Correct
8,308,398,B,52.44654161465137,42.86481728766284,2.6223270807325685,0.6733189754419517,B,778.8438000002316,Correct
8,308,399,B,58.35211079885529,36.52861536066244,2.9176055399427643,0.5737901483143221,B,426.59920000005513,Correct
8,308,400,B,64.7436518591363,38.79625984399359,3.2371825929568154,0.6094102245632547,B,556.6068999996787,Correct
8,308,401,B,46.55515741983842,17.75919038975319,2.3277578709919213,0.27896071031075537,B,546.646199999941,Correct
8,308,402,A,63.425112847765774,75.06784328714652,3.1712556423882887,1.1791629249586468,A,673.3047999996415,Correct
8,308,403,A,22.686548149321546,54.77101794693462,1.1343274074660772,0.8603411380586224,A,532.0459999998093,Correct
8,308,404,A,34.69198631945304,60.85279000649262,1.7345993159726518,0.9558733901741978,A,946.9553999997515,Correct
8,308,405,A,54.097653595155464,74.79302455846218,2.704882679757773,1.1748460824631286,A,580.9236999998575,Correct
8,308,406,A,45.69957294370005,62.45471162960694,2.284978647185002,0.9810363161882109,A,2091.557400000056,Correct
8,308,407,A,28.908085775573817,57.6978728272048,1.4454042887786909,0.9063160670085237,A,4422.066800000266,Correct
8,308,408,A,55.118660714850165,73.57680023691152,2.7559330357425087,1.1557416754946248,B,4883.64300000012,Incorrect
8,308,409,A,46.59500987533903,56.82241564289339,2.3297504937669515,0.892564417714698,B,778.8158999996995,Incorrect
8,308,410,B,52.084315306621576,40.92060094784373,2.604215765331079,0.642779296591127,B,582.1446000004471,Correct
8,308,411,A,43.291780675901265,53.496884670120664,2.164589033795063,0.8403270993479576,A,982.1942999997191,Correct
8,308,412,B,74.36223166141153,57.55273043624909,3.7181115830705767,0.9040361756627693,B,552.4029000002884,Correct
8,308,413,A,21.672773167715075,47.29642607991068,1.0836386583857538,0.7429305235685005,A,557.9412000001867,Correct
8,308,414,B,80.53104368293721,51.18068593343317,4.02655218414686,0.8039443346708006,B,603.4857999998167,Correct
8,308,415,A,28.943278455910253,39.26262234612393,1.4471639227955126,0.6167358296162669,A,485.1290000001427,Correct
8,308,416,B,85.82825127519516,63.63804104448802,4.291412563759758,0.9996240111710465,B,860.0912000001699,Correct
8,308,417,A,14.118964110773732,41.06698597577589,0.7059482055386865,0.645078707232863,A,805.1817999999002,Correct
8,308,418,A,34.76332281193352,61.753898655071715,1.738166140596676,0.9700279717265097,A,692.6243999996586,Correct
8,308,419,B,61.81176107950976,31.860621701747462,3.090588053975488,0.5004654753850668,B,587.5765000000683,Correct
8,308,420,A,55.47121135631978,62.93003359769927,2.773560567815989,0.9885026562034545,A,742.0468999998775,Correct
8,308,421,A,24.08808682238597,51.46529774207042,1.2044043411192986,0.8084150065064991,A,2497.130499999912,Correct
8,308,422,A,58.01478986514506,70.77914767860759,2.9007394932572534,1.1117962518723032,A,750.6570999998985,Correct
8,308,423,B,85.7664426840951,69.37948594526277,4.288322134204755,1.0898104167773692,B,1771.092999999837,Correct
8,308,424,B,60.310279582819845,42.018355647412285,3.015513979140992,0.6600227870891682,B,654.9764999999752,Correct
8,308,425,B,66.53211106824344,41.48191046249318,3.3266055534121723,0.6515963258291908,B,517.3478000001523,Correct
8,308,426,A,30.288162432402864,51.547551605310346,1.514408121620143,0.8097070471689187,A,526.7036000000189,Correct
8,308,427,B,71.5756581808627,50.94755240087847,3.5787829090431353,0.8002822817049041,B,624.3945000001077,Correct
8,308,428,B,76.72045490636548,62.34437524948591,3.836022745318274,0.9793031563821512,B,564.8325000001932,Correct
8,308,429,A,29.582606091467582,50.08683424220682,1.4791303045733792,0.7867621524844333,A,689.805399999841,Correct
8,308,430,A,53.44450403811993,77.48276343352573,2.6722252019059964,1.2170964019130015,A,645.6873000001906,Correct
8,308,431,A,18.020321671106558,39.40947786221851,0.9010160835553279,0.6190426306687763,A,1667.7534000000378,Correct
8,308,432,A,24.799326470289458,49.02473932508259,1.239966323514473,0.7700788045391705,A,747.2361000000092,Correct
8,308,433,B,60.59417474176447,28.813945393282992,3.0297087370882236,0.45260839584237655,B,572.9347999999845,Correct
8,308,434,A,40.81946582145237,58.98063904037102,2.040973291072618,0.9264657115663046,A,825.3538999997545,Correct
8,308,435,B,69.08390557887452,45.972425216811516,3.4541952789437262,0.7221331666442061,B,617.0959999999468,Correct
8,308,436,B,54.41072132200167,38.76644712114455,2.7205360661000833,0.6089419274078245,B,912.5390999997762,Correct
8,308,437,B,84.9391747345385,56.85678601721739,4.246958736726925,0.8931043062920851,B,494.67060000006313,Correct
8,308,438,A,35.63854485497006,56.617525480649036,1.781927242748503,0.8893460105721996,A,646.6608999999153,Correct
8,308,439,A,60.821596290367104,79.23456650946463,3.0410798145183553,1.2446136602825295,A,605.5716000000757,Correct
8,308,440,A,63.2265891028552,86.2419088591827,3.16132945514276,1.3546847365178445,A,562.0084000001953,Correct
8,308,441,A,49.07834543238107,59.03630727268408,2.4539172716190536,0.9273401461146699,A,472.1012999998493,Correct
8,308,442,A,56.30049981276562,69.96676389052206,2.815024990638281,1.0990353571695786,A,563.4344000000056,Correct
8,308,443,B,64.25099404570977,54.254466318784445,3.2125497022854885,0.8522271640576404,B,816.3973999999143,Correct
8,308,444,B,66.23533878024023,43.006783107851504,3.3117669390120112,0.6755489693307795,B,504.42400000019916,Correct
8,308,445,B,80.9053295294456,59.06071676513287,4.045266476472279,0.9277235695254447,B,577.8090999997403,Correct
8,308,446,A,54.561813604019186,66.06483036071842,2.7280906802009595,1.0377439286094445,A,571.4861999999812,Correct
8,308,447,B,39.62938313522062,28.61202347474657,1.981469156761031,0.4494366137630127,B,610.952599999564,Correct
8,308,448,B,80.08513575549927,52.83695419568812,4.004256787774963,0.829960935696171,B,765.1857000000746,Correct
8,308,449,B,49.42854010339476,25.60657184790191,2.4714270051697382,0.4022270900049393,B,563.528000000133,Correct
8,308,450,A,37.32425347834357,49.09178197092918,1.8662126739171785,0.7711319079575147,A,1371.2823000000753,Correct
8,308,451,A,56.91288345604243,65.86670429395838,2.845644172802121,1.0346317716303546,A,511.98900000008507,Correct
8,308,452,B,61.82038547130813,44.22112882653485,3.091019273565406,0.6946238672744486,B,957.2265000001607,Correct
8,308,453,B,33.650506815156206,10.424751426839642,1.6825253407578102,0.16375161249029566,B,671.1818999997377,Correct
8,308,454,B,34.68172842057636,17.230174573888775,1.734086421028818,0.2706509493069931,B,617.4507000000631,Correct
8,308,455,A,35.455442665748734,52.991582041975704,1.7727721332874367,0.8323898242258584,A,554.3109999998705,Correct
8,308,456,B,82.98425873461167,61.74198297911132,4.149212936730583,0.969840800726211,B,943.8104999999268,Correct
8,308,457,A,49.615160799778224,62.3878945752427,2.480758039988911,0.9799867563525848,A,610.8686000002308,Correct
8,308,458,B,57.190454188247976,26.03406456983667,2.8595227094123987,0.408942129978406,B,531.6952000002857,Correct
8,308,459,B,74.1098240821938,55.55971141340847,3.7054912041096895,0.8727299060596652,B,507.14860000016415,Correct
8,308,460,B,56.41907482233432,28.979564769518817,2.8209537411167163,0.45520993892074946,B,450.3575999997338,Correct
8,308,461,B,42.678364842585296,24.61016517767815,2.1339182421292646,0.3865755706291252,B,611.4674999998897,Correct
8,308,462,A,45.46979590679178,70.2881308048983,2.273489795339589,1.104083376856135,A,625.8298000002469,Correct
8,308,463,B,45.095524665064296,35.93819789832537,2.2547762332532146,0.5645158925031757,B,1069.1569999999047,Correct
8,308,464,A,17.044981752700487,43.06884357614263,0.8522490876350244,0.6765238128870882,A,486.5812000002734,Correct
8,308,465,A,54.87685705896876,82.24806015200564,2.743842852948438,1.2919495077277614,A,718.0404000000635,Correct
8,308,466,A,10.404275797497892,35.0684704231015,0.5202137898748945,0.5508542452692331,A,526.0583999997834,Correct
8,308,467,B,47.60063408887964,24.101087536878772,2.380031704443982,0.37857899774691434,B,691.840499999671,Correct
8,308,468,A,49.136608719345354,74.12932148752674,2.4568304359672677,1.16442065900405,A,638.9011999999639,Correct
8,308,469,B,73.40170286057098,51.09396529140639,3.6700851430285493,0.802582130011271,B,618.7856000001375,Correct
8,308,470,A,37.966765795670675,50.96811384372935,1.898338289783534,0.8006052600939417,A,1108.479299999999,Correct
8,308,471,A,43.85289626681084,61.70959093480113,2.1926448133405416,0.9693319876840126,A,570.841300000211,Correct
8,308,472,A,34.70866846896906,47.12628243847102,1.7354334234484527,0.7402579134984912,A,509.9089999998796,Correct
8,308,473,B,69.35800770516134,60.35753506522603,3.4679003852580674,0.9480939437485121,B,673.4972999997808,Correct
8,308,474,B,60.73411285820939,52.06001145291168,3.0367056429104697,0.8177567476313391,B,695.5548999999337,Correct
8,308,475,A,49.844762805700086,60.73176913492374,2.4922381402850045,0.9539723987689388,A,533.9266000000862,Correct
8,308,476,B,33.659187529566054,11.518132618251325,1.6829593764783026,0.18092640408285665,B,518.2454000000689,Correct
8,308,477,A,39.884643811124434,65.33919430110285,1.9942321905562215,1.026345664039104,A,687.6228999999512,Correct
8,308,478,B,85.4651217285271,61.77347137650143,4.273256086426355,0.9703354193157814,B,745.5906000000141,Correct
8,308,479,A,59.63867852814276,82.0409298725418,2.981933926407138,1.2886959129062634,A,544.7644999999284,Correct
8,308,480,A,53.575637127510085,61.17792956315977,2.678781856375504,0.9609806703872829,A,855.3806999998415,Correct
8,308,481,A,46.31750519492566,58.43407491016451,2.3158752597462833,0.9178803022854423,A,871.698799999649,Correct
8,308,482,B,86.6873272048809,65.29177815924922,4.3343663602440445,1.025600853024559,B,477.5203000003785,Correct
8,308,483,B,64.70402739203278,43.17972955616467,3.2352013696016395,0.6782656057882049,B,439.7318000001178,Correct
8,308,484,B,33.92735223405242,12.045434911495747,1.696367611702621,0.18920924913624532,B,610.7700000002296,Correct
8,308,485,B,77.12188845814111,45.0561939070684,3.856094422907056,0.7077410388858164,B,530.7763000000705,Correct
8,308,486,A,14.495220353518796,43.267284542107994,0.7247610176759397,0.6796409162913284,A,693.0272999998124,Correct
8,308,487,A,38.21292690607307,49.90514259882505,1.9106463453036537,0.7839081468240992,A,503.5305999999764,Correct
8,308,488,A,48.16761849698259,74.20035485136445,2.4083809248491295,1.1655364484740116,A,638.1683999998131,Correct
8,308,489,A,39.03722216770459,71.36391126114864,1.9518611083852295,1.1209816967472925,A,556.5320000000611,Correct
8,308,490,A,58.3788649134823,85.37160388284707,2.918943245674115,1.341014017917651,A,1113.788999999997,Correct
8,308,491,B,69.50361133128574,46.52130139930164,3.475180566564287,0.730754893557413,B,510.2253000000019,Correct
8,308,492,B,80.9243022815262,64.95235294956824,4.046215114076309,1.0202691742986745,B,959.6048999997038,Correct
8,308,493,B,31.829263263208848,15.408834368573967,1.5914631631604426,0.24204140426346948,B,528.4650999997211,Correct
8,308,494,A,47.07927502370366,67.5319500949843,2.3539637511851828,1.060789391504976,A,2041.0251000002972,Correct
8,308,495,A,39.263382668540174,65.53236263181532,1.9631691334270087,1.0293799450824666,A,984.2123000003085,Correct
8,308,496,B,87.86641192739168,68.76033939162173,4.393320596369584,1.0800848854552985,B,1625.6344999997054,Correct
8,308,497,A,32.24111784308647,49.15245482872429,1.6120558921543235,0.7720849549791219,B,662.0794999998907,Incorrect
8,308,498,A,67.56513693495793,85.23087593380384,3.3782568467478966,1.3388034684633063,A,1583.4850000001097,Correct
8,308,499,B,76.5007736186748,52.29400550234895,3.8250386809337398,0.8214323175648185,B,539.6085999996103,Correct
8,308,500,B,63.17632201840405,31.395358717567525,3.1588161009202027,0.493157141519632,B,894.0883999998732,Correct
8,308,501,A,22.192776714981985,46.279638315981494,1.1096388357490994,0.7269588587214009,A,669.574399999874,Correct
8,308,502,A,15.839306071321044,36.20461173225259,0.7919653035660522,0.5687007112205779,A,1005.077600000277,Correct
8,308,503,B,59.80898616779296,33.85885641825439,2.990449308389648,0.531853672912698,B,772.5448999999571,Correct
8,308,504,A,30.795252096633682,59.13703743770461,1.539762604831684,0.9289224118467869,A,502.48969999984183,Correct
8,308,505,A,64.91612317956888,88.81325290419915,3.2458061589784446,1.395075314326222,A,1044.0056000002187,Correct
8,308,506,A,14.037000876387758,39.99380686109882,0.701850043819388,0.6282212491195855,A,898.0900000001384,Correct
8,308,507,A,39.03231925062466,52.666365016923976,1.9516159625312328,0.8272813271422342,A,840.7204999998612,Correct
8,308,508,A,36.500619863446786,46.923115299322646,1.8250309931723394,0.7370665715394942,A,521.2876999999025,Correct
8,308,509,B,81.35945203301368,52.18107688834597,4.067972601650684,0.8196584390441591,B,821.7422000002443,Correct
8,308,510,A,33.96078637657676,66.84741489242118,1.6980393188288383,1.0500367376874966,A,1033.3073000001605,Correct
8,308,511,B,55.88801187946852,31.57486841067318,2.7944005939734264,0.49597687318517647,B,831.1628000001292,Correct
8,308,512,B,75.52793316797586,42.9277108287561,3.776396658398793,0.6743069048752358,B,998.0872000001,Correct
8,308,513,A,21.786316827001254,34.48997107809393,1.0893158413500628,0.5417671988073216,A,524.411599999894,Correct
8,308,514,A,29.527442266899023,46.60502706099041,1.476372113344951,0.7320700531758048,A,747.8987999998026,Correct
8,308,515,A,44.87133392256296,61.888702648756805,2.243566696128148,0.9721454679076877,A,1137.9342000000179,Correct
8,308,516,B,32.71487776481479,16.728710114849616,1.6357438882407394,0.2627739640042241,B,947.3745999998755,Correct
8,308,517,A,59.6118698023308,76.80245167474585,2.9805934901165405,1.2064100897953336,A,847.8125999999975,Correct
8,308,518,B,80.37883642982099,66.16913412175461,4.018941821491049,1.03938232825651,B,778.5820000003696,Correct
8,308,519,A,42.730963781968384,54.2224517478015,2.1365481890984195,0.8517242803526012,A,999.2749999996704,Correct
8,308,520,A,34.60623366280538,50.459454601953894,1.730311683140269,0.7926152594082301,A,999.6304999999666,Correct
8,308,521,A,31.300350914605005,60.26277666590844,1.5650175457302504,0.9466054822927019,A,588.0074000001514,Correct
8,308,522,B,78.28633896527498,49.25315915422496,3.9143169482637488,0.7736668148250099,B,504.76519999983793,Correct
8,308,523,B,65.95924447545997,49.970609201401885,3.2979622237729984,0.7849364938126535,B,626.9502999998622,Correct
8,308,524,A,27.216519401478706,46.37728094934125,1.3608259700739354,0.7284926256196016,A,745.0346000000536,Correct
8,308,525,B,58.78865629795492,48.887046529311135,2.939432814897746,0.7679159311609313,B,1512.22880000023,Correct
8,308,526,B,58.139590075404584,32.71483944310787,2.9069795037702293,0.5138834962891864,B,653.7491000003683,Correct
8,308,527,A,42.16050371526257,63.20031296543176,2.1080251857631285,0.9927481945838809,A,527.4213000002419,Correct
8,308,528,B,74.32883893519812,49.448966512654714,3.716441946759906,0.7767425496188186,B,836.1308000003191,Correct
8,308,529,A,61.580813301714024,83.9159381261426,3.079040665085701,1.3181484736809261,A,620.4483999999866,Correct
8,308,530,A,48.4588968799397,75.37601110548077,2.422944843996985,1.1840036137294052,A,913.6897000003046,Correct
8,308,531,A,51.23692325848236,59.17975438094714,2.5618461629241183,0.9295934080221594,A,654.6941000001425,Correct
8,308,532,A,48.782725834159066,62.25627682239869,2.4391362917079533,0.9779193095255012,A,1365.0364000000081,Correct
8,308,533,A,62.038133437428094,80.06979362129812,3.101906671871405,1.2577333770756052,A,576.3680999998542,Correct
8,308,534,B,48.247742466794705,25.126338065385042,2.412387123339735,0.3946835953891361,B,674.8784000001251,Correct
8,308,535,B,40.30339105419942,31.06031582150128,2.0151695527099713,0.48789430001503625,B,642.3469000001205,Correct
8,308,536,A,22.9359480947459,36.768504267722776,1.1467974047372949,0.5775583144548142,A,1401.8338000000767,Correct
8,308,537,A,66.38353291904218,78.71345266573634,3.3191766459521093,1.2364280231668259,A,560.7260000001588,Correct
8,308,538,A,21.034708094838,34.51481673930927,1.0517354047418999,0.5421574735410601,A,1083.1914999998844,Correct
8,308,539,A,14.331292565188058,37.87829299822832,0.7165646282594028,0.5949908350687789,A,604.629500000101,Correct
8,308,540,A,36.233632502146605,48.860606823578706,1.8116816251073302,0.7675006172344709,A,719.39569999995,Correct
8,308,541,B,77.58809578917716,65.23686164483365,3.879404789458858,1.024738226433316,B,631.7030999998678,Correct
8,308,542,B,50.48584737409965,33.82099708496898,2.5242923687049825,0.5312589798961018,B,561.8986999998015,Correct
8,308,543,A,25.411309862134907,37.729690994159874,1.2705654931067454,0.5926566002473282,A,2576.2884000000668,Correct
8,308,544,B,60.2453794797228,52.532972917752524,3.0122689739861404,0.8251860089482144,B,573.2481000000007,Correct
8,308,545,B,86.20215737705553,67.75660758862112,4.310107868852777,1.0643183031628929,B,525.568199999725,Correct
8,308,546,B,62.73506958337513,54.495753019886806,3.1367534791687564,0.8560172866956008,B,2143.214000000171,Correct
8,308,547,A,50.481371830254965,70.44222292214303,2.5240685915127483,1.1065038501736955,A,689.1857000000527,Correct
8,308,548,A,60.76041603247714,72.06246657309251,3.0380208016238566,1.1319545779279372,A,831.8349000001035,Correct
8,308,549,A,41.39440717407268,50.01705129990102,2.069720358703634,0.7856660045899643,A,2253.9120999999795,Correct
