subject,day,trial,cat,x,y,xt,yt,resp,rt,fb
5,205,0,A,65.28788129128024,88.2345983296947,3.264394064564012,1.3859858295250755,A,691.2170999999034,Correct
5,205,1,A,59.486757257471815,82.08673229767712,2.9743378628735906,1.2894153757178721,A,521.5610000000197,Correct
5,205,2,A,46.42520717945016,76.68472397328271,2.321260358972508,1.2045608273851303,A,485.44270000002143,Correct
5,205,3,B,59.52012083751586,31.272505703794263,2.976006041875793,0.4912273708919248,B,389.1650999999001,Correct
5,205,4,B,39.02374390358489,19.533663601486555,1.9511871951792443,0.30683407034062254,B,416.2284000001364,Correct
5,205,5,A,38.75039342873072,60.23343045979472,1.937519671436536,0.9461445131650137,A,494.31559999993624,Correct
5,205,6,A,41.62055034884984,58.71194072302301,2.0810275174424917,0.9222450082672425,A,468.1246000000101,Correct
5,205,7,A,22.088266954583222,42.96732497920753,1.104413347729161,0.674929162495418,A,702.3567999999614,Correct
5,205,8,B,58.1248354262951,42.47276062051909,2.9062417713147553,0.6671605637155031,B,465.6703999999081,Correct
5,205,9,B,59.00594815975036,38.713374772658376,2.950297407987518,0.6081082689072599,B,546.5022000000772,Correct
5,205,10,B,50.44403576201676,31.774281736905046,2.5222017881008383,0.4991092503887661,B,606.978799999979,Correct
5,205,11,A,48.95548572222423,60.984463353958034,2.4477742861112115,0.9579417102795527,A,680.3572999999687,Correct
5,205,12,B,47.12325492874987,23.81032865696904,2.3561627464374935,0.3740117679414624,B,602.8640999998061,Correct
5,205,13,A,19.957361848101463,48.93398936659132,0.9978680924050732,0.7686533075246217,A,523.9466999998967,Correct
5,205,14,B,49.83505074768903,43.124905980309265,2.4917525373844516,0.6774044390724506,B,474.8865999999907,Correct
5,205,15,A,18.608474524418074,35.46467631741453,0.9304237262209036,0.557077832903647,A,524.0060000000994,Correct
5,205,16,A,48.84296141583731,78.73360981353501,2.4421480707918652,1.2367446509040343,A,547.4704999999176,Correct
5,205,17,B,77.92781080463976,54.73062902407014,3.8963905402319883,0.8597067103418354,B,548.0108000001565,Correct
5,205,18,B,74.2419769493883,62.60369907288327,3.7120988474694148,0.9833766054745813,A,427.53170000014507,Incorrect
5,205,19,A,12.070534622251959,33.18851203115649,0.6035267311125979,0.5213239279032885,A,561.3421999998991,Correct
5,205,20,A,20.688275742950772,48.62223337682481,1.0344137871475385,0.7637562558888062,A,549.7710000001916,Correct
5,205,21,B,53.701602074530506,44.44284955250292,2.6850801037265253,0.6981066482936981,B,578.4346999998888,Correct
5,205,22,A,57.75178341308701,66.23126305601747,2.887589170654351,1.0403582472737878,B,445.7766000000447,Incorrect
5,205,23,B,74.41743428850438,45.13602657210812,3.7208717144252192,0.7089950474558429,B,458.77229999996416,Correct
5,205,24,B,55.145176376010504,35.095656456664585,2.757258818800525,0.5512812824858432,B,553.6749999998847,Correct
5,205,25,A,36.553106644503075,53.55568467623795,1.8276553322251539,0.8412507276842031,A,551.4801000001626,Correct
5,205,26,B,74.91181155136186,47.73321251064925,3.7455905775680933,0.7497915487784805,B,872.0684999998412,Correct
5,205,27,B,60.368820638945294,30.062399146747495,3.0184410319472645,0.47221906154353,B,611.422599999969,Correct
5,205,28,B,31.024606817591135,10.766345213347776,1.5512303408795567,0.16911735514132506,A,409.2167999999674,Incorrect
5,205,29,A,53.136820803664186,82.4289750207729,2.656841040183209,1.2947913118409833,A,640.1369000000159,Correct
5,205,30,A,25.810064343557386,52.48830242039502,1.2905032171778692,0.8244843264165618,A,410.6352999999672,Correct
5,205,31,A,32.0290766942348,47.353640466451075,1.60145383471174,0.7438292450506753,A,459.21229999999014,Correct
5,205,32,B,64.67390577561977,36.14336702730306,3.233695288780989,0.5677386816448742,B,402.3994000001494,Correct
5,205,33,A,62.656254185165125,73.59655999386348,3.1328127092582565,1.1560520610310099,A,675.5120000000261,Correct
5,205,34,B,37.92652924079221,11.627824828122243,1.8963264620396105,0.1826494452862892,B,602.6990000000296,Correct
5,205,35,B,69.23141587566751,37.64810364336203,3.461570793783375,0.5913750291378663,B,514.4524000002093,Correct
5,205,36,A,18.3866945447253,44.01717207558204,0.9193347272362651,0.6914201221222315,A,546.1894000000029,Correct
5,205,37,B,59.8538197412696,30.23285133847717,2.9926909870634795,0.4748965183101611,B,464.8231000001033,Correct
5,205,38,A,25.824224405250078,56.24950147663812,1.291211220262504,0.8835651030354729,A,476.42949999999473,Correct
5,205,39,B,64.16328491087944,41.99754027639758,3.208164245543972,0.6596958200058605,B,406.65579999995316,Correct
5,205,40,B,64.12817832826833,45.4369144912979,3.206408916413417,0.7137213838382456,B,463.4950999998182,Correct
5,205,41,B,50.69836028897918,32.78611977278865,2.534918014448959,0.5150031650895395,B,426.81949999996505,Correct
5,205,42,A,51.05496279277784,81.49465218669796,2.5527481396388922,1.2801150030829282,A,550.1600000000053,Correct
5,205,43,B,68.29771461567739,39.78415401635215,3.4148857307838694,0.624928029935284,B,452.79290000007677,Correct
5,205,44,A,47.79355544277209,70.27095581172948,2.3896777721386044,1.1038135926943116,A,661.0802000000149,Correct
5,205,45,A,40.87062526630807,73.52151024808752,2.0435312633154035,1.1548731823810923,A,512.4081999999817,Correct
5,205,46,A,32.41723161796096,60.86540540544035,1.620861580898048,0.9560715523974794,A,591.8646000000081,Correct
5,205,47,A,46.85592559880339,77.8549213314497,2.3427962799401696,1.2229422445034683,A,546.1144999999306,Correct
5,205,48,B,70.23940287032895,43.001320406276,3.5119701435164474,0.6754631614150877,B,554.6555999999327,Correct
5,205,49,A,64.07459087898778,81.36618898710515,3.203729543949389,1.2780971078624412,A,473.6049999999068,Correct
5,205,50,B,50.5162406056083,34.42327111961018,2.525812030280415,0.5407194783094852,B,486.82899999994333,Correct
5,205,51,B,76.2391127554508,44.32799431751026,3.8119556377725403,0.6963025064813015,B,484.6503000001121,Correct
5,205,52,A,61.510224600902134,76.91313873849187,3.0755112300451066,1.2081487581268928,A,760.5455999998867,Correct
5,205,53,B,73.513852893107,41.97712403743612,3.67569264465535,0.6593751224741841,B,444.9650000001384,Correct
5,205,54,B,68.33026567534301,51.908469602123354,3.416513283767151,0.8153763338055993,A,520.3069999997751,Incorrect
5,205,55,A,24.27547691237655,44.343826957832206,1.2137738456188274,0.6965512050139134,A,472.329899999977,Correct
5,205,56,A,26.029188213383556,42.98108844327391,1.3014594106691777,0.6751453584834125,A,468.1980000000294,Correct
5,205,57,B,42.727624167701954,28.76823645185633,2.1363812083850977,0.4518904014694297,B,481.1572000000979,Correct
5,205,58,B,55.064021053551244,37.199513731736616,2.753201052677562,0.5843285952836819,B,656.6392999998243,Correct
5,205,59,B,83.4487883101003,55.123843574077966,4.172439415505015,0.8658833100497813,B,684.2646000000059,Correct
5,205,60,B,54.817762345376956,23.193400181639596,2.740888117268848,0.3643210781120356,B,629.1215999999622,Correct
5,205,61,A,17.738562878135692,33.43374501451349,0.8869281439067846,0.5251760385979498,A,430.2202999999736,Correct
5,205,62,B,82.1627694549171,54.79716672469696,4.108138472745855,0.860751882099215,B,468.0338999999094,Correct
5,205,63,A,49.918810047091974,67.0726551115007,2.4959405023545984,1.0535748027752623,A,487.0946000000913,Correct
5,205,64,A,62.83065747516064,72.34784168395971,3.141532873758032,1.1364372396870261,B,433.026400000017,Incorrect
5,205,65,A,46.413703377418436,57.877652151837964,2.320685168870922,0.9091400340361981,A,632.4787999999444,Correct
5,205,66,B,55.64742915719721,44.361263249574925,2.7823714578598606,0.6968250936441374,B,522.9882000000998,Correct
5,205,67,B,61.699753137231276,36.36051758256485,3.0849876568615637,0.5711496745905412,B,538.7216999999964,Correct
5,205,68,A,15.226265541890733,37.57747891289351,0.7613132770945367,0.5902656584658581,A,400.82859999984066,Correct
5,205,69,A,62.49869103983263,85.00311474589932,3.124934551991631,1.3352258040898375,A,532.4289999998655,Correct
5,205,70,B,61.83153101625473,48.868055614994745,3.0915765508127366,0.7676176225764245,B,530.4784000002201,Correct
5,205,71,B,70.24843352578407,48.472371499934496,3.5124216762892035,0.7614022310313473,B,518.1066000000101,Correct
5,205,72,B,71.48147279510121,57.87344661285286,3.5740736397550608,0.9090739735842981,A,642.5557999998546,Incorrect
5,205,73,B,69.09515323900466,38.80681967063955,3.454757661950233,0.6095760979323254,B,467.09850000002007,Correct
5,205,74,A,57.90803315955853,79.31114422995715,2.895401657977926,1.2458165403031694,A,568.0939999999737,Correct
5,205,75,A,19.03339472342954,34.40369179738404,0.951669736171477,0.5404119270351456,A,447.8636999999708,Correct
5,205,76,B,43.95626630287835,26.649970201449918,2.1978133151439176,0.41861675301630985,B,521.5497000001506,Correct
5,205,77,A,30.373984680330693,43.33204226028889,1.5186992340165346,0.6806581281498301,A,555.1977000000079,Correct
5,205,78,B,65.1423755953831,52.06591584674046,3.257118779769155,0.8178494936327211,B,730.1052000000254,Correct
5,205,79,B,77.39573762534741,58.61983087262896,3.8697868812673706,0.9207981501206365,B,581.7251000000851,Correct
5,205,80,B,65.52458898206227,37.45199150221467,3.276229449103113,0.5882945068283247,B,514.7064999998747,Correct
5,205,81,B,62.703651788797,32.79175009280794,3.13518258943985,0.5150916059495892,B,478.3021999999164,Correct
5,205,82,B,59.67538721735102,44.20382541698076,2.983769360867551,0.6943520659527627,B,425.332600000047,Correct
5,205,83,A,14.453450299030465,36.034797661424896,0.7226725149515232,0.5660332780336355,A,506.18819999999687,Correct
5,205,84,A,58.69171231152318,80.42129024413777,2.934585615576159,1.2632546731159786,A,483.8322999999036,Correct
5,205,85,A,35.36838702792239,62.981988768497814,1.7684193513961193,0.9893187661179379,A,478.6764000000403,Correct
5,205,86,A,36.55413623896577,62.701944965392286,1.8277068119482884,0.9849198483453397,A,528.3234000000903,Correct
5,205,87,A,21.342882097311577,35.894144459627626,1.0671441048655788,0.5638239027062846,A,459.64749999984633,Correct
5,205,88,B,63.759273788242155,31.34246303603744,3.1879636894121073,0.4923262580971243,B,556.4962999999352,Correct
5,205,89,A,31.10633260282824,56.033912290242995,1.555316630141412,0.8801786360146112,A,480.634499999951,Correct
5,205,90,A,62.561348206290425,88.59829773551445,3.128067410314521,1.391698806432267,A,614.9852000000919,Correct
5,205,91,B,39.19022311584621,23.368163474580523,1.9595111557923104,0.36706625349813754,B,630.7474000000184,Correct
5,205,92,B,33.421195363773464,10.959863961559218,1.671059768188673,0.17215714052988984,B,610.6480999999349,Correct
5,205,93,B,69.16822530761505,54.179292259562466,3.4584112653807524,0.8510463326966791,B,456.73779999992803,Correct
5,205,94,A,45.75063108962487,68.44545240780982,2.2875315544812436,1.075138652280026,A,563.199700000041,Correct
5,205,95,A,23.198237833876682,50.15635750339942,1.159911891693834,0.7878542213175147,A,425.55609999999433,Correct
5,205,96,B,45.53833782727753,28.855539503642635,2.2769168913638764,0.4532617546000688,B,445.4794999999194,Correct
5,205,97,A,61.86862711914713,80.62516346106153,3.0934313559573563,1.2664571061187357,A,450.6917999999587,Correct
5,205,98,B,52.82604720503057,34.21427410374827,2.641302360251528,0.5374365608612154,B,418.18789999979344,Correct
5,205,99,A,65.32920810421294,85.68944643791511,3.266460405210647,1.3460066770976509,A,1105.9308000001238,Correct
5,205,100,B,57.52302408332475,28.57329838461964,2.876151204166238,0.4488283214697509,B,422.32190000004266,Correct
5,205,101,A,29.005147910533083,60.94503801151528,1.4502573955266542,0.9573224184486354,A,426.77290000005996,Correct
5,205,102,A,37.52978322962821,58.353853750450035,1.8764891614814103,0.9166201912553351,A,479.4985999999426,Correct
5,205,103,B,68.21952489252934,55.11411669436326,3.4109762446264664,0.865730520580511,B,467.9159999998319,Correct
5,205,104,B,60.58599952971374,51.716538474165375,3.029299976485687,0.8123614866976591,B,695.227100000011,Correct
5,205,105,A,64.73790077982385,81.71931570094323,3.2368950389911926,1.2836440093123413,A,1365.6467999999222,Correct
5,205,106,A,11.338206718569541,33.805769311606326,0.5669103359284771,0.5310197825914685,A,492.5410999999258,Correct
5,205,107,B,54.56039062950805,33.82050636682079,2.7280195314754025,0.531251271713455,B,626.6296999999668,Correct
5,205,108,B,66.58012236893656,48.60989590894283,3.3290061184468276,0.7635624593964967,B,539.464100000032,Correct
5,205,109,B,53.40500120028869,25.877462220592495,2.6702500600144345,0.406482226028804,B,473.83949999994,Correct
5,205,110,B,53.21440457371883,40.46896262222905,2.6607202286859417,0.6356849783619737,B,574.5264999998199,Correct
5,205,111,A,57.11425763320946,76.14242158662003,2.8557128816604735,1.196042361415312,A,504.46710000005623,Correct
5,205,112,B,69.65519339384338,43.12631056372503,3.482759669692169,0.6774265022171522,B,542.8364000001693,Correct
5,205,113,B,54.25073035998123,26.67735360499309,2.7125365179990615,0.4190468905133174,B,512.7869999998893,Correct
5,205,114,A,68.82239343480344,84.68554500273503,3.441119671740172,1.3302374302292008,A,564.1230999999607,Correct
5,205,115,A,52.572162892527615,77.77003616475525,2.628608144626381,1.2216088714230382,A,582.611100000122,Correct
5,205,116,A,30.170658826769245,62.52977003762387,1.5085329413384623,0.9822153309042916,A,541.5089000000535,Correct
5,205,117,B,51.26466857394207,21.154138141457395,2.5632334286971035,0.332288424891131,B,535.5114000001322,Correct
5,205,118,A,47.61033815602846,67.23174544004637,2.380516907801423,1.0560737878123438,A,515.6276000000162,Correct
5,205,119,A,58.60734991404718,80.24769082595017,2.9303674957023587,1.2605277798317505,A,437.05099999988306,Correct
5,205,120,A,31.20845771653829,55.59148178346194,1.5604228858269147,0.8732289538654742,A,646.1555999999291,Correct
5,205,121,A,54.50785092198572,68.18828264476804,2.725392546099286,1.0710990390885384,A,583.8019000000259,Correct
5,205,122,A,61.64166694419081,74.8127327973535,3.0820833472095406,1.1751556587557097,A,635.5015999999978,Correct
5,205,123,A,20.26627427057996,44.18614845494882,1.013313713528998,0.6940743968824761,A,435.4376000001139,Correct
5,205,124,B,57.98728162522726,48.37819271696208,2.8993640812613632,0.7599228741677967,B,493.6829000000671,Correct
5,205,125,A,38.007028185998706,59.99633221120617,1.9003514092999354,0.9424201825852898,A,527.6099999998678,Correct
5,205,126,A,15.957672079142831,39.62017318722944,0.7978836039571416,0.6223522250947766,A,519.098299999996,Correct
5,205,127,A,47.23503294428208,65.77277585904874,2.361751647214104,1.0331563472249778,A,395.5131000000165,Correct
5,205,128,A,21.59432928883063,38.02472933454128,1.0797164644415316,0.5972910516606759,A,446.84589999997115,Correct
5,205,129,B,76.36097752731861,64.20970380125557,3.81804887636593,1.0086036687560056,A,576.2574000000313,Incorrect
5,205,130,B,37.65150068276569,16.199156732487047,1.8825750341382845,0.25445575892565475,A,445.19869999999173,Incorrect
5,205,131,B,55.44807632555898,45.890827247340724,2.772403816277949,0.7208514287370196,B,981.2188999999307,Correct
5,205,132,B,42.743798093462004,18.246304579816467,2.1371899046731,0.2866122821155661,B,481.69670000015685,Correct
5,205,133,B,69.35000164986727,55.723239343014654,3.4675000824933635,0.8752985967712028,B,527.4577000000136,Correct
5,205,134,B,49.015638095132765,29.614545574029847,2.450781904756638,0.46518419407386147,B,607.7792000000954,Correct
5,205,135,A,14.609634817393353,38.56402935048648,0.7304817408696677,0.6057623565015474,A,494.97309999992467,Correct
5,205,136,A,24.097138395093104,56.41842780201992,1.2048569197546553,0.8862185915495596,A,482.8405999999177,Correct
5,205,137,B,65.0879121392028,36.1780313510466,3.2543956069601396,0.568283187568946,B,546.5924000000086,Correct
5,205,138,B,43.917544883756946,35.38633602629908,2.195877244187847,0.5558472664884051,B,673.7864999997782,Correct
5,205,139,B,68.9740662438129,43.8407785491371,3.448703312190645,0.6886493390881305,B,587.7402999999504,Correct
5,205,140,A,44.04676947570921,56.76223526529388,2.2023384737854603,0.8916191065539136,A,642.3647999999957,Correct
5,205,141,A,21.89527040555482,46.44953114686344,1.094763520277741,0.7296275290683824,A,589.667400000053,Correct
5,205,142,A,36.17165480645322,62.10776585837892,1.8085827403226609,0.9755865047577909,A,596.8602000000374,Correct
5,205,143,B,74.58417185701698,48.75015688984695,3.729208592850849,0.765765673732465,B,417.07449999989876,Correct
5,205,144,A,67.45748192404746,86.50838423212888,3.3728740962023727,1.3588705218878958,A,432.5220000000627,Correct
5,205,145,A,50.523515358207895,72.03502996815538,2.5261757679103947,1.1315236047453876,A,636.1138999998275,Correct
5,205,146,A,65.69780905663178,76.48387264288048,3.2848904528315894,1.2014058620648536,B,533.7887000000592,Incorrect
5,205,147,A,35.96695516869271,49.66740574453728,1.7983477584346355,0.780173785049509,B,783.7558999999601,Incorrect
5,205,148,A,37.80717360376549,67.18529575231521,1.8903586801882744,1.055344157823655,A,547.5842999999259,Correct
5,205,149,A,64.82953916985048,76.09824468232526,3.241476958492524,1.1953484322253578,B,432.60910000003605,Incorrect
5,205,150,A,47.35314158666079,76.91969227991842,2.3676570793330396,1.208251700914896,A,499.93319999998675,Correct
5,205,151,A,19.35667603999558,41.62212976834725,0.967833801999779,0.6537988855350038,A,471.0322000000815,Correct
5,205,152,B,69.65736731722089,56.70734759632722,3.482868365861044,0.8907569330659219,B,661.3698999999542,Correct
5,205,153,B,65.29987317234995,38.4788088169515,3.2649936586174975,0.6044237154911051,B,477.09119999990435,Correct
5,205,154,A,16.36809789000104,41.07512739775964,0.8184048945000519,0.6452065923903325,A,349.39489999987927,Correct
5,205,155,A,41.20443866079309,69.66093931850072,2.0602219330396543,1.0942314760258312,A,583.343799999966,Correct
5,205,156,B,86.76799105180974,59.49118496193849,4.338399552590487,0.9344853481488877,B,410.0799999998799,Correct
5,205,157,A,67.49849311523583,88.12348355728443,3.3749246557617916,1.3842404427615285,A,548.3288999998877,Correct
5,205,158,A,23.83863350677982,39.670077089758664,1.191931675338991,0.623136113762633,A,405.7272000000012,Correct
5,205,159,B,62.05160456276403,54.3160958768827,3.102580228138202,0.8531952388924676,B,448.7677000001895,Correct
5,205,160,A,18.47498449294661,38.770533727841375,0.9237492246473306,0.6090061196757088,A,510.8387000000221,Correct
5,205,161,A,47.91673424323874,66.52879577535464,2.395836712161937,1.0450318803001488,A,520.8193999999366,Correct
5,205,162,A,44.61864914941923,61.272949079918604,2.2309324574709617,0.9624732334662688,A,673.9314999999806,Correct
5,205,163,A,25.13851062095482,57.843932016854104,1.256925531047741,0.9086103593944814,A,455.48619999999573,Correct
5,205,164,A,55.85933396091577,81.0097654400968,2.7929666980457886,1.272498419878202,A,506.54179999992266,Correct
5,205,165,A,54.61397802818942,77.09258375815432,2.730698901409471,1.2109674739043672,A,426.26319999999396,Correct
5,205,166,A,48.37057116129987,77.51321729667643,2.4185285580649936,1.2175747700767399,A,414.1247000000021,Correct
5,205,167,B,31.751429258874538,16.784401315425164,1.587571462943727,0.2636487593372128,B,542.6824999999553,Correct
5,205,168,B,70.99971557844461,47.83681582220713,3.54998577892223,0.7514189457908694,B,390.4373999998825,Correct
5,205,169,B,51.386609232436335,19.859237410133595,2.5693304616218167,0.31194817176785644,B,526.2623999999505,Correct
5,205,170,B,48.56392883570234,24.826998794232534,2.428196441785117,0.3899815851132179,B,456.6849000000275,Correct
5,205,171,A,54.672625908529945,64.27724434661603,2.7336312954264974,1.009664593161625,A,670.2225999999882,Correct
5,205,172,B,49.57104945008243,37.124377451006055,2.4785524725041213,0.5831483573458759,B,472.15649999998277,Correct
5,205,173,B,65.27627498896484,35.36959021812477,3.263813749448242,0.555584223948711,B,369.8357999999189,Correct
5,205,174,B,76.96859371537472,45.981370099496544,3.848429685768736,0.7222736725328586,B,637.463599999819,Correct
5,205,175,A,53.70242249003624,73.84330646436659,2.6851211245018125,1.1599279455261686,A,541.4661999998316,Correct
5,205,176,B,78.40565731913186,63.39081438558193,3.9202828659565934,0.9957405838940918,B,464.21809999992547,Correct
5,205,177,A,42.7819803569005,67.83777773763403,2.139099017845025,1.0655933208820414,A,390.8652999998594,Correct
5,205,178,B,55.51835451823002,29.88032012409483,2.7759177259115013,0.4693589709438378,B,400.5368999999064,Correct
5,205,179,A,48.898508921376816,57.21136214669139,2.444925446068841,0.8986739751095542,A,424.00090000001,Correct
5,205,180,B,65.26998422149148,48.029783941953966,3.263499211074574,0.7544500819277379,A,661.2809999999172,Incorrect
5,205,181,B,47.48431206940876,27.49795233915153,2.374215603470438,0.43193682528720356,B,537.1162999999797,Correct
5,205,182,A,43.359268747009864,68.90110651436177,2.1679634373504935,1.0822960502486338,A,469.83399999999165,Correct
5,205,183,B,37.184224037811994,27.243660990724365,1.8592112018905995,0.4279424261267525,A,516.2427000000207,Incorrect
5,205,184,B,79.55583739055112,50.93580060376882,3.977791869527556,0.8000976849075733,B,472.9240000001482,Correct
5,205,185,A,46.492109800601476,53.98843677855622,2.324605490030074,0.8480483818115461,A,511.2987000002249,Correct
5,205,186,A,29.82329110686092,46.44142667591252,1.4911645553430461,0.7295002243363791,B,476.00089999991724,Incorrect
5,205,187,B,39.52337120867098,18.651955909667986,1.976168560433549,0.29298423830446835,B,556.8634999999631,Correct
5,205,188,A,50.48660075638004,75.0651356448452,2.524330037819002,1.179120393412835,A,443.7370999999075,Correct
5,205,189,B,66.52816969003337,41.97273884352182,3.326408484501668,0.6593062400092554,B,527.3756000001413,Correct
5,205,190,B,65.54522406219937,43.1505134293803,3.2772612031099686,0.6778066799418443,B,489.85510000011345,Correct
5,205,191,A,18.22549770497844,45.10244684786609,0.911274885248922,0.7084675783809012,A,481.31649999982073,Correct
5,205,192,B,64.16879415673584,52.450465303884755,3.208439707836792,0.8238899823802532,B,669.1843000000972,Correct
5,205,193,B,78.92733031929703,56.929571191914405,3.9463665159648516,0.8942476131426773,B,529.3492000000697,Correct
5,205,194,A,32.73941877798335,65.98546304856528,1.6369709388991678,1.036497229785467,A,463.18299999984447,Correct
5,205,195,B,76.51816653411908,54.02732981016848,3.825908326705954,0.8486593121234907,B,551.4431000001423,Correct
5,205,196,B,74.72688220256626,59.08053938476537,3.7363441101283126,0.9280349425065068,B,432.5715999998465,Correct
5,205,197,B,37.50216156840814,20.514973594468334,1.8751080784204073,0.3222484516648516,A,546.8197999998665,Incorrect
5,205,198,B,62.73242839318831,32.14425008294424,3.1366214196594155,0.5049206995786536,B,436.215600000196,Correct
5,205,199,A,49.54282469290205,71.372474340209,2.4771412346451025,1.121116205278633,A,464.06889999980194,Correct
5,205,200,B,77.69284817804545,64.00664168882362,3.8846424089022724,1.0054139765528125,B,448.65530000015497,Correct
5,205,201,A,22.37701358516676,44.53682323277647,1.1188506792583381,0.6995827834115889,A,545.4750999997486,Correct
5,205,202,B,85.42778491710747,60.85174951097006,4.2713892458553735,0.955857046108749,B,419.16619999983595,Correct
5,205,203,B,45.00588409403981,17.119644439669877,2.2502942047019903,0.26891474601868115,B,491.9870999997329,Correct
5,205,204,B,61.259890847187314,51.3654017348854,3.062994542359366,0.806845843695022,B,379.7724000000926,Correct
5,205,205,A,40.38690008672778,48.61786548995596,2.019345004336389,0.7636876452823117,A,625.012500000139,Correct
5,205,206,B,79.77057320234604,57.89856851883009,3.9885286601173022,0.9094685875606093,B,511.6595999998026,Correct
5,205,207,B,53.779324713524154,26.963208708587224,2.688966235676208,0.42353709198052975,B,567.3893999996835,Correct
5,205,208,A,26.681258166361793,44.70872553162327,1.3340629083180897,0.7022830184075506,A,531.2861000002158,Correct
5,205,209,A,23.82075714095926,43.19414821213046,1.191037857047963,0.6784920935064888,A,490.4397999998764,Correct
5,205,210,A,48.97080199201541,56.515276716279345,2.4485400996007707,0.8877398907372874,B,350.07450000011886,Incorrect
5,205,211,B,48.88554326661648,35.80967584186576,2.444277163330824,0.5624970727611869,B,516.4429000001292,Correct
5,205,212,A,43.951652758171605,71.81415488531454,2.1975826379085803,1.1280541070573185,A,453.2761999998911,Correct
5,205,213,B,66.23872727403027,44.19954013215677,3.3119363637015136,0.6942847528561547,B,397.0320999997057,Correct
5,205,214,B,40.79742009013964,19.805010257427305,2.039871004506982,0.3110963736450206,B,463.2427999999891,Correct
5,205,215,A,42.09573188523599,60.34946545397013,2.1047865942617996,0.9479671865913178,A,517.8510000000642,Correct
5,205,216,A,32.4843510920862,53.5619193175039,1.62421755460431,0.8413486612001974,B,454.7308000001067,Incorrect
5,205,217,B,32.49168037804662,15.912753088986506,1.6245840189023308,0.2499569410137415,B,514.0500000002248,Correct
5,205,218,A,22.227745705567816,34.25610077740883,1.1113872852783908,0.5380935727146959,A,459.19000000003507,Correct
5,205,219,A,37.37636220114383,67.71082229891293,1.8688181100571912,1.063599109513944,A,440.6957000001057,Correct
5,205,220,B,77.43242062541171,50.83635544073759,3.871621031270586,0.7985356039395035,B,465.55099999977756,Correct
5,205,221,A,41.4375862344932,73.07630933751636,2.0718793117246603,1.147879982830983,A,498.9427999998952,Correct
5,205,222,B,68.39482027043034,53.67434894062135,3.419741013521517,0.8431147015903556,B,615.3676999997515,Correct
5,205,223,B,88.54457373532904,65.14893769837519,4.427228686766452,1.0233571203119733,B,448.4870999999657,Correct
5,205,224,A,20.291525168749843,48.69805915910254,1.0145762584374922,0.7649473244915883,A,438.027300000158,Correct
5,205,225,B,70.11635067739893,54.85526793526977,3.5058175338699464,0.8616645337807163,B,599.4164999997338,Correct
5,205,226,A,53.48154029292708,65.15631279708607,2.674077014646354,1.0234729680916212,B,435.58859999984634,Incorrect
5,205,227,B,52.31776325539468,38.22725429442664,2.6158881627697337,0.6004723062913979,B,476.6868000001523,Correct
5,205,228,A,45.85913002870052,76.48635885699812,2.292956501435026,1.2014449154248896,A,446.0825000001023,Correct
5,205,229,B,80.36353344806133,52.429718054819425,4.018176672403067,0.8235640853540241,B,483.89629999974204,Correct
5,205,230,A,64.9993935977193,84.28935657957496,3.249969679885965,1.324014117031016,A,544.6262999998908,Correct
5,205,231,B,77.37970581538417,59.467462560124474,3.8689852907692086,0.9341127175325656,B,605.2891999997883,Correct
5,205,232,B,78.22960922599118,49.65689241691243,3.911480461299559,0.780008642085354,B,552.3600000001352,Correct
5,205,233,A,31.170678943828033,41.48729035476747,1.5585339471914017,0.6516808329794207,A,639.0058000001773,Correct
5,205,234,A,63.88465982802208,88.58272472816152,3.1942329914011043,1.3914541862047956,A,438.1860000003144,Correct
5,205,235,A,24.43579331787369,50.98488533376272,1.2217896658936844,0.8008687060433347,A,539.9953000001005,Correct
5,205,236,B,45.84470029982361,25.77546681640522,2.2922350149911805,0.4048800859663307,B,435.7795000000806,Correct
5,205,237,A,29.447256845089328,40.74829454700305,1.4723628422544663,0.6400727139758889,A,614.5439000001716,Correct
5,205,238,A,30.904007430611948,49.13474210094539,1.5452003715305975,0.7718067241017956,A,434.96030000005703,Correct
5,205,239,A,41.66378420240912,67.82841635075211,2.083189210120456,1.0654462725607632,A,454.8257999999805,Correct
5,205,240,A,10.21412762576395,32.78956509474962,0.5107063812881976,0.5150572840803486,A,489.8824000001696,Correct
5,205,241,B,46.33878242635021,18.5880702444876,2.3169391213175103,0.2919807246224664,B,454.31449999978213,Correct
5,205,242,B,57.65350281906384,31.185054965807115,2.882675140953192,0.48985369791186767,B,440.7873999998628,Correct
5,205,243,A,17.798939331812644,47.839786246679,0.8899469665906322,0.7514656051093638,A,432.5414999998429,Correct
5,205,244,A,37.84154184884168,64.18785594692056,1.8920770924420838,1.0082604834626279,A,468.71420000024955,Correct
5,205,245,B,32.652593463303,13.48755650463631,1.63262967316515,0.21186204214921325,B,499.0966999998818,Correct
5,205,246,A,25.684611249219454,46.98237837486762,1.2842305624609727,0.7379974737533004,A,573.0086999997184,Correct
5,205,247,A,55.61926664271581,77.2611792662214,2.7809633321357903,1.213615765952226,A,556.7345999997997,Correct
5,205,248,A,28.860070690601834,48.401928801564104,1.4430035345300916,0.7602957197128499,A,538.3232999997745,Correct
5,205,249,B,56.270587130548044,38.292139373850006,2.813529356527402,0.6014915187356182,B,794.0585999999712,Correct
5,205,250,B,80.24064228399268,49.37417683646073,4.012032114199634,0.7755677561323419,B,519.2996000000676,Correct
5,205,251,A,44.479312135841404,69.64013288437309,2.22396560679207,1.0939046493228173,A,354.87849999981336,Correct
5,205,252,B,77.53662849183699,46.08526219460551,3.87683142459185,0.7239056057466604,A,479.9281999999039,Incorrect
5,205,253,A,43.67416109978823,69.19913243775406,2.1837080549894115,1.0869774305061766,A,494.81969999987996,Correct
5,205,254,B,53.60788168173685,37.092158760044214,2.6803940840868425,0.5826422673317059,B,507.53590000022086,Correct
5,205,255,B,57.1827524155898,44.04469132429148,2.85913762077949,0.691852393470121,B,514.1082999998616,Correct
5,205,256,A,55.38529111028028,65.1561051808275,2.7692645555140136,1.0234697068630576,A,488.7672999998358,Correct
5,205,257,A,25.520544873438737,55.478592764996804,1.2760272436719369,0.8714556973100691,A,494.88179999980275,Correct
5,205,258,B,67.90283708392685,54.91996488651788,3.3951418541963427,0.8626807911144698,B,582.3321000002579,Correct
5,205,259,A,40.86132533984741,61.653004492685724,2.0430662669923705,0.9684431299298,A,371.016999999938,Correct
5,205,260,A,23.116298019312605,35.087654398404936,1.1558149009656302,0.5511555864486327,A,464.8151000001235,Correct
5,205,261,B,63.59277358545385,54.59771199084294,3.1796386792726925,0.8576188544662177,A,688.3278999998765,Incorrect
5,205,262,B,38.69718384773201,11.706891635141396,1.9348591923866008,0.18389142378666004,B,482.8403999999864,Correct
5,205,263,A,54.48284738270341,81.34123939325914,2.724142369135171,1.277705200558758,A,729.1731000000254,Correct
5,205,264,B,82.46259174523334,62.74493729611402,4.123129587261667,0.9855951702971202,A,765.869400000156,Incorrect
5,205,265,A,44.74264697036777,58.90373007505904,2.2371323485183887,0.9252576283642081,B,445.09289999996327,Incorrect
5,205,266,A,46.432705514880205,55.66838795577174,2.3216352757440104,0.8744369931951951,A,1122.0318000000589,Correct
5,205,267,A,38.80828500356522,47.920159278645784,1.940414250178261,0.7527281017432317,B,803.9964999998119,Incorrect
5,205,268,B,56.560461610698106,43.24271353683609,2.8280230805349054,0.6792549558430608,B,789.9635999997372,Correct
5,205,269,A,22.296621619968857,45.308419012041895,1.114831080998443,0.7117029815699946,A,669.1350999999486,Correct
5,205,270,B,57.40436703008606,37.56162154300786,2.8702183515043025,0.590016571482168,B,440.74589999991076,Correct
5,205,271,B,72.66458649169935,45.54941098089076,3.633229324584968,0.7154884745645435,B,493.4696999998778,Correct
5,205,272,B,54.13060122440997,34.188673915221436,2.7065300612204988,0.5370344340401833,B,467.8137999999308,Correct
5,205,273,B,60.87063195523237,52.52381805686264,3.0435315977616186,0.825042204729633,B,443.5369000002538,Correct
5,205,274,A,42.9278761102191,50.604692547487495,2.146393805510955,0.7948966517217843,A,561.3803000001099,Correct
5,205,275,B,52.456075528172164,38.11866150210707,2.6228037764086083,0.5987665346984781,B,726.9274000000223,Correct
5,205,276,B,53.725852069827376,34.58604822806908,2.686292603491369,0.5432763751500206,B,500.19209999982195,Correct
5,205,277,A,58.406152055109104,77.2082222134009,2.920307602755455,1.2127839185117428,A,446.9404999999824,Correct
5,205,278,A,39.339957687686365,54.70404833243102,1.9669978843843183,0.8592891818139313,A,539.1015999998672,Correct
5,205,279,B,63.9818222502121,33.16851128255771,3.199091112510605,0.5210097568789673,B,435.39830000008806,Correct
5,205,280,A,19.4252578615473,40.445872803011675,0.971262893077365,0.6353222843298435,A,542.1504000000823,Correct
5,205,281,A,34.95098460551288,58.114392173159786,1.747549230275644,0.912858737595175,A,474.3315000000621,Correct
5,205,282,A,56.258551318716805,69.98086134711266,2.8129275659358406,1.0992567994998752,A,454.17819999966014,Correct
5,205,283,A,33.89759347658868,59.744333730813906,1.694879673829434,0.9384617997117092,A,427.9857000001357,Correct
5,205,284,B,40.34159022638991,30.81561803401336,2.0170795113194955,0.4840505961574276,B,632.7052999999978,Correct
5,205,285,A,21.617892745289584,38.44479689780138,1.0808946372644792,0.6038894575144225,A,467.80679999983477,Correct
5,205,286,A,41.38844216726389,63.96846572917309,2.0694221083631943,1.0048143099809033,A,590.5503000003591,Correct
5,205,287,B,78.00808409176241,52.74872041075462,3.90040420458812,0.8285749626434434,B,502.2775000002184,Correct
5,205,288,B,84.71241081026488,67.37923547254978,4.235620540513244,1.058390555825296,B,458.9771999999357,Correct
5,205,289,B,73.6454427353764,45.64036535045757,3.68227213676882,0.7169171824607582,B,475.2303000000211,Correct
5,205,290,B,67.72847428230773,57.08132078233331,3.3864237141153866,0.8966312901349034,B,383.43650000024354,Correct
5,205,291,B,55.90659141612372,45.198736305325205,2.795329570806186,0.7099800896417596,B,676.9610000001194,Correct
5,205,292,B,57.08205540437292,25.500949211069717,2.854102770218646,0.40056797350531526,B,441.9703999997182,Correct
5,205,293,B,50.34181788496351,24.868200853434324,2.5170908942481756,0.3906287855457234,B,417.1497000002091,Correct
5,205,294,A,54.73626518387472,65.07387765918298,2.736813259193736,1.0221780799734512,A,561.7121000000225,Correct
5,205,295,B,55.69070947749719,33.02163346267089,2.7845354738748593,0.5187026054793088,B,489.17789999995875,Correct
5,205,296,B,53.0279195275712,36.109691650488344,2.65139597637856,0.5672097100628345,B,370.8526999998867,Correct
5,205,297,A,40.461347095177324,51.33257587295556,2.0230673547588665,0.8063302162615892,A,630.7228000000578,Correct
5,205,298,B,36.74484110631846,14.823364544218666,1.837242055315923,0.2328448657680039,B,496.1426999998366,Correct
5,205,299,A,26.696701761438817,52.73022841827711,1.3348350880719408,0.8282844911048555,A,480.95539999985704,Correct
5,205,300,A,50.30137593290961,68.6591441847836,2.51506879664548,1.0784953148633925,A,516.8433999997433,Correct
5,205,301,B,54.690555393010555,28.550143765452322,2.7345277696505277,0.4484646095623873,B,468.6178000001746,Correct
5,205,302,A,44.77786413316449,54.18273401988727,2.2388932066582243,0.851100395741438,A,494.831499999691,Correct
5,205,303,B,88.82221457544225,62.57592114964358,4.441110728772112,0.982940270876672,B,518.5445000001891,Correct
5,205,304,A,44.488254213144934,56.978665561755555,2.2244127106572464,0.895018785700805,A,680.2195000000211,Correct
5,205,305,B,32.491852480192875,17.14644712672595,1.6245926240096438,0.2693357616424403,B,474.9609000000419,Correct
5,205,306,B,69.71063505016477,60.99492613505639,3.4855317525082388,0.9581060592607261,B,691.8859000002158,Correct
5,205,307,A,28.78663785041179,43.13265419950052,1.4393318925205896,0.6775261478148988,A,664.8239000001013,Correct
5,205,308,B,84.86757151601086,67.53657962840015,4.243378575800543,1.06086211204582,B,484.70629999974335,Correct
5,205,309,B,89.21013883247828,63.31473970656496,4.460506941623914,0.9945456056304722,B,466.79439999979877,Correct
5,205,310,B,43.72138563549763,35.069260471792774,2.1860692817748815,0.5508666553250555,B,481.7155000000639,Correct
5,205,311,B,66.55016751726001,33.73544850698544,3.327508375863,0.5299151859755111,A,497.4712999996882,Incorrect
5,205,312,A,51.9090907200744,74.43432363183639,2.5954545360037202,1.1692116214835115,A,567.5283000000491,Correct
5,205,313,A,57.33713011347963,66.21074634208837,2.8668565056739816,1.0400359714850103,B,493.6490000000049,Incorrect
5,205,314,A,44.68071697752756,57.76560319789499,2.234035848876378,0.9073799731834498,B,688.1368000003931,Incorrect
5,205,315,A,33.06043396256564,56.770734993394186,1.653021698128282,0.8917526199707009,A,735.5991999997968,Correct
5,205,316,A,64.69540807583053,86.02221550689148,3.2347704037915266,1.3512338014098413,A,530.6700000001001,Correct
5,205,317,B,38.94146704683597,23.337619921420995,1.9470733523417982,0.366586476487035,B,541.9630000001234,Correct
5,205,318,B,54.33901913145848,34.55377125937439,2.7169509565729237,0.5427693697113636,B,434.6802000000025,Correct
5,205,319,A,49.815873770592624,70.24064835757898,2.490793688529631,1.1033375243177705,A,799.3955000001733,Correct
5,205,320,A,21.44387299568278,40.482841331021085,1.0721936497841391,0.6359029846098854,B,461.4928000000873,Incorrect
5,205,321,B,61.3705919999827,47.34786599830365,3.0685295999991347,0.7437385399171236,B,551.1457000002338,Correct
5,205,322,B,74.25250408404992,60.670517352330975,3.712625204202496,0.9530102580178753,B,564.1470000000481,Correct
5,205,323,B,54.981430038413116,45.58177519657116,2.7490715019206555,0.715996850475647,B,542.893499999991,Correct
5,205,324,B,32.70608109964146,16.12340575575344,1.635304054982073,0.25326586536561196,A,500.7071999998516,Incorrect
5,205,325,B,81.78608342163523,62.23450369889994,4.0893041710817615,0.9775772981013543,B,509.85979999995834,Correct
5,205,326,A,27.020308952834824,54.47224082196137,1.3510154476417413,0.8556479579542394,A,617.9837000004227,Correct
5,205,327,A,62.88794072897478,75.11146088532338,3.1443970364487392,1.179848068588645,A,698.822900000323,Correct
5,205,328,A,23.912292481981154,47.48510217414878,1.1956146240990577,0.7458942407263327,A,620.2354000001833,Correct
5,205,329,B,78.11357461041092,49.95650475491036,3.9056787305205463,0.7847149416852499,B,470.727700000225,Correct
5,205,330,A,57.990873745180494,65.84936503294486,2.8995436872590243,1.0343594071552609,B,584.1479000000618,Incorrect
5,205,331,B,79.35488713419872,54.737010960574416,3.9677443567099364,0.8598069575660229,B,525.6791000001613,Correct
5,205,332,A,52.18710437860956,70.07288986775966,2.609355218930478,1.100702380121802,B,460.01750000004904,Incorrect
5,205,333,A,66.8111372808497,89.54422864250492,3.3405568640424854,1.406557454373291,A,559.6250000003238,Correct
5,205,334,A,55.07886380777935,72.86229034311835,2.7539431903889677,1.1445181803283357,A,545.5704000000878,Correct
5,205,335,B,45.47052100576521,33.39396681038988,2.27352605028826,0.5245512040287111,B,422.30590000008306,Correct
5,205,336,B,54.99380016753126,26.78220032726071,2.749690008376563,0.42069381897546204,B,516.3697999996657,Correct
5,205,337,A,22.67534073027799,38.377784343459,1.1337670365138997,0.6028368267723209,A,461.2194000001182,Correct
5,205,338,B,77.83727298558833,55.44009995461868,3.8918636492794167,0.8708510536585695,B,375.73799999972834,Correct
5,205,339,B,43.22011258016343,24.367521354725525,2.1610056290081716,0.38276413037099066,B,436.7025999999896,Correct
5,205,340,A,67.55795474089516,85.90390622254141,3.377897737044758,1.349375403517013,A,553.6898999998812,Correct
5,205,341,A,31.517394228244147,53.02739513156018,1.5758697114122073,0.8329523749215633,A,532.1868999999424,Correct
5,205,342,A,52.698284064895155,68.71897517443571,2.6349142032447577,1.079435137851133,A,487.7793999999085,Correct
5,205,343,B,61.03882691496361,34.412759708459056,3.05194134574818,0.5405543654492291,B,433.7478000002193,Correct
5,205,344,B,45.470451578524106,36.16460019015517,2.273522578926205,0.5680722113870176,B,369.7349000003669,Correct
5,205,345,A,26.592262917003513,47.55660096770192,1.3296131458501756,0.747017341149168,A,419.9884999998176,Correct
5,205,346,B,61.001188847112324,41.738109157919176,3.050059442355616,0.6556206855262388,B,444.5258999999169,Correct
5,205,347,A,46.32162333156413,58.16050467191298,2.3160811665782064,0.9135830710317834,A,809.5003999997061,Correct
5,205,348,A,22.460176054667063,41.12303409570552,1.1230088027333531,0.6459591090419552,A,455.8821999999054,Correct
5,205,349,A,55.83007643927984,73.59880526930579,2.791503821963992,1.1560873297351841,B,551.8896999997196,Incorrect
5,205,350,A,15.040351287591502,34.11465403721445,0.7520175643795751,0.5358717325153515,A,496.1825000000317,Correct
5,205,351,A,18.611458123523665,38.17301952130006,0.9305729061761832,0.5996203884672802,A,487.39660000001095,Correct
5,205,352,A,20.907252977862246,45.63279941894279,1.0453626488931123,0.7167983370864363,A,407.95410000009724,Correct
5,205,353,A,46.05171623769749,68.4014718226801,2.3025858118848745,1.0744478068643053,B,618.1786000001921,Incorrect
5,205,354,B,76.25251647623928,43.659099073653294,3.812625823811964,0.6857955245606907,B,563.0169999999453,Correct
5,205,355,A,32.07425563596895,49.63528498164173,1.6037127817984476,0.7796692332858072,A,539.8635000001377,Correct
5,205,356,A,46.21790507268245,72.31151462937241,2.3108952536341225,1.1358666156479362,A,815.2078999996775,Correct
5,205,357,A,59.65188705647184,71.56581833827751,2.9825943528235923,1.1241532456983714,A,723.3423000002404,Correct
5,205,358,B,68.28325628044792,53.35081606021755,3.414162814022396,0.8380326589889989,A,451.37800000020434,Incorrect
5,205,359,B,74.93940715260912,55.686153227266686,3.746970357630456,0.8747160494272829,B,556.7925000000287,Correct
5,205,360,B,87.04610086395209,65.8934250031459,4.352305043197605,1.0350514995487656,B,486.6984999998749,Correct
5,205,361,A,58.83485738654223,73.51180207639337,2.9417428693271113,1.1547206867767215,B,504.1076999996221,Incorrect
5,205,362,A,28.502736143600465,47.74005353690582,1.4251368071800232,0.7498990073676337,A,532.5176999999712,Correct
5,205,363,A,41.268326014805744,72.44529052702337,2.0634163007402875,1.1379679625343744,A,481.2438000003567,Correct
5,205,364,A,56.88345667328917,77.98407791912624,2.8441728336644583,1.224971031438505,A,559.8901000003025,Correct
5,205,365,B,80.0875648129024,54.709969555753176,4.004378240645121,0.8593821921723771,A,428.0232999999498,Incorrect
5,205,366,B,47.276025097062,23.14929790329638,2.3638012548531004,0.3636283211437875,B,631.0920000000806,Correct
5,205,367,A,22.86661184376406,46.93473458314321,1.1433305921882029,0.7372490868229475,A,505.8662999999797,Correct
5,205,368,A,46.871445917039864,62.70413499819082,2.343572295851993,0.9849542493000943,B,966.0233999998127,Incorrect
5,205,369,B,47.85663912006106,26.040010819889226,2.392831956003053,0.4090355334558136,B,558.6109000000761,Correct
5,205,370,B,76.16933874065606,61.446896432696946,3.8084669370328026,0.965205592094268,B,1100.9650999999394,Correct
5,205,371,B,63.27356773196643,53.02280743880877,3.163678386598322,0.8328803116123393,B,678.371700000298,Correct
5,205,372,B,69.76005454672473,44.04334229688684,3.488002727336237,0.6918312029972016,B,517.2613999998248,Correct
5,205,373,A,38.66288099515792,62.8653343349331,1.9331440497578962,0.9874863625604601,A,537.6989999999751,Correct
5,205,374,A,53.74108007095952,65.78216438865825,2.687054003547976,1.0333038219032242,A,486.09209999995073,Correct
5,205,375,B,80.90316914594307,62.522290845642445,4.045158457297154,0.9820978480313735,B,472.0695999999407,Correct
5,205,376,B,71.65733987203915,44.26976087871677,3.5828669936019573,0.695387777763767,B,533.6074000001645,Correct
5,205,377,B,67.24362735061072,36.01225902467083,3.3621813675305363,0.5656792419553931,B,515.4159999997319,Correct
5,205,378,A,37.260009947768076,66.82004099527246,1.8630004973884038,1.0496067495165837,A,538.3701000000656,Correct
5,205,379,B,38.115624330920554,15.66260040586872,1.9057812165460277,0.2460275518559484,B,585.8078000001115,Correct
5,205,380,B,61.39504091311256,36.9731967630009,3.069752045655628,0.5807736166518678,B,418.0731999999807,Correct
5,205,381,B,39.159770020860456,22.754534596280884,1.957988501043023,0.357427393617654,B,485.6862000001456,Correct
5,205,382,A,40.582592264171616,71.63258116753954,2.0291296132085805,1.125201953768084,A,441.58500000003187,Correct
5,205,383,A,56.583458007317724,83.97339742650794,2.829172900365886,1.319051042260467,A,614.2609000003176,Correct
5,205,384,B,57.80140605981134,45.3163516376882,2.8900703029905674,0.7118275869622651,B,513.0325000000084,Correct
5,205,385,B,58.48289670997396,44.95983541618451,2.924144835498698,0.7062274432504573,A,551.4020999999047,Incorrect
5,205,386,A,64.23294888373592,83.88531380868969,3.2116474441867955,1.3176674280272698,A,606.6168000002108,Correct
5,205,387,A,53.71413095218479,81.4658521423311,2.6857065476092394,1.2796626130438986,A,537.373000000116,Correct
5,205,388,A,61.02709738937885,85.10121792667691,3.051354869468943,1.336766805249961,A,468.1684000001951,Correct
5,205,389,A,47.33414155918531,69.90199222061199,2.3667070779592656,1.0980179261578276,A,430.6916000000456,Correct
5,205,390,B,49.86178916075454,40.380418595701705,2.493089458037727,0.6342941320456857,B,483.6307999999008,Correct
5,205,391,B,40.89028980614561,22.47175623689232,2.0445144903072805,0.35298552153540763,B,508.4882999999536,Correct
5,205,392,B,61.50873045906669,48.80529059531157,3.0754365229533347,0.7666317119527291,B,574.9889999997322,Correct
5,205,393,B,71.80916018344185,39.032916706460185,3.5904580091720923,0.613127621865988,B,384.6634000001359,Correct
5,205,394,A,28.567104230788615,43.260407712842365,1.428355211539431,0.679532895309824,A,463.8568000000305,Correct
5,205,395,B,71.69276156960906,42.08900347144354,3.584638078480453,0.6611325205140116,B,532.8163999997741,Correct
5,205,396,B,59.30658314942762,28.77934663573531,2.965329157471381,0.4520649198297009,B,378.38520000013887,Correct
5,205,397,A,56.50428333298977,81.8538297005597,2.8252141666494883,1.2857569502773418,A,513.2542000001195,Correct
5,205,398,B,72.28840455863899,51.85871099165179,3.6144202279319497,0.8145947273800475,B,468.620699999974,Correct
5,205,399,B,71.90283398526759,50.219067544534084,3.5951416992633796,0.7888392683401896,B,443.25949999984005,Correct
5,205,400,A,17.55768333307007,31.516858673683156,0.8778841666535036,0.4950656583673538,A,388.92829999986134,Correct
5,205,401,A,55.686104493128326,84.54812299568695,2.784305224656416,1.328078810390282,A,562.9957999999533,Correct
5,205,402,B,41.76161862133114,28.11892249500891,2.088080931066557,0.4416910016859038,B,480.26800000025105,Correct
5,205,403,A,21.79829123943649,34.97349078621342,1.0899145619718247,0.549362308621792,A,418.51569999971616,Correct
5,205,404,B,53.152843829750026,31.031649042565917,2.6576421914875015,0.4874440033045091,B,403.3512000000883,Correct
5,205,405,B,74.28156797319909,55.60207830067883,3.7140783986599546,0.8733954035686853,A,554.8104999998031,Incorrect
5,205,406,B,62.50688415251849,48.430182264511956,3.1253442076259246,0.7607395240710274,B,488.06839999997464,Correct
5,205,407,A,21.169770209418807,48.26456345733353,1.0584885104709403,0.758137989931387,A,373.5533999997642,Correct
5,205,408,A,41.86907070057838,72.39692907274646,2.093453535028919,1.137208302587008,A,469.35320000011416,Correct
5,205,409,A,45.79406664799539,56.54978016709737,2.2897033323997698,0.8882818696753544,A,496.9276000001628,Correct
5,205,410,A,18.26434114192384,40.36172831434391,0.9132170570961919,0.6340005457926498,A,451.6951999999037,Correct
5,205,411,A,56.79122031662186,68.56652225811379,2.839561015831093,1.0770404130414566,A,564.8396999999932,Correct
5,205,412,B,59.476223313842226,44.97356373162785,2.9738111656921116,0.706443087125172,B,480.1578999999947,Correct
5,205,413,B,58.03350659479,38.45552580069761,2.9016753297394997,0.6040579867270218,B,519.3608999998105,Correct
5,205,414,A,23.61671496166602,43.429160857284785,1.180835748083301,0.6821836635040764,A,306.6991999999118,Correct
5,205,415,A,48.95599900093071,74.93480720066582,2.4477999500465355,1.177073198998896,A,523.7597000000278,Correct
5,205,416,A,13.371723534985257,39.20816281291363,0.6685861767492628,0.6158803812690098,A,434.9821000000702,Correct
5,205,417,A,22.127017872638234,44.748643253677955,1.1063508936319117,0.7029100445193256,A,375.9853000001385,Correct
5,205,418,A,47.71278706315553,64.73258844817302,2.3856393531577766,1.0168171215831594,A,627.2877999999764,Correct
5,205,419,A,27.00554818174448,55.49470551189347,1.3502774090872238,0.8717087957464676,B,534.6337000000858,Incorrect
5,205,420,B,66.14271289398728,48.59970680758197,3.307135644699364,0.7634024093665869,B,543.4547999998358,Correct
5,205,421,A,27.8041948596084,48.08049964059852,1.39020974298042,0.7552467222591548,A,421.2590999995882,Correct
5,205,422,A,57.51386459944871,72.31526468768323,2.8756932299724354,1.135925521426135,B,525.2921999999671,Incorrect
5,205,423,A,61.94532871991077,87.10721731701322,3.097266435995538,1.368276969988892,A,489.7218999999495,Correct
5,205,424,B,84.01374025758217,56.94584351065222,4.200687012879109,0.8945032181276951,B,514.3004000001383,Correct
5,205,425,B,60.10041116834929,33.13292467098358,3.0050205584174643,0.5204507636915301,B,413.58760000002803,Correct
5,205,426,A,55.42450525882782,73.78580314743071,2.771225262941391,1.1590246855359547,A,403.9792000003217,Correct
5,205,427,B,43.57880981127329,25.472165494815478,2.1789404905636642,0.40011583994767863,B,428.5760000002483,Correct
5,205,428,A,21.276261176879128,33.07324411271301,1.0638130588439565,0.5195133036744054,A,490.9146999998484,Correct
5,205,429,B,44.059739709170216,29.86470611293805,2.202986985458511,0.46911370663012186,B,498.6533999999665,Correct
5,205,430,B,56.633416832046535,29.99175539771001,2.8316708416023264,0.47110939212853903,B,421.4457999996739,Correct
5,205,431,A,52.53660039375438,81.3554550771404,2.6268300196877186,1.2779284999989937,A,526.5352000001258,Correct
5,205,432,A,29.787395504044575,54.63913500095628,1.4893697752022288,0.8582695255875259,A,429.76669999961814,Correct
5,205,433,A,32.86129309341503,58.15945141054534,1.6430646546707515,0.9135665264409087,A,683.825699999943,Correct
5,205,434,B,86.07645259137888,58.037059155474836,4.303822629568944,0.9116439933939801,B,442.73199999997814,Correct
5,205,435,B,66.7065463705517,45.26724245931301,3.335327318527585,0.7110561817922286,B,426.4702999998917,Correct
5,205,436,A,37.191684873001336,58.929522944116954,1.859584243650067,0.9256627818039448,A,492.4119000002065,Correct
5,205,437,B,54.51060637326374,43.46230324790019,2.725530318663187,0.6827042629584751,A,718.609899999592,Incorrect
5,205,438,A,20.111621671051253,32.60681953499153,1.0055810835525627,0.5121867235402877,A,366.68250000002445,Correct
5,205,439,B,70.59296290266579,48.4744510771092,3.5296481451332897,0.7614348969532205,B,361.1565999999584,Correct
5,205,440,A,44.57623066785867,61.161985320961435,2.2288115333929337,0.9607302188164959,A,457.74489999985235,Correct
5,205,441,B,78.08347800319802,63.4573540309681,3.9041739001599014,0.9967857861996801,B,550.1502000001892,Correct
5,205,442,B,42.73392782047526,32.177716357971214,2.136696391023763,0.5054463865974923,A,454.70430000023043,Incorrect
5,205,443,B,68.79190817571316,37.032939972438,3.439595408785658,0.5817120607912152,B,387.1331000000282,Correct
5,205,444,B,51.90745594140525,27.413101158558753,2.5953727970702625,0.4306039860592101,B,366.49050000005445,Correct
5,205,445,A,36.0568159801889,45.45163201986683,1.802840799009445,0.7139525662364012,A,495.9152000001268,Correct
5,205,446,B,51.67410991976995,44.05046999912697,2.583705495988497,0.6919431646821743,B,374.82150000005277,Correct
5,205,447,A,64.31302972081042,87.8704603573285,3.2156514860405205,1.3802659636306818,A,622.8172999999515,Correct
5,205,448,A,32.166087784766745,63.98297662487228,1.6083043892383373,1.005042246597531,A,398.2897999999295,Correct
5,205,449,B,82.16137107765013,63.65689784462947,4.108068553882506,0.9999202130950193,B,422.8211999998166,Correct
5,205,450,B,54.48545132988862,31.567233232629768,2.724272566494431,0.4958569400889263,B,570.7196999996995,Correct
5,205,451,A,42.13209239402613,53.68858613931531,2.1066046197013066,0.8433383389844787,A,421.51860000012675,Correct
5,205,452,A,43.8731898066744,73.12648028874179,2.1936594903337197,1.14866806628995,A,404.42810000013196,Correct
5,205,453,A,28.067957472416584,59.5147198035404,1.4033978736208292,0.9348550325762875,A,418.228900000031,Correct
5,205,454,B,41.30523459002045,30.77794158217262,2.0652617295010227,0.48345877583584657,B,369.6821000003183,Correct
5,205,455,B,73.41801089461129,62.34446694252808,3.670900544730564,0.9793045966930897,B,487.47699999967153,Correct
5,205,456,B,60.65606051562169,35.470656091488294,3.0328030257810843,0.5571717629751484,B,552.9151000000638,Correct
5,205,457,B,66.69984469163292,45.70182664190766,3.334992234581646,0.7178826141692569,B,404.79039999991073,Correct
5,205,458,B,38.210588991160925,15.350189341512667,1.9105294495580463,0.2411202103325427,A,470.1900000000023,Incorrect
5,205,459,B,43.867944506894986,28.1212782353493,2.193397225344749,0.4417280055686395,B,385.79799999979514,Correct
5,205,460,B,51.504297958120915,27.04126444484929,2.5752148979060454,0.4247631886185871,B,383.57319999977335,Correct
5,205,461,B,50.55100429387171,20.06857087439911,2.5275502146935853,0.31523637413529165,B,393.8121000001047,Correct
5,205,462,A,58.33595576410589,72.03470136930638,2.9167977882052947,1.1315184431267378,A,505.5609999999433,Correct
5,205,463,B,43.96942859805867,20.46800041606068,2.1984714299029333,0.32151059870384524,B,387.7615000001242,Correct
5,205,464,A,58.41534219800663,70.27823542409902,2.920767109900331,1.1039279405780174,A,404.61439999990034,Correct
5,205,465,B,51.85548876075801,21.45749790271217,2.5927744380379005,0.3370535888778947,B,418.7008000003516,Correct
5,205,466,A,25.056067972970364,50.53578454120312,1.2528033986485183,0.7938142472902017,A,457.9179000002114,Correct
5,205,467,A,54.739714455941694,75.95247387586865,2.7369857227970846,1.1930586697519983,B,341.7742999999973,Incorrect
5,205,468,B,76.78588726318974,50.6986994052193,3.839294363159487,0.796373307989971,B,471.4770000000499,Correct
5,205,469,B,61.097264112818436,51.8133880617183,3.0548632056409217,0.8138827964614564,B,430.9312000000318,Correct
5,205,470,A,53.57625753401632,79.8504581844896,2.678812876700816,1.2542880640908574,A,438.10290000010355,Correct
5,205,471,B,55.76163403335384,43.983019053524345,2.7880817016676924,0.6908836477062599,B,436.49439999990136,Correct
5,205,472,B,74.78019841064383,57.990186791114596,3.7390099205321916,0.9109077240163274,B,412.48170000017126,Correct
5,205,473,A,20.628634384519245,48.568711564188774,1.0314317192259623,0.7629155372218854,A,494.7205999997095,Correct
5,205,474,B,55.2989775054917,37.918680169545496,2.764948875274585,0.5956252352723255,B,417.75170000028083,Correct
5,205,475,B,65.8701062930159,36.43502632397818,3.293505314650795,0.5723200551638028,B,348.7669000001006,Correct
5,205,476,B,63.163914786975376,32.015691368232204,3.1581957393487685,0.5029013040101822,B,391.56950000005963,Correct
5,205,477,B,74.43024548969092,55.27597230716631,3.7215122744845464,0.8682729426011326,B,330.3475000002436,Correct
5,205,478,B,68.44879929637582,58.90374712769971,3.422439964818791,0.9252578962264614,B,356.0275999998339,Correct
5,205,479,A,67.58457720669418,79.94892495828176,3.3792288603347087,1.2558347765566982,A,535.9026999999514,Correct
5,205,480,B,64.44196754129617,40.90697884038096,3.222098377064808,0.6425653210274698,B,558.536400000321,Correct
5,205,481,A,59.408295302495475,75.77508634935496,2.970414765124774,1.1902722730013289,B,371.5036000003238,Incorrect
5,205,482,A,19.8437379912043,41.34031042685532,0.9921868995602151,0.6493720776706509,A,485.7513000001745,Correct
5,205,483,A,41.45191752821433,72.88305754566561,2.0725958764107166,1.144844390783126,B,435.2867000002334,Incorrect
5,205,484,B,80.90874948602269,63.53770574588873,4.045437474301134,0.9980479479861699,B,549.5144000001346,Correct
5,205,485,A,63.36972832771964,86.03562903881827,3.1684864163859823,1.3514445006766407,A,434.76339999961056,Correct
5,205,486,B,76.10975684760331,62.06026881035716,3.8054878423801655,0.974840422872129,B,634.5065000000432,Correct
5,205,487,B,82.60635095545632,53.34698483883975,4.130317547772816,0.8379724783043252,B,376.82719999975234,Correct
5,205,488,A,28.103266785610167,58.16294773204461,1.4051633392805085,0.9136214465305924,A,433.9742000001934,Correct
5,205,489,B,68.52308051086183,49.365805959916294,3.426154025543092,0.7754362667110611,B,451.9421999998485,Correct
5,205,490,B,80.97216138549007,54.72141136113874,4.048608069274503,0.8595619196310925,B,420.50239999980477,Correct
5,205,491,A,40.171835059092636,72.23126981340351,2.008591752954632,1.1346061330262536,A,389.34589999962554,Correct
5,205,492,B,51.00560239376868,38.25414657239757,2.550280119688434,0.6008947292059569,B,339.7180000001754,Correct
5,205,493,B,46.813617248911285,20.276301529825094,2.340680862445564,0.31849939964035,B,370.03520000007484,Correct
5,205,494,B,32.06878867515228,12.928297910835902,1.6034394337576139,0.20307722870051167,A,412.2600999999122,Incorrect
5,205,495,A,38.39215412892021,52.49466609206111,1.9196077064460104,0.8245842867373419,A,510.76240000020334,Correct
5,205,496,B,44.888701727651096,17.921945613377023,2.2444350863825546,0.28151726338510535,B,509.1520999999375,Correct
5,205,497,B,33.91593008410158,19.325707211869556,1.695796504205079,0.3035674990111834,B,429.4276999999056,Correct
5,205,498,B,58.95154933808669,28.730681861232924,2.9475774669043346,0.45130049533937444,B,482.13739999982863,Correct
5,205,499,A,41.92788703915939,55.21744456330833,2.096394351957969,0.8673535909504554,B,376.24419999974634,Incorrect
5,205,500,A,20.745515057352083,40.455751293430936,1.0372757528676042,0.6354774552944921,A,478.8594000001467,Correct
5,205,501,A,27.537900350554764,48.66904643711612,1.3768950175277381,0.7644915937203224,A,473.1188000000657,Correct
5,205,502,A,22.549715647001367,43.86534752489803,1.1274857823500684,0.6890352676569143,A,406.62049999991723,Correct
5,205,503,B,67.66410567673573,51.72492282414267,3.3832052838367868,0.8124931877591282,B,469.54079999977694,Correct
5,205,504,B,37.52069984354708,16.393514964279873,1.8760349921773538,0.25750873089147996,B,657.9784999998992,Correct
5,205,505,B,34.60951361649184,11.583730852203473,1.7304756808245918,0.18195681873221928,B,424.6336999999585,Correct
5,205,506,A,49.9870135754214,72.10507700730632,2.49935067877107,1.1326239010633994,A,856.1024000000543,Correct
5,205,507,A,65.38031843968672,87.01491722103091,3.269015921984336,1.3668271234715734,A,573.0577999997877,Correct
5,205,508,A,42.904925297690774,66.25131309948765,2.1452462648845385,1.040673192620138,B,458.86960000007093,Incorrect
5,205,509,A,48.53062611665338,76.87668515090454,2.4265313058326687,1.207576146512086,B,474.61029999976745,Incorrect
5,205,510,B,71.03569692767614,47.522707659411765,3.551784846383807,0.746484946307517,B,428.01909999980126,Correct
5,205,511,A,50.608864832961665,59.035643106113135,2.5304432416480833,0.9273297134105696,B,471.60759999997026,Incorrect
5,205,512,A,35.0083152691757,60.62037313148634,1.7504157634587847,0.952222594438748,A,543.0726999998114,Correct
5,205,513,B,50.975469191808784,27.239322832849794,2.548773459590439,0.4278742825022081,B,443.776600000092,Correct
5,205,514,A,35.365131160045124,68.24704527152247,1.768256558002256,1.072022080271125,A,443.26150000006237,Correct
5,205,515,B,66.56155566281272,53.568341676513,3.3280777831406363,0.8414495433796061,B,575.6771000001208,Correct
5,205,516,B,84.05545426153255,62.66326891992861,4.2027727130766275,0.9843123264438467,B,373.7791000003199,Correct
5,205,517,A,40.223303884874205,56.98179811883706,2.0111651942437105,0.8950679917923762,A,814.0407000000778,Correct
5,205,518,B,54.87363875615643,36.40619021998827,2.7436819378078217,0.5718670987015386,B,486.0819000000447,Correct
5,205,519,A,22.31894199396898,45.130376228702474,1.115947099698449,0.7089062920691757,A,431.47499999986394,Correct
5,205,520,A,11.890827514253164,34.97114074457065,0.5945413757126582,0.5493253942539891,A,330.25580000003174,Correct
5,205,521,B,54.41699457415079,38.856674134891115,2.72084972870754,0.6103592100255324,B,562.5374000001102,Correct
5,205,522,B,47.78840328473353,27.64532293023777,2.3894201642366766,0.43425171711876215,B,431.28240000032747,Correct
5,205,523,B,78.88304848355119,50.45124220616967,3.9441524241775596,0.7924862593969095,B,352.3909000000458,Correct
5,205,524,A,21.889721153271132,40.97724006118003,1.0944860576635564,0.6436689817029426,A,390.7478999999512,Correct
5,205,525,B,52.19655053896925,25.047993544222656,2.6098275269484623,0.39345296252847234,B,451.1588999998821,Correct
5,205,526,A,38.54751084666935,67.41141561830766,1.9273755423334675,1.0588960403728178,A,465.56439999994836,Correct
5,205,527,B,71.45726792364641,41.97755613175341,3.572863396182321,0.6593819097958485,B,392.1371999999792,Correct
5,205,528,B,59.94765854268368,49.11043068308291,2.9973829271341845,0.7714248412430202,B,336.7137999998704,Correct
5,205,529,B,64.99584784080007,42.66678637526304,3.2497923920400034,0.6702083131440572,B,378.3880999999383,Correct
5,205,530,B,65.93438789969566,52.4096091335002,3.296719394984783,0.8232482151565838,B,343.95020000010845,Correct
5,205,531,B,41.41561163652596,19.108936062774795,2.070780581826298,0.3001624657636518,B,543.1373999999778,Correct
5,205,532,B,59.72099206010418,38.28306728221438,2.9860496030052093,0.6013490146534425,B,390.5861000002915,Correct
5,205,533,B,71.65050833950696,49.90092949651523,3.5825254169753475,0.7838419675677724,B,348.1379999998353,Correct
5,205,534,A,42.96230709507228,75.4441718726807,2.1481153547536143,1.185074280556897,A,459.8551999997653,Correct
5,205,535,A,22.05689577504737,43.95012063303338,1.1028447887523685,0.6903668805256142,A,506.77459999997154,Correct
5,205,536,A,41.56588308844099,50.05457474277971,2.0782941544220495,0.7862554214523897,B,355.353599999944,Incorrect
5,205,537,B,76.63801808000514,60.606734458593166,3.8319009040002574,0.9520083586659183,B,424.3045000002894,Correct
5,205,538,B,59.21034911906978,49.669555217053265,2.960517455953489,0.7802075488848355,B,454.9597999998696,Correct
5,205,539,A,27.61161529723451,56.49355179233717,1.3805807648617254,0.8873986364300047,A,398.156299999755,Correct
5,205,540,A,54.06253608568754,64.12922990117883,2.703126804284377,1.0073395876895714,B,490.6076999996003,Incorrect
5,205,541,A,34.27303073677923,57.49811524208853,1.7136515368389615,0.9031782821990232,A,478.74910000018644,Correct
5,205,542,A,16.17306801388125,35.84907403735592,0.8086534006940624,0.5631159381687697,A,467.17560000024605,Correct
5,205,543,A,22.199204791929503,51.112757184023764,1.1099602395964752,0.80287731237024,A,410.35599999986516,Correct
5,205,544,A,11.555612632934189,36.7974344237976,0.5777806316467093,0.5780127482837735,A,382.7685000001111,Correct
5,205,545,A,18.776450021914744,49.54290023661451,0.9388225010957372,0.7782180571044007,A,365.3956000002836,Correct
5,205,546,A,15.350790320304888,37.18593353716578,0.7675395160152445,0.5841152780861916,A,355.53740000023026,Correct
5,205,547,B,61.704624329028064,45.255198891513245,3.0852312164514033,0.7108670018716148,B,466.4420000003702,Correct
5,205,548,A,29.912827257735778,43.034202712010625,1.495641362886789,0.6759796754657327,A,423.94670000021506,Correct
5,205,549,B,59.20778986623203,26.44385635817085,2.9603894933116015,0.4153791243370665,B,393.0728000000272,Correct
