subject,day,trial,cat,x,y,xt,yt,resp,rt,fb
1,301,0,A,43.28226695092017,69.13534053143837,2.1641133475460084,1.0859753895849773,A,698.9160999999058,Correct
1,301,1,B,31.467456575849223,11.779489022390475,1.573372828792461,0.18503178087891767,B,549.3965000000571,Correct
1,301,2,A,64.18103290474451,83.06941359384335,3.2090516452372255,1.304851297422152,A,718.2488000000831,Correct
1,301,3,B,46.48880690480395,21.009837698311987,2.3244403452401974,0.3300217588306541,B,578.1268999999156,Correct
1,301,4,B,78.4845556525911,47.471927644878555,3.924227782629555,0.7456872957044833,B,1154.423799999904,Correct
1,301,5,B,37.183728773977414,16.105719059694053,1.8591864386988706,0.2529880433935797,A,686.0144999998283,Incorrect
1,301,6,B,58.896892185473774,35.21554689172118,2.944844609273689,0.5531645170358908,B,1373.4788000001572,Correct
1,301,7,A,33.3230493120597,52.92613969604854,1.6661524656029851,0.8313618582598661,A,499.8579000000518,Correct
1,301,8,A,14.252471029574469,39.374947896752445,0.7126235514787234,0.6185002352395917,A,470.1112000000194,Correct
1,301,9,B,73.99700603525781,42.65403501460571,3.6998503017628908,0.6700080152392355,B,849.6786999999131,Correct
1,301,10,B,45.5027138516362,15.650503121131411,2.2751356925818103,0.24583752815165288,B,580.7442000000265,Correct
1,301,11,B,83.36452321453287,58.393130856429686,4.168226160726643,0.9172371545933348,B,678.4172999998646,Correct
1,301,12,B,51.80523689865465,31.014498471871732,2.5902618449327326,0.48717460277002056,B,498.57489999999416,Correct
1,301,13,A,30.276522528060752,55.634558509996666,1.5138261264030377,0.8739056015035852,B,755.9744000000137,Incorrect
1,301,14,B,70.09148729751303,46.797801508310506,3.5045743648756513,0.7350981471133082,B,432.13620000005903,Correct
1,301,15,A,40.54508779172321,64.28459453302195,2.0272543895861603,1.0097800496197016,A,697.5148000001354,Correct
1,301,16,A,31.775880623599633,62.631970454916484,1.5887940311799815,0.9838206913050931,A,506.8760999999995,Correct
1,301,17,A,16.944460483833616,45.07337717618609,0.8472230241916807,0.7080109530459404,A,614.5200000000841,Correct
1,301,18,A,58.3003732857467,72.31546688981017,2.915018664287335,1.1359286976097178,B,615.922400000045,Incorrect
1,301,19,B,43.07022966799859,31.540990502893628,2.15351148339993,0.49544472025418024,B,540.3656000000865,Correct
1,301,20,B,60.3909493344932,28.468356534052624,3.01954746672466,0.4471798987357736,B,607.3969000001398,Correct
1,301,21,B,55.790243563855206,45.75836389079744,2.7895121781927603,0.7187706991980884,B,540.6311000001551,Correct
1,301,22,B,41.8836051899987,24.32946954727712,2.0941802594999346,0.38216641397731194,B,500.69619999999304,Correct
1,301,23,A,57.10178079601712,75.66549823052361,2.8550890398008555,1.1885508668561224,B,748.4122000000752,Incorrect
1,301,24,B,80.93591074921358,54.04263105637755,4.046795537460679,0.8488996635368965,B,331.0179000000062,Correct
1,301,25,A,12.305819038423476,39.08994638575827,0.6152909519211738,0.6140234419735853,A,873.6854000001131,Correct
1,301,26,A,32.970962937427615,58.52206766888828,1.6485481468713805,0.9192624893073209,B,624.8779000000013,Incorrect
1,301,27,A,65.13868607588708,88.7138172747193,3.2569343037943543,1.393513383110827,A,614.4196000000193,Correct
1,301,28,B,56.49599274653253,30.412432725238737,2.8247996373266266,0.47771737613701915,B,498.57029999998304,Correct
1,301,29,B,54.54862615474527,41.34155781190382,2.727431307737264,0.6493916715491738,B,973.9155999998275,Correct
1,301,30,A,22.114296969887956,44.104452648438894,1.105714848494398,0.6927911221546725,A,494.732299999896,Correct
1,301,31,B,50.088559976717924,41.94035784424796,2.5044279988358964,0.6587976004620822,B,1772.0197000001008,Correct
1,301,32,A,39.79106284635725,64.99389066418561,1.9895531423178625,1.0209216471941187,B,511.6350999999213,Incorrect
1,301,33,B,81.39131295348807,58.17285825535545,4.069565647674404,0.9137771206667251,B,626.1308999999073,Correct
1,301,34,B,65.3055376809422,39.305843900917395,3.2652768840471094,0.6174147522113463,A,729.0071999998418,Incorrect
1,301,35,B,30.86902366867808,11.818581412205862,1.543451183433904,0.18564584270219409,A,567.9392000001826,Incorrect
1,301,36,B,47.3862405250192,16.90329933759674,2.36931202625096,0.2655164051021156,B,549.7617000000901,Correct
1,301,37,A,27.289377149582897,44.708387033363685,1.3644688574791448,0.7022777012893227,B,539.566799999875,Incorrect
1,301,38,A,24.12083792155984,55.303674497942865,1.206041896077992,0.8687080875962925,B,1520.2589999998963,Incorrect
1,301,39,A,58.353141824636026,76.11654722548302,2.9176570912318014,1.19563592790099,B,369.94800000002215,Incorrect
1,301,40,A,17.622873055916727,43.96122201632815,0.8811436527958364,0.690541260646632,A,690.5251999999109,Correct
1,301,41,B,73.62583199167578,49.7044642973012,3.681291599583789,0.7807558994350882,B,1050.8191000001261,Correct
1,301,42,B,45.91843901962589,36.031759394363824,2.295921950981295,0.565985553046242,B,517.0496999999159,Correct
1,301,43,B,78.22085864416397,46.413929553544776,3.9110429322081983,0.7290683005482522,B,895.8217000001696,Correct
1,301,44,B,61.50621870639611,33.239388541280555,3.0753109353198056,0.5221230942555187,B,1625.507899999775,Correct
1,301,45,A,41.40778652676438,57.78679271056229,2.070389326338219,0.9077128172700935,B,814.2049000000497,Incorrect
1,301,46,B,84.74740205832006,58.549301650726356,4.237370102916003,0.9196902796936732,B,722.9030000000876,Correct
1,301,47,A,20.242146472036875,42.48538688431536,1.0121073236018439,0.6673588966034264,A,517.4085999999534,Correct
1,301,48,B,65.09557879994561,42.4375036423341,3.2547789399972804,0.6666067483972344,B,546.6718999998648,Correct
1,301,49,B,56.62634026435135,40.87000772955651,2.8313170132175673,0.641984580176664,A,862.8218999999717,Incorrect
1,301,50,A,22.88164870780763,38.48493797460398,1.1440824353903816,0.6045199920743736,A,684.0809000000263,Correct
1,301,51,A,17.12675072570801,40.60980997557941,0.8563375362854004,0.6378974034147888,A,781.4865999998801,Correct
1,301,52,B,65.8175075328781,50.66013120050929,3.2908753766439047,0.7957674800470754,B,571.280999999999,Correct
1,301,53,B,43.55891821728771,28.540926780131446,2.177945910864386,0.4483198294955257,B,919.4299999999203,Correct
1,301,54,A,50.42080001453463,81.47487662155385,2.5210400007267313,1.2798043692320418,A,718.3479999998781,Correct
1,301,55,B,88.61713115370243,66.07276606882425,4.4308565576851215,1.037868582420876,B,610.2372999998806,Correct
1,301,56,B,46.654681560776055,28.251495585789037,2.332734078038803,0.4437734549261965,B,551.4940000000479,Correct
1,301,57,B,67.09627512135015,50.89835282804735,3.354813756067507,0.799509456622074,B,428.722099999959,Correct
1,301,58,A,54.918068735592485,82.4333830580715,2.7459034367796242,1.2948605531289534,A,754.581600000165,Correct
1,301,59,B,45.17297248403716,37.79065959693886,2.258648624201858,0.5936142928202787,B,617.2182999998768,Correct
1,301,60,A,16.11720084938411,36.93710122134034,0.8058600424692054,0.5802066292093269,A,505.5065999999897,Correct
1,301,61,B,88.3724481606542,68.42983866128014,4.41862240803271,1.0748933921230623,B,437.0928000000731,Correct
1,301,62,B,76.47303583472694,46.19772837526327,3.823651791736347,0.7256722203813191,A,692.2991999999795,Incorrect
1,301,63,A,51.91677545251422,81.01966399429054,2.595838772625711,1.272653906003883,A,896.4599999999336,Correct
1,301,64,B,69.90624745500973,43.499309835280854,3.4953123727504867,0.6832855610737227,B,1321.5596000000005,Correct
1,301,65,B,69.65331911481191,48.54625034242023,3.482665955740595,0.7625627171753919,B,861.7182999998931,Correct
1,301,66,B,59.8724662685294,27.67954783997045,2.99362331342647,0.4347893207436919,B,1212.3830000000453,Correct
1,301,67,B,58.07172265289566,49.37399066177608,2.9035861326447834,0.7755648317072338,B,2231.956999999966,Correct
1,301,68,B,40.21596522756081,16.986262064239043,2.0107982613780404,0.2668195805648219,B,841.6401999998016,Correct
1,301,69,A,58.728083808263285,75.59816177881383,2.9364041904131644,1.1874931483460713,A,535.7145000000401,Correct
1,301,70,A,58.85171630910751,71.50238515298489,2.9425858154553755,1.123156839553826,A,606.1070999999174,Correct
1,301,71,A,65.90879726352016,85.13575838664607,3.295439863176008,1.3373093655264146,A,532.9972000001817,Correct
1,301,72,B,32.907722404753684,18.631307303944187,1.6453861202376843,0.29265989076422455,B,505.1725999999235,Correct
1,301,73,A,67.47395292639006,84.09025429433589,3.3736976463195028,1.3208866256479161,A,527.5452999999288,Correct
1,301,74,A,49.24344024976047,63.8979139498489,2.4621720124880233,1.0037060852227904,A,711.8321000000378,Correct
1,301,75,A,13.414386586620704,33.58879232947861,0.6707193293310353,0.5276115161262158,A,1525.0605999999607,Correct
1,301,76,A,33.851725013375905,45.235604824082536,1.6925862506687952,0.7105592189801435,A,544.1192000000683,Correct
1,301,77,B,62.54791255396378,36.42874188072031,3.1273956276981894,0.5722213393599488,B,1349.6729999999388,Correct
1,301,78,B,52.13569251489419,35.24450382629425,2.606784625744709,0.5536193715005168,B,701.4317000000574,Correct
1,301,79,B,78.77803488959182,55.900098021631464,3.9389017444795913,0.8780766863985338,B,578.1332000001385,Correct
1,301,80,A,38.06223734555244,62.4705456295255,1.903111867277622,0.9812850360773164,A,530.6905999998435,Correct
1,301,81,B,81.1302028100856,51.64442305573125,4.0565101405042805,0.8112287003538431,B,713.8778000000912,Correct
1,301,82,A,16.928274766664092,32.137964031800465,0.8464137383332045,0.5048219585181867,A,500.3873000000567,Correct
1,301,83,A,58.20467028315868,77.85506488157304,2.910233514157934,1.2229444993835328,A,722.4641999998767,Correct
1,301,84,A,53.20415564330614,61.93813888611956,2.660207782165307,0.9729220105082875,A,1064.0085,Correct
1,301,85,B,80.09928068928775,55.32553430841312,4.004964034464388,0.8690514606962035,B,1215.4516999999032,Correct
1,301,86,B,78.78379905619119,51.92486055091665,3.939189952809559,0.8156338022271709,B,1058.2348999998885,Correct
1,301,87,B,42.13837824582817,23.12707436520332,2.1069189122914085,0.36327923462373796,B,709.0378999998848,Correct
1,301,88,A,37.79244933358804,60.094084974452784,1.8896224666794017,0.9439556793997081,B,1102.4402999998983,Incorrect
1,301,89,A,21.783349901945655,47.339229157616884,1.0891674950972827,0.7436028727408647,A,588.7819000001855,Correct
1,301,90,A,41.90793184184905,53.445742268376044,2.0953965920924524,0.8395237563799184,B,1905.2372999999534,Incorrect
1,301,91,A,56.3113110085505,77.3976145811883,2.815565550427525,1.2157588868681768,A,637.9256999998688,Correct
1,301,92,A,40.48471325044014,52.9668300463438,2.024235662522007,0.8320010207876641,A,797.400400000015,Correct
1,301,93,A,63.050054468698654,80.27670237314534,3.152502723434933,1.2609834921494385,A,736.9889999999941,Correct
1,301,94,B,78.35858669309562,50.133004563106695,3.9179293346547808,0.7874873941891979,B,682.1179999999458,Correct
1,301,95,A,21.53437317496053,41.33797869668573,1.0767186587480264,0.6493354509387962,A,526.2416000000485,Correct
1,301,96,B,64.21607702666299,53.56686119672188,3.2108038513331496,0.841426288057428,A,1204.6348999999736,Incorrect
1,301,97,A,44.059111944024416,69.4533556791526,2.2029555972012207,1.0909707598439238,A,795.8568999999898,Correct
1,301,98,B,60.845289543986574,28.432482157820765,3.042264477199329,0.44661638535166287,B,1270.35560000013,Correct
1,301,99,A,68.98227656116663,83.16106468050438,3.4491138280583313,1.3062909493248909,A,632.2767999999996,Correct
1,301,100,B,32.39271702800864,14.777236226224886,1.6196358514004319,0.2321202838433453,B,1321.9521000000896,Correct
1,301,101,A,62.68801809810908,72.99712848716038,3.134400904905454,1.1466362129420662,B,904.0244000000257,Incorrect
1,301,102,A,11.262032496557215,31.01227828646314,0.5631016248278606,0.4871397281791743,A,543.2209000000512,Correct
1,301,103,B,73.27749219169604,53.24209816856446,3.6638746095848025,0.8363249223403435,B,951.254199999994,Correct
1,301,104,B,54.02155143431802,37.3429678393383,2.701077571715901,0.5865819671365257,B,614.7350999999617,Correct
1,301,105,A,26.512200098526968,52.111954924801196,1.3256100049263484,0.8185726737797893,A,550.5330999999387,Correct
1,301,106,A,65.40312019121681,88.77880095574739,3.270156009560841,1.3945341443854324,A,938.1034000000454,Correct
1,301,107,A,19.222182442628277,48.574911706605704,0.9611091221314139,0.7630129288312266,A,568.474900000183,Correct
1,301,108,A,14.067019762128155,35.020290085723595,0.7033509881064077,0.5500974302994636,A,868.3132999999543,Correct
1,301,109,B,68.54135269278324,36.76109120179487,3.4270676346391618,0.5774418702875157,B,657.8523000000587,Correct
1,301,110,B,46.419022627592085,26.130254859327863,2.320951131379604,0.410453083512467,A,1467.2557000001234,Incorrect
1,301,111,B,73.68805953056233,43.99735980265349,3.6844029765281165,0.6911089116668154,B,2558.2730999999512,Correct
1,301,112,B,51.876235329850836,42.11724619597982,2.593811766492542,0.6615761561936142,B,493.2119000000057,Correct
1,301,113,A,19.938498650927198,49.1537029328264,0.9969249325463599,0.7721045601525124,A,497.9310000001078,Correct
1,301,114,B,66.17663058865863,53.37751660169404,3.308831529432931,0.8384520701137461,B,486.07029999993756,Correct
1,301,115,A,35.833408031406165,49.39309099130729,1.7916704015703084,0.7758648589819158,B,778.248000000076,Incorrect
1,301,116,A,36.93205732239787,55.14626654956952,1.8466028661198934,0.8662355293251606,A,1385.70679999998,Correct
1,301,117,B,50.67344264402517,43.97951314945942,2.5336721322012585,0.6908285770939872,B,626.5627000000222,Correct
1,301,118,B,51.44588160252511,22.903784322265906,2.5722940801262557,0.35977180283117827,A,849.7810999999729,Incorrect
1,301,119,A,57.17590537452723,80.70976947316142,2.858795268726362,1.2677860942490482,A,1117.3545999999988,Correct
1,301,120,A,39.140578090846304,66.65759060654788,1.9570289045423153,1.0470549847776343,B,1081.233500000053,Incorrect
1,301,121,B,46.73975331185318,36.59682821604128,2.336987665592659,0.5748616333410147,B,851.4658999999938,Correct
1,301,122,A,25.22588158309507,41.49049972166654,1.2612940791547536,0.6517312455967847,B,840.7079000000977,Incorrect
1,301,123,A,17.634360091512345,32.560717571188604,0.8817180045756173,0.5114625555862911,A,557.1351999999479,Correct
1,301,124,A,41.83569175317334,51.76908843492283,2.091784587658667,0.8131869395509694,B,1013.1751999999778,Incorrect
1,301,125,A,27.86844377809252,39.10843350407865,1.3934221889046259,0.614313836949092,A,1362.42900000002,Correct
1,301,126,B,50.06939746222402,34.62085815855634,2.5034698731112006,0.5438231682594742,B,802.9931999999462,Correct
1,301,127,B,53.965473497583694,37.09523939114563,2.698273674879185,0.582690657771889,B,604.9702000000252,Correct
1,301,128,B,47.037444013776565,32.20927787163774,2.3518722006888284,0.505942153694847,B,556.1625000000276,Correct
1,301,129,A,51.86399408686825,73.78573013492363,2.5931997043434127,1.1590235386581755,A,594.2423000001327,Correct
1,301,130,B,49.28538544747324,20.87917945753767,2.4642692723736617,0.3279693839839163,B,724.4546000001719,Correct
1,301,131,A,11.770921095357561,38.01898955076014,0.5885460547678781,0.5972008913478758,A,609.1452999999092,Correct
1,301,132,A,59.92351579090494,70.28891491319133,2.9961757895452474,1.1040956936003998,A,735.7687000001079,Correct
1,301,133,B,62.08711471541338,39.08112581788142,3.104355735770669,0.6138848888173734,B,790.6878000001143,Correct
1,301,134,B,49.37979643171576,40.05268721567717,2.468989821585788,0.6291461395665061,A,943.2782999999745,Incorrect
1,301,135,B,43.7915455435147,24.168747575778653,2.189577277175735,0.3796417991526617,B,1186.6072999998778,Correct
1,301,136,A,59.81802294000049,78.02388198024073,2.9909011470000246,1.2255962721684066,A,2033.8090999998713,Correct
1,301,137,B,45.84976783828703,15.826888286804738,2.2924883919143513,0.24860817985506053,B,806.8076000001838,Correct
1,301,138,A,50.4715895474682,57.26175002990668,2.52357947737341,0.8994654661282497,A,690.6851000001097,Correct
1,301,139,B,37.38671085536494,19.011916661692837,1.8693355427682468,0.29863848857517805,A,786.7177999999058,Incorrect
1,301,140,B,54.25622517442555,29.416454926158334,2.7128112587212776,0.4620725934533715,A,582.3012999999264,Incorrect
1,301,141,A,43.19497342202256,66.64662022944302,2.1597486711011276,1.0468826624970353,A,1460.3825000001507,Correct
1,301,142,A,34.552985140071414,62.9766153812507,1.7276492570035709,0.9892343611484361,A,1536.2583999999515,Correct
1,301,143,B,68.72413832878277,49.53708318423995,3.4362069164391387,0.7781266830593734,B,681.0937000000195,Correct
1,301,144,A,27.728695827942957,41.04098659707843,1.3864347913971478,0.6446703099472937,A,2148.746100000153,Correct
1,301,145,A,29.732575470444132,48.73297674979519,1.4866287735222068,0.7654958087235938,B,1837.8548000000592,Incorrect
1,301,146,A,25.201389471808717,42.17584977841983,1.2600694735904359,0.6624966991139523,A,669.5952000000034,Correct
1,301,147,B,59.51984563560039,33.03935602082088,2.9759922817800195,0.5189809907717429,B,666.5775999999823,Correct
1,301,148,A,51.93648317441307,74.90704943745988,2.5968241587206533,1.176637181074057,A,543.8214000000698,Correct
1,301,149,B,76.89161691537777,45.07850958020346,3.8445808457688884,0.7080915726597216,B,712.1187000000191,Correct
1,301,150,B,55.65019293437674,39.631037995507754,2.7825096467188373,0.6225228891041256,B,645.655399999896,Correct
1,301,151,B,55.93486110685569,35.61422285385418,2.796743055342785,0.5594269044048901,B,510.240500000009,Correct
1,301,152,A,21.458306352817253,42.10503955546663,1.0729153176408628,0.6613844147328081,A,713.8360000001285,Correct
1,301,153,A,29.925266562911467,55.121360840168045,1.4962633281455735,0.8658443113567202,A,508.3331000000726,Correct
1,301,154,B,70.98482194438171,49.68862673793276,3.549241097219085,0.7805071236342745,B,604.9196000001302,Correct
1,301,155,B,87.60324264660758,69.21718544158057,4.380162132330379,1.0872610064271595,B,1538.7254999998277,Correct
1,301,156,A,14.717616405020905,31.38735497927219,0.7358808202510453,0.4930314190924826,A,993.9168000000791,Correct
1,301,157,A,65.90375213579469,83.52505679180481,3.2951876067897343,1.3120085240390214,A,982.580599999892,Correct
1,301,158,A,62.00407929472204,75.0535532072573,3.100203964736102,1.178938456908651,A,628.4144000001106,Correct
1,301,159,A,49.451585429204016,66.95974972852245,2.4725792714602006,1.0518012891666864,A,719.4591999998465,Correct
1,301,160,A,19.469043987447474,43.17310958464169,0.9734521993723737,0.6781616195186871,A,606.67669999998,Correct
1,301,161,A,61.251261070520556,85.77543856264153,3.062563053526028,1.3473574382341862,A,1393.7114000000292,Correct
1,301,162,A,31.932025521784382,42.45984054814365,1.5966012760892192,0.6669576156932107,B,1128.0997999999727,Incorrect
1,301,163,B,51.913417988832606,38.47143323833668,2.5956708994416307,0.6043078601731434,A,541.9196000000284,Incorrect
1,301,164,A,47.938168667126675,65.33303620022559,2.3969084333563337,1.0262489328167237,A,480.400599999939,Correct
1,301,165,B,76.0160123384584,52.73469839233386,3.8008006169229196,0.8283547052931477,B,1235.9977000000981,Correct
1,301,166,B,55.60382959486737,44.92341997578396,2.780191479743369,0.7056554308502593,B,525.9658999998464,Correct
1,301,167,A,56.11972711329341,70.20618715164844,2.80598635566467,1.1027962089608443,A,708.3332000001974,Correct
1,301,168,A,37.067322155977955,54.48237781237752,1.8533661077988979,0.8558071894273438,B,641.2810000001627,Incorrect
1,301,169,A,54.732863825869536,64.21862946964718,2.736643191293477,1.0087438728272429,A,1401.0497999997824,Correct
1,301,170,B,68.9381542720828,52.37995767177995,3.4469077136041397,0.8227824510850411,B,690.1848999996218,Correct
1,301,171,B,64.91909951201589,55.16097964137012,3.2459549756007946,0.8664666420307227,B,566.3235000001805,Correct
1,301,172,A,28.647541040018826,40.94900161152063,1.4323770520009413,0.643225413172949,B,1164.6991000002345,Incorrect
1,301,173,B,78.28951936510158,53.78476467251822,3.914475968255079,0.8448491078511954,B,1034.7698000000491,Correct
1,301,174,B,50.56875676965205,26.18714138112984,2.5284378384826023,0.41134665490737393,B,1937.420199999906,Correct
1,301,175,B,53.204483897039864,29.007388333260693,2.660224194851993,0.45564699043799034,B,491.7041000003337,Correct
1,301,176,B,61.79249743101439,37.56720981886632,3.0896248715507193,0.5901043519140838,B,770.2760000001945,Correct
1,301,177,B,59.98466312035039,32.33460000780794,2.999233156017519,0.5079107092064695,B,689.7433999997702,Correct
1,301,178,B,46.19075106190174,32.78647885299104,2.3095375530950872,0.5150088055081687,B,761.7732999997315,Correct
1,301,179,B,34.74251751336423,15.672994637912105,1.7371258756682113,0.24619082407108445,B,1562.320600000021,Correct
1,301,180,B,74.83353534239691,47.48949132525803,3.7416767671198454,0.7459631853507341,B,866.1130000000412,Correct
1,301,181,A,54.17009006181248,75.39913061140102,2.7085045030906243,1.184366774079174,A,1590.4992000000675,Correct
1,301,182,B,39.41420556678659,29.862960512915798,1.9707102783393295,0.46908628680909176,A,608.1693000000996,Incorrect
1,301,183,B,38.80829763709996,28.398796950078996,1.9404148818549982,0.44608725934578203,A,785.5752000000393,Incorrect
1,301,184,A,52.566173061770066,79.69896759627314,2.6283086530885034,1.2519084554957132,A,642.4286999999822,Correct
1,301,185,B,56.71559692779667,44.87883539677726,2.835779846389834,0.704955097920905,B,758.871900000031,Correct
1,301,186,B,87.660234754931,66.72382054669201,4.38301173774655,1.0480953222446567,B,1044.4058999996741,Correct
1,301,187,A,36.79325583918192,46.0374296505278,1.8396627919590958,0.7231542539012753,B,755.3164000000834,Incorrect
1,301,188,A,38.92837439681439,62.74671369714543,1.9464187198407195,0.9856230739392708,B,817.4051999999392,Incorrect
1,301,189,B,73.31852956490886,43.45060924049808,3.665926478245443,0.6825205739197479,B,635.3432999999313,Correct
1,301,190,A,27.46732197918329,41.156738117805546,1.3733660989591643,0.6464885305830846,A,633.7177999998858,Correct
1,301,191,A,29.74632400369577,38.61936246880701,1.4873162001847886,0.6066315270916274,A,692.4640000002,Correct
1,301,192,B,63.778975295605775,53.878927079751776,3.1889487647802888,0.8463282074852417,B,627.4014999999054,Correct
1,301,193,A,38.728890383727276,54.9933832075861,1.9364445191863637,0.8638340434050039,A,555.1250999997137,Correct
1,301,194,A,54.59439238633598,75.28509309658982,2.729719619316799,1.182575476985351,B,410.33080000033806,Incorrect
1,301,195,A,25.764730615889505,43.22938095740038,1.2882365307944752,0.6790455281750177,A,651.7283999996835,Correct
1,301,196,A,61.28611824500524,73.76735963397188,3.064305912250262,1.1587349755040115,A,565.3892000000269,Correct
1,301,197,B,49.717849891380894,18.89975508721856,2.4858924945690446,0.2968766586832607,B,627.2193999998308,Correct
1,301,198,B,53.74965119165164,28.49480611499486,2.687482559582582,0.4475953677816668,B,640.7365999998547,Correct
1,301,199,A,34.02900469322201,56.85162426468542,1.7014502346611005,0.8930232256729146,A,653.9881000003334,Correct
1,301,200,B,42.22344967197647,28.935133510185235,2.1111724835988235,0.4545120143311889,B,419.5313000000169,Correct
1,301,201,A,28.880536157925967,43.099697836448144,1.4440268078962983,0.6770084704746269,B,776.509900000292,Incorrect
1,301,202,A,46.25074162119379,55.52355702823009,2.3125370810596895,0.8721619943053078,A,977.0739999999023,Correct
1,301,203,B,45.90095136613636,28.094567128502035,2.295047568306818,0.44130842848343643,A,603.5968999999568,Incorrect
1,301,204,B,82.69989065809541,67.39461526570358,4.134994532904771,1.0586321410512245,B,678.9060999999492,Correct
1,301,205,B,64.40506026395097,43.42855606259569,3.220253013197549,0.6821741634113154,B,1125.2731999998105,Correct
1,301,206,A,46.554697994803426,58.79837100793992,2.3277348997401712,0.9236026520079557,A,1031.497599999966,Correct
1,301,207,A,21.28937995154658,52.99622207648502,1.064468997577329,0.8324627097174928,A,581.8560999996407,Correct
1,301,208,B,83.84383856827546,64.17685025076595,4.192191928413774,1.0080876063916928,B,511.8069000000105,Correct
1,301,209,B,31.81127202185203,15.112775442102429,1.5905636010926014,0.23739092152130614,A,512.9507999999987,Incorrect
1,301,210,A,17.91600375945793,41.34520629181658,0.8958001879728965,0.6494489817376273,A,661.3419000000249,Correct
1,301,211,B,46.57009493781646,27.494458042403174,2.328504746890823,0.4318819370022331,B,422.77920000015,Correct
1,301,212,A,40.42335019052728,55.99423626077269,2.021167509526364,0.8795554064010734,B,517.9521999998542,Incorrect
1,301,213,B,73.2503204617992,56.097838635114286,3.6625160230899603,0.8811827886917034,B,1879.888999999821,Correct
1,301,214,B,55.99708294668074,38.468112394161295,2.7998541473340373,0.604255696474818,B,653.4513999999945,Correct
1,301,215,B,54.130552726483046,23.90159280102085,2.7065276363241524,0.375445341763909,B,452.05729999997857,Correct
1,301,216,A,55.654893426431016,77.15550043446915,2.782744671321551,1.211955766744862,A,646.8380999999681,Correct
1,301,217,B,43.6781989209473,31.64891579290531,2.183909946047365,0.49714000674536657,B,465.9068999999363,Correct
1,301,218,B,57.40575408667726,28.785922190712455,2.870287704333863,0.4521682084057483,B,703.4377999998469,Correct
1,301,219,B,49.85663463606127,40.43120996408644,2.4928317318030637,0.6350919609946022,B,580.9785999999804,Correct
1,301,220,A,55.20795383258427,65.51420503378453,2.7603976916292137,1.0290947261995647,B,527.2030999999515,Incorrect
1,301,221,B,69.88484069322216,39.90405211640848,3.4942420346611076,0.6268113848868655,B,1065.4419999996207,Correct
1,301,222,A,55.8569979266776,83.91205749694778,2.7928498963338804,1.3180875169000774,B,542.1301000001222,Incorrect
1,301,223,B,41.87350830113613,21.132237888296892,2.0936754150568064,0.331944416518927,B,669.0491999997903,Correct
1,301,224,A,59.21476055038279,72.70811228937214,2.9607380275191395,1.1420963571233664,A,896.1171999999351,Correct
1,301,225,A,62.231821885327754,74.63178965410587,3.111591094266388,1.1723134105079889,A,654.1696999997839,Correct
1,301,226,B,67.77380443567957,35.3983175505366,3.3886902217839783,0.5560354718310221,B,2088.4138999999777,Correct
1,301,227,A,40.90184699509303,58.23968369051293,2.0450923497546514,0.9148268121475436,A,556.2943999998424,Correct
1,301,228,A,33.47814572296495,49.41960097919522,1.6739072861482476,0.7762812768978934,B,1310.5027000001428,Incorrect
1,301,229,B,83.16305360409582,57.87945191672789,4.158152680204791,0.9091683046769801,B,2368.7261000000035,Correct
1,301,230,A,20.31704023815369,51.09062331995114,1.0158520119076846,0.8025296344464093,A,859.8261000001912,Correct
1,301,231,B,81.98047035356183,63.912167418592446,4.099023517678091,1.0039299781862547,B,5465.350700000272,Correct
1,301,232,B,46.8442089087477,36.40125107633245,2.3422104454373853,0.5717895148144179,B,3405.2386999996997,Correct
1,301,233,B,54.78798924767012,39.1585133334699,2.7393994623835063,0.6151004890696351,B,554.2380000001685,Correct
1,301,234,B,87.44592059056441,62.55331761599176,4.37229602952822,0.9825852154003434,B,961.4212999999836,Correct
1,301,235,A,28.53518975925811,54.753758749405854,1.4267594879629055,0.8600700312178065,A,668.206100000134,Correct
1,301,236,A,26.45284004234309,45.07096299901194,1.3226420021171545,0.7079730312395665,A,644.5004000001973,Correct
1,301,237,A,29.84214952515455,53.54603747535273,1.4921074762577273,0.8410991898070594,B,515.6729000000269,Incorrect
1,301,238,B,72.91376431695397,62.91310323055933,3.6456882158476986,0.9882367146183074,B,879.5735999997305,Correct
1,301,239,A,27.48929979679903,46.48083460656174,1.3744649898399515,0.7301192426634829,A,1024.1445999999996,Correct
1,301,240,B,67.90498690910638,36.760819256798406,3.3952493454553188,0.5774375985855004,B,539.9993000000904,Correct
1,301,241,A,52.92835866869355,63.579242204367105,2.646417933434677,0.998700401150229,B,527.900199999749,Incorrect
1,301,242,A,47.08789816919673,66.54110369093566,2.3543949084598363,1.0452252125860007,A,805.733500000315,Correct
1,301,243,A,53.704005335015545,80.95629309230748,2.685200266750777,1.2716584782032765,A,459.53899999994974,Correct
1,301,244,A,41.252406239452014,55.033871877862374,2.0626203119726005,0.8644700379504717,B,550.2774000001409,Incorrect
1,301,245,A,20.680364442959718,47.7065363663835,1.0340182221479859,0.7493725208842236,A,1606.0445999996773,Correct
1,301,246,B,61.30211795348599,50.53569170001447,3.0651058976742998,0.7938127889442208,B,1128.563799999938,Correct
1,301,247,A,37.494480888880354,46.50339931919271,1.8747240444440179,0.730473688340642,B,2148.7100999997892,Incorrect
1,301,248,A,57.41513728596415,77.04654116295305,2.8707568642982073,1.2102442385101844,A,2040.5911999996533,Correct
1,301,249,B,43.297271155322186,27.709797009298196,2.1648635577661093,0.43526447358437814,B,691.659399999935,Correct
1,301,250,A,61.20920453525041,80.72724447755084,3.0604602267625207,1.2680605909761047,A,874.8507999998765,Correct
1,301,251,A,18.626562618954924,45.64192996444042,0.9313281309477461,0.7169417593597294,A,565.3537999996843,Correct
1,301,252,A,55.52397278019615,74.68350991938682,2.7761986390098072,1.1731258305352306,B,1962.8841000003376,Incorrect
1,301,253,B,40.61919089720191,29.518162963433188,2.0309595448600954,0.4636702195669401,A,981.132400000206,Incorrect
1,301,254,B,73.63252514720365,51.57031548546057,3.6816262573601826,0.8100646213621543,B,2657.818600000155,Correct
1,301,255,A,18.91372288079567,35.677898305357616,0.9456861440397836,0.5604271160581761,A,496.1883000000853,Correct
1,301,256,B,63.50594055881675,31.508198243605825,3.1752970279408372,0.49492962064981444,B,457.8340000002754,Correct
1,301,257,A,20.721391733629826,35.426737301280866,1.0360695866814913,0.5564818882317973,A,736.232100000052,Correct
1,301,258,B,48.38354836943538,41.29255871432346,2.419177418471769,0.6486219955242188,B,841.859999999997,Correct
1,301,259,A,40.849740245220076,70.06275087871869,2.0424870122610037,1.1005431172543723,A,771.2928999999349,Correct
1,301,260,B,46.73232434026542,33.865758189082754,2.336616217013271,0.5319620856753537,B,522.4833000002036,Correct
1,301,261,A,26.85509766771493,46.09927380376024,1.3427548833857463,0.7241256995885879,A,528.0379999999241,Correct
1,301,262,A,52.4262765792739,64.44957012394723,2.6213138289636952,1.012371480142064,B,607.4710000002597,Incorrect
1,301,263,B,84.14776638915015,60.25001720582627,4.2073883194575075,0.9464050571624122,B,590.6869999998889,Correct
1,301,264,A,44.453116675352206,66.05664526898683,2.22265583376761,1.03761535748918,A,764.4739000002119,Correct
1,301,265,A,19.793841534698824,49.81113566087507,0.9896920767349413,0.7824314892958485,B,202.0158000000265,Incorrect
1,301,266,A,27.5827623873471,53.622331828987285,1.379138119367355,0.8422976187115029,A,699.1371999997682,Correct
1,301,267,A,31.84263126305561,61.8780421813575,1.5921315631527804,0.9719780136773605,A,928.1065000000126,Correct
1,301,268,B,44.85608077553151,20.571118330189883,2.2428040387765753,0.3231303711112543,B,664.9501000001692,Correct
1,301,269,A,54.70245981833597,70.2813545803831,2.7351229909167984,1.1039769361703544,A,589.0902000001006,Correct
1,301,270,A,44.64207985910676,74.24235312458072,2.232103992955338,1.16619615580701,A,816.4239000002453,Correct
1,301,271,B,81.81075302148864,63.23054274160013,4.090537651074431,0.9932230427975319,B,1304.1920000000573,Correct
1,301,272,B,60.694445971028635,32.83865398892884,3.0347222985514315,0.51582837062698,B,636.3529000000199,Correct
1,301,273,A,43.23062399139278,53.824707372273366,2.161531199569639,0.845476526311772,A,1116.3544000000911,Correct
1,301,274,A,16.502392537875966,34.29470472019052,0.8251196268937983,0.5386999620299088,A,649.0740999997797,Correct
1,301,275,A,51.466087598965544,73.15549976142424,2.573304379948277,1.1491239031009013,A,881.6208999996888,Correct
1,301,276,B,69.33935926495431,52.46861552441786,3.4669679632477153,0.8241750853776926,B,733.2069000003685,Correct
1,301,277,A,58.69900553285771,83.69155183302847,2.9349502766428857,1.314623822030858,A,634.765299999799,Correct
1,301,278,A,55.62927528141064,69.30503774199879,2.7814637640705318,1.0886409871351337,A,536.5780999995877,Correct
1,301,279,B,41.511318887415015,28.92574928453587,2.075565944370751,0.45436460725939043,B,553.7072999995871,Correct
1,301,280,A,41.64377154391971,59.716054561288395,2.0821885771959856,0.9380175915555543,A,647.7916000003461,Correct
1,301,281,A,40.350869527913,67.27069708639985,2.01754347639565,1.0566856388424906,B,1161.741599999914,Incorrect
1,301,282,A,59.65436321091456,85.04644497749564,2.982718160545728,1.3359064337761444,B,992.3789999998007,Incorrect
1,301,283,B,79.57404220444491,54.564422739618756,3.9787021102222457,0.8570959481307707,B,583.5701999999401,Correct
1,301,284,A,41.383799135305324,63.9537238917669,2.069189956765266,1.0045827457404246,A,515.4510000002119,Correct
1,301,285,B,63.26805456879217,50.62756420490018,3.1634027284396087,0.7952559188763001,B,680.6899000002886,Correct
1,301,286,B,71.24527814424826,57.94449267608026,3.562263907212413,0.9101899625358064,A,1944.4585000001098,Incorrect
1,301,287,A,40.865848007735735,64.18637685754827,2.043292400386787,1.0082372499810976,A,660.3414000001067,Correct
1,301,288,A,21.44593621842118,34.960739277394055,1.072296810921059,0.5491620083896465,B,636.9039999999586,Incorrect
1,301,289,A,32.11550657933744,64.32194972487348,1.6057753289668721,1.0103668236011725,B,1012.3681000000033,Incorrect
1,301,290,B,68.87582926605549,44.86110084065001,3.4437914633027744,0.704676524164685,B,645.7688999998936,Correct
1,301,291,A,45.06996899201141,59.30355547938293,2.2534984496005706,0.9315380711289205,B,1605.793900000208,Incorrect
1,301,292,A,43.06853567689372,64.24499658106303,2.1534267838446857,1.009158046444845,A,1237.2383000001719,Correct
1,301,293,A,61.687082075060566,77.57131290600105,3.084354103753028,1.2184873337740403,A,676.1854000001222,Correct
1,301,294,B,37.223914141800016,27.22388402884158,1.8611957070900007,0.427631770335946,B,563.0965000000288,Correct
1,301,295,A,63.18708907106878,74.21667731726235,3.1593544535534392,1.1657928411687781,A,519.4968000000699,Correct
1,301,296,B,33.61144891390806,12.71009697531925,1.6805724456954032,0.19964973642038406,B,557.5987000001987,Correct
1,301,297,B,55.52429468034697,38.497481178327156,2.7762147340173486,0.6047170202577198,B,1323.4330999998747,Correct
1,301,298,B,60.31149022021495,40.26075113927995,3.015574511010748,0.6324144000358439,B,1224.159299999883,Correct
1,301,299,B,82.25779464236294,53.33061506250411,4.112889732118147,0.8377153424589404,A,778.3610999999837,Incorrect
1,301,300,B,72.63198986897203,57.85479535174112,3.6315994934486016,0.908781000259854,B,629.6688000002177,Correct
1,301,301,B,47.78204131500575,29.358652678720812,2.3891020657502877,0.46116463787381806,B,535.9131000000161,Correct
1,301,302,B,37.161037432954465,16.379367389871696,1.8580518716477232,0.2572865013123457,B,450.1279000000977,Correct
1,301,303,B,42.058521829620474,14.809013098990153,2.1029260914810237,0.2326194337935124,B,523.2323999998698,Correct
1,301,304,A,40.295857090743574,60.6614265653286,2.0147928545371787,0.9528674602695651,A,2014.8699999999735,Correct
1,301,305,B,62.452245312249545,39.3527818651937,3.122612265612477,0.6181520520300708,A,537.6059999998688,Incorrect
1,301,306,A,53.2152050844241,78.51693374624473,2.6607602542212048,1.2333411111979948,A,502.32729999970616,Correct
1,301,307,B,65.84420456391553,57.18623969554443,3.2922102281957764,0.898279352569737,B,1090.2062999998634,Correct
1,301,308,B,88.42276333911119,66.73459201096918,4.421138166955559,1.0482645200098644,B,544.884799999636,Correct
1,301,309,B,39.9972223548658,15.598492030745078,1.9998611177432901,0.24502053985433833,B,1501.8257999995512,Correct
1,301,310,A,43.0161414272805,67.8720973590716,2.1508070713640253,1.0661324122349527,A,1626.555599999847,Correct
1,301,311,B,51.080268625544974,42.87706423001772,2.554013431277249,0.673511349962607,B,1352.3710999998002,Correct
1,301,312,A,49.98562851856676,75.59803507977499,2.4992814259283382,1.1874911581622227,A,704.9228999999286,Correct
1,301,313,A,44.030747970962835,51.72508393051978,2.2015373985481417,0.812495718412182,B,899.7272000001431,Incorrect
1,301,314,B,51.60101224369021,39.469403994804594,2.58005061218451,0.6199839481582287,A,3182.186500000171,Incorrect
1,301,315,A,46.22298303934286,72.15857685890711,2.3111491519671428,1.1334642747671853,B,950.2146999998331,Incorrect
1,301,316,A,33.59812925707008,47.52070232356343,1.6799064628535039,0.7464534465656714,B,4212.340399999903,Incorrect
1,301,317,B,53.313576433852845,32.80603506299769,2.6656788216926426,0.5153159937366134,B,571.2499999999636,Correct
1,301,318,B,53.895220195430625,36.41529150746423,2.6947610097715313,0.572010061390902,B,605.2205999999387,Correct
1,301,319,B,83.2549126525283,59.69644531628528,4.162745632626415,0.9377095702553332,B,855.1571999996668,Correct
1,301,320,A,64.12229823253226,87.56367996750897,3.206114911626613,1.3754470685360696,A,2371.5816000003542,Correct
1,301,321,A,64.36451263890338,83.27534957642129,3.2182256319451685,1.308086132272035,A,606.0834999998406,Correct
1,301,322,A,43.63902396389373,73.62427728100249,2.181951198194686,1.1564874431592764,B,663.5010999998485,Incorrect
1,301,323,A,52.94647435218498,65.53986583543237,2.6473237176092486,1.029497805129275,B,2226.2580000001435,Incorrect
1,301,324,B,36.946544916044644,14.59669906654904,1.8473272458022323,0.22928441277065723,B,501.326600000084,Correct
1,301,325,A,51.40508811867064,80.63775592680695,2.570254405933532,1.2666549081081175,A,733.9050000000498,Correct
1,301,326,A,20.04311108282512,49.729920928178544,1.0021555541412561,0.7811557712578351,B,627.1632000002683,Incorrect
1,301,327,A,35.62806370859506,67.92446097215543,1.7814031854297527,1.0669549379458505,A,641.583200000241,Correct
1,301,328,B,41.873817898261265,21.26961639623597,2.0936908949130633,0.3341023530754397,B,618.0927000000338,Correct
1,301,329,B,38.323389622631105,24.33343043464439,1.9161694811315553,0.38222863145058555,B,897.8232000004027,Correct
1,301,330,B,72.31917056507697,59.427418005659334,3.615958528253849,0.9334836991419458,B,666.9517999998789,Correct
1,301,331,B,62.308983083785606,33.0132742070757,3.1154491541892804,0.5185712985994722,B,579.7999999999774,Correct
1,301,332,B,49.57528287870467,19.765444214209303,2.4787641439352335,0.3104748716914941,B,577.3494999998547,Correct
1,301,333,B,52.52800765425191,43.340952872508566,2.6264003827125952,0.6807980957192717,B,1014.0306000002965,Correct
1,301,334,A,24.209998341066456,43.50324223633274,1.2104999170533228,0.6833473310850007,A,732.669900000019,Correct
1,301,335,B,55.51887279662746,27.744135081795758,2.7759436398313735,0.435803854765862,B,460.7012000001305,Correct
1,301,336,B,67.07855341516132,48.37263082179489,3.353927670758066,0.7598355081228102,B,641.9491000001472,Correct
1,301,337,A,63.807225309127446,78.16408760581939,3.190361265456372,1.227798616984956,B,726.6530000001694,Incorrect
1,301,338,A,17.662413437616397,31.85837834692781,0.8831206718808198,0.5004302368499628,B,747.9040000002897,Incorrect
1,301,339,B,68.63748474237437,49.11012531987235,3.431874237118718,0.7714200446089252,B,371.1017000000538,Correct
1,301,340,B,57.417238437515294,26.91675412051657,2.8708619218757643,0.4228073850174882,B,425.2321999997548,Correct
1,301,341,A,22.150000677130404,52.09082895755687,1.1075000338565202,0.8182408278623157,A,617.2059999998964,Correct
1,301,342,A,21.14318785494615,40.22800562930613,1.0571593927473075,0.631900034767985,B,911.5719000001263,Incorrect
1,301,343,B,77.49421578684908,65.84012560513781,3.874710789342454,1.034214274562651,B,964.0211000000818,Correct
1,301,344,B,37.56710512632705,26.050467232025618,1.8783552563163526,0.4091997823935665,B,557.4157000000923,Correct
1,301,345,A,27.117772428438332,37.38688072700563,1.3558886214219166,0.5872717491629935,B,908.5993999997299,Incorrect
1,301,346,B,66.15228118019802,55.412717929086426,3.307614059009901,0.8704209378073066,B,1166.537000000062,Correct
1,301,347,B,34.80539327774352,15.988368580469782,1.740269663887176,0.25114470637644865,B,581.7391000000498,Correct
1,301,348,B,46.982356658057796,30.28906954871121,2.34911783290289,0.4757795918915073,B,455.94630000005054,Correct
1,301,349,A,27.903257452234143,53.203130833130174,1.3951628726117071,0.8357128248666919,B,1086.31510000032,Incorrect
1,301,350,B,62.34643781367003,33.30232387925464,3.117321890683501,0.5231116802326715,B,624.8211000001902,Correct
1,301,351,A,41.505093303110655,71.07704900587468,2.0752546651555326,1.1164756749784883,B,432.5354000002335,Incorrect
1,301,352,B,36.480968836882596,14.47908904577918,1.8240484418441298,0.2274369988844616,B,550.0892000000022,Correct
1,301,353,B,46.54686188442538,21.449829253507907,2.327343094221269,0.33693313001787933,B,434.24430000004577,Correct
1,301,354,B,51.85659046237522,32.820900796200945,2.592829523118761,0.5155495041277215,B,579.3743999997787,Correct
1,301,355,A,64.02738825459701,89.0334895408682,3.2013694127298504,1.3985347833252761,A,510.7068999996045,Correct
1,301,356,B,31.202191551091556,17.293311555761253,1.560109577554578,0.27164270269909513,B,571.9567999999526,Correct
1,301,357,A,15.46078495482617,34.9317938238283,0.7730392477413085,0.5487073342682615,A,1061.6219999997156,Correct
1,301,358,B,73.63611532401478,44.96696884177212,3.681805766200739,0.7063394948375622,B,1863.3127000002787,Correct
1,301,359,B,66.30830621633743,54.86275529032966,3.3154153108168716,0.8617821448789711,A,639.3145000001823,Incorrect
1,301,360,B,47.093094043163624,17.37485620187978,2.3546547021581814,0.2729236030050229,B,984.1693999997005,Correct
1,301,361,B,43.80321415076161,21.22497319454294,2.1901607075380807,0.3334010993030819,B,2308.8700999996945,Correct
1,301,362,A,46.19380793203548,65.08590199585996,2.3096903966017743,1.0223669578122945,A,1058.6873999995987,Correct
1,301,363,B,48.446688849449735,21.280264644994887,2.422334442472487,0.33426961537581273,B,685.7362999999168,Correct
1,301,364,A,66.53455387579771,83.13843598304655,3.3267276937898855,1.3059354985764218,A,865.0907000001098,Correct
1,301,365,B,65.09021367655097,56.29479113242465,3.254510683827549,0.8842765112849855,B,573.2358999998723,Correct
1,301,366,A,59.904151015261306,84.41824424071149,2.995207550763065,1.3260386796778403,A,826.510800000051,Correct
1,301,367,A,51.725344371843775,59.46160042714,2.586267218592189,0.9340206353629736,B,893.8233999997465,Incorrect
1,301,368,B,76.0380263008278,55.03776386983279,3.80190131504139,0.864531173217382,B,555.0733999998556,Correct
1,301,369,B,63.392275078324595,49.78295730001894,3.16961375391623,0.7819888646385694,A,743.5063999996601,Incorrect
1,301,370,A,39.2847353693182,50.74615423965038,1.9642367684659099,0.7971187267861009,B,2610.2764000002026,Incorrect
1,301,371,A,12.24308875650598,33.91832981867344,0.612154437825299,0.5327878789019006,A,648.6307000000124,Correct
1,301,372,A,59.84383429798295,74.53194212644064,2.9921917148991475,1.1707450092110276,A,709.3629000000874,Correct
1,301,373,A,42.53240491029122,64.01077382028551,2.126620245514561,1.005478883922034,B,641.2476999998944,Incorrect
1,301,374,B,87.08695475743968,61.83787154068203,4.354347737871985,0.9713470147291801,B,1954.380399999991,Correct
1,301,375,B,53.47850067027173,34.33716992279018,2.6739250335135862,0.5393670038725101,B,3396.2956999998823,Correct
1,301,376,B,54.436685480178156,40.730179451862874,2.7218342740089074,0.6397881627268317,B,1474.9775000000227,Correct
1,301,377,B,66.98660795325416,35.27266783195012,3.3493303976627082,0.5540617706668377,B,592.7880999997797,Correct
1,301,378,A,63.07524678449098,83.71685191844432,3.153762339224549,1.3150212348432464,A,710.3421000001617,Correct
1,301,379,A,63.86688155760886,76.21900042589455,3.193344077880443,1.197245259009738,A,919.1808999999012,Correct
1,301,380,A,31.16460063870237,46.6023051294082,1.5582300319351186,0.7320272971744937,A,1171.8570000002728,Correct
1,301,381,B,42.017710512278306,29.49979394025401,2.1008855256139154,0.4633816796255734,B,1488.290099999631,Correct
1,301,382,B,49.890443398303624,20.589608657731905,2.4945221699151814,0.32342081649709675,B,693.8343000001623,Correct
1,301,383,A,38.186267503541494,55.70728813030477,1.9093133751770748,0.8750480357078768,A,3909.576300000026,Correct
1,301,384,B,65.42232318810099,36.88724657708528,3.2711161594050497,0.5794235142886318,B,671.2603000000854,Correct
1,301,385,B,60.76119727075182,48.314988370075376,3.0380598635375913,0.7589300626085256,B,512.1247000001858,Correct
1,301,386,A,42.889660067053626,63.02318436311524,2.1444830033526814,0.98996586500499,B,389.1049000003477,Incorrect
1,301,387,A,36.54153955704529,52.857745278063355,1.8270769778522646,0.8302875212544221,A,383.0702999998721,Correct
1,301,388,B,53.29429406192706,33.64987184190093,2.664714703096353,0.52857095086377,B,688.1650000000263,Correct
1,301,389,B,86.94045971005033,69.94092224690436,4.347022985502517,1.0986294375808483,B,1278.5383000000365,Correct
1,301,390,B,87.4081238358976,60.6994462622049,4.3704061917948795,0.9534646722715568,B,452.90090000025884,Correct
1,301,391,B,72.87059751299086,52.70017757832393,3.6435298756495427,0.8278124536146999,B,818.434900000284,Correct
1,301,392,B,82.8347499771995,64.26444817686014,4.141737498859975,1.009463591397129,B,406.8677000000207,Correct
1,301,393,A,66.7141045337532,84.66620858056336,3.3357052266876597,1.3299336944199949,A,1352.5190999998813,Correct
1,301,394,B,41.713743661122464,30.475064500915586,2.085687183056123,0.4787011937687575,B,671.9995999997082,Correct
1,301,395,B,40.83951029562639,22.368558568767988,2.0419755147813192,0.35136449635517264,A,766.6516000003867,Incorrect
1,301,396,A,59.56508888399451,83.49673398349756,2.9782544441997256,1.311563630406486,A,629.2748000000756,Correct
1,301,397,A,60.79035828196554,84.18581744291198,3.039517914098277,1.322387728075519,A,676.7377999999553,Correct
1,301,398,A,17.362894307146107,41.115138458858446,0.8681447153573053,0.6458350846683844,B,529.9948000001677,Incorrect
1,301,399,B,62.66437327322408,54.88573202600166,3.133218663661204,0.8621430625989244,B,387.3966000001019,Correct
1,301,400,A,23.533681299189453,35.18060173859733,1.1766840649594728,0.5526155998542284,B,927.0063999997546,Incorrect
1,301,401,B,79.153862127764,61.66682938364023,3.9576931063882,0.9686602908090968,B,478.4457000000657,Correct
1,301,402,B,61.294197947922854,49.482884206850464,3.0647098973961424,0.7772753275133791,B,568.149700000049,Correct
1,301,403,B,46.1608628604679,20.47352104981096,2.308043143023395,0.3215973166160105,B,652.0158000002994,Correct
1,301,404,B,77.52367879528623,53.282480241545734,3.8761839397643114,0.8369592424594171,B,764.2807000001994,Correct
1,301,405,A,41.79989366010694,50.0329932785626,2.089994683005347,0.7859164206051987,B,774.832300000071,Incorrect
1,301,406,A,29.30618116858164,39.089695395178964,1.465309058429082,0.6140194994227849,A,677.7369999999792,Correct
1,301,407,B,81.49701665056442,65.79723423226469,4.074850832528221,1.0335405384530478,B,747.2487000000001,Correct
1,301,408,A,51.80866593806718,69.90046541364427,2.5904332969033588,1.0979939431300612,B,606.5938000001552,Incorrect
1,301,409,A,63.18646184034775,72.73101671335637,3.1593230920173876,1.142456138973984,A,612.4019999997472,Correct
1,301,410,A,50.50860955840936,60.624603312008766,2.525430477920468,0.9522890419590109,A,461.50660000012067,Correct
1,301,411,B,39.67240138226093,31.182061834165445,1.9836200691130466,0.48980668190998417,B,778.2468000000335,Correct
1,301,412,B,33.43140669890543,19.238371967799218,1.6715703349452713,0.3021956402053292,B,1286.0959999998158,Correct
1,301,413,B,47.06440349643177,35.54284043352041,2.3532201748215886,0.55830563196831,B,848.8634000000275,Correct
1,301,414,B,53.69231038073477,26.654762774993728,2.684615519036738,0.4186920345854949,B,641.1739000000125,Correct
1,301,415,A,25.764887811005583,51.62274567862033,1.2882443905502792,0.8108881929104395,B,1541.5931000002274,Incorrect
1,301,416,A,20.629407625724053,33.75931240093013,1.0314703812862027,0.5302900391450245,B,1311.5948999998182,Incorrect
1,301,417,A,26.92411409987485,36.683764048936794,1.3462057049937426,0.576227218210806,B,660.5035000002317,Incorrect
1,301,418,A,50.16492357296355,67.9547091616476,2.5082461786481773,1.0674300753953156,A,1019.2041000000245,Correct
1,301,419,A,34.20708920022142,59.97524089390828,1.710354460011071,0.9420888809479019,A,446.51870000006966,Correct
1,301,420,B,71.66624555813705,43.25896582206033,3.5833122779068525,0.6795102461423834,B,544.1829000001235,Correct
1,301,421,A,58.817631491143246,85.04189945545457,2.940881574557162,1.3358350328828894,A,553.0597000001762,Correct
1,301,422,A,48.65660435994132,76.74007384910868,2.4328302179970662,1.2054302612014902,A,1390.2963999998974,Correct
1,301,423,A,27.045480309740178,38.98734445466498,1.352274015487009,0.6124117746087512,B,767.9714000000786,Incorrect
1,301,424,B,36.914118558440386,20.94091701447936,1.8457059279220192,0.3289391552606093,B,2198.61149999997,Correct
1,301,425,B,87.31057584257584,59.35238571885621,4.365528792128792,0.9323050947369321,B,774.3675000001531,Correct
1,301,426,A,60.63769609364107,85.47827377761571,3.0318848046820532,1.342689584706473,A,728.3040000002075,Correct
1,301,427,A,51.76771900095525,66.28851143295734,2.588385950047763,1.041257502675909,A,1866.2522999998146,Correct
1,301,428,B,55.64865515206016,35.893269014158605,2.782432757603008,0.5638101512410142,B,1127.7906000000257,Correct
1,301,429,B,34.710625834722485,14.539436263653307,1.7355312917361243,0.2283849307661513,A,484.24199999999473,Incorrect
1,301,430,A,26.42010006802243,44.486131554059874,1.3210050034011216,0.698786520384318,B,999.572100000023,Incorrect
1,301,431,B,57.22179762147749,43.48415340280062,2.8610898810738745,0.6830474843890502,B,2782.7268999999433,Correct
1,301,432,A,40.88550729272314,49.056393636176416,2.044275364636157,0.7705760292951046,B,869.1183999999339,Incorrect
1,301,433,B,36.71502770553364,22.43107584323126,1.8357513852766822,0.35234651540605394,A,704.4556000000739,Incorrect
1,301,434,B,61.56771684070728,49.19555308937651,3.0783858420353636,0.7727619408743595,B,1240.4445000001942,Correct
1,301,435,B,41.67865624629152,18.336055379101396,2.083932812314576,0.28802208437400273,B,607.3686999998245,Correct
1,301,436,A,42.334153380440185,75.05547910994706,2.1167076690220092,1.1789687089173593,B,837.452900000244,Incorrect
1,301,437,A,52.2317156786746,65.91319019645208,2.6115857839337298,1.0353619704792032,A,2027.0102999998016,Correct
1,301,438,B,49.48034517360273,20.422999474592523,2.4740172586801363,0.3208037255682404,B,1989.4884000000275,Correct
1,301,439,A,41.0298036463622,56.215285749004494,2.05149018231811,0.8830276436426177,B,812.6695999999356,Incorrect
1,301,440,B,81.68278497726921,59.37768120257978,4.08413924886346,0.932702435266107,B,955.3607000002557,Correct
1,301,441,B,49.26296818882435,24.219387460635744,2.4631484094412177,0.38043724860389005,B,803.3725000000231,Correct
1,301,442,A,52.8776642880281,71.98936310942005,2.643883214401405,1.1308062714058105,B,891.9344999999339,Incorrect
1,301,443,A,22.09537041027033,39.74811924883457,1.1047685205135165,0.6243619971307487,B,1413.3394999998927,Incorrect
1,301,444,B,56.28907120371744,37.23274564711065,2.814453560185872,0.5848506009897008,B,1578.895999999986,Correct
1,301,445,B,80.31666696202238,51.74501644851313,4.015833348101119,0.8128088176726592,B,613.1162000001495,Correct
1,301,446,A,39.890603734344765,62.88987560656588,1.9945301867172385,0.9878718559538165,A,1483.1826999998157,Correct
1,301,447,B,79.62960820188042,52.55312264985139,3.9814804100940204,0.8255025201998824,B,544.9813000000177,Correct
1,301,448,B,50.34715861894847,34.60159624292277,2.5173579309474237,0.5435206027962318,B,898.9337999996678,Correct
1,301,449,B,58.09216035304643,41.75677823090209,2.9046080176523215,0.655913938638901,B,569.8637999998937,Correct
1,301,450,B,49.592335889044094,41.83833500499388,2.4796167944522045,0.6571950294505873,B,494.8308000002726,Correct
1,301,451,A,27.49077507268623,52.97966264671192,1.3745387536343114,0.8322025948028787,B,2160.512099999778,Incorrect
1,301,452,B,66.23262819192605,48.045802391651094,3.3116314095963024,0.75470169914719,B,1779.5714999997472,Correct
1,301,453,A,34.01884958313275,42.44897950168648,1.7009424791566374,0.6667870107744098,B,594.7830999998587,Incorrect
1,301,454,B,43.56518989379079,23.289441002083894,2.1782594946895393,0.36582968379179837,B,1313.1235000000743,Correct
1,301,455,A,66.51468700446506,78.96289488243211,3.325734350223253,1.240346252344159,A,663.231700000324,Correct
1,301,456,A,28.786116046169717,42.54736843952824,1.439305802308486,0.6683325005960007,B,470.39500000028056,Incorrect
1,301,457,A,69.30826206351176,88.41377644137856,3.465413103175588,1.3888003527218262,A,612.1988999998393,Correct
1,301,458,A,66.0716711196551,86.62206415950949,3.3035835559827547,1.3606562020114938,A,563.9522999999826,Correct
1,301,459,B,32.59464379116926,11.402403756803768,1.629732189558463,0.17910853937819687,B,552.4030000001403,Correct
1,301,460,B,35.73295879356595,22.616831655228587,1.7866479396782975,0.355264360877716,B,637.1070000000145,Correct
1,301,461,B,67.07958998760466,49.274794825382386,3.353979499380233,0.7740066671528283,B,718.4904000000643,Correct
1,301,462,A,26.868278996346337,40.689788227599394,1.343413949817317,0.6391536988597536,A,650.9227999999894,Correct
1,301,463,A,25.642047063335255,39.32153061461043,1.2821023531667628,0.6176611585338313,A,487.9227000001265,Correct
1,301,464,A,43.79281200819123,61.057227313682084,2.1896406004095614,0.9590846838861284,B,1185.5930000001536,Incorrect
1,301,465,B,44.41389674969174,30.957469740094837,2.220694837484587,0.4862787975460513,B,2098.978299999999,Correct
1,301,466,B,84.38292952386425,64.84128742767176,4.219146476193213,1.018524561160389,A,576.2520999996923,Incorrect
1,301,467,A,33.4406938361126,49.54713603264887,1.67203469180563,0.7782845928329192,A,474.69679999994696,Correct
1,301,468,B,57.61323520106838,40.66782569848132,2.8806617600534192,0.6388087122590957,A,1071.1782999997013,Incorrect
1,301,469,B,43.076405664168405,19.697144133245505,2.1538202832084203,0.30940201652851684,B,651.8969999997353,Correct
1,301,470,B,65.33853905775219,35.21178407124523,3.2669269528876095,0.5531054107900707,B,596.4598000000478,Correct
1,301,471,A,33.73231845747728,60.528398003976505,1.6866159228738637,0.9507778525142585,A,651.6464999999698,Correct
1,301,472,B,85.405141585136,68.7517501251465,4.270257079256799,1.0799499655730072,B,749.8728999999003,Correct
1,301,473,A,34.51388170162574,65.18866384483313,1.725694085081287,1.0239811371613117,A,1538.843799999995,Correct
1,301,474,A,65.78884696302038,77.66638067953822,3.289442348151019,1.2199806548687275,B,822.7367999998023,Incorrect
1,301,475,A,44.80104554644048,73.44848712777745,2.240052277322024,1.1537261378895507,A,1973.3790000000226,Correct
1,301,476,A,39.951173424251415,49.62024432535543,1.9975586712125706,0.7794329752093361,B,735.3320000001986,Incorrect
1,301,477,B,33.65780295494237,17.28733144994653,1.6828901477471185,0.27154876741661904,B,1381.6902999997183,Correct
1,301,478,B,61.85802036956868,36.443571307046184,3.0929010184784342,0.5724542794439603,A,1332.0481999999174,Incorrect
1,301,479,A,15.953247880532224,38.959276886528166,0.7976623940266111,0.6119708902794375,A,646.8285000000833,Correct
1,301,480,A,17.8206649679875,33.339441934709996,0.891033248399375,0.523694729284342,A,581.1993999996048,Correct
1,301,481,B,67.6253210131092,34.95479330039918,3.3812660506554604,0.5490686092014189,A,793.3510999996543,Incorrect
1,301,482,A,19.65882001756932,51.202745905153826,0.982941000878466,0.8042908518962806,A,469.240500000069,Correct
1,301,483,B,48.405147696151886,19.432277482546812,2.420257384807594,0.3052415009084371,B,649.6235999998135,Correct
1,301,484,B,44.513977213321496,27.542245096296266,2.225698860666075,0.4326325742894693,B,518.0849999997008,Correct
1,301,485,A,11.389073818768988,33.972765222373354,0.5694536909384494,0.5336429482236947,A,646.0993999999118,Correct
1,301,486,A,52.847950640300255,67.9292872833279,2.642397532015013,1.0670307494644673,B,578.8083000002189,Incorrect
1,301,487,B,72.25106665134018,49.22027761425288,3.612553332567009,0.773150312802935,B,726.376000000073,Correct
1,301,488,B,70.79337853335224,43.66674262548322,3.539668926667612,0.6859155891920717,B,454.1386999999304,Correct
1,301,489,A,56.12967642546573,70.56784478367774,2.8064838212732868,1.108477113760334,A,683.4128000000419,Correct
1,301,490,B,81.16562417329853,53.771119087322944,4.058281208664926,0.8446347635001783,B,718.7486999996509,Correct
1,301,491,A,20.212073324906477,49.186857482170026,1.0106036662453237,0.7726253505957675,A,568.1285000000571,Correct
1,301,492,B,53.85395812883079,29.986228625054736,2.6926979064415395,0.4710225777866796,B,498.91539999998713,Correct
1,301,493,A,61.17639941564036,85.873476140156,3.0588199707820185,1.3488974089006625,A,484.303600000203,Correct
1,301,494,A,24.760224591335422,48.119669048208294,1.2380112295667711,0.7558619938751168,B,1076.0786999999254,Incorrect
1,301,495,A,45.23655842184727,75.66596580228097,2.2618279210923635,1.188558211456112,A,882.9722000000402,Correct
1,301,496,A,50.76448407081097,73.98617345874779,2.5382242035405485,1.162172095026111,A,520.1969999998255,Correct
1,301,497,B,65.8039469508243,39.46122373534784,3.290197347541215,0.6198554529431598,B,683.5350000001199,Correct
1,301,498,A,40.876323091206615,67.89074988404568,2.043816154560331,1.0664254054121,A,566.8872999999621,Correct
1,301,499,A,47.83658284543135,63.39337599219233,2.3918291422715674,0.9957808215166349,A,744.292200000018,Correct
1,301,500,B,84.5661286074239,59.47027283295013,4.2283064303711955,0.934156861194884,B,639.7718000002897,Correct
1,301,501,A,15.501525486671074,41.64889858854595,0.7750762743335536,0.6542193691794113,A,728.6085000000639,Correct
1,301,502,B,36.23092098460353,19.45892802991915,1.8115460492301765,0.30566012672763254,A,862.679400000161,Incorrect
1,301,503,A,28.681151691016836,41.581494367181634,1.4340575845508419,0.6531605861461159,A,1574.4140000001607,Correct
1,301,504,A,39.375486696774594,54.26972099808447,1.9687743348387299,0.8524667839997494,A,676.7657000000327,Correct
1,301,505,A,62.52698818035472,71.98494482382708,3.126349409017736,1.1307368691380086,A,646.1800000001858,Correct
1,301,506,B,52.12715191239444,23.894470113887248,2.6063575956197216,0.3753334588560452,A,521.212700000433,Incorrect
1,301,507,A,24.348578949026482,47.433664997766265,1.2174289474513242,0.745086267449109,A,1187.786199999664,Correct
1,301,508,A,26.54303343411314,56.58480958218681,1.327151671705657,0.8888321104408772,A,504.9908000000869,Correct
1,301,509,A,47.70520543463345,65.90421053459147,2.3852602717316724,1.035220918280538,A,496.14640000027066,Correct
1,301,510,A,39.76537369080098,66.19474261119859,1.9882686845400488,1.0397845854680436,A,517.7137000000585,Correct
1,301,511,B,70.24974122321584,43.74706682739652,3.5124870611607917,0.6871773188052533,A,824.7747999998865,Incorrect
1,301,512,A,58.20053359741433,75.22788584828069,2.9100266798707164,1.181676867630251,A,538.7240999998539,Correct
1,301,513,A,55.4244988463001,79.83562051001363,2.771224942315005,1.254054994445207,A,527.6668999999856,Correct
1,301,514,A,67.90244003016267,80.8742439713452,3.3951220015081334,1.2703696536250335,A,517.2346000003927,Correct
1,301,515,A,28.892020818542818,51.03524977712547,1.4446010409271408,0.8016598288696876,A,554.2301000000407,Correct
1,301,516,A,16.82085365844942,42.86229891988633,0.841042682922471,0.6732794170134231,A,563.624300000356,Correct
1,301,517,A,33.52921709163547,54.00442778504345,1.6764608545817736,0.848299567954065,A,556.1827000001358,Correct
1,301,518,A,18.81574223415636,41.38629774599326,0.940787111707818,0.6500944447904613,A,546.8157999998766,Correct
1,301,519,A,52.388085200930654,77.20016957709336,2.6194042600465326,1.2126574279964137,A,514.8480000002564,Correct
1,301,520,A,25.65733267897539,52.9766028084958,1.2828666339487693,0.832154530976574,A,469.5960999997624,Correct
1,301,521,A,35.513774309128074,63.5996741690735,1.7756887154564038,0.9990213457013293,A,449.7566000000006,Correct
1,301,522,B,30.64642866426237,13.123756523686854,1.5323214332131183,0.20614748541157873,B,706.3342000001285,Correct
1,301,523,A,50.949913089103035,65.95862947324767,2.547495654455152,1.0360757289700304,A,606.4748999997391,Correct
1,301,524,B,56.93708992871762,27.561349010573274,2.846854496435881,0.4329326578732065,B,550.7844000003388,Correct
1,301,525,B,82.27336617393227,54.60826519449736,4.113668308696614,0.8577846238015806,B,721.2631000002148,Correct
1,301,526,B,55.16992546785234,32.27701658326,2.758496273392617,0.5070061908888277,B,700.2984999999171,Correct
1,301,527,A,33.72354486233607,65.7454813376733,1.6861772431168034,1.0327276058857964,A,652.9046000000562,Correct
1,301,528,A,23.074481498257747,46.35032591283925,1.1537240749128872,0.7280692168963422,A,881.5954000001511,Correct
1,301,529,B,47.143223436247496,24.981243858622694,2.3571611718123746,0.3924044609189209,B,874.1781999997329,Correct
1,301,530,A,34.41344920383235,65.48802508032931,1.7206724601916177,1.0286834924523334,A,627.0226999999977,Correct
1,301,531,B,46.453544699427624,17.235161214164425,2.322677234971381,0.2707292792692735,A,1528.2286000001477,Incorrect
1,301,532,A,17.037263642221514,46.670417995519756,0.8518631821110758,0.7330972115734485,A,482.2435000000951,Correct
1,301,533,B,60.69448921246064,50.50138797394876,3.0347244606230324,0.7932739472752268,A,1573.001799999929,Incorrect
1,301,534,A,28.04622543667395,46.94668507090744,1.4023112718336974,0.7374368046457821,A,619.6528999998918,Correct
1,301,535,A,36.43541629984624,64.49976811162912,1.8217708149923117,1.0131599882886964,A,518.9611999999215,Correct
1,301,536,A,33.932925219349244,64.34289670193333,1.6966462609674622,1.0106958579474032,A,483.9481999997588,Correct
1,301,537,B,76.6110125039575,52.72844728205571,3.830550625197875,0.8282565130825147,B,1835.1456999998845,Correct
1,301,538,B,78.116721788927,55.09840967505753,3.9058360894463497,0.8654837952982076,B,619.7011999997812,Correct
1,301,539,B,67.44659914674848,39.91635251914908,3.372329957337424,0.6270045991612959,B,442.088700000113,Correct
1,301,540,B,84.8713422902259,64.6679874012793,4.243567114511295,1.0158023707114816,B,376.45419999989826,Correct
1,301,541,A,34.64772236861058,44.2676031102491,1.732386118430529,0.6953538836159363,A,616.1933000003046,Correct
1,301,542,B,57.59434246461733,30.653045946067444,2.8797171232308667,0.4814969197715794,B,597.6835000001302,Correct
1,301,543,B,51.22518489867655,39.96013941802634,2.5612592449338276,0.6276924021604772,B,1192.2245999999177,Correct
1,301,544,B,71.13454694553567,48.563361782592494,3.556727347276784,0.7628315030490794,B,423.4262999998464,Correct
1,301,545,B,54.022746666304826,37.68109609896763,2.7011373333152413,0.5918932734186386,B,419.55719999987195,Correct
1,301,546,B,53.77300591739253,43.829900728953355,2.6886502958696266,0.688478470688249,B,345.11990000009973,Correct
1,301,547,A,34.57343844322361,58.237427879916105,1.7286719221611804,0.9147913779575491,A,606.3549000000421,Correct
1,301,548,B,79.71009696539684,53.06639158221017,3.985504848269842,0.8335649297359536,B,537.6653999996961,Correct
1,301,549,B,72.90737898975189,41.19251651387982,3.6453689494875947,0.6470505363144053,B,413.02959999984523,Correct
