subject,day,trial,cat,x,y,xt,yt,resp,rt,fb
8,108,0,B,42.91478043955114,31.293043143038588,2.1457390219775565,0.4915499722331924,A,6592.057799999566,Incorrect
8,108,1,B,42.82112399860032,23.976249871174566,2.141056199930016,0.3766180522795761,B,2276.7923000001247,Correct
8,108,2,B,33.52073356777534,16.970580916069782,1.6760366783887668,0.26657326166537987,A,7253.060400000322,Incorrect
8,108,3,A,10.853988965827156,34.25857898295317,0.5426994482913579,0.5381325002763568,A,1673.5441999999239,Correct
8,108,4,B,67.58893042297301,41.72447357245669,3.3794465211486506,0.655406498250657,B,649.0022999996654,Correct
8,108,5,B,60.348678168086025,45.579382261113906,3.0174339084043016,0.7159592623333819,B,529.5776000002661,Correct
8,108,6,B,86.33228585203486,61.36699015783336,4.316614292601742,0.9639504272638321,B,1593.3039999999892,Correct
8,108,7,A,54.699129474513164,74.73553381992133,2.734956473725658,1.1739430200538818,B,534.8572000002605,Incorrect
8,108,8,A,47.57890745164547,59.46892083084377,2.378945372582274,0.9341356239954591,B,723.2936999998856,Incorrect
8,108,9,B,74.70619901165406,51.89060326362852,3.735309950582703,0.8150956900167895,B,845.239500000389,Correct
8,108,10,A,12.612250738393431,37.77389439142112,0.6306125369196716,0.5933509455878264,A,841.6723000000275,Correct
8,108,11,A,17.98119601444464,34.24455383936091,0.899059800722232,0.5379121938359819,A,409.94680000039807,Correct
8,108,12,A,31.029663533332617,60.50085079725518,1.5514831766666308,0.9503451420029453,B,1589.5884999999907,Incorrect
8,108,13,A,19.29888179972003,42.62092174847875,0.9649440899860013,0.6694878732712313,A,512.3549999998431,Correct
8,108,14,B,61.30596540072988,50.811470538605576,3.0652982700364944,0.7981447128108875,B,708.2805999998527,Correct
8,108,15,A,50.087456391349804,58.961700533699165,2.5043728195674904,0.9261682261991535,B,544.6562000006452,Incorrect
8,108,16,B,61.42028265718298,30.140368894293736,3.071014132859149,0.4734438074739976,B,795.1633000002403,Correct
8,108,17,B,70.79137017098742,45.2231130138212,3.539568508549371,0.7103629980834083,B,759.0589999999793,Correct
8,108,18,A,60.08011255051183,70.38176928606902,3.0040056275255917,1.1055542466788308,B,729.5704999996815,Incorrect
8,108,19,B,57.07758843090528,36.25926768316617,2.853879421545264,0.5695592448899033,B,946.7021000000386,Correct
8,108,20,A,46.981942935853425,78.07638723291653,2.3490971467926713,1.2264210227488124,A,582.544599999892,Correct
8,108,21,B,77.78382965093863,47.33940653126387,3.8891914825469316,0.7436056589195963,B,592.7835000002233,Correct
8,108,22,B,70.55657662579905,56.206083831459964,3.5278288312899524,0.8828831002598333,B,566.5966000005938,Correct
8,108,23,A,33.8938570497896,57.12374896508597,1.6946928524894802,0.8972977504711084,A,779.2995999998311,Correct
8,108,24,B,67.7856112399946,57.49727462868447,3.3892805619997297,0.9031650778745496,B,1389.8056999996697,Correct
8,108,25,B,56.397354968136746,45.775137831361036,2.8198677484068373,0.7190341836403201,A,984.0349000005517,Incorrect
8,108,26,B,77.65063014931044,53.296999190747066,3.8825315074655227,0.8371873055801605,B,678.9588999999978,Correct
8,108,27,A,36.005411921414996,58.39925351354082,1.80027059607075,0.9173333290663387,A,391.26070000020263,Correct
8,108,28,B,83.79683126123089,65.61897348365466,4.189841563061544,1.0307404251617645,B,1037.582900000416,Correct
8,108,29,A,53.98561006798189,75.11432209300122,2.6992805033990943,1.1798930123337505,B,1491.6926000005333,Incorrect
8,108,30,B,83.63631579941043,54.62042623389946,4.181815789970521,0.8579756489618087,B,731.9574000002831,Correct
8,108,31,B,45.20933505517108,22.42923960290199,2.2604667527585542,0.35231767181041074,A,639.0195000003587,Incorrect
8,108,32,B,61.80018479332765,38.55258956024725,3.0900092396663825,0.6055826606966765,B,1639.8675999998886,Correct
8,108,33,B,75.2845331983446,42.599676562822005,3.76422665991723,0.6691541546753145,B,1123.1924000003346,Correct
8,108,34,B,63.96145747485045,33.00536771340574,3.1980728737425226,0.518447103687326,B,680.7157000002917,Correct
8,108,35,B,58.566846140686984,45.02886318847577,2.9283423070343493,0.7073117289620766,A,770.712900000035,Incorrect
8,108,36,A,10.360019868820764,31.755217639394736,0.5180009934410382,0.4988097922453376,A,620.3603000003568,Correct
8,108,37,A,69.43437949404584,86.58858552055946,3.4717189747022923,1.3601303207806057,B,1186.4479000005304,Incorrect
8,108,38,A,50.49036895075542,79.89836355837069,2.524518447537771,1.255040559944119,A,1667.3052000005555,Correct
8,108,39,B,45.05195694852845,31.294015460682687,2.2525978474264226,0.49156524536303076,A,731.6274000004341,Incorrect
8,108,40,B,81.62010969543924,59.049602246718194,4.0810054847719615,0.9275489830784461,B,584.61460000035,Correct
8,108,41,B,35.523661141985514,22.772216637829377,1.7761830570992756,0.35770514247680013,A,665.1554000000033,Incorrect
8,108,42,A,51.072044507221676,64.26434429581347,2.5536022253610837,1.0094619596374637,B,681.993500000317,Incorrect
8,108,43,B,67.42322217169321,39.05772675656756,3.3711611085846607,0.6135173372217507,B,831.5804000003482,Correct
8,108,44,A,49.06348061487475,70.5158436805799,2.4531740307437375,1.1076602823429804,A,1434.602199999972,Correct
8,108,45,B,75.5661100697507,52.730842952465466,3.7783055034875357,0.828294144185313,B,549.6571000003314,Correct
8,108,46,A,53.041286206068676,81.02350248554764,2.652064310303434,1.2727142008835541,A,816.1536999996315,Correct
8,108,47,A,23.239104271926358,55.38478256580989,1.1619552135963178,0.869982130147082,A,617.5633000002563,Correct
8,108,48,B,78.72148934721744,47.73931745006846,3.9360744673608723,0.7498874449426304,B,468.34670000043843,Correct
8,108,49,A,59.322878648926896,82.55350112682932,2.9661439324463448,1.2967473633408184,B,1128.2090000004246,Incorrect
8,108,50,A,33.91339529760049,44.807795187699334,1.6956697648800243,0.7038392009261617,A,563.271099999838,Correct
8,108,51,B,66.7074508612516,57.17648191199173,3.33537254306258,0.8981260776641146,B,543.1515000000218,Correct
8,108,52,B,47.51888474688994,34.79901011478644,2.375944237344497,0.54662157264405,A,621.4964000000691,Incorrect
8,108,53,A,47.17873247595303,78.98345191121682,2.3589366237976517,1.2406691613972074,A,1419.3015000000742,Correct
8,108,54,A,24.553430687509696,36.266478839325245,1.2276715343754847,0.5696725174659695,A,564.1737000005378,Correct
8,108,55,A,63.67958182570631,74.74586300233989,3.183979091285315,1.1741052704719004,B,1201.1658000001262,Incorrect
8,108,56,B,41.44725077391219,13.450814849229655,2.072362538695609,0.21128490557568191,A,736.8977000005543,Incorrect
8,108,57,B,81.12542140942912,66.52598309038235,4.056271070471456,1.04498769874792,B,598.4213000001546,Correct
8,108,58,A,21.98517106079316,53.62342549382622,1.0992585530396581,0.8423147979586203,A,502.4680000005901,Correct
8,108,59,A,54.13857133333099,76.60089825457206,2.7069285666665497,1.203244096074714,A,1129.4989999996687,Correct
8,108,60,B,64.53135586876981,53.590559037083935,3.2265677934384907,0.8417985328633649,B,1165.1141000002099,Correct
8,108,61,A,45.217113107784535,56.28412299480467,2.2608556553892267,0.8841089365711136,A,794.0809000001536,Correct
8,108,62,A,45.036443426728766,66.1923176263161,2.251822171336438,1.0397464938945842,A,588.8660999999047,Correct
8,108,63,B,76.48284045511403,55.60725923082425,3.824142022755701,0.8734767854291032,B,477.45130000021163,Correct
8,108,64,B,69.00889711405775,46.758332102535306,3.4504448557028873,0.7344781631371835,B,680.2136999995128,Correct
8,108,65,A,24.819923225203986,51.82195281949676,1.2409961612601992,0.8140173313620395,A,580.6493000000046,Correct
8,108,66,B,53.37747202438619,25.00235211128436,2.6688736012193095,0.392736028576381,A,1482.7285000001211,Incorrect
8,108,67,B,77.70027717399499,57.291567958472754,3.88501385869975,0.8999338450548919,B,476.40509999928327,Correct
8,108,68,B,86.58254206242316,59.00512043866992,4.329127103121158,0.9268502644715318,B,501.78520000008575,Correct
8,108,69,A,33.85729502203855,52.42074074615796,1.6928647511019275,0.823423070119325,A,551.7568999994182,Correct
8,108,70,A,38.30713583871186,71.18225140268441,1.915356791935593,1.1181281903632756,A,689.9761000004219,Correct
8,108,71,A,47.33113426020493,59.58264000952772,2.366556713010246,0.9359219206770878,A,550.4012000001239,Correct
8,108,72,B,60.16226629553249,44.30854691162189,3.0081133147766246,0.6959970273439502,A,937.4668999998903,Incorrect
8,108,73,A,14.372973600143705,42.55686127948182,0.7186486800071853,0.6684816137773001,A,504.12930000038614,Correct
8,108,74,B,85.54746360862104,59.469849562981715,4.277373180431052,0.9341502124857676,B,507.969299999786,Correct
8,108,75,B,57.073453273671845,41.01027294018873,2.853672663683592,0.644187860953046,B,749.3838999998843,Correct
8,108,76,A,22.721017394731987,40.75717510487475,1.1360508697365994,0.6402122094527365,A,523.9974999994956,Correct
8,108,77,B,55.067035039373025,30.603923228522287,2.7533517519686512,0.4807253019287582,B,976.7117000001235,Correct
8,108,78,A,63.14187826880983,86.89259116300778,3.1570939134404914,1.3649056302454332,B,877.1553000005952,Incorrect
8,108,79,B,71.11813546480569,50.91582516697203,3.5559067732402845,0.7997839114801082,B,610.1203999996869,Correct
8,108,80,B,68.96137560055786,42.88764129875596,3.448068780027893,0.6736774941698297,B,590.8368000000337,Correct
8,108,81,B,48.29153351305983,41.34212101512459,2.4145766756529916,0.649400518324678,A,641.0753000000113,Incorrect
8,108,82,A,13.058764434429204,40.39371980729247,0.6529382217214602,0.6345030669887726,A,369.66080000001966,Correct
8,108,83,A,16.13435407115849,35.486801866526456,0.8067177035579246,0.5574253802163804,A,533.8007000000289,Correct
8,108,84,A,53.08988352262863,78.91395118464645,2.654494176131432,1.2395774465371443,B,1187.0434000002206,Incorrect
8,108,85,A,29.23830727670848,57.47327870446763,1.461915363835424,0.9027881507783712,A,556.4849000002141,Correct
8,108,86,B,35.680526170146315,12.635175367896792,1.7840263085073158,0.19847287056301638,A,985.1560999995854,Incorrect
8,108,87,B,67.51130634762092,34.227401543443804,3.375565317381046,0.537642766201755,B,1102.9763000005914,Correct
8,108,88,A,16.58997266937934,35.969598832410085,0.8294986334689669,0.5650091372223577,A,517.5949999993463,Correct
8,108,89,B,57.47513525280255,36.1613734351359,2.8737567626401277,0.5680215256377003,B,881.4838999996937,Correct
8,108,90,B,34.4757420427665,23.207028682103154,1.723787102138325,0.36453515409671444,A,584.3863999998575,Incorrect
8,108,91,B,52.645022793679125,39.60629694274149,2.6322511396839565,0.6221342575560628,B,885.1002000001245,Correct
8,108,92,B,46.63376737037365,25.465012138482713,2.3316883685186824,0.400003475289161,B,484.30629999984376,Correct
8,108,93,A,38.99403346083499,60.912416052764286,1.9497016730417496,0.9568099939188464,A,1397.9710000003251,Correct
8,108,94,A,42.357525713462536,68.99100334386436,2.117876285673127,1.0837081463443659,A,553.8516999995409,Correct
8,108,95,B,50.39259055925382,33.9877239152261,2.519629527962691,0.5338779188215622,B,711.9270000002871,Correct
8,108,96,B,79.6091865284907,64.90945048481458,3.9804593264245347,1.0195952639582198,B,754.9963000001298,Correct
8,108,97,A,41.56178635306518,62.07179688846553,2.078089317653259,0.9750215054996054,A,1770.7229999996343,Correct
8,108,98,B,73.98178784708577,41.86843364548403,3.699089392354289,0.6576678177898218,B,706.5233000002991,Correct
8,108,99,B,78.2751952805859,64.77241006560044,3.913759764029295,1.0174426380869797,B,568.02929999958,Correct
8,108,100,A,39.05700923832792,48.776110176758465,1.952850461916396,0.7661733470099538,A,743.7381999998252,Correct
8,108,101,A,67.37757870496786,86.16393038396103,3.368878935248393,1.3534598534933715,B,707.3653000006743,Incorrect
8,108,102,A,42.35909427415903,74.143872451606,2.117954713707951,1.1646492250133205,A,1032.5970999992933,Correct
8,108,103,B,56.7132464831291,47.492822797968586,2.8356623241564547,0.7460155160016997,B,973.8538000001427,Correct
8,108,104,B,75.84757619754392,57.59575683175393,3.7923788098771958,0.9047120327029113,B,612.2516999994332,Correct
8,108,105,B,83.45064180562534,62.435577998977486,4.172532090281266,0.9807357658211008,B,717.3650999993697,Correct
8,108,106,A,38.72251094832072,66.79863604328827,1.936125547416036,1.0492705213170639,A,622.7580000004309,Correct
8,108,107,A,43.056363106524955,68.97612411757679,2.1528181553262478,1.083474424004385,A,985.8082999999169,Correct
8,108,108,B,88.34772615260597,62.07129223358109,4.417386307630299,0.9750135783992177,B,593.2938000005379,Correct
8,108,109,B,58.795301129141635,50.38025658235895,2.939765056457082,0.7913712198255385,B,782.5299000005543,Correct
8,108,110,B,53.768609718342454,25.68381884876402,2.6884304859171224,0.4034404830570405,B,1791.391000000658,Correct
8,108,111,B,43.01379377343102,21.626988688201422,2.1506896886715507,0.3397159439106157,A,1044.6360999994795,Incorrect
8,108,112,B,32.91226013063533,17.202288874529383,1.6456130065317667,0.27021292176575473,A,577.9161000000386,Incorrect
8,108,113,B,56.12293319371281,33.9054184905693,2.8061466596856404,0.5325850682343003,B,904.3025999999372,Correct
8,108,114,A,40.21972459718027,63.95310383849046,2.010986229859013,1.0045730059663343,A,619.334600000002,Correct
8,108,115,B,77.84532118442203,53.029106665529646,3.8922660592211016,0.8329792596342874,B,648.5733999998047,Correct
8,108,116,A,54.730753576288805,81.75745790918332,2.7365376788144404,1.2842431457183352,A,1100.7267999993928,Correct
8,108,117,A,61.712659865602085,72.95242422891067,3.0856329932801043,1.1459340000955591,A,847.2551999993811,Correct
8,108,118,B,30.80899827231287,13.28492600871951,1.5404499136156433,0.2086791297623859,A,557.6154000000315,Incorrect
8,108,119,A,17.106079406904115,39.77311181008637,0.8553039703452058,0.6247545793648639,A,555.404599999747,Correct
8,108,120,B,41.12622562486476,21.980321525998992,2.056311281243238,0.3452660831481001,A,831.3131999993857,Incorrect
8,108,121,B,49.7044556182195,35.71221278359835,2.485222780910975,0.5609661266219403,B,732.8072999998767,Correct
8,108,122,A,57.10709042369237,84.8973824283152,2.8553545211846187,1.333564964728991,B,1161.0034000004816,Incorrect
8,108,123,A,37.26192161889841,45.427480505518396,1.8630960809449206,0.7135731951361507,A,893.6972000001333,Correct
8,108,124,B,61.99444975230102,46.0527305063942,3.0997224876150513,0.7233945991831927,B,617.8693000001658,Correct
8,108,125,B,54.03318494878603,32.62115014417448,2.7016592474393013,0.5124118282229408,B,704.4968999998673,Correct
8,108,126,B,60.364622231960965,28.258180139031918,3.0182311115980487,0.4438784556429983,B,622.3046000004615,Correct
8,108,127,A,23.131018602553116,40.26548580900631,1.1565509301276558,0.6324887720539915,A,555.8526000004349,Correct
8,108,128,B,85.20500349363556,62.78706477333284,4.260250174681778,0.9862569071618446,B,556.3829999991867,Correct
8,108,129,A,32.66384381838815,62.48099930573255,1.6331921909194076,0.9814492420391916,A,714.7759999998016,Correct
8,108,130,A,34.3909006553606,43.81357297284782,1.7195450327680302,0.6882219948950952,A,755.8677000006355,Correct
8,108,131,A,43.36616458350461,65.6422737128844,2.1683082291752305,1.0311064243066401,A,710.399900000084,Correct
8,108,132,A,34.80960397034244,59.715481016268754,1.7404801985171219,0.9380085823314533,A,557.8595999995741,Correct
8,108,133,B,61.82560199739639,43.367939969355575,3.0912800998698198,0.6812220080452532,B,619.9468999993769,Correct
8,108,134,B,37.36844496315232,11.71858475644784,1.868422248157616,0.18407509890662932,B,829.6093999997538,Correct
8,108,135,A,65.3682765120544,83.92310653753628,3.2684138256027198,1.3182610748237877,B,480.38489999999,Incorrect
8,108,136,A,57.47654280432998,81.86649496820505,2.873827140216499,1.2859558958362935,A,1548.5423999998602,Correct
8,108,137,A,56.07979680361791,72.3367864356685,2.8039898401808956,1.1362635842529498,A,505.24310000037076,Correct
8,108,138,B,69.70992870900372,57.68169089827518,3.485496435450186,0.9060618818632926,B,949.689699999908,Correct
8,108,139,A,15.48544972312473,42.64260502609791,0.7742724861562366,0.669828473399602,A,876.0430000002088,Correct
8,108,140,B,68.60586833723164,56.550192649449585,3.430293416861582,0.8882883489329916,B,601.30079999999,Correct
8,108,141,B,51.19851953924637,24.35695229455225,2.5599259769623184,0.382598111962012,A,1218.1598000006488,Incorrect
8,108,142,B,54.23736126424071,35.841292192041415,2.7118680632120356,0.5629937012284125,B,1087.969699999121,Correct
8,108,143,A,11.671649103287347,31.16458213099538,0.5835824551643674,0.4895321113746541,A,1027.0418999998583,Correct
8,108,144,A,63.87031812233328,75.05464438228482,3.193515906116664,1.1789555970459022,B,851.5943000002153,Incorrect
8,108,145,B,40.61911504957808,32.069836079349116,2.030955752478904,0.5037518071435604,B,887.7363000001424,Correct
8,108,146,B,71.08411537497246,43.02588709827116,3.5542057687486226,0.6758490541105626,B,608.0453999993551,Correct
8,108,147,B,47.81276106364572,31.174736398549705,2.390638053182286,0.4896916142364104,B,683.0975000002582,Correct
8,108,148,B,44.72081223449287,17.54007161866976,2.2360406117246434,0.2755188007032588,B,1021.6033999995489,Correct
8,108,149,A,40.14350466496504,56.79660840566353,2.007175233248252,0.8921590385802441,B,552.6939000001221,Incorrect
8,108,150,B,43.4751187987647,21.48177605454799,2.1737559399382347,0.3374349491951455,A,298.35540000021865,Incorrect
8,108,151,A,21.53301485864274,34.55960978762593,1.076650742932137,0.5428610810986776,A,512.9658000005293,Correct
8,108,152,A,47.71196544965046,64.89279652188854,2.3855982724825227,1.0193336641203117,B,598.7621000003855,Incorrect
8,108,153,A,38.072506947744735,62.80867009652261,1.9036253473872367,0.9865962827849019,A,693.4179999998378,Correct
8,108,154,A,40.973470881157404,50.42370321785196,2.0486735440578703,0.7920536779799786,A,655.0691000002189,Correct
8,108,155,B,83.49870038094824,57.638315521624435,4.174935019047411,0.9053805430401293,B,683.8055999996868,Correct
8,108,156,A,61.26361983330798,82.12450229116186,3.0631809916653987,1.2900086653881613,B,645.1750999995056,Incorrect
8,108,157,B,54.583478624752715,41.66796031433381,2.7291739312376357,0.6545187900679108,B,660.9368000008544,Correct
8,108,158,A,18.037600761055376,39.91548365204942,0.9018800380527687,0.6269909510288098,A,550.6070000001273,Correct
8,108,159,A,43.72120892136479,71.3719248098306,2.1860604460682396,1.1211075732756346,A,1103.4331000000748,Correct
8,108,160,A,12.082660278964163,34.36860863653146,0.6041330139482082,0.5398608420331498,A,518.3631999998397,Correct
8,108,161,B,74.53041535054504,52.16712646206997,3.726520767527252,0.8194393062606435,B,2187.3485999994955,Correct
8,108,162,A,21.892880162076548,42.195117455012095,1.0946440081038273,0.6627993550701223,A,616.3349999997081,Correct
8,108,163,B,76.84507355974961,56.53526850630743,3.8422536779874803,0.888053921040709,B,565.0009000000864,Correct
8,108,164,A,40.24760874474671,64.89749449009754,2.0123804372373355,1.0194074596323728,B,775.5182999999306,Incorrect
8,108,165,B,38.305655549564875,22.741731442186772,1.9152827774782437,0.35722628214342983,B,788.7935999997353,Correct
8,108,166,B,66.66197481962458,53.29319004081603,3.3330987409812285,0.8371274715929617,B,584.6966999997676,Correct
8,108,167,B,52.584541148343106,34.74477069292814,2.6292270574171552,0.5457695817978251,B,632.968300000357,Correct
8,108,168,A,63.69990660277182,86.2431580236853,3.184995330138591,1.3547043583479668,A,640.1667999998608,Correct
8,108,169,B,51.545317782078556,34.821280183764266,2.5772658891039275,0.5469713900695283,B,701.1707999999999,Correct
8,108,170,A,41.294174890332265,57.80981759316009,2.0647087445166132,0.9080744912801886,A,1322.4284999996598,Correct
8,108,171,B,47.98134290723018,28.93230558194795,2.399067145361509,0.4544675933383132,A,1215.6801000000996,Incorrect
8,108,172,B,37.25146468250446,26.174996936521367,1.862573234125223,0.4111558904175544,B,943.7204999994719,Correct
8,108,173,B,64.0869063895476,56.55911126861507,3.2043453194773797,0.8884284422752439,B,591.7280000003302,Correct
8,108,174,B,71.83731389021958,42.44445573952031,3.5918656945109784,0.6667159516844707,B,966.0654000008435,Correct
8,108,175,B,49.90873171366921,37.51793565517597,2.4954365856834606,0.5893303551607768,A,1469.8308999995788,Incorrect
8,108,176,A,26.57707041151523,45.239241263203354,1.3288535205757614,0.7106163400322794,A,476.7499999998108,Correct
8,108,177,B,75.80594780520569,45.172059767430994,3.7902973902602843,0.7095610555644013,B,585.98290000009,Correct
8,108,178,A,61.501271842542984,76.168041060051,3.075063592127149,1.19644479116291,A,1477.3188999997728,Correct
8,108,179,A,30.49537631512484,47.98303025588858,1.524768815756242,0.7537156767443817,A,568.6624999998457,Correct
8,108,180,A,51.727366662789606,71.60385591800315,2.5863683331394807,1.1247507386035034,A,1538.025099999686,Correct
8,108,181,A,11.527699146684984,35.1361720063321,0.5763849573342492,0.5519176992518015,A,583.8456000001315,Correct
8,108,182,A,51.19282184955068,82.17519968931025,2.559641092477534,1.2908050182560566,B,868.0460999994466,Incorrect
8,108,183,A,54.58136662116209,71.18638444954668,2.7290683310581043,1.1181931121115727,B,717.1240000006947,Incorrect
8,108,184,A,35.621831491773975,52.17623664963727,1.7810915745886988,0.8195824087523147,A,380.0537000006443,Correct
8,108,185,B,37.31488309865893,20.53556921694951,1.8657441549329465,0.3225719669462664,B,1320.7600000005186,Correct
8,108,186,A,17.210734844102635,33.741657815420965,0.8605367422051318,0.5300127215643355,A,537.059299998873,Correct
8,108,187,B,40.060249926947456,14.607849502398622,2.0030124963473726,0.22945956340740412,B,1287.9697000007582,Correct
8,108,188,B,33.825379069594206,21.68656986841783,1.69126895347971,0.3406518429009161,B,901.2308000001212,Correct
8,108,189,A,27.800298430595305,45.35513859559016,1.3900149215297655,0.7124368510722647,A,642.4766000000091,Correct
8,108,190,A,23.083766311810038,40.68852795602732,1.154188315590502,0.6391339025601918,A,504.01619999865943,Correct
8,108,191,A,47.596181505962356,74.03159159673449,2.379809075298118,1.1628855214693046,B,1150.9337999996205,Incorrect
8,108,192,B,77.26321947908512,51.76813629953219,3.8631609739542565,0.813171983443227,B,404.48300000025483,Correct
8,108,193,B,39.466660878663035,15.650093952207623,1.9733330439331518,0.24583110094122756,A,735.7965999999578,Incorrect
8,108,194,B,89.06816409966707,64.70036865174721,4.453408204983353,1.0163110142044018,B,765.0907000006555,Correct
8,108,195,A,21.46377616850171,37.68132436470208,1.0731888084250856,0.5918968590084107,A,568.6409999998432,Correct
8,108,196,B,71.99949403945647,59.50314244931436,3.5999747019728234,0.9346731759213648,B,967.558000000281,Correct
8,108,197,B,44.34949463313511,29.477347005913174,2.217474731656756,0.4630290840054696,A,800.397900000462,Incorrect
8,108,198,B,43.411041273579066,19.039917662994213,2.170552063678953,0.29907832727508576,B,730.6435999998939,Correct
8,108,199,B,34.811667196328074,16.530118425976095,1.7405833598164038,0.25965449305007887,B,475.7680000002438,Correct
8,108,200,A,38.92212602097336,64.87479110629836,1.946106301048668,1.019050835713597,A,570.6798000010167,Correct
8,108,201,B,50.58824016426855,40.28790177776308,2.5294120082134275,0.6328408812678383,A,465.0558000012097,Incorrect
8,108,202,B,78.3534662916702,58.36593129235949,3.91767331458351,0.9168099048400159,B,548.1053000003158,Correct
8,108,203,A,30.41464387811684,56.622269297455084,1.520732193905842,0.8894205262723389,A,652.9178000000684,Correct
8,108,204,B,48.009300553049115,20.15663501810638,2.400465027652456,0.3166196824698688,B,785.9169999992446,Correct
8,108,205,B,66.84988193705702,43.3429795872038,3.3424940968528514,0.6808299312792591,B,685.2013999996416,Correct
8,108,206,A,58.82628356868855,68.95416942406952,2.9413141784344274,1.0831295604852136,B,574.0984000003664,Incorrect
8,108,207,B,67.44699045896036,49.70307944663193,3.372349522948018,0.7807341462516435,B,837.005000001227,Correct
8,108,208,A,29.722013213208054,48.37667080810613,1.4861006606604028,0.7598989680793902,A,746.2894000000233,Correct
8,108,209,B,78.24906869426728,52.68486119295806,3.912453434713364,0.8275718643959752,B,1061.0285000002477,Correct
8,108,210,A,58.003914224734004,70.45652880645949,2.9001957112367,1.1067285664790538,B,2758.172599998943,Incorrect
8,108,211,B,50.85662890029482,35.60121665660516,2.542831445014741,0.5592226035362468,B,777.7906000010262,Correct
8,108,212,A,42.18442342694069,73.68509640646286,2.1092211713470346,1.1574427877479967,A,696.6876999995293,Correct
8,108,213,B,57.65062293440652,42.70406377283284,2.8825311467203263,0.6707938651358083,B,714.9122000009811,Correct
8,108,214,A,51.852905514193935,67.29270441395373,2.592645275709697,1.0570313291353324,A,773.1413000001339,Correct
8,108,215,A,44.98100231585514,65.10907119560221,2.249050115792757,1.0227308987507937,A,850.3995999999461,Correct
8,108,216,A,59.82892992790492,76.61373246677577,2.9914464963952465,1.203445695408583,B,742.8503000010096,Incorrect
8,108,217,A,59.179308349385536,70.77079494677871,2.958965417469277,1.111665047467548,B,676.6423000008217,Incorrect
8,108,218,A,30.039566333205705,41.75800761577244,1.5019783166602851,0.6559332497712866,A,631.1298999989958,Correct
8,108,219,A,25.117548432494523,44.25548222452382,1.2558774216247262,0.6951634891881885,A,1127.7107999994769,Correct
8,108,220,B,53.58833299457693,29.51866584593305,2.6794166497288465,0.46367811882677606,B,838.1152000001748,Correct
8,108,221,A,45.027860641244374,62.33818511693819,2.251393032062219,0.9792059220074681,A,736.5602999998373,Correct
8,108,222,B,68.04696354624443,59.11253363697078,3.4023481773122217,0.9285375070449347,B,616.3161000004038,Correct
8,108,223,B,57.21412378815229,47.49483635994118,2.8607061894076145,0.746047144959203,B,708.4603999992396,Correct
8,108,224,A,37.98014314385067,51.58278655224443,1.8990071571925335,0.8102605164211073,A,569.7405000009894,Correct
8,108,225,A,54.26813041089045,74.26477206461739,2.713406520544522,1.1665483116936124,B,877.3357000009128,Incorrect
8,108,226,B,44.367523488090306,28.39137683779642,2.2183761744045154,0.4459707044946032,B,769.4940999990649,Correct
8,108,227,A,18.664194233576747,38.72994492304399,0.9332097116788374,0.6083685522208615,A,684.228099999018,Correct
8,108,228,A,45.579228790624356,77.02990727720405,2.278961439531218,1.2099829540438358,A,692.2885999993014,Correct
8,108,229,B,43.17206594556297,25.345904003111542,2.1586032972781486,0.39813252907383667,B,784.7039000007499,Correct
8,108,230,B,40.89540370934006,18.549121897710602,2.044770185467003,0.2913689254219459,A,704.1919000002963,Incorrect
8,108,231,B,65.67610907397024,56.07131682653893,3.2838054536985117,0.8807661850968024,B,601.5651000016078,Correct
8,108,232,A,14.555136231510577,37.65072586670668,0.7277568115755289,0.5914162189258445,A,632.4855000002572,Correct
8,108,233,A,42.69594688396242,73.93899170738982,2.134797344198121,1.1614309658088624,A,3413.184099999853,Correct
8,108,234,A,51.62153803863644,68.22059323579929,2.5810769019318216,1.0716065726656228,B,1256.821900000432,Incorrect
8,108,235,A,18.874931197614973,46.670609340604145,0.9437465598807486,0.7331002172150058,A,554.2227000005369,Correct
8,108,236,B,56.64388265771899,39.23723594542341,2.8321941328859497,0.6163370609665576,B,705.9657000008883,Correct
8,108,237,B,68.4828363942546,56.922246618861855,3.4241418197127302,0.8941325590182143,B,1036.1766000005446,Correct
8,108,238,A,41.156814222533924,52.9713508760489,2.057840711126696,0.8320720338146124,A,1099.0982000002987,Correct
8,108,239,A,52.73193421417775,78.33427512808284,2.6365967107088877,1.2304719163333335,B,994.8371999998926,Incorrect
8,108,240,B,43.11815470004109,25.413130035806255,2.1559077350020543,0.39918851312605524,B,872.0670000002428,Correct
8,108,241,B,40.36240217631524,26.3315479013706,2.0181201088157623,0.413614987222968,B,780.5255000002944,Correct
8,108,242,A,27.112304791044036,55.76269817774639,1.3556152395522016,0.875918414697765,A,832.9460000004474,Correct
8,108,243,A,56.96603970852422,67.09246216552287,2.8483019854262115,1.053885931252289,B,1183.8693999998213,Incorrect
8,108,244,B,83.75737257432937,67.23511832581072,4.187868628716468,1.0561267689780371,B,530.3647000000637,Correct
8,108,245,A,43.546311312928324,55.95801443962566,2.177315565646416,0.8789864353649977,A,981.1651999989408,Correct
8,108,246,A,31.767900828570905,56.3645749977419,1.5883950414285453,0.8853726736780843,A,540.3329000000667,Correct
8,108,247,A,57.49152846012925,74.93730169093466,2.874576423006463,1.1771123823604115,A,834.747700000662,Correct
8,108,248,A,58.29160986230039,85.2937883332101,2.9145804931150194,1.339791694122278,A,528.243000000657,Correct
8,108,249,B,89.57172821301491,68.68278334071043,4.478586410650745,1.0788666378563765,B,540.1204000008875,Correct
8,108,250,B,43.61546168588386,25.38554574492483,2.1807730842941933,0.39875522009811737,A,1377.1038000013505,Incorrect
8,108,251,A,68.05962210168407,88.66043352005539,3.402981105084203,1.3926748330534613,A,1187.0404000001145,Correct
8,108,252,A,38.66120848668802,69.2811109372786,1.933060424334401,1.0882651457654697,A,779.091000000335,Correct
8,108,253,B,61.42469973002491,29.368280613220072,3.071234986501246,0.4613158731152786,B,1714.2507999997179,Correct
8,108,254,B,77.65774482740355,54.275417379240125,3.882887241370178,0.8525562625457029,B,1338.2925999994768,Correct
8,108,255,A,45.28446769078088,53.73316548958149,2.264223384539044,0.844038589780969,B,894.4471999984671,Incorrect
8,108,256,B,67.41703320053078,45.64238025425911,3.3708516600265392,0.7169488324956611,B,1003.4214000006614,Correct
8,108,257,A,14.238708358667257,30.320098689268395,0.7119354179333628,0.4762669964916155,A,501.1028000008082,Correct
8,108,258,B,48.36156565594182,18.14616330654469,2.418078282797091,0.2850392666734073,A,745.2837999990152,Incorrect
8,108,259,A,42.5860577375887,57.970500625884625,2.1293028868794353,0.9105984944560083,B,981.1399999998685,Incorrect
8,108,260,B,68.73808385889139,54.605272658599574,3.4369041929445694,0.85773761715762,B,628.0552000007447,Correct
8,108,261,B,65.00940856978394,43.1128528709023,3.250470428489197,0.6772151092726215,B,661.7277999994258,Correct
8,108,262,B,48.91881393020441,31.342370557899244,2.4459406965102204,0.49232480545392654,A,702.0216999990225,Incorrect
8,108,263,A,36.59967877326652,49.46680250675641,1.829983938663326,0.7770227167590155,A,1067.2911000001477,Correct
8,108,264,B,46.66560400487,31.496918989310814,2.3332802002435,0.49475244653765854,A,1027.0344000000478,Incorrect
8,108,265,A,57.848006655702505,86.46923983345398,2.8924003327851255,1.358255643111365,B,730.2170999992086,Incorrect
8,108,266,B,32.57154762292943,18.0797864878754,1.6285773811464714,0.2839966220439068,A,589.2884000004415,Incorrect
8,108,267,A,27.178393024139616,37.19209200328544,1.3589196512069808,0.584212015045786,B,686.9549000002735,Incorrect
8,108,268,A,18.21419962613669,36.387313406403614,0.9107099813068344,0.5715705824071349,A,544.0631999990728,Correct
8,108,269,B,38.272253794329245,19.449267294061247,1.913612689716462,0.30550837624363525,B,1479.4922000000952,Correct
8,108,270,B,83.08813797155929,56.344623199373,4.154406898577964,0.8850592715621761,B,754.0411000009044,Correct
8,108,271,B,64.43984895320214,36.40365510335813,3.2219924476601074,0.5718272771826325,B,2039.5778999991308,Correct
8,108,272,B,38.37887759573841,19.08890722002824,1.9189438797869203,0.2998478534374894,A,810.640699999567,Incorrect
8,108,273,B,33.93765481693174,19.236874370916706,1.696882740846587,0.30217211600850846,A,1031.344099999842,Incorrect
8,108,274,B,56.34744059481253,24.34885405720531,2.8173720297406266,0.38247090514723114,B,898.3720999985962,Correct
8,108,275,B,40.82113953444133,20.25192387745588,2.0410569767220665,0.31811647637237556,B,822.5277999990794,Correct
8,108,276,A,21.69894598920298,34.243939729170506,1.084947299460149,0.5379025474156686,B,1169.3319999994856,Incorrect
8,108,277,B,49.52199017465507,25.364690378029543,2.4760995087327533,0.3984276247609866,A,707.5476000009076,Incorrect
8,108,278,A,46.824771144175884,53.7218954098511,2.3412385572087944,0.8438615597825374,B,767.9539000000659,Incorrect
8,108,279,A,32.30363174819752,50.76286020629202,1.6151815874098758,0.7973811434964633,B,902.3436999996193,Incorrect
8,108,280,B,75.73459347215014,47.27513321782387,3.786729673607507,0.7425960560729714,B,573.799699999654,Correct
8,108,281,B,50.18436215018856,23.350755926294852,2.509218107509428,0.3667928163690812,A,941.5439000003971,Incorrect
8,108,282,A,54.570020114779766,83.92340912748098,2.7285010057389885,1.3182658278955242,A,697.1281000005547,Correct
8,108,283,B,38.735492683627996,22.366415823736503,1.9367746341813998,0.3513308381949255,A,1409.4533000006777,Incorrect
8,108,284,B,49.41749719936588,26.512137129025717,2.470874859968294,0.4164516761775619,B,569.7414000005665,Correct
8,108,285,A,63.888327270554996,88.55508449467769,3.19441636352775,1.391020014432514,B,790.1840999984415,Incorrect
8,108,286,B,62.49096885767294,52.56936452934818,3.124548442883647,0.8257576470464204,B,589.3613000007463,Correct
8,108,287,A,58.808278382288954,70.02779570111699,2.9404139191144476,1.0999940426085801,A,1132.5479999995878,Correct
8,108,288,A,29.5856085019194,49.7171670999328,1.47928042509597,0.7809554345922253,A,800.4559000000881,Correct
8,108,289,A,23.300485531634482,42.94732396615261,1.165024276581724,0.6746149873170295,A,485.4171999995742,Correct
8,108,290,B,33.34678503950096,16.97751936562194,1.6673392519750478,0.26668225057608164,B,989.4170999996277,Correct
8,108,291,B,84.80502548277431,63.68331061104898,4.240251274138716,1.0003351038597421,B,741.1735000005137,Correct
8,108,292,A,24.971555988346882,36.91624828262054,1.2485777994173441,0.5798790720138876,A,1100.1329000009719,Correct
8,108,293,A,14.264877364227594,34.25644704128081,0.7132438682113798,0.538099011814878,A,793.6504999997851,Correct
8,108,294,A,21.6812800252699,44.122571702759885,1.084064001263495,0.6930757355943966,A,680.2650000008725,Correct
8,108,295,A,36.572573480173666,55.15734379171652,1.8286286740086835,0.866409530237916,B,923.5988000000361,Incorrect
8,108,296,B,83.28012794296151,59.4514645075546,4.164006397148075,0.9338614207104393,B,633.1494999994902,Correct
8,108,297,A,53.59834826085725,66.96317729543905,2.6799174130428627,1.0518551292619107,A,1857.7169999989565,Correct
8,108,298,A,22.321615502467125,51.0648943927316,1.1160807751233564,0.8021254854027211,A,547.1178999996482,Correct
8,108,299,A,51.90493922383325,72.2246610621431,2.5952469611916626,1.1345023230042077,A,1075.9538000002067,Correct
8,108,300,A,40.92740074462263,65.90343285111774,2.0463700372311315,1.0352087024570986,A,923.1426999995165,Correct
8,108,301,A,60.10610819007203,71.12504085498564,3.0053054095036016,1.117229529181484,B,680.9494999997696,Incorrect
8,108,302,B,48.73916608232163,38.13429545524253,2.4369583041160814,0.5990121122600628,B,925.6647000001976,Correct
8,108,303,A,25.215092533282103,53.980940809347665,1.2607546266641052,0.8479306354025604,A,1762.610499999937,Correct
8,108,304,A,65.01583904618805,84.81307220501465,3.2507919523094024,1.3322406228382735,B,862.2434999997495,Incorrect
8,108,305,A,56.352186538410116,66.37377931811994,2.817609326920506,1.0425968874839788,B,894.8247999996966,Incorrect
8,108,306,A,56.46921606315004,72.68393511985298,2.823460803157502,1.1417165830326363,A,720.490300000165,Correct
8,108,307,B,68.01446656358738,46.196544136550976,3.4007233281793687,0.7256536184031259,B,1663.6974000011833,Correct
8,108,308,B,66.08530599814503,34.030625137321934,3.3042652999072515,0.5345518096423937,B,916.1192000010487,Correct
8,108,309,B,65.81760455265291,48.361059309235,3.2908802276326456,0.7596537432285648,A,808.5538000013912,Incorrect
8,108,310,A,20.83195636403611,46.6227391905855,1.0415978182018053,0.7323482746568816,A,587.8948000008677,Correct
8,108,311,B,65.76994481538071,46.606860080231094,3.2884972407690354,0.7320988461747071,B,1038.9310999998997,Correct
8,108,312,B,41.21763756930878,28.218994436733034,2.060881878465439,0.4432629280706587,A,716.7568000004394,Incorrect
8,108,313,A,40.02832208499601,63.10953925794952,2.0014161042498007,0.9913223245210544,B,741.591600000902,Incorrect
8,108,314,A,41.83672511562518,58.00353283239024,2.0918362557812586,0.9111173631424577,A,1073.1663000005938,Correct
8,108,315,A,55.0435520979873,62.42517874863003,2.752177604899365,0.9805724147786289,B,1112.9645999990316,Incorrect
8,108,316,A,49.84516503784527,76.7525962622197,2.4922582518922636,1.205626962806664,A,1437.6642999995966,Correct
8,108,317,A,45.36690366070721,56.31078738164895,2.2683451830353603,0.8845277797802259,A,2294.7538000007626,Correct
8,108,318,A,27.612230515539686,40.09586161884788,1.3806115257769844,0.6298243215056272,B,1275.766000000658,Incorrect
8,108,319,A,32.29695576950921,65.18170444189306,1.6148477884754606,1.023871819115562,A,758.8450999992347,Correct
8,108,320,A,36.3341464595448,47.15483997535403,1.81670732297724,0.7407064942388726,B,1761.3048999992316,Incorrect
8,108,321,A,61.07680700856481,80.29220933708021,3.0538403504282403,1.2612270749693248,B,738.7324000010267,Incorrect
8,108,322,A,69.12915094780234,84.63713604281229,3.4564575473901176,1.329477024064895,B,654.8891000002186,Incorrect
8,108,323,A,58.06574684514361,73.7859083763723,2.9032873422571805,1.159026338468304,A,604.9531000007846,Correct
8,108,324,B,60.51096290919062,40.40825673847571,3.0255481454595308,0.6347314125698277,B,672.5528000006307,Correct
8,108,325,B,48.13529332682248,33.82233400033452,2.406764666341124,0.531279980113556,A,704.6193999995012,Incorrect
8,108,326,A,46.08704558272615,60.029456830200836,2.3043522791363076,0.942940502883723,B,1453.8431000000855,Incorrect
8,108,327,B,44.3339731587778,21.589397657452565,2.21669865793889,0.3391254653804084,B,1138.5824999997567,Correct
8,108,328,A,30.115887191382058,59.431702621899,1.5057943595691028,0.9335510017364557,A,559.2757999984315,Correct
8,108,329,A,63.45514231677972,85.84560989848143,3.1727571158389862,1.3484596870000223,A,1686.180400000012,Correct
8,108,330,B,52.24608854443581,31.7649046089967,2.6123044272217903,0.4989619548080229,B,1200.1154999998107,Correct
8,108,331,A,51.84821987671636,65.35778632018246,2.592410993835818,1.0266377067918835,A,730.6576999999379,Correct
8,108,332,B,54.53816986350806,44.40345089473715,2.726908493175403,0.6974877756247067,A,768.4496000001673,Incorrect
8,108,333,B,63.91332851809276,52.95318090049415,3.195666425904638,0.8317866205060187,B,791.3762999996834,Correct
8,108,334,B,67.51600292272329,54.06388194433593,3.375800146136164,0.8492334717043583,B,1460.614200001146,Correct
8,108,335,B,70.50162201266878,51.953937595578665,3.525081100633439,0.8160905433766624,B,798.0439000002661,Correct
8,108,336,B,57.9975990820181,49.68446016779665,2.899879954100905,0.7804416753036234,B,962.6991000004637,Correct
8,108,337,B,62.84669807715234,33.502242984926845,3.1423349038576167,0.5262520022011318,B,740.687199999229,Correct
8,108,338,A,13.07414384866587,33.64493433402459,0.6537071924332934,0.5284933926714132,A,638.634800001455,Correct
8,108,339,A,34.754506776167645,53.34860180775154,1.7377253388083824,0.8379978775925971,A,1819.0636999988783,Correct
8,108,340,A,26.87513812863307,48.46148908133626,1.3437569064316535,0.7612312903997398,A,1084.4856999992771,Correct
8,108,341,B,38.838811667640215,17.354074354943616,1.9419405833820107,0.27259716251670946,B,1261.049599999751,Correct
8,108,342,B,63.748458110748274,31.16719372830236,3.1874229055374137,0.48957313424922283,A,2830.165400000624,Incorrect
8,108,343,A,30.161005818714195,46.271157762040794,1.5080502909357096,0.7268256464916083,A,642.5809000011213,Correct
8,108,344,A,53.72595512862631,82.01351908753338,2.6862977564313155,1.2882653453022057,A,1597.3749999993743,Correct
8,108,345,B,56.42494742944407,43.90931968062131,2.8212473714722033,0.6897259806638283,A,1814.7857000003569,Incorrect
8,108,346,A,51.443972923859434,73.2542118238971,2.5721986461929713,1.1506744685523285,B,1026.6590000010183,Incorrect
8,108,347,A,67.10344603049425,80.7177334710864,3.3551723015247124,1.26791119243592,B,742.823499998849,Incorrect
8,108,348,A,26.0171867748603,43.03633028086017,1.300859338743015,0.6760130952390713,A,954.9742999988666,Correct
8,108,349,A,44.930277444830786,56.884105488158205,2.246513872241539,0.8935334395381231,A,1299.555199999304,Correct
8,108,350,A,55.63840527485273,81.87129719085448,2.7819202637426366,1.2860313289732754,A,1238.050400001157,Correct
8,108,351,B,53.647025652680504,41.69013410495047,2.6823512826340252,0.6548670951564284,B,874.209300000075,Correct
8,108,352,A,20.357658335978527,49.531392487892205,1.0178829167989263,0.7780372938101741,A,836.1894999998185,Correct
8,108,353,B,58.046947495351915,26.902677424748397,2.9023473747675954,0.4225862687974277,B,1555.072499999369,Correct
8,108,354,B,49.93863356528603,42.897129176994525,2.4969316782643016,0.6738265294126918,B,719.512499999837,Correct
8,108,355,A,20.281501973421864,46.505963689526205,1.0140750986710934,0.730513969375646,A,4936.62630000108,Correct
8,108,356,B,39.682005374441346,22.33076884920197,1.9841002687220675,0.3507708968283235,A,826.0270999999193,Incorrect
8,108,357,A,56.34852191631786,68.74841245241457,2.817426095815893,1.0798975375323332,B,725.6379999998899,Incorrect
8,108,358,B,86.87009588438983,65.0006900623446,4.343504794219491,1.0210284518906443,B,2826.398400000471,Correct
8,108,359,A,28.86085074564335,49.37660104430198,1.4430425372821676,0.7756058355000661,A,503.91469999885885,Correct
8,108,360,B,62.58382063060152,50.94758780175788,3.129191031530076,0.8002828377806176,A,1541.429999999309,Incorrect
8,108,361,A,19.559641350680373,44.753199579813575,0.9779820675340187,0.7029816151229007,A,458.1607999989501,Correct
8,108,362,B,52.8498253592711,31.77333787255957,2.642491267963555,0.49909442420229744,B,2086.586299999908,Correct
8,108,363,B,69.61488524940054,57.20903136754873,3.4807442624700276,0.8986373633163957,B,1992.2458000000915,Correct
8,108,364,B,88.74391795901636,64.32111773754264,4.437195897950818,1.0103537547747405,A,750.3551999998308,Incorrect
8,108,365,A,42.23977372512835,74.71384772520248,2.1119886862564177,1.173602375674613,A,442.2231999997166,Correct
8,108,366,A,36.121240369740924,59.8433462441438,1.8060620184870462,0.9400170846341627,A,1353.7026000012702,Correct
8,108,367,B,86.1489169059865,62.32454069633563,4.307445845299324,0.9789915959498305,B,811.3627000002452,Correct
8,108,368,A,23.612756712393164,38.6206745152788,1.1806378356196583,0.6066521366694122,A,552.8836999983469,Correct
8,108,369,B,82.97658982533581,62.92520368464464,4.14882949126679,0.988426788106605,B,754.2735999995784,Correct
8,108,370,B,68.8230887312279,40.3863502633282,3.441154436561395,0.6343873064628803,B,3597.629300000335,Correct
8,108,371,B,53.00140132120583,21.610600161127635,2.650070066060292,0.33945851352932493,B,1069.6720000014466,Correct
8,108,372,B,69.5464691431417,43.299159544667724,3.4773234571570857,0.6801416076607024,B,790.7900999998674,Correct
8,108,373,B,39.05660388285909,28.86381691355684,1.9528301941429547,0.45339177585095486,A,480.1705000008951,Incorrect
8,108,374,B,48.57205388109265,23.812145387276743,2.4286026940546326,0.37404030507440345,B,606.8166999993991,Correct
8,108,375,A,57.37253241667287,84.53458513126859,2.8686266208336435,1.3278661581132718,A,617.3383000004833,Correct
8,108,376,B,74.16985114556749,51.75116293631789,3.7084925572783742,0.8129053664773231,B,917.7362999998877,Correct
8,108,377,B,32.11806594814179,13.88290403826053,1.6059032974070897,0.21807214668545677,A,554.1608999992604,Incorrect
8,108,378,A,57.29624035187342,83.31720948483361,2.8648120175936707,1.3087436661757754,A,989.208700000745,Correct
8,108,379,A,22.42972644362788,35.52453687059578,1.1214863221813942,0.5580181202742173,A,939.0287999995053,Correct
8,108,380,A,62.53432447651942,81.27896208168033,3.126716223825971,1.2767269508360513,B,775.7375000001048,Incorrect
8,108,381,A,47.1182806191092,67.6553082646209,2.3559140309554603,1.0627270971024292,A,566.6645999990578,Correct
8,108,382,A,30.72004317035202,50.907848527180946,1.5360021585176011,0.7996586147152682,A,1192.600799999127,Correct
8,108,383,B,50.332716566785024,42.71573581398759,2.5166358283392514,0.6709772091295292,B,3803.414599999087,Correct
8,108,384,A,13.033051819804275,36.34836651144751,0.6516525909902137,0.5709588060117637,A,1193.4686000004149,Correct
8,108,385,B,48.29860952653907,36.973616906797965,2.414930476326953,0.5807802162551994,A,912.6921000006405,Incorrect
8,108,386,B,69.4629463036128,59.02216157715158,3.47314731518064,0.9271179460488458,B,738.6688000005961,Correct
8,108,387,A,16.20234519360377,44.20790982472075,0.8101172596801886,0.6944162236795137,A,1075.7297000000108,Correct
8,108,388,B,44.78083441288196,27.22419351629293,2.239041720644098,0.4276366317534638,B,929.3135999996593,Correct
8,108,389,B,51.65223407128252,25.954122957061635,2.582611703564126,0.40768641006135514,B,809.3045000005077,Correct
8,108,390,A,29.641482153209267,60.52325823578249,1.4820741076604633,0.9506971172242612,A,561.5722000002279,Correct
8,108,391,A,48.291175875939224,71.37537772196292,2.414558793796961,1.1211618114925763,B,990.0354000001244,Incorrect
8,108,392,A,43.50195862495176,62.640338432919236,2.175097931247588,0.9839521351961873,A,427.27820000072825,Correct
8,108,393,B,50.82389734111797,40.93753589331452,2.5411948670558986,0.6430453100925269,B,588.7038000000757,Correct
8,108,394,A,34.10781922995296,58.100896742266535,1.705390961497648,0.9126467518624185,A,577.9411000003165,Correct
8,108,395,A,14.5079690024833,41.30382066297275,0.7253984501241649,0.6487988977999275,A,7658.53210000023,Correct
8,108,396,B,49.419004941196576,19.86182233335063,2.470950247059829,0.3119887756468001,B,800.8846000011545,Correct
8,108,397,A,29.45255248158847,62.32974771415293,1.4726276240794234,0.9790733875944402,A,539.7016999995685,Correct
8,108,398,B,35.33798142639524,19.93065196627539,1.7668990713197619,0.3130699489925287,B,1903.2898999994359,Correct
8,108,399,A,25.68078072316068,47.08854198591821,1.284039036158034,0.7396650878560759,A,547.1765000002051,Correct
8,108,400,B,66.45175168848631,43.43010704131561,3.3225875844243156,0.6821985261280774,B,745.5484999991313,Correct
8,108,401,B,67.56775609027196,41.012550157225576,3.3783878045135975,0.6442236313946139,B,437.1614000010595,Correct
8,108,402,A,49.531688505287974,75.6013791515307,2.4765844252643987,1.187543686718527,B,1786.1312000004546,Incorrect
8,108,403,A,46.03627402654436,58.17904852363649,2.301813701327218,0.9138743571735025,A,471.3864999994257,Correct
8,108,404,B,70.9007210088921,45.99157298204709,3.5450360504446055,0.7224339390371897,B,584.5126000003802,Correct
8,108,405,A,64.65302276147594,78.97578284020827,3.232651138073797,1.2405486959115057,A,717.1990999995614,Correct
8,108,406,A,46.77667788912576,70.20871546956474,2.338833894456288,1.1028359236858032,A,577.9306999993423,Correct
8,108,407,B,81.23814299092899,50.81463062552879,4.06190714954645,0.7981943513402009,B,577.1168999999645,Correct
8,108,408,B,54.30428359189796,43.366203211316304,2.7152141795948985,0.681194727113767,A,751.7453999989812,Incorrect
8,108,409,B,83.7768566991221,61.63590640987601,4.188842834956105,0.9681745538730724,B,1295.7681000007142,Correct
8,108,410,A,14.849834893815622,41.2661317747378,0.7424917446907812,0.6482068821279231,A,555.6515999996918,Correct
8,108,411,A,22.412558690832043,51.13500176976385,1.1206279345416021,0.8032267295059561,A,710.4466999990109,Correct
8,108,412,B,64.57847385123566,37.31733972218649,3.228923692561783,0.5861794016136782,A,821.0457999994105,Incorrect
8,108,413,A,32.62386611605094,61.86810086878739,1.6311933058025472,0.9718218559046737,B,688.9446000004682,Incorrect
8,108,414,A,20.5578935579125,36.111280973589125,1.027894677895625,0.5672346750917223,A,488.9483000006294,Correct
8,108,415,A,40.85321080632926,72.8972707549571,2.042660540316463,1.1450676513525968,A,2084.8334999991494,Correct
8,108,416,A,23.73015345261886,54.86971566482762,1.1865076726309431,0.8618914781859164,A,883.4953999994468,Correct
8,108,417,B,51.669850945304105,37.45096282424711,2.5834925472652053,0.5882783483925957,B,1661.9919000004302,Correct
8,108,418,A,14.04883770634174,30.131997459319745,0.7024418853170871,0.4733123092809261,A,494.8514999996405,Correct
8,108,419,B,67.29073872308555,42.40176520334468,3.364536936154278,0.6660453703103348,B,12487.677600000097,Correct
8,108,420,A,65.86143329307595,82.20374859451356,3.293071664653797,1.2912534634103303,A,734.396600000764,Correct
8,108,421,B,35.113696685390565,21.81347941721975,1.7556848342695281,0.34264533343184866,A,601.1285999993561,Incorrect
8,108,422,B,65.30660579712527,46.516679454198524,3.2653302898562635,0.7306822922135068,B,514.5494000007602,Correct
8,108,423,A,40.965832147895995,56.129549475520236,2.0482916073947997,0.881680901407996,A,1379.1216000008717,Correct
8,108,424,A,59.0410859549001,69.6947996675078,2.952054297745005,1.0947633531442742,A,1785.192300001654,Correct
8,108,425,A,31.54470856681047,49.83767772150187,1.5772354283405234,0.7828484110092299,A,640.4010000005655,Correct
8,108,426,A,36.38084968758446,45.013595666673666,1.819042484379223,0.7070719072904167,A,605.9004999988247,Correct
8,108,427,A,22.52876012976435,52.94433396255883,1.1264380064882176,0.831647653129897,A,1999.565400001302,Correct
8,108,428,B,72.28126879994925,40.51723576918616,3.6140634399974623,0.636443251181204,B,773.7095000011323,Correct
8,108,429,B,89.20194313423983,64.97781135527634,4.460097156711992,1.020669074000398,B,1251.2162000002718,Correct
8,108,430,B,83.69900844466792,59.66115137908996,4.184950422233396,0.9371551743862878,B,453.47019999826443,Correct
8,108,431,A,24.825530062655012,57.5695819264915,1.2412765031327506,0.904300878252507,A,451.5627000000677,Correct
8,108,432,A,30.049053586376246,53.665151095523704,1.5024526793188124,0.8429702221774176,A,751.1501999997563,Correct
8,108,433,A,52.98644806625023,65.57110852041238,2.6493224033125116,1.029988564077333,A,1402.735900001062,Correct
8,108,434,A,41.39433842861269,55.826277383811544,2.0697169214306346,0.8769171145312418,A,401.6745999997511,Correct
8,108,435,B,46.97495613040436,30.02315731309765,2.348747806520218,0.4716026522619912,B,1029.828999999154,Correct
8,108,436,B,60.50311468432791,33.801310849217494,3.0251557342163955,0.5309497492280332,B,660.1976999991166,Correct
8,108,437,B,40.21414927239411,30.160282549261616,2.0107074636197053,0.47375661043476364,A,3424.873400001161,Incorrect
8,108,438,A,37.46449471075228,45.27879787231802,1.8732247355376137,0.7112376937952574,A,1004.8181000001932,Correct
8,108,439,B,69.7755764231735,39.398401582927086,3.488778821158675,0.618868644880521,B,448.9212000007683,Correct
8,108,440,B,41.80667568860329,32.769460392003666,2.0903337844301646,0.5147414801481022,B,850.0822999994853,Correct
8,108,441,B,48.73875054115421,34.2773749888123,2.4369375270577107,0.5384277472459762,B,1785.7936000000336,Correct
8,108,442,A,32.69740992731173,51.918662496475314,1.6348704963655865,0.8155364434156738,A,586.119300000064,Correct
8,108,443,A,46.126529770380685,64.89798378207848,2.306326488519034,1.0194151454128366,A,1026.3802999998006,Correct
8,108,444,B,73.53109327206339,48.80294961764007,3.6765546636031696,0.7665949399614542,B,651.2411999992764,Correct
8,108,445,A,30.735837439292737,50.44220383774778,1.536791871964637,0.7923442850377366,A,743.1280000000697,Correct
8,108,446,A,35.86349334254693,60.38887225745997,1.7931746671273465,0.9485861872130437,A,734.3184000001202,Correct
8,108,447,B,51.72565287434283,27.81709276322317,2.586282643717141,0.43694987134583857,A,827.0204000000376,Incorrect
8,108,448,B,46.2419318127328,30.615488612727795,2.31209659063664,0.480906970559038,A,1683.0266999986634,Incorrect
8,108,449,B,42.34655212849796,28.639975772796724,2.1173276064248983,0.4498756874340393,B,807.4777000001632,Correct
8,108,450,B,55.84280198085276,28.05842850615568,2.7921400990426384,0.44074076433106557,B,867.9019000010157,Correct
8,108,451,B,67.91041668935105,42.349257196951875,3.3955208344675527,0.6652205764746434,B,1094.68040000138,Correct
8,108,452,A,41.508351129293565,56.07330438765902,2.075417556464678,0.8807974056338693,A,566.4163000001281,Correct
8,108,453,B,66.97256435592257,47.43049300460578,3.348628217796129,0.7450364418970578,B,579.7034000006533,Correct
8,108,454,B,85.71268153840865,68.52194136486966,4.285634076920433,1.0763401380079254,B,8862.451400000282,Correct
8,108,455,B,43.09967963036182,33.28769747355511,2.1549839815180913,0.5228819291892013,A,483.79019999993034,Incorrect
8,108,456,A,17.048964710418208,34.48941785904985,0.8524482355209103,0.5417585088628981,A,898.9529999998922,Correct
8,108,457,A,48.04192109985325,66.19648687984292,2.4020960549926627,1.0398119843758382,B,2177.6011000001745,Incorrect
8,108,458,B,47.72693189610156,19.51177190934531,2.386346594805078,0.3064901964445946,B,1044.9169999992591,Correct
8,108,459,A,16.504794170732914,36.61042464795047,0.8252397085366456,0.5750752055940194,A,459.83200000046054,Correct
8,108,460,B,88.7607618927295,68.04711682566005,4.438038094636475,1.0688816115873,B,1260.7024000008096,Correct
8,108,461,A,38.711439742075385,56.26014274415721,1.9355719871037693,0.8837322556747871,A,1015.4590999991342,Correct
8,108,462,B,38.004922616394424,25.862937440919048,1.9002461308197212,0.40625407132321834,B,838.107300000047,Correct
8,108,463,B,84.58661311343492,62.49945106029992,4.229330655671746,0.9817390815221653,B,547.3789000006946,Correct
8,108,464,B,75.41200048522013,54.30479833646062,3.7706000242610065,0.8530177775424996,B,628.1878000008874,Correct
8,108,465,A,64.77413663019065,80.29919071207733,3.2387068315095324,1.2613367381513396,A,3861.0532999991847,Correct
8,108,466,B,41.45730777849124,13.551281263259266,2.072865388924562,0.2128630283169216,B,732.2515000014391,Correct
8,108,467,B,72.82638209343018,62.54489110220618,3.6413191046715094,0.9824528520313227,A,855.0266000002011,Incorrect
8,108,468,A,23.92802409987883,56.36759093458732,1.1964012049939414,0.8854200479032707,A,526.2576000004628,Correct
8,108,469,B,32.87975219658386,13.401720747195348,1.643987609829193,0.21051373722425407,A,764.0240999990056,Incorrect
8,108,470,B,60.50738288890211,50.31617764124236,3.0253691444451056,0.7903646701722301,B,1328.1795999992028,Correct
8,108,471,A,28.273181707203705,60.311059576930404,1.4136590853601854,0.9473639084855046,A,516.6195999991032,Correct
8,108,472,A,59.32597329268893,69.17816573870736,2.9662986646344462,1.0866480863677008,A,1872.222599999077,Correct
8,108,473,A,39.106084488027925,64.455360931957,1.9553042244013963,1.0124624419415733,B,1070.8737000004476,Incorrect
8,108,474,B,64.22540331321268,36.699599146251636,3.211270165660634,0.5764759553377719,B,732.935300000463,Correct
8,108,475,A,29.0166014844854,48.99749345563189,1.45083007422427,0.7696508274226355,A,481.951099998696,Correct
8,108,476,A,25.79122630204821,57.89738841280121,1.2895613151024106,0.9094500504984554,A,729.4062000000849,Correct
8,108,477,B,43.28332818586213,33.633374548359875,2.1641664092931068,0.5283118119828066,B,795.1138999997056,Correct
8,108,478,B,44.47453989370069,31.69124985363875,2.2237269946850344,0.49780498861635053,B,614.1289999995934,Correct
8,108,479,B,63.718768526304075,38.67066042304952,3.1859384263152037,0.6074373134725896,B,906.0045999995054,Correct
8,108,480,A,34.50051474394414,66.29470843325369,1.7250257371972069,1.0413548449289354,A,790.1911000008113,Correct
8,108,481,B,47.79058117437437,21.565486376488227,2.3895290587187183,0.3387498678573309,B,691.1638999990828,Correct
8,108,482,B,73.25117277452507,52.45548635275087,3.6625586387262534,0.8239688528314087,B,525.6578000007721,Correct
8,108,483,B,49.03421877253287,18.553284142744445,2.4517109386266434,0.2914343058140498,B,901.6876999994565,Correct
8,108,484,A,58.446955603897905,72.1475057915817,2.922347780194895,1.1332903708483006,A,829.7081000000617,Correct
8,108,485,A,45.86358917034959,68.49415847914896,2.29317945851748,1.0759037254595472,A,457.29540000138513,Correct
8,108,486,A,49.03627322212534,57.133062298090046,2.451813661106267,0.8974440439638383,A,562.1430999999575,Correct
8,108,487,A,33.56998335187963,65.51069570869946,1.6784991675939813,1.029039601850033,A,899.5334000010189,Correct
8,108,488,A,51.434637480665444,61.39839993840932,2.571731874033272,0.9644438109433736,A,827.2810000016761,Correct
8,108,489,B,68.58063619452756,57.060050332987345,3.4290318097263777,0.8962971746978844,B,658.7487999986479,Correct
8,108,490,A,18.494065776819124,36.04569181725388,0.9247032888409562,0.5662044030332326,A,497.92560000059893,Correct
8,108,491,A,50.3891445557912,80.2806370897575,2.51945722778956,1.2610452985334522,A,868.171699999948,Correct
8,108,492,A,37.59126945729415,53.032826326730294,1.8795634728647075,0.8330376879357962,A,503.21770000118704,Correct
8,108,493,B,70.43598884426405,59.292283280314585,3.521799442213202,0.9313610078400062,B,823.774800001047,Correct
8,108,494,B,36.08153214203494,13.736980567418463,1.8040766071017469,0.21577998616553798,A,1428.4655999999814,Incorrect
8,108,495,A,55.420629013856534,63.349413004847975,2.771031450692827,0.9950902525262805,B,614.440299999842,Incorrect
8,108,496,A,10.616476160077443,32.64865118434362,0.5308238080038721,0.5128438135517481,A,521.7644999993354,Correct
8,108,497,A,28.51397956121222,45.04111560888562,1.425698978060611,0.7075041895318182,A,567.5855999998021,Correct
8,108,498,A,58.03992129807128,74.71556893566816,2.9019960649035634,1.1736294123853843,B,784.4206000008853,Incorrect
8,108,499,B,74.04436366611348,53.39133870734804,3.7022181833056744,0.8386691872416447,B,589.6905000008701,Correct
8,108,500,A,46.9824419329676,63.19737844086622,2.3491220966483803,0.9927020991797963,A,1162.9494999997405,Correct
8,108,501,A,42.45880879648622,61.6430983946803,2.1229404398243106,0.9682875253062021,A,967.1017000000575,Correct
8,108,502,B,41.886793077116494,19.32937005525221,2.0943396538558248,0.30362503482049435,B,1035.7956000007107,Correct
8,108,503,A,27.716816350358396,44.50588880431779,1.3858408175179198,0.699096866545645,A,535.9491999988677,Correct
8,108,504,A,32.36175495498234,63.637325505269075,1.618087747749117,0.9996127715072785,B,1353.3442999996623,Incorrect
8,108,505,A,39.20088739700192,57.73906512481525,1.960044369850096,0.9069631141063111,A,546.471499999825,Correct
8,108,506,B,53.948239916455925,29.353142867620292,2.6974119958227964,0.4610780899634377,B,990.6446000004507,Correct
8,108,507,A,18.47052551857544,43.245080161974926,0.923526275928772,0.6792921307038107,A,626.5077000007295,Correct
8,108,508,A,45.40927652281217,60.38162804806162,2.2704638261406087,0.9484723954379088,A,2163.6349000000337,Correct
8,108,509,B,44.06641748517302,32.33955813598958,2.203320874258651,0.5079885913018244,B,857.1826000006695,Correct
8,108,510,B,52.165953342941975,35.467938824904806,2.6082976671470988,0.5571290802514657,B,1701.618099999905,Correct
8,108,511,A,48.452220321849815,78.88617194795467,2.4226110160924907,1.2391410913075782,A,694.7227000000566,Correct
8,108,512,A,11.52714332537813,37.04189264586218,0.5763571662689065,0.581852689056512,A,526.2029000004986,Correct
8,108,513,A,57.79513304687156,77.55460317788828,2.889756652343578,1.2182248579786272,A,864.1415000001871,Correct
8,108,514,A,54.360640560771444,72.48731360152026,2.7180320280385724,1.1386280594449778,A,627.7327000007062,Correct
8,108,515,B,79.90551279812064,52.08664095985115,3.995275639906032,0.8181750429481879,B,2203.469899999618,Correct
8,108,516,B,59.8873011165905,36.867727035302096,2.994365055829525,0.5791169020432944,A,683.7622999992163,Incorrect
8,108,517,B,54.646115425214575,27.136774605396273,2.732305771260729,0.426263458712175,A,567.3930000011751,Incorrect
8,108,518,A,46.92362082785072,62.93993463786047,2.346181041392536,0.988658181378621,B,812.3596999994334,Incorrect
8,108,519,B,68.62455369246796,48.20364809378383,3.4312276846233978,0.7571811336382948,B,488.25639999995474,Correct
8,108,520,B,39.36787425946237,23.764350629464673,1.9683937129731186,0.3732895467742909,A,517.5089000003936,Incorrect
8,108,521,B,49.77897883589314,35.19895366303858,2.488948941794657,0.5529038712092477,B,953.6643999999797,Correct
8,108,522,A,13.895975860737533,40.835193242129776,0.6947987930368766,0.6414377154869724,A,495.4847000008158,Correct
8,108,523,A,36.16627872843795,46.35657286083258,1.8083139364218976,0.7281673437259581,A,1084.7405000004073,Correct
8,108,524,B,51.7604302646984,29.41093338654811,2.5880215132349202,0.46198586131199154,B,774.12970000114,Correct
8,108,525,B,67.24157078988648,59.185244557811814,3.3620785394943242,0.9296796475186844,B,1206.6983999993681,Correct
8,108,526,B,52.48482103034068,44.50600904584982,2.6242410515170342,0.6990987552952135,B,591.5538999997807,Correct
8,108,527,B,34.82962660102237,16.488444031950824,1.7414813300511185,0.2589998731995159,A,764.8067999998602,Incorrect
8,108,528,B,43.221051204787365,18.965526722983036,2.161052560239368,0.29790979712192206,B,754.8699999988457,Correct
8,108,529,B,38.545926560900476,14.673267024352398,1.927296328045024,0.23048713943933427,B,629.6750999990763,Correct
8,108,530,B,67.32428233538981,56.13359191274594,3.3662141167694903,0.8817443998634503,B,687.3438999991777,Correct
8,108,531,B,73.1621063107892,61.809992815493835,3.6581053155394603,0.9709090967379665,B,561.0261999991053,Correct
8,108,532,A,17.905061623032555,31.492034797150435,0.8952530811516277,0.49467572582660974,A,495.6707000001188,Correct
8,108,533,B,46.68897189108826,18.507385509714066,2.334448594554413,0.2907133317723595,B,1306.4264000004187,Correct
8,108,534,B,61.870381968625686,50.86233162464444,3.0935190984312846,0.7989436368821539,B,937.6240999990841,Correct
8,108,535,B,75.41014880048002,48.09385434167199,3.7705074400240006,0.7554564974130716,B,697.0946000001277,Correct
8,108,536,A,69.56258322216637,85.16142297122339,3.4781291611083187,1.3377125038782423,B,591.7102000003069,Incorrect
8,108,537,A,56.93844859661617,76.00788688216241,2.8469224298308085,1.1939290952194272,A,618.225899999743,Correct
8,108,538,A,37.04861003470595,63.06306863655756,1.8524305017352976,0.9905923657071904,A,518.9222999997583,Correct
8,108,539,A,50.29592164355545,61.72220190324456,2.5147960821777726,0.9695300803130953,A,614.4124999991618,Correct
8,108,540,B,58.78643268393175,38.23519708401672,2.9393216341965878,0.6005970713385239,B,1728.9018999999826,Correct
8,108,541,B,55.46259979814144,34.694055043849694,2.7731299899070723,0.5449729422449905,A,1352.3356999994576,Incorrect
8,108,542,A,18.039687370905234,46.22830108127868,0.9019843685452616,0.7261524553244111,A,1147.9749999998603,Correct
8,108,543,A,28.29919809682324,45.680926913855025,1.4149599048411619,0.7175543220086958,A,481.796399999439,Correct
8,108,544,A,63.42431103111455,77.78111535425745,3.1712155515557274,1.221782902924777,B,636.5745000002789,Incorrect
8,108,545,B,49.31147814665938,26.723321577470344,2.465573907332969,0.41976895373649215,A,712.1817000006558,Incorrect
8,108,546,B,46.88301267924483,28.881309736874176,2.3441506339622413,0.45366655247707627,B,519.0856000008353,Correct
8,108,547,A,44.26057484063586,57.550039966654076,2.213028742031793,0.9039939138651971,A,612.9130999997869,Correct
8,108,548,B,41.263390241604775,20.897257370352094,2.063169512080239,0.3282533511743665,A,698.9985999989585,Incorrect
8,108,549,A,65.59387566940373,88.76311635897537,3.279693783470186,1.394287771315465,B,496.25170000035723,Incorrect
