subject,day,trial,cat,x,y,xt,yt,resp,rt,fb
3,203,0,A,28.150294187841602,50.08275676390596,1.4075147093920801,0.7866981036050575,A,710.9135999999125,Correct
3,203,1,A,62.74659297160096,77.02566012656257,3.137329648580048,1.2099162399575663,B,527.2461000004114,Incorrect
3,203,2,A,16.868568766891936,34.06960473776162,0.8434284383445969,0.5351640997742997,A,512.4081000012666,Correct
3,203,3,B,84.47697187137226,61.20438789947521,4.223848593568613,0.9613962769622566,B,418.91709999981686,Correct
3,203,4,A,35.82107151473699,62.53074653488417,1.7910535757368495,0.9822306696873876,A,472.14180000082706,Correct
3,203,5,A,61.60030738017503,74.10147358224789,3.080015369008752,1.1639832251308406,B,626.6365999999834,Incorrect
3,203,6,A,69.30192925237489,85.10916269102829,3.465096462618744,1.336891601316565,A,666.4104000010411,Correct
3,203,7,B,77.72351669397857,46.874883588726426,3.8861758346989284,0.7363089496010986,B,554.9628000007942,Correct
3,203,8,A,36.14149936066544,51.0691204304966,1.8070749680332723,0.8021918678487028,A,684.380599999713,Correct
3,203,9,B,71.07144827429687,45.63036937112802,3.5535724137148437,0.7167601659846223,B,483.5777999996935,Correct
3,203,10,B,42.47728897377157,14.255374054787396,2.1238644486885785,0.22392289202347312,B,1187.5901000003068,Correct
3,203,11,B,78.19749336448581,47.7302665479024,3.9098746682242904,0.7497452737038642,B,510.90839999960735,Correct
3,203,12,A,23.01979934294129,40.60597047455507,1.1509899671470647,0.6378370926737313,A,462.3778000004677,Correct
3,203,13,B,52.05203795509799,31.346609414577156,2.6026018977548997,0.49239138925892123,B,429.30080000041926,Correct
3,203,14,A,34.07244573483583,48.8701050778072,1.7036222867417916,0.7676498154630017,B,1020.2135999988968,Incorrect
3,203,15,B,63.239076007576806,34.221935180431416,3.1619538003788406,0.5375569007723471,B,408.66749999986496,Correct
3,203,16,A,18.286406318422266,49.03916432352016,0.9143203159211133,0.7703053918847682,A,480.40599999876576,Correct
3,203,17,A,42.48088345430112,52.911073368964175,2.124044172715056,0.831125196947442,B,890.3585000007297,Incorrect
3,203,18,A,33.99163158276942,49.6602215627596,1.6995815791384712,0.780060936186035,A,668.8665000001492,Correct
3,203,19,B,74.73183351505193,58.37437449885084,3.7365916757525963,0.9169425304174458,B,469.6674000006169,Correct
3,203,20,A,43.71688657192607,67.23879649285286,2.1858443285963034,1.0561845454908283,A,572.0564999992348,Correct
3,203,21,A,46.401525118394886,54.59499854578646,2.3200762559197443,0.8575762317709409,B,589.1460000002553,Incorrect
3,203,22,A,22.042432991028463,45.945401805682394,1.1021216495514232,0.7217086838948151,A,439.3890999999712,Correct
3,203,23,B,51.396841186904915,43.10942297474956,2.569842059345246,0.6771612325898413,B,442.7276000005804,Correct
3,203,24,B,35.01016924863423,21.76688963462723,1.7505084624317113,0.3419135028382236,B,512.521900000138,Correct
3,203,25,A,51.46379821739768,60.31443067132222,2.5731899108698837,0.9474168615123841,B,610.7871000003797,Incorrect
3,203,26,B,36.86405660665218,24.1609790324323,1.843202830332609,0.3795197711591317,B,613.5106000001542,Correct
3,203,27,A,61.325593082212336,76.03640455053805,3.0662796541106165,1.1943770497067592,A,810.5472999995982,Correct
3,203,28,B,71.9430859494273,53.26051514179306,3.597154297471365,0.836614215479325,B,426.81229999834613,Correct
3,203,29,B,42.643469952967735,21.959424531454086,2.132173497648387,0.3449378339253782,B,451.39039999958186,Correct
3,203,30,A,33.930920664889925,44.14289021931102,1.6965460332444962,0.6933948981060412,B,908.485699999801,Incorrect
3,203,31,A,40.43268523506644,71.67770105260978,2.021634261753322,1.1259106952654214,A,538.8812000001053,Correct
3,203,32,B,52.00508894595811,42.025515809715685,2.6002544472979054,0.6601352586556226,B,534.5072999989497,Correct
3,203,33,A,43.89342838019347,63.73300376614321,2.1946714190096737,1.0011156821146308,B,639.8681999999098,Incorrect
3,203,34,A,16.147163270213877,45.0963659051371,0.8073581635106939,0.7083720591558796,A,368.97339999995893,Correct
3,203,35,B,85.74003619798731,57.60983786940728,4.287001809899365,0.9049332171251449,B,567.352000000028,Correct
3,203,36,B,49.35836933134578,28.638085254913236,2.467918466567289,0.449845991248568,B,788.8760000005277,Correct
3,203,37,B,80.0061261461436,62.70872297166887,4.000306307307181,0.985026317018962,B,505.8886999995593,Correct
3,203,38,A,59.16056900436514,76.41660152430629,2.958028450218257,1.2003491698052962,A,765.2125000004162,Correct
3,203,39,A,23.455268875234797,47.725068254482686,1.1727634437617398,0.7496636191017712,A,498.17430000075547,Correct
3,203,40,A,36.01477942895581,46.9799846727122,1.8007389714477906,0.7379598735677686,A,1528.0013999999937,Correct
3,203,41,A,16.3725843786747,39.92489416469763,0.818629218933735,0.6271387710158204,A,478.6518000000797,Correct
3,203,42,B,31.218596969725777,14.46733746890467,1.5609298484862888,0.22725240554657633,A,844.4579999995767,Incorrect
3,203,43,A,41.96883303953743,70.09246694286333,2.0984416519768714,1.1010098960984243,A,670.6830999992235,Correct
3,203,44,A,31.54574410436127,48.7894950806204,1.5772872052180633,0.7663835965881619,A,474.00220000054105,Correct
3,203,45,A,59.07441698083258,85.7902636445597,2.9537208490416287,1.3475903100764013,A,710.7048999987455,Correct
3,203,46,A,37.84169545151474,59.503915463683356,1.8920847725757368,0.9346853184026788,A,445.0624000000971,Correct
3,203,47,A,39.82024308774732,63.38134083248114,1.991012154387366,0.9955917736699677,A,1605.6177999998908,Correct
3,203,48,A,58.439795743910594,72.66219421505095,2.92198978719553,1.141375077698594,A,819.183300000077,Correct
3,203,49,B,77.16305184354422,48.075298755269046,3.8581525921772113,0.7551650269434388,B,470.2123000006395,Correct
3,203,50,B,50.18838017276261,37.20520214297345,2.5094190086381305,0.5844179486384431,B,827.1956000007776,Correct
3,203,51,A,55.83443296531498,75.62868750792433,2.791721648265749,1.1879726453776662,A,651.809000000867,Correct
3,203,52,B,51.73302285706779,41.000156062703915,2.5866511428533894,0.6440289454131283,B,526.5619000001607,Correct
3,203,53,A,54.12115588763109,76.30038830344284,2.7060577943815542,1.1985236968007231,A,771.2756999990233,Correct
3,203,54,B,80.72912792411469,49.46366295604051,4.036456396205734,0.7769734008116923,B,452.93539999875065,Correct
3,203,55,B,32.83352931780543,19.509050396164096,1.6416764658902714,0.30644744701551085,A,610.4807000010624,Incorrect
3,203,56,A,25.962098311018092,50.20231039378716,1.2981049155509046,0.7885760476317814,A,462.6189999999042,Correct
3,203,57,B,81.0901395925805,59.80218439831349,4.054506979629025,0.939370515871819,B,431.7659000007552,Correct
3,203,58,A,15.155395786961417,41.099159365243295,0.7577697893480709,0.6455840856528224,A,381.5561000010348,Correct
3,203,59,B,74.23447697112168,49.289604346080644,3.711723848556084,0.7742392945599724,B,443.6418000004778,Correct
3,203,60,B,57.16054685895555,49.37505731081589,2.858027342947777,0.7755815865911709,B,482.2844999998779,Correct
3,203,61,A,59.010147826603344,77.16462124216079,2.950507391330167,1.2120990360570563,A,636.5030000015395,Correct
3,203,62,A,46.03227490330893,69.09786924053515,2.3016137451654464,1.085386791923867,A,505.2066999996896,Correct
3,203,63,B,64.20977445256439,52.18602101963306,3.2104887226282193,0.8197361012768087,B,508.01829999909387,Correct
3,203,64,B,61.86165083325406,33.43840139754354,3.0930825416627035,0.5252491808915472,B,536.1629999988509,Correct
3,203,65,A,53.251820601046994,83.51230524837848,2.66259103005235,1.3118082232632708,A,604.2861999994784,Correct
3,203,66,A,31.52835943622109,49.470193244483596,1.5764179718110547,0.7770759783426854,A,560.9960000001593,Correct
3,203,67,B,57.819376084279774,43.4880574238346,2.8909688042139887,0.6831088086080491,B,438.5323000005883,Correct
3,203,68,A,33.757198092781756,45.04611548540758,1.6878599046390876,0.7075827274085694,A,497.0357999991393,Correct
3,203,69,B,75.03051127244008,50.46592378895737,3.751525563622004,0.7927168771600542,B,442.14350000038394,Correct
3,203,70,B,34.45934858493766,12.519280371385541,1.7229674292468828,0.19665239621487854,A,614.3128000003344,Incorrect
3,203,71,B,59.868567413386266,48.42243916046921,2.993428370669313,0.760617895677144,B,1667.2976999998355,Correct
3,203,72,B,60.8740667476898,42.69397657357253,3.04370333738449,0.6706354157803509,B,638.3505000012519,Correct
3,203,73,B,52.191480703499984,20.808811954921953,2.609574035174999,0.32686405383757133,B,515.9161999999924,Correct
3,203,74,B,47.959019590621494,19.92978400628115,2.3979509795310747,0.3130563151088211,B,496.6280000007828,Correct
3,203,75,B,59.84192049749724,31.30629621542982,2.9920960248748623,0.4917581510075014,B,480.9002000001783,Correct
3,203,76,A,37.06858441465772,48.341452046502255,1.853429220732886,0.7593457530657738,A,566.1474000007729,Correct
3,203,77,B,78.02138931582024,47.778647617335864,3.901069465791012,0.750505241765389,B,492.5290000010136,Correct
3,203,78,B,45.6089041494889,21.463397365166784,2.280445207474445,0.3371462574174325,B,840.6753999988723,Correct
3,203,79,B,63.59960362485721,55.00128501881372,3.1799801812428603,0.8639581647655176,B,827.1813999999722,Correct
3,203,80,B,65.99701639625735,45.81565708825448,3.299850819812867,0.7196706586392471,B,585.8114999991813,Correct
3,203,81,B,78.58334539857175,60.12516041626954,3.9291672699285876,0.9444438112983011,B,489.54869999943185,Correct
3,203,82,B,60.69485816192148,42.9575139705749,3.034742908096074,0.6747750515321952,B,474.9568999995972,Correct
3,203,83,B,60.5045561932691,43.561692774406616,3.025227809663455,0.6842654699900569,B,452.8897000000143,Correct
3,203,84,A,31.602356888166902,44.18454694361273,1.580117844408345,0.6940492404012355,A,510.81410000006144,Correct
3,203,85,B,86.391449333271,68.78947490144907,4.3195724666635495,1.0805425449734594,B,543.966499999442,Correct
3,203,86,B,47.43091515743241,35.00574333071814,2.371545757871621,0.54986893040617,A,790.6027999997605,Incorrect
3,203,87,A,30.49508785436346,53.232083303343025,1.5247543927181733,0.8361676092053116,A,511.9797999996081,Correct
3,203,88,B,33.44229657629318,13.164664828598326,1.6721148288146592,0.20679007156248216,A,1115.2988000012556,Incorrect
3,203,89,B,79.55563930696619,60.841068706595664,3.9777819653483095,0.9556892724259639,B,709.8188000018126,Correct
3,203,90,B,76.39487102695566,51.59656554203397,3.819743551347783,0.810476956286591,B,485.3034999996453,Correct
3,203,91,A,29.11187042616374,43.93893132584896,1.455593521308187,0.6901911192993677,A,376.90309999925375,Correct
3,203,92,B,74.31860305504026,61.35935207766661,3.715930152752013,0.9638304485811351,B,470.727199999601,Correct
3,203,93,B,81.07175711299713,57.337750995065036,4.053587855649857,0.9006592864972859,B,473.1873999990057,Correct
3,203,94,A,59.27769992535168,69.49144792015728,2.963884996267584,1.0915691113664192,B,1071.2937000007514,Incorrect
3,203,95,A,56.00293772076908,72.96509723574566,2.800146886038454,1.1461330672214176,A,913.2503999990149,Correct
3,203,96,A,20.830157354240782,39.85062253241839,1.041507867712039,0.6259721149441274,A,575.8615999984613,Correct
3,203,97,B,35.73585073183189,23.978901219135896,1.7867925365915942,0.37665969955596335,B,632.1954000013648,Correct
3,203,98,B,41.669913607224245,27.43900364147145,2.0834956803612124,0.43101086130935146,A,610.6796000003669,Incorrect
3,203,99,A,44.5601738136912,62.1049881629036,2.2280086906845598,0.9755428728192952,A,559.0831999998045,Correct
3,203,100,A,61.622727965719086,75.44325711599194,3.0811363982859543,1.1850599115924307,A,938.7002000003122,Correct
3,203,101,B,56.99716200564638,47.139287773977344,2.849858100282319,0.7404622008309119,B,538.456899999801,Correct
3,203,102,A,52.07855749354399,72.02019200940467,2.603927874677199,1.1312905306343601,A,680.8116000011069,Correct
3,203,103,A,31.6511413893534,45.730669470640066,1.5825570694676698,0.7183356762635295,A,1129.9508000010974,Correct
3,203,104,B,34.52348484825238,15.425295855278438,1.7261742424126192,0.24229998069195915,A,715.8779000001232,Incorrect
3,203,105,A,38.020730600051074,60.12477632754638,1.9010365300025538,0.9444377780467461,A,828.72640000096,Correct
3,203,106,A,24.48502682245411,42.884145247878905,1.2242513411227054,0.6736225783310701,A,562.2353000017029,Correct
3,203,107,B,59.22029772729366,27.49224730810907,2.9610148863646835,0.4318472108691462,B,545.7160999994812,Correct
3,203,108,A,20.066335435239132,36.25263602551621,1.0033167717619564,0.569455075055132,A,400.66029999979946,Correct
3,203,109,A,43.19030370306741,54.228919885890605,2.1595151851533703,0.8518258816281169,B,1672.3902000012458,Incorrect
3,203,110,A,32.79373002404721,44.67607298895007,1.6396865012023603,0.7017701134666348,A,530.0764000003255,Correct
3,203,111,A,14.774936703659638,35.86384449303982,0.7387468351829818,0.5633479519441033,A,454.500799998641,Correct
3,203,112,B,41.0364032719946,32.386663611780975,2.05182016359973,0.5087285223852749,B,756.5873999992618,Correct
3,203,113,A,49.91747430171749,76.72742162722443,2.4958737150858745,1.2052315205648745,A,852.6053000005049,Correct
3,203,114,B,81.77513209956408,53.2795711909048,4.088756604978204,0.8369135471988045,B,517.9772999999841,Correct
3,203,115,B,77.7977820675748,49.852553219914164,3.8898891033787404,0.7830820747918826,B,532.6570000015636,Correct
3,203,116,B,64.90470745758051,48.534470791306006,3.2452353728790255,0.7623776844191766,B,406.298699999752,Correct
3,203,117,A,38.10297668584255,55.540927091752394,1.9051488342921274,0.8724348426250782,A,898.4651000009762,Correct
3,203,118,B,59.497418156183286,33.40772304835692,2.9748709078091644,0.5247672865094025,B,485.53159999937634,Correct
3,203,119,A,24.535722650942702,40.652985880951235,1.2267861325471352,0.6385756089504299,A,435.5819000011252,Correct
3,203,120,B,35.130470183359684,16.618224515169096,1.756523509167984,0.2610384602628052,B,844.986299998709,Correct
3,203,121,A,40.84524774184524,72.1640892148681,2.0422623870922623,1.1335508626521402,A,506.80780000038794,Correct
3,203,122,A,52.900686451095154,74.67341561941443,2.645034322554758,1.1729672696420483,A,757.3173999990104,Correct
3,203,123,A,18.32360100299105,35.07337335607133,0.9161800501495526,0.5509312603602284,A,536.1109999994369,Correct
3,203,124,B,57.139265727633635,30.9156701819072,2.8569632863816814,0.4856222116214234,B,479.8415000004752,Correct
3,203,125,A,27.841002803096067,51.94496561440877,1.3920501401548036,0.815949611826005,A,495.8540000006906,Correct
3,203,126,A,14.855199060243415,42.55297852104031,0.7427599530121708,0.6684206235503225,A,435.7042999999976,Correct
3,203,127,A,26.288923477637216,41.74808124844907,1.314446173881861,0.655777326757987,A,561.2307000010333,Correct
3,203,128,B,30.15706674797827,13.403437826116289,1.5078533373989134,0.2105407090368724,B,1447.9035000003933,Correct
3,203,129,A,61.29776763568525,71.6244250767555,3.0648883817842627,1.1250738381936383,A,625.5617999995593,Correct
3,203,130,B,37.57667382640224,17.927680172582825,1.878833691320112,0.28160734163046797,B,724.610200000825,Correct
3,203,131,A,52.16634288496823,79.94799270161658,2.6083171442484114,1.2558201327032454,A,547.2737000000052,Correct
3,203,132,A,56.57785112885054,79.72568706751692,2.828892556442527,1.2523281639685495,A,620.9404999990511,Correct
3,203,133,B,65.46174250553594,51.011703796916294,3.273087125276797,0.8012899694774538,B,481.9059000001289,Correct
3,203,134,B,37.256356523739626,17.009817047957785,1.8628178261869812,0.267189581383853,B,472.82169999925827,Correct
3,203,135,A,21.35476263653517,51.02984906659792,1.0677381318267585,0.8015749947070998,A,423.7269999994169,Correct
3,203,136,A,54.894344827513336,75.31653062715435,2.744717241375667,1.1830692965606937,A,554.4902000001457,Correct
3,203,137,A,64.75470880059245,79.14914544751991,3.2377354400296223,1.2432718693791929,A,605.5605999990803,Correct
3,203,138,B,34.35020494714869,22.269125848517298,1.7175102473574344,0.3498026108378426,B,669.2927000003692,Correct
3,203,139,A,55.556739159235605,69.18127727481114,2.77783695796178,1.0866969622625258,A,622.4323000005825,Correct
3,203,140,A,36.45321886956094,67.2828174315648,1.8226609434780472,1.0568760247791362,A,457.47730000039155,Correct
3,203,141,A,49.76572336457511,73.2427197470143,2.4882861682287554,1.150493951430781,B,863.8430000009976,Incorrect
3,203,142,A,66.40038907500983,88.07012641491811,3.3200194537504912,1.3834023107291555,A,645.3996000000188,Correct
3,203,143,B,52.96850997176192,45.12013622082274,2.648425498588096,0.7087454424015373,A,378.3464999996795,Incorrect
3,203,144,A,60.811844689371604,81.5156479706983,3.0405922344685803,1.2804448040867875,A,1045.731900001556,Correct
3,203,145,B,33.445520352787426,13.86268560658176,1.6722760176393712,0.2177545563033111,B,1097.5641999993968,Correct
3,203,146,B,82.2571902023413,54.05901589709761,4.112859510117065,0.8491570360130785,B,460.09030000095663,Correct
3,203,147,A,52.37984530691434,82.26473475266603,2.618992265345717,1.2922114317424427,A,579.8243999997794,Correct
3,203,148,B,69.22645407892843,53.50829279841979,3.4613227039464216,0.8405062978082362,B,415.14940000161005,Correct
3,203,149,B,44.376585862386776,23.693342039595272,2.218829293119339,0.3721741464529135,B,492.1273999989353,Correct
3,203,150,A,47.62765975882194,74.91972138490866,2.3813829879410973,1.1768362315591157,A,628.1497999989369,Correct
3,203,151,B,81.80681356025582,58.61362233862999,4.090340678012791,0.9207006266966329,B,429.80699999861827,Correct
3,203,152,A,18.377271469860496,41.1433876812468,0.9188635734930247,0.6462788224160086,A,436.1872999998013,Correct
3,203,153,A,41.158446805432106,54.35151875066883,2.057922340271605,0.8537516600927455,B,605.8518999998341,Incorrect
3,203,154,A,46.87199056021509,69.61573406438116,2.3435995280107544,1.0935213935546029,A,488.3583999999246,Correct
3,203,155,B,49.162724009549265,20.056992605038364,2.458136200477463,0.3150545031054667,B,530.8471000007557,Correct
3,203,156,B,77.53417475225619,53.13785488603997,3.8767087376128098,0.8346874726875182,B,511.27590000032797,Correct
3,203,157,A,36.4420577124161,66.1505670901535,1.822102885620805,1.0390906780061249,A,473.2448000013392,Correct
3,203,158,A,46.18588126194431,61.39436719800229,2.3092940630972154,0.9643804648051907,B,392.16060000035213,Incorrect
3,203,159,B,50.16885453034927,41.794185463901336,2.5084427265174636,0.6565015300808088,A,921.5340000009746,Incorrect
3,203,160,A,51.4519699386614,76.46158941418643,2.57259849693307,1.201055837927036,A,760.9841999983473,Correct
3,203,161,A,52.268299098311466,79.33966189456045,2.6134149549155734,1.2462644947312458,A,606.805199999144,Correct
3,203,162,A,28.334017852742257,43.66859087141402,1.4167008926371127,0.6859446213712629,A,1201.0449999997945,Correct
3,203,163,A,25.457158511699575,39.952564739341696,1.2728579255849788,0.6275734193859324,A,486.85719999957655,Correct
3,203,164,A,47.641359109415816,55.409105879229585,2.3820679554707906,0.8703641998608335,B,2308.4089000003587,Incorrect
3,203,165,B,62.61343697589587,43.54563300671158,3.130671848794794,0.6840132037490116,B,571.5724000001501,Correct
3,203,166,A,16.761691177140584,46.110861008192636,0.8380845588570293,0.7243077109701902,A,481.95080000004964,Correct
3,203,167,A,12.551980588291372,35.45474643086822,0.6275990294145686,0.5569218546105227,A,512.8726999992068,Correct
3,203,168,B,87.24302775299554,66.02247744535472,4.362151387649777,1.037078650570621,B,493.2890000000043,Correct
3,203,169,A,17.775558379886984,39.39270406678118,0.8887779189943492,0.6187791485061825,A,445.55510000100185,Correct
3,203,170,A,26.120568795139352,52.65275481931015,1.3060284397569677,0.8270675386580467,A,592.0795999991242,Correct
3,203,171,A,36.880910829315475,46.843534974690634,1.8440455414657737,0.7358165267233232,A,1654.7221999990143,Correct
3,203,172,B,68.56595695935704,58.38227393124063,3.428297847967852,0.9170666144112624,B,484.5519000009517,Correct
3,203,173,B,62.16638759992102,52.66257923945288,3.108319379996051,0.8272218602887775,B,391.05649999874004,Correct
3,203,174,B,74.19468821079263,51.85917973358361,3.7097344105396313,0.8146020903610948,B,524.8284000008425,Correct
3,203,175,A,25.31298705172419,36.70795264878515,1.2656493525862096,0.5766071718487271,A,521.2812999998278,Correct
3,203,176,B,84.68187879605752,58.10472439038688,4.234093939802876,0.9127068764184953,B,380.0645000010263,Correct
3,203,177,B,43.746612256818054,23.95765681943966,2.1873306128409027,0.37632599330588523,B,470.80780000032973,Correct
3,203,178,A,30.83618903195711,46.10885083367535,1.5418094515978555,0.7242761352227104,A,622.5718000005145,Correct
3,203,179,A,47.41544337865901,71.32335114297938,2.3707721689329504,1.1203445799009462,A,636.3884999991569,Correct
3,203,180,A,23.35424178085533,49.23524163317664,1.1677120890427666,0.7733853670625304,A,435.25290000070527,Correct
3,203,181,A,16.054118830609884,34.639203177849765,0.8027059415304941,0.5441113311486852,A,512.53910000014,Correct
3,203,182,A,19.303293334844287,45.12526957190491,0.9651646667422143,0.7088260768917773,A,471.47929999846383,Correct
3,203,183,A,52.10414920213016,63.81145961791319,2.6052074601065076,1.0023480637523892,B,481.6924000006111,Incorrect
3,203,184,B,74.72741601491377,42.846855077324705,3.736370800745689,0.673036825701749,B,564.1771999999037,Correct
3,203,185,B,74.3812041758231,47.64703988108761,3.719060208791155,0.7484379522786235,B,822.3932000000787,Correct
3,203,186,A,12.517672325692825,36.42599427219541,0.6258836162846413,0.5721781800261648,A,479.5570999995107,Correct
3,203,187,A,58.93396699978332,67.94891120841426,2.946698349989166,1.067339001358897,A,1466.86469999986,Correct
3,203,188,B,79.1553047098414,64.22080133873314,3.95776523549207,1.008777988467068,A,2015.3092999989894,Incorrect
3,203,189,B,76.02624082177577,56.467658559714025,3.8013120410887886,0.8869919064830719,B,539.9952999996458,Correct
3,203,190,A,27.627136787700838,49.612149683823546,1.381356839385042,0.7793058248774861,A,653.4066999993229,Correct
3,203,191,B,80.81632425621639,53.30492824419866,4.040816212810819,0.837311854860528,B,463.3541000002879,Correct
3,203,192,B,38.844174533473634,22.726299074777746,1.9422087266736816,0.3569838710830314,B,1421.9955999997183,Correct
3,203,193,B,75.9301262231156,62.65868133897546,3.7965063111557797,0.984240264890746,B,617.8480999988096,Correct
3,203,194,A,21.824983082573365,43.53153028649096,1.0912491541286682,0.683791678737808,A,537.0591999999306,Correct
3,203,195,A,34.05526169938092,48.68472268117921,1.7027630849690463,0.764737835586245,A,557.2262000005139,Correct
3,203,196,B,40.85943373593864,19.8228009740713,2.042971686796932,0.31137582956857496,B,814.3555999995442,Correct
3,203,197,B,44.69930291186971,19.182431916961423,2.2349651455934856,0.3013169359415619,B,623.7275000003137,Correct
3,203,198,B,44.9889511213522,37.060310455277225,2.24944755606761,0.5821419953302797,B,499.07039999925473,Correct
3,203,199,B,38.05572935443133,25.94202370973177,1.9027864677215662,0.4074963555287278,B,464.86060000097496,Correct
3,203,200,A,65.02475422869252,77.12735575555206,3.251237711434626,1.211513671162244,A,726.12990000016,Correct
3,203,201,A,29.367138587749807,42.462241563976264,1.4683569293874905,0.666995330761715,B,542.9717000006349,Incorrect
3,203,202,A,38.43597264795927,53.82395813067317,1.9217986323979632,0.8454647572522371,A,668.8011999995069,Correct
3,203,203,A,60.46139672666637,86.22671690562206,3.0230698363333186,1.3544461018693454,A,721.2151999992784,Correct
3,203,204,A,41.26127357952113,60.65119511800303,2.0630636789760564,0.9527067450707973,A,1557.650000000649,Correct
3,203,205,A,16.361333757971664,37.11703433433386,0.8180666878985832,0.5830330119389169,A,652.5561999987985,Correct
3,203,206,B,37.920557104366466,23.682330866686176,1.8960278552183234,0.3720011833533204,B,1005.6970000005094,Correct
3,203,207,A,11.00066423988213,34.89160062263676,0.5500332119941065,0.5480759809403235,A,514.1252000012173,Correct
3,203,208,A,37.89476543271212,54.59411283933672,1.894738271635606,0.857562319126562,A,758.2779000003939,Correct
3,203,209,A,18.02154523887785,37.98271364325078,0.9010772619438925,0.5966310707252073,A,514.6916000012425,Correct
3,203,210,A,57.98188457181551,69.64026336185421,2.8990942285907755,1.0939066988582982,A,1054.311100000632,Correct
3,203,211,A,50.22202363415349,58.414063256717064,2.5111011817076743,0.917565959968159,B,931.5832000011142,Incorrect
3,203,212,B,84.39244142903446,67.86744482726698,4.219622071451723,1.0660593304362627,B,597.1995999989304,Correct
3,203,213,A,25.129909112702986,51.58496996225853,1.2564954556351493,0.8102948133454078,A,491.32470000040485,Correct
3,203,214,B,37.77104070166065,13.517095211232633,1.8885520350830325,0.21232603506741105,B,802.7996999990137,Correct
3,203,215,B,67.09366645503908,49.555301283861716,3.354683322751954,0.778412852299044,B,743.4995000003255,Correct
3,203,216,B,56.43643709962039,24.39358078165728,2.8218218549810192,0.3831734708920184,B,446.95430000138003,Correct
3,203,217,B,78.96983678638428,48.01519937386617,3.948491839319214,0.7542209880679359,B,487.5534000002517,Correct
3,203,218,B,49.30257922421819,20.63421102695537,2.4651289612109095,0.32412142887452244,B,517.0488999992813,Correct
3,203,219,A,38.929589195364215,49.17867277179427,1.9464794597682107,0.7724967854658263,B,893.3398999997735,Incorrect
3,203,220,B,75.27300701066059,63.53213424789229,3.7636503505330294,0.9979604311002946,B,560.9604000001127,Correct
3,203,221,A,12.045411936557148,30.4215958402612,0.6022705968278573,0.477861310011212,A,379.4687999998132,Correct
3,203,222,A,26.061733119439957,43.53115488588784,1.303086655971998,0.6837857819589233,A,526.790500000061,Correct
3,203,223,B,71.36089939448301,52.301990594748005,3.5680449697241503,0.821557747102914,B,456.7611999991641,Correct
3,203,224,B,61.77213415972324,40.10920008005605,3.0886067079861617,0.6300338415643362,B,486.0066999990522,Correct
3,203,225,B,54.5167416403758,26.369261237639495,2.7258370820187903,0.41420738692379167,B,466.4262000005692,Correct
3,203,226,B,59.99324261773734,48.36445598297114,2.999662130886867,0.7597070980548452,B,492.1028999997361,Correct
3,203,227,A,15.129140354393513,41.73239269652627,0.7564570177196757,0.6555308915606564,A,519.9842000001809,Correct
3,203,228,B,36.95081002031792,17.387363408897194,1.847540501015896,0.273120065753437,B,516.1407000014151,Correct
3,203,229,B,65.5326380184027,39.46212299108857,3.2766319009201346,0.6198695784193037,A,651.868499999182,Incorrect
3,203,230,B,70.29214932265849,52.01531895849751,3.514607466132924,0.8170547195707284,B,424.58390000138024,Correct
3,203,231,B,64.406906750414,55.64539113327089,3.2203453375207,0.8740757599520723,B,460.73640000031446,Correct
3,203,232,A,15.956293196308174,41.41394727805165,0.7978146598154087,0.6505287626244104,A,632.3374000003241,Correct
3,203,233,B,57.898405931268236,27.82108774969415,2.8949202965634115,0.4370126244465807,B,506.80860000102257,Correct
3,203,234,B,46.00467438116114,18.259359782616198,2.3002337190580566,0.2868173527615998,B,483.4081999997579,Correct
3,203,235,A,66.80453125967763,85.45215393884887,3.340226562983881,1.3422792952385585,A,679.7256999998353,Correct
3,203,236,B,81.50180122319297,60.53403498199292,4.075090061159648,0.9508663979578824,B,488.7027000004309,Correct
3,203,237,A,32.137046077921696,54.54561605920076,1.6068523038960847,0.8568005334855728,A,678.4736999998131,Correct
3,203,238,B,53.488598314429474,33.61305423238191,2.6744299157214737,0.5279926212058316,B,453.4562000008009,Correct
3,203,239,A,25.899169540767993,37.83173885730056,1.2949584770383995,0.5942595643331147,A,626.6457999990962,Correct
3,203,240,B,35.05243122138036,22.637954936381302,1.752621561069018,0.3555961646021614,B,972.0550000001822,Correct
3,203,241,B,49.31779494555613,39.522488241607554,2.4658897472778065,0.6208177935571164,B,1585.575000000972,Correct
3,203,242,A,47.244240101679594,67.53929521744047,2.36221200508398,1.060904768418716,B,2191.9440000001487,Incorrect
3,203,243,A,61.393855698710155,83.30981096631902,3.0696927849355076,1.308627450518711,A,655.4288000006636,Correct
3,203,244,B,53.22991781064095,33.373370420625264,2.6614958905320476,0.5242276766948362,B,438.62199999966833,Correct
3,203,245,B,33.267652631042395,19.703048152663474,1.6633826315521196,0.30949475664866755,B,524.4509000003745,Correct
3,203,246,A,57.39566800080477,84.4376723771225,2.8697834000402382,1.326343856130949,A,589.2707000002702,Correct
3,203,247,A,46.463674532029046,69.55412011086365,2.323183726601452,1.0925535638359565,B,2093.5660999984975,Incorrect
3,203,248,A,11.091890035354961,30.949626934381175,0.554594501767748,0.4861556030419834,A,471.7992999994749,Correct
3,203,249,A,42.48904987645008,70.25237438913908,2.124452493822504,1.1035217163907953,A,934.1657999993913,Correct
3,203,250,B,62.01977293585899,44.364217597290114,3.1009886467929495,0.6968715004295282,B,907.948199999737,Correct
3,203,251,A,26.964576100796208,48.618716763885175,1.3482288050398104,0.763701017061923,B,779.4613999994908,Incorrect
3,203,252,A,59.83389701968261,71.2907359348906,2.99169485098413,1.119832261410311,A,786.9211000015639,Correct
3,203,253,A,23.86874084964782,55.094814702523564,1.193437042482391,0.8654273256016947,A,494.2046999985905,Correct
3,203,254,A,33.29949540453359,41.77668486142144,1.6649747702266793,0.6562266312598876,A,913.5547999994742,Correct
3,203,255,B,47.89387185740355,24.411637143529994,2.3946935928701776,0.38345709956106777,B,579.2629000006855,Correct
3,203,256,B,55.31496904398537,44.04328220159647,2.765748452199268,0.6918302590225878,B,541.7520999999397,Correct
3,203,257,A,50.69945078541348,80.8281045463239,2.534972539270674,1.2696448972315946,A,574.0393000014592,Correct
3,203,258,B,65.37135603339456,46.600173685837525,3.2685678016697284,0.7319938165371779,B,488.7901000001875,Correct
3,203,259,A,16.22610750796566,40.336175074107686,0.8113053753982831,0.6335991564336422,A,498.4896000005392,Correct
3,203,260,B,45.77195578375425,33.97066381462505,2.2885977891877127,0.5336099393879733,A,454.066000000239,Incorrect
3,203,261,B,50.17121740342462,41.39612473526675,2.508560870171231,0.6502488067770037,B,400.0329000009515,Correct
3,203,262,A,57.98426481034032,76.46815754366176,2.899213240517016,1.2011590098635736,A,561.7051999997784,Correct
3,203,263,B,68.81407260049996,48.12325093593314,3.440703630024998,0.7559182580359285,B,553.4397999999783,Correct
3,203,264,B,56.52278812255435,43.179885211349166,2.8261394061277176,0.6782680508141256,B,536.628900001233,Correct
3,203,265,B,41.471149712397974,31.08427418246405,2.0735574856198986,0.48827063706899965,B,568.965800001024,Correct
3,203,266,B,60.83825141051075,32.08236807848053,3.0419125705255374,0.5039486593255905,B,467.43160000005446,Correct
3,203,267,A,56.68726841281433,70.3755165292966,2.8343634206407167,1.1054560286051263,B,661.960999999792,Incorrect
3,203,268,A,27.217233911459047,55.80716541399845,1.3608616955729524,0.8766169044114395,A,563.1723999995302,Correct
3,203,269,A,56.947622563274756,68.66039438590929,2.847381128163738,1.0785149529767524,B,480.9934000004432,Incorrect
3,203,270,B,41.54757623539669,23.280094575206082,2.0773788117698344,0.3656828704617151,B,802.1095000003697,Correct
3,203,271,A,15.2383586464287,44.846524177796,0.7619179323214351,0.7044475544800047,A,558.5418000009668,Correct
3,203,272,A,52.06786491245843,60.74456001672153,2.6033932456229216,0.9541733174703831,B,521.0310999991634,Incorrect
3,203,273,B,63.70213854053263,48.754477886879286,3.1851069270266317,0.7658335477951299,B,554.471100000228,Correct
3,203,274,A,58.044124236775616,65.86743543407269,2.9022062118387804,1.034643256352414,B,1099.2824000004475,Incorrect
3,203,275,B,83.35684695565047,62.648851071414846,4.167842347782523,0.9840858514089897,B,537.6565999995364,Correct
3,203,276,B,42.99244590050691,14.908200062566266,2.1496222950253454,0.23417745897402537,B,742.8882000003796,Correct
3,203,277,B,66.3629058044523,47.5948050102491,3.3181452902226147,0.7476174488461862,B,611.6227999991679,Correct
3,203,278,B,34.46384388728126,22.68653857441151,1.723192194364063,0.35635931460376324,A,789.0100999993592,Incorrect
3,203,279,B,42.21412720035812,15.797731886359113,2.110706360017906,0.24815019218783507,B,488.62759999974514,Correct
3,203,280,B,69.76693573725571,50.56692053650266,3.4883467868627855,0.7943033303606779,B,448.0980999996973,Correct
3,203,281,B,51.528145984904036,30.40905969414585,2.576407299245202,0.4776643926885104,B,587.4039999998786,Correct
3,203,282,A,64.69941675792367,83.53972968256718,3.2349708378961837,1.312239005268151,A,604.233000000022,Correct
3,203,283,A,55.7026522676322,84.97512122660112,2.78513261338161,1.3347860829169609,A,545.2304000009462,Correct
3,203,284,A,35.03131871511712,61.72578735904888,1.7515659357558562,0.9695864005211684,B,836.8406999998115,Incorrect
3,203,285,A,21.459746718483682,51.028071958847804,1.0729873359241842,0.8015470799638379,A,453.4129000003304,Correct
3,203,286,B,67.4122571042661,35.884669688695205,3.3706128552133054,0.563675073352506,B,528.20950000023,Correct
3,203,287,B,45.66955291140248,26.633236769689773,2.283477645570124,0.4183539048848747,B,629.9932000001718,Correct
3,203,288,A,24.839932511549748,56.644873868746735,1.2419966255774875,0.889775598047876,A,1039.6837999996933,Correct
3,203,289,B,74.44095810592238,50.68191874989725,3.722047905296119,0.79610971807256,B,426.7157000012958,Correct
3,203,290,B,50.95224055666857,23.11131386959853,2.547612027833429,0.36303166933769315,B,503.1522999997833,Correct
3,203,291,B,80.84394864394189,51.03763448437105,4.042197432197094,0.801697287763506,B,489.645699999528,Correct
3,203,292,A,58.56320175124698,86.28102216907772,2.928160087562349,1.355299126952963,A,599.7124000004987,Correct
3,203,293,B,41.596110354514515,21.066767958712383,2.0798055177257257,0.3309160172698583,B,515.3278999987378,Correct
3,203,294,B,70.97986961482849,60.05010768222405,3.5489934807414243,0.9432648857087552,A,1494.6851000004244,Incorrect
3,203,295,B,39.47174600026591,28.89722625363225,1.9735873000132955,0.45391656853766593,B,751.7896000008477,Correct
3,203,296,A,51.75544053421963,73.40301129304288,2.5877720267109816,1.1530118051479605,A,752.7026000007027,Correct
3,203,297,A,27.248776625187617,44.229857234537214,1.362438831259381,0.6947609727867373,A,485.07360000076005,Correct
3,203,298,B,84.35416998544406,69.17982515382596,4.217708499272203,1.08667415239943,A,537.7872999997635,Incorrect
3,203,299,A,22.014831480736735,34.16669158263235,1.1007415740368367,0.5366891363673301,A,473.2368000004499,Correct
3,203,300,B,58.74791652851313,42.903770324269956,2.9373958264256568,0.6739308483101514,A,431.8624000006821,Incorrect
3,203,301,A,65.81398645176624,85.36267144376207,3.290699322588312,1.3408737074926105,A,592.7334000007249,Correct
3,203,302,A,15.666140286042083,32.41819632203766,0.7833070143021041,0.5092238370397257,A,532.8666000004887,Correct
3,203,303,A,32.942618462143614,59.21029745731899,1.647130923107181,0.9300731775438987,A,550.2806000004057,Correct
3,203,304,B,45.537165651622374,27.468620871406117,2.2768582825811188,0.4314760876692636,B,739.8008000000118,Correct
3,203,305,A,12.90367989136061,32.378441936480044,0.6451839945680305,0.508599376611647,A,480.50510000030044,Correct
3,203,306,A,36.88619382599338,68.71981451927529,1.844309691299669,1.079448322249042,A,590.3225000001839,Correct
3,203,307,A,32.35643996123312,41.1231228503934,1.6178219980616562,0.6459605031973322,A,1038.8930999997683,Correct
3,203,308,A,45.68212746544874,59.93197783630295,2.284106373272437,0.9414093064281783,B,1268.6940000003233,Incorrect
3,203,309,B,70.2959324287682,57.70176657455237,3.5147966214384097,0.9063772298488341,B,569.9813999999606,Correct
3,203,310,B,43.96420904508195,24.388521103513675,2.1982104522540977,0.38309399365359104,B,571.3787999993656,Correct
3,203,311,A,42.50762290029202,58.623321367505866,2.1253811450146007,0.92085297868595,A,1163.3487999988574,Correct
3,203,312,A,50.785146282153015,61.95981315277857,2.5392573141076507,0.973262469092827,A,558.7484000006953,Correct
3,203,313,A,17.997578885371283,33.11677711892782,0.8998789442685642,0.520197118536971,A,725.0554999991436,Correct
3,203,314,B,67.04079052760076,37.85498149440746,3.3520395263800378,0.5946246588230402,B,451.7047999997885,Correct
3,203,315,A,59.592077845757075,84.26447269399975,2.979603892287854,1.3236232418704368,A,666.3306999998895,Correct
3,203,316,B,70.89858612877474,39.80005008855037,3.5449293064387373,0.6251777248534782,A,455.0634000006539,Incorrect
3,203,317,B,82.6500130129178,58.652478201037596,4.1325006506458895,0.921310973156076,B,499.1821000003256,Correct
3,203,318,A,68.30539915857828,81.60368226679319,3.415269957928914,1.2818276435761655,A,600.1803999988624,Correct
3,203,319,B,70.25357883510614,58.081608402316064,3.5126789417553073,0.9123437713269767,B,505.86269999985234,Correct
3,203,320,B,35.58282184815188,17.469638571077848,1.7791410924075939,0.27441244097883527,A,530.9407999993709,Incorrect
3,203,321,B,78.09890650953633,64.6231445903734,3.9049453254768167,1.0150979814849403,B,549.1812000000209,Correct
3,203,322,A,33.11542661980286,57.89500500597317,1.655771330990143,0.909412612031548,A,528.2544999990932,Correct
3,203,323,A,46.99394989481941,54.33980105802554,2.349697494740971,0.8535675990071194,B,573.7991000005422,Incorrect
3,203,324,A,38.03459889704921,58.447019553940116,1.9017299448524603,0.9180836362743864,A,777.0916000008583,Correct
3,203,325,B,50.353007918292235,20.660916897000195,2.517650395914612,0.3245409237002252,B,516.4618000017072,Correct
3,203,326,A,64.77105808233975,86.98742021253551,3.238552904116988,1.3663952014721492,A,618.5305999988486,Correct
3,203,327,A,46.31614743210352,55.02993637849361,2.315807371605176,0.864408219270946,A,1910.4102000001149,Correct
3,203,328,A,60.00599452367189,72.14160960165431,3.0002997261835946,1.1331977537135003,A,864.064999999755,Correct
3,203,329,B,57.14780256291828,31.568772059180027,2.857390128145914,0.49588111191985346,B,553.2161999999516,Correct
3,203,330,A,29.80545125778062,56.03755070981287,1.4902725628890312,0.8802357881755681,A,822.2043000005215,Correct
3,203,331,A,55.78132838700128,66.27520714025218,2.789066419350064,1.0410485193347903,A,879.8664999994799,Correct
3,203,332,B,64.83038006573726,34.77605416808389,3.2415190032868626,0.5462609814764653,B,605.6621000006999,Correct
3,203,333,A,59.013366081919145,71.74090187486829,2.950668304095957,1.126903451459962,A,914.9241000013717,Correct
3,203,334,B,50.4826406246915,29.569463258339603,2.5241320312345747,0.464476042714965,B,505.32769999881566,Correct
3,203,335,A,57.78418838454189,72.95567512682716,2.8892094192270945,1.1459850650806191,A,814.0070999997988,Correct
3,203,336,B,69.30759169483959,39.44039903499968,3.4653795847419793,0.6195283393150247,B,516.3480000010168,Correct
3,203,337,A,44.01562225069959,52.18618934669633,2.2007811125349797,0.8197387453521355,B,723.828100000901,Incorrect
3,203,338,A,36.07348685083524,47.64719023736287,1.803674342541762,0.7484403140694725,A,479.9743000003218,Correct
3,203,339,B,82.91667401233312,62.746161824444904,4.145833700616656,0.9856144051431621,B,660.988499999803,Correct
3,203,340,B,50.209209575980395,24.20331099429275,2.5104604787990197,0.3801847200610958,B,583.2115000011981,Correct
3,203,341,B,48.91033987713313,40.08087992514967,2.4455169938566566,0.629588989611324,B,875.3464000001259,Correct
3,203,342,A,17.748685808534443,42.921673009155924,0.8874342904267222,0.6742120630267378,A,530.8069999991858,Correct
3,203,343,B,48.88121883003632,18.10493373509961,2.444060941501816,0.2843916340795948,B,1255.7899999992514,Correct
3,203,344,A,17.653546590802023,35.452033573585965,0.8826773295401011,0.5568792411479818,A,553.201300001092,Correct
3,203,345,A,63.795369707895986,87.40311355082075,3.1897684853947994,1.372924897160665,A,698.8826000015251,Correct
3,203,346,B,56.34563658437748,24.53841789562133,2.8172818292188744,0.3854485669580014,B,488.973999999871,Correct
3,203,347,A,21.95100749425322,48.59592016726014,1.097550374712661,0.7633429289595027,A,453.93979999971634,Correct
3,203,348,B,50.87607395080126,34.06067531438178,2.543803697540063,0.5350238367198451,B,479.88679999980377,Correct
3,203,349,A,33.318002212926004,66.13131563095611,1.6659001106463,1.0387882767921979,A,568.996199999674,Correct
3,203,350,A,51.88408244101416,64.24862520701453,2.5942041220507077,1.0092150447680042,A,1177.2856000006868,Correct
3,203,351,A,58.49224552470258,71.13696728762645,2.924612276235129,1.1174168691473234,B,924.9091999990924,Incorrect
3,203,352,A,60.01083227675844,86.23632011772571,3.0005416138379224,1.354596948772324,A,525.7624999994732,Correct
3,203,353,A,17.494383571307115,35.32343390230996,0.8747191785653556,0.554859202235308,A,550.0379000004614,Correct
3,203,354,B,76.85115419969404,62.39272061464058,3.842557709984702,0.9800625636021765,B,688.8079000000289,Correct
3,203,355,A,55.54449427441446,84.99853292658315,2.777224713720723,1.335153833040319,A,665.6781000001502,Correct
3,203,356,A,43.3763369515303,60.15585329627981,2.168816847576515,0.94492593393009,A,655.7515999993484,Correct
3,203,357,A,59.319893473495185,75.63794710083239,2.9659946736747593,1.1881180947229422,A,533.2889999990584,Correct
3,203,358,A,47.47365891846616,66.52373973516015,2.3736829459233078,1.0449524602064926,A,1003.3772999995563,Correct
3,203,359,A,59.1432629388799,86.70379857887055,2.957163146943995,1.3619400832685442,A,500.7482000000891,Correct
3,203,360,A,56.096066850474344,67.24718253240314,2.8048033425237175,1.056316273092048,A,670.4334000005474,Correct
3,203,361,B,66.60101841432515,37.135363421675464,3.330050920716258,0.5833209245696137,B,669.8808000001009,Correct
3,203,362,B,69.3375846821188,39.787036494872446,3.46687923410594,0.6249733078020013,B,548.5590000007505,Correct
3,203,363,B,66.92047283132727,34.257847773374536,3.346023641566364,0.5381210144631545,B,497.51610000021174,Correct
3,203,364,A,45.50351397435004,66.205438183759,2.275175698717502,1.0399525911289522,A,671.6209999995044,Correct
3,203,365,A,24.39734073514918,55.56634807430741,1.2198670367574591,0.8728341544852877,A,544.1902999991726,Correct
3,203,366,B,59.75883391614875,27.52505117141631,2.9879416958074376,0.43236249274902305,B,491.51289999826986,Correct
3,203,367,A,16.052813199696295,43.765147365493085,0.8026406599848147,0.6874613272335389,A,484.326300000248,Correct
3,203,368,B,43.33341870144501,14.6287619337174,2.1666709350722506,0.229788055110403,B,540.3667999999016,Correct
3,203,369,B,70.54152778748336,43.69011793659823,3.5270763893741677,0.6862827677204432,B,438.8546000009228,Correct
3,203,370,B,46.59224123453425,19.51611138982024,2.329612061726712,0.3065583608444967,B,502.0523000002868,Correct
3,203,371,A,35.83724621087487,53.24577551694132,1.7918623105437437,0.8363826859935707,A,1119.7189000013168,Correct
3,203,372,B,54.151728509547056,41.56223269647958,2.707586425477353,0.6528580245302488,B,565.5478999997285,Correct
3,203,373,B,76.37437715748143,44.299827493256394,3.818718857874072,0.6958600630405471,B,506.51550000111456,Correct
3,203,374,B,57.591436657285875,38.9602426589175,2.879571832864294,0.6119860605966544,B,465.726899999936,Correct
3,203,375,B,75.13109080069937,61.35388232283539,3.7565545400349687,0.9637445298731617,B,469.3005999997695,Correct
3,203,376,A,15.625547986336958,41.100430880319934,0.7812773993168478,0.6456040585649409,A,443.1402000009257,Correct
3,203,377,B,64.93369980846131,33.62122210850582,3.2466849904230655,0.5281209219039631,B,411.14070000003267,Correct
3,203,378,B,69.4209631832884,38.5902981104733,3.47104815916442,0.606174985218515,B,585.7375000014144,Correct
3,203,379,A,62.87848137194318,79.6045238466503,3.143924068597159,1.2504249365457503,A,599.8722000003909,Correct
3,203,380,B,53.43317007431161,25.759094869056305,2.6716585037155807,0.40462291601874906,B,538.0884000005608,Correct
3,203,381,B,54.10022929284025,28.522944075634726,2.7050114646420123,0.44803735783383286,B,570.9330000008777,Correct
3,203,382,B,85.33686528351957,60.465447608196314,4.266843264175979,0.9497890300096404,B,499.7927000003983,Correct
3,203,383,A,52.20309612076726,68.94069124374066,2.610154806038363,1.0829178457236892,A,864.2348000012134,Correct
3,203,384,B,41.19210454843538,14.6602742428996,2.0596052274217693,0.23028304930552526,B,685.7500999994954,Correct
3,203,385,A,55.10354909302742,65.83800803766896,2.7551774546513705,1.034181011890633,A,652.6495999987674,Correct
3,203,386,A,51.59623490171477,59.77247212703626,2.5798117450857387,0.9389037966059888,B,670.0711999983469,Incorrect
3,203,387,B,60.00148350937887,31.876910715933906,3.000074175468944,0.5007213426215785,B,508.1523999997444,Correct
3,203,388,A,41.14212148436025,66.94660849488335,2.0571060742180127,1.0515948671513877,A,579.0541999995185,Correct
3,203,389,A,45.59140625096985,63.160169691912884,2.279570312548492,0.9921176255179911,A,477.5508999991871,Correct
3,203,390,B,39.55451497412545,22.531358382248545,1.9777257487062727,0.3539217498453542,B,587.0749999994587,Correct
3,203,391,A,45.95973818411909,67.481348597129,2.2979869092059544,1.0599945450353618,A,728.905299998587,Correct
3,203,392,A,54.380011390625,73.52477213415874,2.71900056953125,1.154924419967683,A,582.7286999992793,Correct
3,203,393,A,59.61914726197999,70.63683589766426,2.980957363099,1.109560823644649,A,562.0675999998639,Correct
3,203,394,B,47.36165639313326,29.59161677273623,2.3680828196566632,0.46482402930536326,B,550.7333999994444,Correct
3,203,395,B,70.45841806715265,37.95309375250422,3.5229209033576323,0.5961658025693598,B,560.9834999995655,Correct
3,203,396,B,38.70101399238108,23.67624577221407,1.935050699619054,0.3719055989128706,B,645.6675000008545,Correct
3,203,397,A,50.496271794365455,73.86308468028685,2.5248135897182724,1.1602386210153497,A,587.765500000387,Correct
3,203,398,B,62.641840840010374,34.392666131047,3.1320920420005187,0.5402387362733188,B,432.46150000049965,Correct
3,203,399,B,68.94341543900109,51.24869938802025,3.4471707719500544,0.8050126875171808,B,512.4693999987358,Correct
3,203,400,B,51.8787272644618,42.97364632422031,2.59393636322309,0.6750284579506828,B,549.4603999995888,Correct
3,203,401,A,23.343881742069172,47.25661700006113,1.1671940871034585,0.7423052040044928,A,523.2718999995996,Correct
3,203,402,B,59.71051751010312,35.43302259364837,2.9855258755051555,0.5565806173734343,B,469.77030000016384,Correct
3,203,403,B,61.68378575195085,34.84089031795378,3.0841892875975425,0.5472794253370568,B,477.54229999918607,Correct
3,203,404,A,15.436191914706342,35.46585582743471,0.771809595735317,0.5570963606037181,A,459.0454999997746,Correct
3,203,405,B,38.91265553291352,20.717759482554005,1.9456327766456758,0.3254338049461597,B,484.1390000001411,Correct
3,203,406,B,76.23607573881908,44.782407916306994,3.811803786940954,0.7034404185996573,B,472.3143999999593,Correct
3,203,407,A,64.00115788313178,85.74047859284647,3.200057894156589,1.346808288312797,A,579.9146000008477,Correct
3,203,408,B,71.25818982763232,52.121350746896276,3.562909491381616,0.8187202630081312,B,488.04349999954866,Correct
3,203,409,B,51.00605575135997,38.146799032547015,2.5503027875679987,0.5992085179930797,B,519.803299999694,Correct
3,203,410,A,23.21074530786314,54.450352162808464,1.160537265393157,0.855304131700281,A,453.66009999997914,Correct
3,203,411,A,53.48619127721683,78.7304941132989,2.6743095638608416,1.2366957095991715,A,665.4866000008042,Correct
3,203,412,A,27.560235812630676,46.432629581895824,1.3780117906315337,0.7293620399067001,A,473.2411000004504,Correct
3,203,413,A,50.37215761559958,73.8967912216019,2.518607880779979,1.1607680821282162,A,685.6619999998657,Correct
3,203,414,B,39.814697488669026,29.70892643779444,1.9907348744334512,0.4666667252150729,A,786.9613999991998,Incorrect
3,203,415,B,56.736562472389814,24.649041807382282,2.8368281236194908,0.3871862433004993,B,500.6288000004133,Correct
3,203,416,B,60.760605674031154,32.647296653573065,3.0380302837015574,0.5128225366321588,B,485.1756000007299,Correct
3,203,417,A,21.73554220444916,52.047237454022365,1.086777110222458,0.8175560941260008,A,543.3948999998393,Correct
3,203,418,B,52.65499291560997,22.96465379097249,2.6327496457804984,0.3607279382097609,B,500.11409999933676,Correct
3,203,419,A,46.534560744640174,63.859216317233674,2.3267280372320087,1.0030982242311137,A,793.6430000008841,Correct
3,203,420,B,32.15941610605316,10.631936949580027,1.6079708053026578,0.16700607507115245,A,828.1187000011414,Incorrect
3,203,421,A,18.069287867766576,43.62062747995267,0.9034643933883288,0.6851912141799817,A,457.687199999782,Correct
3,203,422,A,31.259290612667318,53.695590469715,1.562964530633366,0.8434483627491137,A,494.4137000002229,Correct
3,203,423,B,63.88020845498904,49.10448234371593,3.194010422749452,0.7713314049467384,B,438.3992999992188,Correct
3,203,424,A,39.51293002887514,68.71587207347059,1.975646501443757,1.0793863944551563,A,701.5857999995205,Correct
3,203,425,A,43.01928290872248,50.31267308229276,2.150964145436124,0.7903096206889795,A,560.9129000004032,Correct
3,203,426,B,56.94143247142131,26.81656566587565,2.8470716235710656,0.42123362845211604,B,486.7346999999427,Correct
3,203,427,A,40.090947927763196,70.33964685950846,2.0045473963881597,1.1048925891496606,A,488.11509999904956,Correct
3,203,428,A,52.03393422467968,71.54620893566816,2.601696711233984,1.1238452219224775,A,550.2207999998063,Correct
3,203,429,A,54.723411934609764,80.55790856883603,2.736170596730488,1.2654006687420676,A,568.1483000007574,Correct
3,203,430,B,35.40780298697288,18.652952424940377,1.770390149348644,0.292999891529763,A,1245.6890000012208,Incorrect
3,203,431,B,69.3577912271309,38.10583132956581,3.4678895613565452,0.5985649988194786,B,561.3032000001112,Correct
3,203,432,B,74.26132401552378,45.83986320214272,3.713066200776189,0.7200508873870634,B,628.0660000011267,Correct
3,203,433,A,49.02952440579099,68.22081716273328,2.4514762202895493,1.0716100901016767,A,985.8919999987847,Correct
3,203,434,A,48.34341455101608,71.87570626406806,2.417170727550804,1.1290209538538702,A,843.58229999998,Correct
3,203,435,B,57.828602526466696,43.27056804469064,2.8914301263233346,0.6796924934292868,B,523.3482000003278,Correct
3,203,436,B,39.34164184405283,23.420932650919333,1.9670820922026417,0.3678951497817475,B,538.2186999995611,Correct
3,203,437,B,39.27886614643705,28.851754312345278,1.9639433073218526,0.4532022969542078,B,589.2760000006092,Correct
3,203,438,B,50.75546686575714,30.95343112816053,2.5377733432878573,0.48621535917813374,B,443.9277999990736,Correct
3,203,439,B,51.3279125364579,30.360716375808792,2.5663956268228953,0.4769050176198212,B,395.6582000009803,Correct
3,203,440,B,37.82045725444297,21.72789199313904,1.8910228627221486,0.34130092931819045,B,740.5476000003546,Correct
3,203,441,A,45.37528765482998,64.08350959315693,2.268764382741499,1.006621414770564,A,798.151200000575,Correct
3,203,442,B,47.63036063526648,19.670215900523587,2.3815180317633238,0.3089790288380502,B,539.7106000000349,Correct
3,203,443,A,22.3818838187225,42.4573291087105,1.119094190936125,0.666918166094845,A,943.3018999989145,Correct
3,203,444,A,33.53791941122351,61.19086836897494,1.6768959705611757,0.9611839126737587,A,524.313699999766,Correct
3,203,445,B,83.84501475823471,64.32330616756039,4.192250737911736,1.0103881305530737,B,449.828199998592,Correct
3,203,446,B,34.44757937134971,10.58512035134261,1.7223789685674857,0.16627068166570874,A,685.6774000007135,Incorrect
3,203,447,B,87.71280493147523,68.61059922189443,4.385640246573762,1.0777327723694856,B,563.7638999996852,Correct
3,203,448,B,40.48702474009389,29.04189033705947,2.0243512370046943,0.4561889466463322,A,505.0406999998813,Incorrect
3,203,449,A,66.81972546486107,78.30765866195534,3.340986273243053,1.2300538258610803,A,737.6150999989477,Correct
3,203,450,B,43.01429031400792,21.326020365219623,2.150714515700396,0.33498834454840143,B,475.2765000012005,Correct
3,203,451,A,54.72961211262223,69.50789234804647,2.7364806056311113,1.091827419835665,A,485.7872000011412,Correct
3,203,452,B,84.05462362415606,61.90131787069927,4.202731181207803,0.972343627350577,B,561.9300000016665,Correct
3,203,453,A,39.6690882683731,68.48977354571042,1.9834544134186551,1.075834847086162,A,461.2975000000006,Correct
3,203,454,B,42.379172613174454,24.21467616463567,2.1189586306587227,0.38036324373937647,B,478.13180000048305,Correct
3,203,455,A,45.90680378847941,74.35073388222979,2.2953401894239702,1.167898596767114,A,451.6361000005418,Correct
3,203,456,A,49.96948270499166,74.9922941556823,2.498474135249583,1.1779762019766813,A,609.1933000006975,Correct
3,203,457,B,71.62499943415892,47.60042451108093,3.581249971707946,0.7477057197588367,A,547.6534000008542,Incorrect
3,203,458,A,35.47825681934101,43.849847493967175,1.7739128409670508,0.6887917937404004,A,432.09680000109074,Correct
3,203,459,A,28.14612876386856,40.791698238906974,1.407306438193428,0.6407544975740093,A,597.3821999996289,Correct
3,203,460,A,41.539176997922596,63.585981707784065,2.0769588498961298,0.998806265022347,A,459.704499999134,Correct
3,203,461,A,29.14281804436998,38.88091066125628,1.4571409022184991,0.6107399164914189,A,519.3441999999777,Correct
3,203,462,B,84.32066729621639,56.881690960635446,4.216033364810819,0.8934955122284863,B,535.6233000002248,Correct
3,203,463,B,59.04783029375952,39.69294775558541,2.952391514687976,0.623495365341353,A,489.01219999970635,Incorrect
3,203,464,A,46.92029286234114,61.254409717445824,2.346014643117057,0.9621820178415352,A,2168.773400000646,Correct
3,203,465,B,44.51531041379016,33.53730219711203,2.225765520689508,0.5268027110183399,B,837.4789999998029,Correct
3,203,466,A,24.752276878116113,46.01512540799278,1.2376138439058055,0.7228038996788158,A,557.5020999986009,Correct
3,203,467,B,79.38077421589306,49.62731643548165,3.9690387107946528,0.7795440636554258,B,577.6439000001119,Correct
3,203,468,A,28.832611883980775,53.122672801522704,1.4416305941990388,0.8344489930615901,A,476.6931000012846,Correct
3,203,469,A,64.56825369668908,88.3386051929185,3.2284126848344545,1.3876195655122094,A,604.730600000039,Correct
3,203,470,A,56.99130591112605,65.18886061005087,2.8495652955563027,1.0239842279421243,A,994.5393999987573,Correct
3,203,471,B,56.05857041566018,45.40823472759456,2.802928520783009,0.7132708831634599,B,528.3612000002904,Correct
3,203,472,A,12.72041886618965,34.127413065941255,0.6360209433094824,0.5360721508699269,A,466.0022000007302,Correct
3,203,473,B,82.32505296878449,68.00268713250178,4.116252648439224,1.0681837115991637,B,503.0053999998927,Correct
3,203,474,B,58.37511586706888,49.30327456272734,2.9187557933534443,0.7744540258209237,B,611.1653000007209,Correct
3,203,475,A,56.604520771782035,81.06978270940681,2.830226038589102,1.2734411689399663,A,558.2070000000385,Correct
3,203,476,B,82.25711091777667,53.27686132728416,4.112855545888833,0.8368709807605904,B,464.42320000096515,Correct
3,203,477,A,35.24154005392158,49.768599919097454,1.7620770026960793,0.7817633394264305,A,431.6234000016266,Correct
3,203,478,B,83.72227482647676,61.73456096514285,4.1861137413238385,0.9697242160034197,B,531.7883000006987,Correct
3,203,479,B,62.01856039028132,43.83349697774951,3.100928019514066,0.6885349604322414,B,710.8031999996456,Correct
3,203,480,B,60.12988945545337,47.07105800225292,3.0064944727726686,0.7393904500828842,B,514.7020999993401,Correct
3,203,481,B,82.77391199628036,62.64268088462679,4.138695599814018,0.9839889303415664,B,715.52789999987,Correct
3,203,482,A,17.682417731737726,45.919609603224686,0.8841208865868864,0.7213035409260098,A,500.3739999992831,Correct
3,203,483,B,64.33118613863147,40.63061712444832,3.216559306931573,0.6382242413449324,B,446.35720000042056,Correct
3,203,484,B,88.23919286959242,62.53918600778911,4.411959643479621,0.9823632366177791,B,455.4659999994328,Correct
3,203,485,B,57.73921528218407,49.53877520889202,2.886960764109203,0.7781532613204567,B,443.06369999867456,Correct
3,203,486,A,52.75617000925486,78.43252163822547,2.637808500462743,1.232015168905858,A,667.6217000003817,Correct
3,203,487,A,48.36022131183617,60.99640010405048,2.4180110655918083,0.9581292123115434,B,513.4221000007528,Incorrect
3,203,488,B,41.57366234027832,17.35315550362719,2.0786831170139157,0.2725827292339823,B,541.6088000001764,Correct
3,203,489,B,56.54847847747921,40.6960531744447,2.82742392387396,0.6392521084146753,B,595.1082000010501,Correct
3,203,490,B,58.25977060375962,42.51771926551303,2.9129885301879814,0.6678667724596448,B,492.78079999930924,Correct
3,203,491,A,35.32161458475815,65.53278127245667,1.7660807292379075,1.0293865210742834,A,557.9342000000906,Correct
3,203,492,A,59.01646081486754,73.99941233433086,2.950823040743377,1.1623800507974786,A,730.8819000008953,Correct
3,203,493,B,33.19527874992764,19.453672249939643,1.659763937496382,0.30557756912877004,B,675.4851000005146,Correct
3,203,494,B,69.2684265221825,41.91267703895407,3.463421326109125,0.6583627913892987,B,476.04690000116534,Correct
3,203,495,A,29.69961403528639,40.562294791862875,1.4849807017643195,0.6371510366542997,B,496.99429999964195,Incorrect
3,203,496,A,33.95146100031397,53.878801349322586,1.6975730500156985,0.8463262325162783,A,664.4871999997122,Correct
3,203,497,A,41.65586734781523,58.48940025881491,2.0827933673907615,0.9187493508298293,A,615.6757999997353,Correct
3,203,498,A,39.44680312748716,62.75464204499602,1.972340156374358,0.9857476121360831,A,669.7442999993655,Correct
3,203,499,B,34.015180100384285,22.28995524015836,1.700759005019214,0.3501297981566341,A,898.2126999999309,Incorrect
3,203,500,B,56.38976097578435,33.52940695689877,2.8194880487892173,0.5266786928750784,B,367.16230000092764,Correct
3,203,501,A,26.35176967056352,43.245560188047776,1.3175884835281761,0.6792996709357306,A,565.525300000445,Correct
3,203,502,A,42.107269364213366,70.18010273471027,2.1053634682106686,1.1023864758977138,A,650.2289000000019,Correct
3,203,503,B,38.772258930317754,16.1645994025398,1.9386129465158877,0.253912933656205,A,752.8780000011466,Incorrect
3,203,504,A,24.034181724396824,53.26587479842127,1.2017090862198412,0.8366984047687699,A,456.6291999999521,Correct
3,203,505,A,32.3370376617587,50.302801450591815,1.616851883087935,0.7901545574608262,A,610.0365000002057,Correct
3,203,506,A,20.40604644480089,34.58084634116956,1.0203023222400445,0.5431946641016788,A,469.87869999975374,Correct
3,203,507,B,49.08960214714459,40.75644110750877,2.4544801073572295,0.640200679849073,A,527.8355999998894,Incorrect
3,203,508,A,14.896458139692534,40.312456183333644,0.7448229069846266,0.633226580968607,A,517.065800000637,Correct
3,203,509,A,35.163604376942395,46.3273960408517,1.7581802188471198,0.727709035309423,A,1205.9798999998748,Correct
3,203,510,A,43.316207388152684,73.7973933649351,2.1658103694076343,1.1592067442467813,A,664.7007999999914,Correct
3,203,511,B,47.27421007288339,40.08602038334301,2.3637105036441697,0.6296697357398054,B,597.4155999992945,Correct
3,203,512,B,40.346258492544024,29.076483437717247,2.017312924627201,0.456732333800789,A,454.8419000002468,Incorrect
3,203,513,A,45.896475860073444,72.88610933424981,2.294823793003672,1.144892328166108,A,559.379500000432,Correct
3,203,514,B,67.47712597230544,36.29724061879903,3.373856298615272,0.5701557223680003,B,522.1628999988752,Correct
3,203,515,A,68.49207063494418,81.9108549825966,3.424603531747209,1.2866527013129219,A,567.9705999991711,Correct
3,203,516,A,33.488757278614735,62.55462014317028,1.674437863930737,0.9826056754494192,A,729.9259999999776,Correct
3,203,517,B,42.30056123987264,23.230857165024467,2.115028061993632,0.36490945103117334,B,500.7026000002952,Correct
3,203,518,A,61.244280918315816,76.11074232148039,3.0622140459157907,1.1955447446821428,A,609.1381999995065,Correct
3,203,519,A,56.09840462997336,74.14475147994264,2.804920231498668,1.1646630327581438,A,566.9321999994281,Correct
3,203,520,A,42.46863176657264,68.53337128912169,2.123431588328632,1.0765196788382316,A,544.0504999987752,Correct
3,203,521,A,35.890106966377644,67.68277152184287,1.794505348318882,1.06315848893809,A,564.812399999937,Correct
3,203,522,B,73.12018242618548,50.46311099402546,3.656009121309274,0.7926726938805836,B,617.4654999995255,Correct
3,203,523,B,50.2473043706705,30.56619463745737,2.512365218533525,0.480132662606159,B,907.955700000457,Correct
3,203,524,B,39.71623924638338,13.301935092811807,1.9858119623191692,0.20894630783052917,A,593.4978000004776,Incorrect
3,203,525,B,86.23412239068847,62.0868827202777,4.311706119534423,0.9752584731915777,B,564.8409999994328,Correct
3,203,526,B,68.03809903286619,51.58134176415008,3.401904951643309,0.8102378217427915,B,690.6471999991481,Correct
3,203,527,B,62.0626200350824,38.58235222528892,3.1031310017541203,0.6060501715459075,B,544.178500000271,Correct
3,203,528,A,33.55536318831085,41.67593774088734,1.6777681594155425,0.6546440991911864,A,618.1333999993512,Correct
3,203,529,B,58.4380052310956,43.835730971020446,2.92190026155478,0.688570051916482,B,1323.5267000000022,Correct
3,203,530,A,63.79831751663032,74.11507652645044,3.1899158758315163,1.1641968996787102,A,1055.7033000004594,Correct
3,203,531,B,51.19779370926606,43.88334520734025,2.5598896854633026,0.6893179745916249,B,586.7342000001372,Correct
3,203,532,B,69.07275988433955,60.26016288304829,3.4536379942169777,0.9465644250875442,B,617.6546000006056,Correct
3,203,533,B,83.18968235328006,58.22329075143146,4.159484117664004,0.9145693124625982,B,555.6226999997307,Correct
3,203,534,B,43.87754016319349,25.191727682203172,2.1938770081596743,0.3957107330882205,B,416.8427000004158,Correct
3,203,535,B,65.1246519112025,46.1556844810551,3.256232595560125,0.7250117964354557,B,1961.4333000008628,Correct
3,203,536,B,79.88700365823503,59.34224087962821,3.9943501829117514,0.9321457399749794,B,747.6850000002742,Correct
3,203,537,A,44.25191973680729,76.10729431016459,2.2125959868403644,1.1954905834470466,A,854.7373999990668,Correct
3,203,538,B,61.79301070440502,42.08757269394251,3.0896505352202506,0.6611100459135809,A,1949.6319999998377,Incorrect
3,203,539,A,66.01099138424175,82.39683182163611,3.300549569212087,1.2942864076496283,A,506.32469999982277,Correct
3,203,540,B,60.617424743631815,41.10573000260681,3.030871237181591,0.6456872969831756,B,539.9940000006609,Correct
3,203,541,A,58.008908347726035,80.18449461443606,2.900445417386302,1.2595350960626133,A,473.57000000010885,Correct
3,203,542,B,74.56665151501656,52.41829126218461,3.7283325757508283,0.8233845937150461,B,498.3806000000186,Correct
3,203,543,B,47.31925751495445,23.017338155738145,2.3659628757477225,0.361555502276295,B,1815.3561999988597,Correct
3,203,544,B,84.84384240406902,57.79153751443305,4.242192120203452,0.9077873484750091,B,495.39609999919776,Correct
3,203,545,B,64.25925250169766,35.18013265903776,3.212962625084883,0.5526082315697369,B,470.3014999995503,Correct
3,203,546,B,32.89897630137337,12.04389968942564,1.6449488150686682,0.18918513392435993,A,627.5624000008975,Incorrect
3,203,547,B,52.39439119000285,26.752783268414362,2.6197195595001426,0.4202317368956524,B,723.8329000010708,Correct
3,203,548,B,55.60402959962458,24.46262057001653,2.7802014799812294,0.3842579453515924,B,1486.6567999997642,Correct
3,203,549,B,67.43374528786912,38.092555650145975,3.3716872643934557,0.5983564649347948,B,469.2501999998058,Correct
