subject,day,trial,cat,x,y,xt,yt,resp,rt,fb
3,303,0,A,14.562658460088457,43.56592710651256,0.7281329230044229,0.6843319827232415,A,741.7749999985972,Correct
3,303,1,A,20.80345352214679,52.09253659898303,1.0401726761073393,0.8182676514311126,A,749.8016999998072,Correct
3,303,2,A,19.30220765074264,35.9892581834103,0.9651103825371321,0.5653179455857408,A,916.4638999973249,Correct
3,303,3,B,81.90147899940472,58.52288077305268,4.095073949970236,0.9192752615176683,B,640.041900001961,Correct
3,303,4,B,45.63259947743565,16.581184154359274,2.281629973871782,0.26045663163577293,B,1106.2759999986156,Correct
3,303,5,B,46.814190115522415,35.04906771372886,2.340709505776121,0.550549468223109,B,717.6051000024017,Correct
3,303,6,B,80.98900114463433,57.60158573245569,4.0494500572317165,0.9048035928610271,B,653.5942999980762,Correct
3,303,7,A,28.244017698439833,41.96017564008837,1.4122008849219918,0.6591088976711951,A,1830.4529000015464,Correct
3,303,8,A,45.86037009995758,53.10976954011129,2.293018504997879,0.834246309105303,B,755.4534999981115,Incorrect
3,303,9,A,65.7884089171917,79.70202405853863,3.289420445859585,1.2519564662927096,A,1043.1959999987157,Correct
3,303,10,B,32.197656414315574,13.244837269875514,1.609882820715779,0.20804941732516602,A,1322.1107999997912,Incorrect
3,303,11,A,41.798188674631824,73.11065841170927,2.089909433731591,1.1484195368266932,A,1004.0475999994669,Correct
3,303,12,B,55.1135232906771,36.21197331877899,2.7556761645338548,0.5688163467513284,B,719.1007000001264,Correct
3,303,13,B,53.93053426953126,27.72179880492849,2.6965267134765627,0.4354529973492882,B,687.1365000006335,Correct
3,303,14,A,28.44639670179058,44.00415681971357,1.422319835089529,0.6912156789611268,A,1697.370800000499,Correct
3,303,15,A,54.414562377596816,75.19049414496435,2.720728118879841,1.1810895201280318,A,985.3885999982595,Correct
3,303,16,B,81.8200880694973,64.15174720176418,4.091004403474865,1.0076932886200596,B,702.9131999988749,Correct
3,303,17,B,72.2505345172189,43.42029173056147,3.612526725860945,0.6820443475872879,B,845.0142000001506,Correct
3,303,18,B,71.09581640737684,42.01176826264084,3.5547908203688423,0.6599193126911465,B,2240.0520000010147,Correct
3,303,19,B,67.69701927247607,42.78552659945259,3.384850963623803,0.6720734802240548,B,691.0988000017824,Correct
3,303,20,A,49.31263542168296,72.45787739760073,2.465631771084148,1.1381656766350619,A,845.0623999997333,Correct
3,303,21,A,54.41631793092375,82.76226359626783,2.7208158965461875,1.300026596542485,A,712.3738000009325,Correct
3,303,22,B,67.81111106802824,54.66618077998919,3.3905555534014122,0.858694359691128,B,497.4948000017321,Correct
3,303,23,B,34.0301081727914,18.29581550689628,1.7015054086395702,0.2873899979394978,A,777.0014999987325,Incorrect
3,303,24,A,30.257382646698897,57.79400505631544,1.5128691323349448,0.9078261085322598,A,1114.6432999994431,Correct
3,303,25,A,16.329462571027452,41.04156682937817,0.8164731285513726,0.6446794242149448,A,673.2744000000821,Correct
3,303,26,B,75.44643333819943,44.07245824169463,3.7723216669099715,0.6922885551887539,B,472.74149999793735,Correct
3,303,27,B,37.21366281600457,26.21559497882771,1.8606831408002285,0.41179360297485296,B,2708.9245000024675,Correct
3,303,28,B,83.42729755555095,63.12933448865279,4.171364877777547,0.9916332672778216,B,557.7794000018912,Correct
3,303,29,B,53.513980556183114,46.092363476530004,2.6756990278091557,0.7240171524222857,B,663.188500002434,Correct
3,303,30,A,28.290285746697272,56.41365390601465,1.4145142873348635,0.8861436033664638,A,670.9229000007326,Correct
3,303,31,B,54.64488537966548,26.448265186755307,2.732244268983274,0.4154483780545257,B,564.708599998994,Correct
3,303,32,A,12.239640479034154,37.129204362620754,0.6119820239517076,0.5832241782962173,A,592.8547000003164,Correct
3,303,33,A,60.008893338444125,71.20345466984021,3.0004446669222062,1.1184612505049192,A,878.9398999979312,Correct
3,303,34,B,78.61150331249692,64.22533256659577,3.930575165624846,1.0088491648278928,B,546.0318999976153,Correct
3,303,35,A,18.66036944201317,37.20752391136964,0.9330184721006586,0.5844544188911271,A,537.7464000011969,Correct
3,303,36,A,25.065876430903277,54.16838830662166,1.2532938215451639,0.8508750538044093,A,684.2348999998649,Correct
3,303,37,A,44.82142493351933,59.08383590864738,2.2410712466759666,0.9280867241825571,A,6074.591599997802,Correct
3,303,38,A,15.94472955692591,41.730326975443575,0.7972364778462955,0.6554984432897675,A,607.62700000123,Correct
3,303,39,B,39.29818560571846,24.44583045797799,1.964909280285923,0.38399420688842634,B,1535.1037999971595,Correct
3,303,40,B,66.34207531907502,53.57971472570311,3.3171037659537514,0.8416281908185288,B,538.6983999997028,Correct
3,303,41,A,35.8848481962531,63.668158372322296,1.794242409812655,1.000097093050396,A,1595.8377999995719,Correct
3,303,42,B,83.29531124996709,57.259581307280364,4.164765562498355,0.8994313999128971,B,467.2850999995717,Correct
3,303,43,B,85.67425876756876,58.293290310322945,4.283712938378438,0.9156688629624382,B,490.44320000029984,Correct
3,303,44,B,33.52143618029762,19.037874681572838,1.6760718090148812,0.2990462361979618,A,1114.4902999985788,Incorrect
3,303,45,A,30.882097226539628,58.031362414020414,1.5441048613269814,0.9115545091884668,A,886.6569000019808,Correct
3,303,46,A,54.4813151879036,68.68508105168186,2.72406575939518,1.0789027302159164,A,1009.429599998839,Correct
3,303,47,B,60.478936367098164,39.71088312278754,3.0239468183549083,0.6237770934305613,B,489.4430000022112,Correct
3,303,48,B,87.13267242290479,69.56828253665302,4.356633621145239,1.092776026700041,B,787.6410999997461,Correct
3,303,49,A,32.90368722323037,64.74377324195373,1.6451843611615187,1.0169928119130263,A,773.9053000004787,Correct
3,303,50,B,78.62859324458398,64.37823105924134,3.9314296622291987,1.011250888734094,B,501.6399999985879,Correct
3,303,51,A,58.86508948927224,80.53910593433754,2.9432544744636124,1.2651053176500247,A,729.7851000002993,Correct
3,303,52,B,42.97687901677955,23.213988854424993,2.1488439508389776,0.3646444842278844,B,887.5920999998925,Correct
3,303,53,A,45.60267805433096,57.229980268422054,2.280133902716548,0.8989664278818176,A,723.1700999982422,Correct
3,303,54,A,44.04336947177171,65.71681808272315,2.2021684735885856,1.0322773645298997,A,934.2225000000326,Correct
3,303,55,A,13.057333876159362,30.98457930099113,0.6528666938079681,0.48670463353282045,A,728.4742000010738,Correct
3,303,56,A,54.73239993615197,64.10432143425054,2.7366199968075984,1.0069483264060008,B,2004.0760999982012,Incorrect
3,303,57,B,41.515204939210705,14.229657304620886,2.0757602469605354,0.22351893425648658,A,783.4384999987378,Incorrect
3,303,58,A,65.10059725117485,78.07373086104869,3.2550298625587426,1.2263792965570863,A,651.8556999981229,Correct
3,303,59,B,50.39911482061009,33.87556458388884,2.5199557410305045,0.5321161241647588,B,546.5055000022403,Correct
3,303,60,A,63.30452189337983,85.89782035578594,3.1652260946689914,1.3492798069455645,A,774.0856999989774,Correct
3,303,61,A,49.03538010443526,55.78921047661821,2.451769005221763,0.8763348689145923,A,995.0816000018676,Correct
3,303,62,B,46.93634461732772,18.258827965265574,2.346817230866386,0.28680899899419104,B,897.423999998864,Correct
3,303,63,A,60.69130337287447,69.58187579114876,3.0345651686437236,1.092989549042352,A,1827.41100000203,Correct
3,303,64,B,46.974090041213685,21.74932187334092,2.3487045020606843,0.34163754908923816,B,676.7795000014303,Correct
3,303,65,A,16.868685766222093,41.27294512088378,0.8434342883111046,0.648313905918916,A,496.3424000015948,Correct
3,303,66,A,61.14526488466174,78.00119537940064,3.057263244233087,1.225239911875736,A,847.0205000012356,Correct
3,303,67,B,58.321375449429965,30.97439737274025,2.9160687724714984,0.4865446961778588,B,527.5709999987157,Correct
3,303,68,A,17.247456307284676,36.01369642107116,0.8623728153642338,0.5657018205252509,A,581.3922999986971,Correct
3,303,69,B,86.87239657909278,61.54849611812696,4.343619828954639,0.9668015162210377,B,561.84679999933,Correct
3,303,70,B,48.729875043306826,34.35076180031432,2.4364937521653416,0.5395805045854017,B,1295.9368000010727,Correct
3,303,71,A,62.51648782213044,87.28908751806226,3.125824391106522,1.3711337804265045,A,631.3952999989851,Correct
3,303,72,B,54.48362993862535,44.829757970340324,2.7241814969312674,0.7041841915091482,B,450.4062000014528,Correct
3,303,73,B,56.77281843298798,41.89953840143073,2.838640921649399,0.658156410153691,B,472.7690999970946,Correct
3,303,74,B,59.07201667262442,34.2874473949855,2.953600833631221,0.5385859642321646,B,377.8930999978911,Correct
3,303,75,B,47.859310948476605,28.6790873768107,2.39296554742383,0.4504900510732413,B,414.0421000010974,Correct
3,303,76,B,45.082101459840004,27.48233339933214,2.254105072992,0.43169148355423637,B,419.31079999994836,Correct
3,303,77,A,33.73748335752501,46.18704287459183,1.6868741678762504,0.7255043729292726,B,3011.633400001301,Incorrect
3,303,78,B,55.053915807877715,30.075414951891446,2.752695790393886,0.47242351333263394,B,480.33890000078827,Correct
3,303,79,A,27.144595749344763,42.66228725023862,1.357229787467238,0.6701376410534357,A,686.4072999997006,Correct
3,303,80,B,60.91698491676443,34.20995194345165,3.0458492458382214,0.5373686685260378,B,497.45160000020405,Correct
3,303,81,A,15.923778035723831,43.383819215749284,0.7961889017861915,0.6814714386643282,A,1326.7553000005137,Correct
3,303,82,B,52.75848865320327,21.791125335553325,2.637924432660163,0.34229419633814373,B,573.9338999992469,Correct
3,303,83,A,42.499189634999496,75.06156099769231,2.1249594817499746,1.1790642429866616,A,1327.8437000008125,Correct
3,303,84,A,39.092596215795965,52.16563314394599,1.9546298107897981,0.8194158492744047,B,1129.262700000254,Incorrect
3,303,85,B,71.32701456385321,61.333667038185226,3.5663507281926603,0.9634269889244258,B,803.2363000020268,Correct
3,303,86,A,22.738706228708786,54.986119832162686,1.1369353114354395,0.8637199505706517,A,482.1196000011696,Correct
3,303,87,A,50.35815455112426,69.90247259478966,2.5179077275562127,1.0980254718577651,A,870.2494999997725,Correct
3,303,88,B,72.06940034226912,49.26361223343932,3.6034700171134557,0.7738310114093461,B,573.7167999977828,Correct
3,303,89,B,50.57420774170806,20.97214066650046,2.5287103870854026,0.329429615239648,B,938.7218000010762,Correct
3,303,90,B,75.34669873859116,61.52615758975486,3.767334936929558,0.9664506234379088,B,581.7624000010255,Correct
3,303,91,A,42.31776522853944,65.40629062541774,2.115888261426972,1.0273996106368566,A,1131.3281999973697,Correct
3,303,92,A,33.312420327038836,55.96715436493275,1.6656210163519418,0.8791300049759934,A,698.5256999978446,Correct
3,303,93,B,63.005310193976875,45.236958276347536,3.150265509698844,0.7105804789586071,B,428.4726000005321,Correct
3,303,94,A,42.340749214669565,67.65956229219591,2.1170374607334783,1.0627939192113185,A,589.3082000002323,Correct
3,303,95,B,61.77287430394767,49.06624771780454,3.0886437151973833,0.7707308168473587,B,475.12669999923673,Correct
3,303,96,A,40.83515761490382,69.81512930964043,2.041757880745191,1.096653486742939,A,1405.0653999984206,Correct
3,303,97,A,27.901794701637698,47.11997088938535,1.395089735081885,0.7401587719172896,A,790.440500000841,Correct
3,303,98,A,28.82433344663018,57.996470978839774,1.441216672331509,0.9110064358062834,A,697.2399999976915,Correct
3,303,99,B,68.03304588146345,41.83789694734674,3.401652294073173,0.6571881484571568,B,997.3946999998589,Correct
3,303,100,A,30.13629759136989,57.775684604842205,1.5068148795684946,0.9075383315534657,A,604.5847999994294,Correct
3,303,101,B,42.43573855590188,23.7407839940815,2.121786927795094,0.3729193629313429,B,721.8211999970663,Correct
3,303,102,A,35.51266790800484,50.53920817349252,1.7756333954002423,0.7938680255804464,A,901.4468999994278,Correct
3,303,103,A,52.22262355023777,64.531790152087,2.611131177511888,1.0136629893239735,B,892.6442000010866,Incorrect
3,303,104,A,32.634145801135794,60.758306702156965,1.6317072900567897,0.9543892499002591,A,1494.8521999976947,Correct
3,303,105,B,44.7378152207266,20.09430840738319,2.2368907610363298,0.31564065835801325,B,614.0116000024136,Correct
3,303,106,A,57.740484800158185,77.3242830998196,2.8870242400079094,1.2146069986524533,A,757.7996999971219,Correct
3,303,107,B,44.690438198555086,35.703057386971174,2.2345219099277545,0.5608223139880172,B,439.9873000002117,Correct
3,303,108,B,68.81918672484582,36.315247764051165,3.4409593362422912,0.5704385779441815,B,678.3622000002651,Correct
3,303,109,A,46.969347482857046,72.35140519270587,2.348467374142852,1.1364932151515157,A,781.830899999477,Correct
3,303,110,B,36.60540481761872,25.96428001518622,1.830270240880936,0.4078459567572865,A,1613.018899999588,Incorrect
3,303,111,A,18.13209364136203,31.807397017147398,0.9066046820681015,0.4996294239944209,A,548.4971000005316,Correct
3,303,112,A,64.51981862848208,79.30212700344461,3.2259909314241044,1.2456748980403316,A,611.9719999987865,Correct
3,303,113,B,48.60296254865571,26.66439640487775,2.4301481274327856,0.4188433592898501,A,451.40279999759514,Incorrect
3,303,114,B,49.57900583957456,37.9475888049191,2.478950291978728,0.5960793310549006,B,576.9755999972404,Correct
3,303,115,B,57.957469268814286,30.459297996907605,2.897873463440714,0.4784535341029362,B,546.3913000021421,Correct
3,303,116,B,45.555313966788084,19.39297141574259,2.277765698339404,0.3046240826548689,B,1003.4960000011779,Correct
3,303,117,B,62.93797177893873,52.94181254821473,3.1468985889469367,0.8316080468459964,B,804.0632000011101,Correct
3,303,118,A,58.14808655129464,69.29328626846403,2.907404327564732,1.0884563954205053,A,1555.7883000001311,Correct
3,303,119,B,49.05677574393704,31.801784262918606,2.452838787196852,0.49954125905716296,B,890.1767999996082,Correct
3,303,120,A,68.89809665482078,86.34738001978496,3.444904832741039,1.3563414736344126,A,855.134099998395,Correct
3,303,121,B,65.5189467885858,42.55069476325253,3.27594733942929,0.6683847503668792,B,961.3597999996273,Correct
3,303,122,A,35.20313017918505,51.46741979758058,1.7601565089592526,0.8084483396765053,A,1153.6423999968974,Correct
3,303,123,A,23.5206732213105,38.05424305926627,1.176033661065525,0.5977546521645565,A,590.086500000325,Correct
3,303,124,B,43.21747291353106,14.081992753391901,2.160873645676553,0.22119942490980352,B,701.8438000013703,Correct
3,303,125,A,53.764748049809214,69.26555900272348,2.6882374024904605,1.0880208565487322,A,1412.193299998762,Correct
3,303,126,A,15.78701467304149,33.52810042097839,0.7893507336520744,0.5266581698568328,A,526.9593999983044,Correct
3,303,127,A,29.561845513538344,51.50931522879701,1.4780922756769173,0.8091064315711476,A,725.35969999808,Correct
3,303,128,A,58.6179996092992,71.30326329085847,2.9308999804649596,1.1200290406576987,A,780.5479999988165,Correct
3,303,129,A,44.5011950074677,63.01427486391441,2.2250597503733847,0.9898259149188073,A,1202.3444000005838,Correct
3,303,130,B,55.041564376986784,35.694811991693925,2.7520782188493396,0.5606927956218724,B,512.4427000009746,Correct
3,303,131,A,37.55631175331152,58.712959118553,1.877815587665576,0.9222610051868199,A,1130.6750000003376,Correct
3,303,132,A,24.133033250078164,37.71312749390002,1.2066516625039083,0.5923964213936578,A,523.216700003104,Correct
3,303,133,B,45.03083561659048,19.79289290306175,2.251541780829524,0.31090603468774175,B,673.5903000007966,Correct
3,303,134,B,45.12079064351364,32.594052545124484,2.2560395321756817,0.5119861801324138,B,683.7880000020959,Correct
3,303,135,A,55.711002269973235,63.66899800511662,2.7855501134986618,1.0001102819714878,A,859.8105000019132,Correct
3,303,136,B,41.14413125148228,30.747455897665123,2.0572065625741143,0.48297990782340455,B,620.1087000008556,Correct
3,303,137,A,29.21116140238763,57.39431751960752,1.4605580701193817,0.9015478313869947,A,751.7031999996107,Correct
3,303,138,A,47.82150384055264,58.43252394658393,2.391075192027632,0.9178559398064885,B,940.4613000006066,Incorrect
3,303,139,B,80.09129363337567,53.371589183609125,4.004564681668784,0.8383589624481944,B,633.3961999989697,Correct
3,303,140,B,89.13497124927315,68.50648238459112,4.456748562463657,1.0760973089135502,B,612.9959999998391,Correct
3,303,141,B,81.89859613220895,59.56277051346544,4.094929806610447,0.935609811362789,B,570.5340999993496,Correct
3,303,142,A,54.85862209772283,70.39321536647327,2.7429311048861416,1.1057340412893828,A,1261.8636999977753,Correct
3,303,143,A,25.116454566878268,44.63157109179991,1.2558227283439134,0.701071079300846,A,591.0012999993342,Correct
3,303,144,A,43.90585514442338,56.57008415378027,2.195292757221169,0.8886008039523623,A,854.9973000008322,Correct
3,303,145,A,54.49101203749001,74.3979177966998,2.7245506018745003,1.168639759962447,A,1614.2003999993904,Correct
3,303,146,B,68.98070249721573,53.24895403466955,3.4490351248607864,0.8364326140332922,B,517.4071000001277,Correct
3,303,147,A,63.363894694590385,76.06186830465431,3.168194734729519,1.1947770334210817,A,762.3655999996117,Correct
3,303,148,B,65.3914427688496,35.678940943953634,3.2695721384424803,0.560443493786944,B,651.7630999987887,Correct
3,303,149,A,25.504190668756593,50.814318639545014,1.2752095334378297,0.7981894506758276,A,576.7539999978908,Correct
3,303,150,B,72.26808249240818,62.775364204851584,3.6134041246204096,0.986073115061927,B,531.504299997323,Correct
3,303,151,A,44.50704132640967,66.50046670234408,2.2253520663204838,1.044586888261884,A,679.4000000008964,Correct
3,303,152,B,84.96438406165414,65.4089734223681,4.248219203082707,1.0274417519128083,B,474.187300002086,Correct
3,303,153,A,32.879372893914564,51.1382317845105,1.6439686446957282,0.8032774664589512,A,574.3413999989571,Correct
3,303,154,A,39.51498823233182,55.627966423519034,1.9757494116165908,0.8738020532513354,A,574.6158000001742,Correct
3,303,155,B,67.27658221229338,44.86048054501729,3.3638291106146685,0.7046667805836707,B,587.0523000012327,Correct
3,303,156,B,53.34111255730242,22.520204554348805,2.6670556278651207,0.35374654592640803,B,574.9329999998736,Correct
3,303,157,B,50.91463055848457,29.42311155615189,2.5457315279242283,0.4621771555527986,B,484.4709999997576,Correct
3,303,158,B,58.15978525297103,31.40615858217872,2.9079892626485515,0.4933267853962435,B,413.0552999995416,Correct
3,303,159,A,65.63811733620099,81.62277993031374,3.2819058668100496,1.2821276289732504,A,701.3320000005479,Correct
3,303,160,A,53.53979153291398,73.02305986302396,2.676989576645699,1.1470435420416187,A,636.7783000023337,Correct
3,303,161,A,32.034104373940025,53.3245836156661,1.601705218697001,0.8376206007135564,A,858.6723000007623,Correct
3,303,162,B,49.72340573282625,38.892221038903614,2.4861702866413125,0.6109175794880499,B,583.8349999976344,Correct
3,303,163,B,82.29460850671578,60.41445830497874,4.1147304253357895,0.9489880919076403,B,595.169000000169,Correct
3,303,164,B,59.268991764414544,35.080079140689875,2.9634495882207275,0.5510365945786992,B,502.2348000020429,Correct
3,303,165,A,21.901835431409232,39.961254268322605,1.0950917715704618,0.6277099141879804,A,508.3221999993839,Correct
3,303,166,B,47.69222538892214,24.35688436912347,2.384611269446107,0.3825970449918717,B,485.9949999990931,Correct
3,303,167,A,35.14697485477752,67.52266267853113,1.7573487427388759,1.0606435051084755,A,562.6851999986684,Correct
3,303,168,B,73.53395047489798,53.26892125940949,3.6766975237448993,0.83674625846607,B,441.0671000005095,Correct
3,303,169,B,50.160498693041156,38.57201082241996,2.508024934652058,0.6058877291695027,B,2115.3040999997756,Correct
3,303,170,B,59.33069761816788,35.407297984202636,2.966534880908394,0.5561765361531784,B,511.46800000060466,Correct
3,303,171,B,74.83500734045454,55.194006419860926,3.7417503670227266,0.8669854254541148,B,530.7585999980802,Correct
3,303,172,A,31.087492760508606,62.94147583062912,1.5543746380254302,0.9886823903780199,A,640.3028000022459,Correct
3,303,173,A,25.424620108650494,42.78625740979449,1.2712310054325247,0.672084959766061,A,518.9282999999705,Correct
3,303,174,B,79.18467327367586,63.34792705402136,3.9592336636837926,0.995066911265278,B,514.5526999986032,Correct
3,303,175,B,66.83930280415815,34.05567642683374,3.3419651402079076,0.5349453143778599,B,660.472599996865,Correct
3,303,176,A,39.77117307162388,63.69174407733539,1.9885586535811939,1.0004675764383903,A,599.2608000015025,Correct
3,303,177,B,68.16644316605246,52.4717864289576,3.4083221583026226,0.8242248938297291,B,470.4635000016424,Correct
3,303,178,A,48.61932313044711,61.86803599757791,2.4309661565223553,0.9718208369100982,A,3021.6591999997036,Correct
3,303,179,B,57.11690881920765,38.23875533534575,2.8558454409603824,0.6006529642196986,B,572.8480999969179,Correct
3,303,180,B,68.80968699943898,48.478050144912494,3.4404843499719493,0.7614914309780735,B,403.1838000009884,Correct
3,303,181,A,37.24543142041365,57.46790738717175,1.8622715710206825,0.9027037783235867,A,2617.2785999988264,Correct
3,303,182,B,61.66526899165646,42.26469610023377,3.0832634495828235,0.663892293873498,B,453.1781999976374,Correct
3,303,183,A,30.424994467875905,59.157153391835365,1.5212497233937952,0.9292383925153725,A,662.3097999981837,Correct
3,303,184,A,67.52838931830813,89.21999150895034,3.3764194659154065,1.4014643493893106,A,620.920199999091,Correct
3,303,185,B,61.67549430974069,38.20507616510067,3.0837747154870345,0.6001239330505939,B,566.0639999987325,Correct
3,303,186,B,73.62845513292568,49.86288240839198,3.6814227566462843,0.7832443253050799,B,430.61820000002626,Correct
3,303,187,A,38.329445763311206,50.65992965065658,1.9164722881655605,0.7957643141093923,A,1958.8944999995874,Correct
3,303,188,B,52.64512885775669,36.24703248958124,2.6322564428878343,0.5693670549184948,B,545.41810000228,Correct
3,303,189,A,59.96095024335652,74.81329084027648,2.998047512167826,1.1751644244734456,A,775.7885999999417,Correct
3,303,190,A,37.194414241118984,45.065621308084076,1.8597207120559491,0.7078891241546829,A,1066.8224999972153,Correct
3,303,191,A,11.606102980226801,37.7189315264792,0.58030514901134,0.5924875909242175,A,524.2550000002666,Correct
3,303,192,B,37.85506041198155,14.243555012964457,1.8927530205990775,0.22373723894865608,A,1172.2216999987722,Incorrect
3,303,193,B,79.96032801172345,48.98479992146108,3.9980164005861725,0.76945143785414,B,733.1145999996806,Correct
3,303,194,A,32.832713066155584,54.3748126522547,1.6416356533077792,0.8541175598432235,A,1115.464599999541,Correct
3,303,195,A,47.41859806458918,76.37819470984378,2.370929903229459,1.19974587697448,A,621.7451000011351,Correct
3,303,196,A,40.02057107490347,66.19291389867543,2.0010285537451735,1.039755860118902,A,729.2870999990555,Correct
3,303,197,A,33.439276409966524,43.677459656965596,1.671963820498326,0.6860839319289384,A,939.0239999993355,Correct
3,303,198,B,83.3578250842525,58.18732649134893,4.167891254212625,0.9140043871862628,B,534.2730000011215,Correct
3,303,199,A,20.45781538974351,47.1486114985838,1.0228907694871754,0.7406086575545506,A,500.09180000051856,Correct
3,303,200,B,46.93249266408787,22.69171758369779,2.3466246332043936,0.3564406662913966,B,487.9584000009345,Correct
3,303,201,A,24.225512446891262,44.32969864615538,1.211275622344563,0.6963292780130557,A,1233.1076000009489,Correct
3,303,202,A,64.17824220748781,88.65397414818322,3.2089121103743907,1.3925733694773592,A,552.8330999986792,Correct
3,303,203,A,43.666682897910896,61.616586501019775,2.183334144895545,0.9678710774544186,A,907.5964000003296,Correct
3,303,204,B,60.478819249274736,43.6371070381329,3.023940962463737,0.685450074474549,B,478.6469999999099,Correct
3,303,205,A,31.756672072282,56.32855699855549,1.5878336036141,0.8848069042698793,A,722.501000000193,Correct
3,303,206,A,39.2569703394591,51.25526223416329,1.962848516972955,0.805115776463329,A,754.0278999986185,Correct
3,303,207,A,59.35185819456544,75.26311542587449,2.967592909728272,1.1822302525410395,A,2600.084000001516,Correct
3,303,208,B,81.03392035810289,53.95315734129856,4.051696017905145,0.8474942137069889,B,440.36530000084895,Correct
3,303,209,B,67.91008146368164,47.65234546949532,3.3955040731840818,0.7485212922664467,B,479.57660000247415,Correct
3,303,210,B,38.93796184016192,13.491208399219776,1.9468980920080958,0.2119194059751888,B,1689.7680000001856,Correct
3,303,211,A,43.73419328160841,55.30645629362971,2.1867096640804204,0.8687517839407602,A,1256.4601999984006,Correct
3,303,212,A,21.167068281851286,36.01645183205587,1.0583534140925643,0.5657451024197869,A,597.9497999978776,Correct
3,303,213,B,49.403529950788254,25.398613420261974,2.4701764975394127,0.3989604866623107,B,634.6857000025921,Correct
3,303,214,A,43.41242275303679,58.922561975676054,2.17062113765184,0.9255534391673659,A,954.4112999974459,Correct
3,303,215,A,27.549547319268726,58.9914134025867,1.3774773659634363,0.9266349548522241,A,631.9640000001527,Correct
3,303,216,B,59.07061053356894,38.711284205235295,2.953530526678447,0.6080754303509689,B,602.1265999988827,Correct
3,303,217,B,43.14816452903965,21.742068790220006,2.1574082264519827,0.34152361792599545,B,1345.1062999993155,Correct
3,303,218,B,32.08612287897263,18.90547554520668,1.6043061439486315,0.296966515427214,A,735.4789999990317,Incorrect
3,303,219,B,62.66550442094665,31.26927341552883,3.1332752210473327,0.49117659822657994,B,545.433299997967,Correct
3,303,220,B,67.38318027452702,56.18995064679645,3.3691590137263514,0.8826296807877437,B,811.6380000028585,Correct
3,303,221,A,45.43256787094257,62.21293341916167,2.2716283935471284,0.9772384729395461,A,806.396300002234,Correct
3,303,222,B,66.0599176759387,33.0241097481617,3.3029958837969353,0.5187415028808394,B,465.7521999979508,Correct
3,303,223,A,62.42894287288081,82.5139107674452,3.121447143644041,1.2961254794298478,A,577.4681000002602,Correct
3,303,224,B,36.161040236841274,23.395682108567183,1.8080520118420638,0.3674985151899841,B,640.6606000018655,Correct
3,303,225,B,58.57708748621463,38.220821756209,2.9288543743107316,0.6003712642173556,B,523.1591999981902,Correct
3,303,226,B,74.81994811432611,58.24115010210723,3.7409974057163056,0.9148498464870026,B,563.1710999987263,Correct
3,303,227,B,36.20513903799389,25.471265881082424,1.8102569518996945,0.40010170884820445,B,1255.0687000002654,Correct
3,303,228,A,46.36070432842154,66.30612945595821,2.318035216421077,1.0415342459340606,A,938.6710999970092,Correct
3,303,229,B,58.84735515019658,47.49223589509513,2.9423677575098286,0.7460062969529216,B,713.8412999993307,Correct
3,303,230,A,43.267246897761986,70.91912376520158,2.163362344888099,1.1139949910989129,A,829.1711000019859,Correct
3,303,231,B,71.25800091217886,58.974481562632114,3.5629000456089432,0.9263689901321587,B,504.76269999853685,Correct
3,303,232,B,51.71502071213098,20.05485930584395,2.585751035606549,0.31502099332008127,B,695.4378000009456,Correct
3,303,233,A,20.225475836224224,48.891074942908176,1.0112737918112111,0.7679792093337418,A,575.9840999999142,Correct
3,303,234,B,69.93709425736985,47.41667339733666,3.496854712868492,0.7448193640136972,B,804.4268999983615,Correct
3,303,235,A,68.12004293288726,86.297604120923,3.406002146644363,1.3555595956434598,A,624.8503999995592,Correct
3,303,236,A,37.56076144114084,55.98770260384799,1.878038072057042,0.8794527759580949,A,3782.1174999990035,Correct
3,303,237,A,38.68601611538068,64.95914592294922,1.934300805769034,1.0203758780750232,A,766.9857000000775,Correct
3,303,238,B,57.028483124210894,24.74099544321448,2.8514241562105447,0.3886306476345058,B,419.9521000009554,Correct
3,303,239,A,21.24628498483381,45.07227634136259,1.0623142492416904,0.7079936611729688,A,465.47670000290964,Correct
3,303,240,A,67.52871121143292,86.64074585506742,3.376435560571646,1.3609496533991008,A,493.38019999777316,Correct
3,303,241,B,61.707087011091836,31.375069598056236,3.0853543505545917,0.4928384407756097,B,540.5299999983981,Correct
3,303,242,A,24.336136229013796,46.89860388629314,1.2168068114506898,0.7366815471639813,A,502.50099999902886,Correct
3,303,243,A,59.207983146689344,69.39348344623588,2.960399157334467,1.0900302890084979,B,707.4761000003491,Incorrect
3,303,244,B,67.78223033182562,34.6732819963122,3.389111516591281,0.5446466399773082,B,1250.1364999989164,Correct
3,303,245,A,50.481204948870335,58.45389614947486,2.5240602474435168,0.9181916535844545,A,2936.4898999992874,Correct
3,303,246,A,25.92059243603666,41.40656849163692,1.296029621801833,0.6504128569184457,A,614.2804999981308,Correct
3,303,247,B,51.64128974931628,22.609948775200436,2.582064487465814,0.3551562448510561,B,836.3826999993762,Correct
3,303,248,B,71.15199666170109,48.00632762913286,3.557599833085055,0.7540816310275426,B,488.7968999973964,Correct
3,303,249,B,62.48493075141985,50.915628996163285,3.1242465375709925,0.7997808300362501,B,509.21459999881336,Correct
3,303,250,A,28.516657551568297,43.181713571505085,1.4258328775784148,0.6782967706282952,A,1373.5140999997384,Correct
3,303,251,A,43.785427215676414,73.83402261485324,2.189271360783821,1.1597821151590277,A,641.4291000000958,Correct
3,303,252,B,70.86707426742005,52.24326018512292,3.5433537133710025,0.8206352119858115,B,506.8193999977666,Correct
3,303,253,B,62.11680610097881,36.16217639223184,3.105840305048941,0.568034138458269,A,1130.0042000002577,Incorrect
3,303,254,A,56.29355371135904,64.92065480567467,2.814677685567952,1.0197712610187322,A,1053.3380999986548,Correct
3,303,255,B,42.8540780258345,18.767397316685265,2.142703901291725,0.29479758768549613,B,1982.4598999985028,Correct
3,303,256,B,42.03831401336113,13.536090064179461,2.1019157006680564,0.21262440551977993,B,638.7505999991845,Correct
3,303,257,A,35.53514454163023,62.40707088091813,1.7767572270815117,0.9802879770577495,A,1092.8380000004836,Correct
3,303,258,B,62.7635631325601,36.018192126497574,3.138178156628005,0.5657724389009525,B,581.6935000002559,Correct
3,303,259,B,71.38608911691652,61.47652273105189,3.5693044558458262,0.9656709609005927,B,513.2802000007359,Correct
3,303,260,A,32.81749953518069,62.26885841440214,1.6408749767590343,0.9781169407105436,A,574.8533999976644,Correct
3,303,261,B,38.72213139241304,12.180521120443494,1.936106569620652,0.19133117834440294,B,721.0614000032365,Correct
3,303,262,B,56.385271548425905,46.27121781757727,2.8192635774212955,0.7268265898417695,B,581.4731999998912,Correct
3,303,263,A,46.951959003628595,55.955585906400856,2.3475979501814295,0.8789482880543075,B,591.1357999975735,Incorrect
3,303,264,A,45.09014813526219,67.61673366022455,2.2545074067631092,1.0621211686334957,A,798.6267000014777,Correct
3,303,265,A,40.568773630984126,49.57552082147749,2.0284386815492064,0.7787304600532077,B,841.401900001074,Incorrect
3,303,266,B,73.76805564945656,54.67142127181559,3.6884027824728274,0.858776677144243,B,653.8284000016574,Correct
3,303,267,A,59.963114990484755,80.46025258724188,2.998155749524238,1.2638666921702912,A,608.8454000018828,Correct
3,303,268,B,81.70228556440632,59.283686978265976,4.085114278220316,0.9312259774431864,B,634.831800001848,Correct
3,303,269,B,51.688267170289706,42.497946191372876,2.5844133585144853,0.6675561777373568,B,564.2102000019804,Correct
3,303,270,A,59.00948713907198,75.16497831526327,2.9504743569535994,1.1806887184123358,A,702.406799999153,Correct
3,303,271,B,55.32319709509601,38.17675785486281,2.7661598547548003,0.5996791100735671,B,453.3539000003657,Correct
3,303,272,A,23.9147221191762,49.5918446644152,1.19573610595881,0.7789868743784649,A,460.8350000016799,Correct
3,303,273,B,41.916876537981466,33.46443675152969,2.095843826899073,0.5256581432756298,B,602.9140000027837,Correct
3,303,274,A,31.84044330070119,46.17232261002999,1.5920221650350594,0.7252731475542404,A,1609.820800000307,Correct
3,303,275,B,63.029963764440666,54.317680391512155,3.151498188222033,0.8532201283900648,B,557.4090000009164,Correct
3,303,276,A,17.184564279815316,40.01384621772215,0.8592282139907659,0.6285360265973381,A,605.7111999980407,Correct
3,303,277,B,68.07890510741883,56.7235173377333,3.403945255370942,0.8910109267699811,B,574.2381000018213,Correct
3,303,278,A,63.534051034412386,76.1679875962203,3.1767025517206195,1.196443951355021,A,1015.9567000009702,Correct
3,303,279,B,63.32508585322224,52.625747542447634,3.166254292661112,0.8266433093451231,B,608.7837999984913,Correct
3,303,280,B,52.13677328245969,43.384541923385505,2.606838664122985,0.6814827909293315,B,775.965200002247,Correct
3,303,281,A,32.88378562645617,52.32585675386097,1.6441892813228083,0.8219326358536073,A,760.5363000002399,Correct
3,303,282,A,65.31805264903937,84.03951667743151,3.2659026324519687,1.3200896410252785,A,645.2631000029214,Correct
3,303,283,A,60.50941898445626,85.84609911019842,3.025470949222813,1.3484673715197033,A,492.706699998962,Correct
3,303,284,A,57.8127484759967,82.48031318140964,2.890637423799835,1.2955977297825096,A,511.75920000241604,Correct
3,303,285,A,29.771516870359523,52.10453389693102,1.4885758435179761,0.8184561045465942,A,848.3412999994471,Correct
3,303,286,B,65.56920901407432,47.38123894069046,3.278460450703716,0.744262760870279,B,632.6526999982889,Correct
3,303,287,B,57.81993752011504,29.018799318282227,2.890996876005752,0.4558262337715597,B,536.1120999987179,Correct
3,303,288,B,48.51934232402599,19.71035793256427,2.4259671162012997,0.30960957840284614,B,582.1926999997231,Correct
3,303,289,A,41.589121986986235,52.02334411302128,2.079456099349312,0.8171807784032072,A,712.6733000004606,Correct
3,303,290,A,43.800736527741634,64.96491140484136,2.1900368263870815,1.020466442052807,A,1118.7642000004416,Correct
3,303,291,A,39.95436441188889,72.36541581593235,1.9977182205944444,1.1367132935065185,A,963.7271999999939,Correct
3,303,292,B,37.019497621219294,19.797992125434973,1.8509748810609647,0.31098613308547546,A,2417.028700001538,Incorrect
3,303,293,A,59.95198392725556,71.07982096188807,2.997599196362778,1.1165192167617266,A,1024.7539000010875,Correct
3,303,294,A,25.853965371248258,48.04460557925872,1.2926982685624129,0.7546828996620919,A,1036.11280000041,Correct
3,303,295,B,57.50026807005339,26.261700279216452,2.8750134035026695,0.41251782333981724,B,743.1451999982528,Correct
3,303,296,A,46.25506402623506,61.38261543195739,2.312753201311753,0.9641958684958241,A,1140.707400001702,Correct
3,303,297,B,71.72770971964383,54.31224845866977,3.5863854859821913,0.8531348037885026,B,550.6257000015466,Correct
3,303,298,A,47.91126344066429,60.69727560326017,2.395563172033215,0.9534305756405856,B,595.6078000017442,Incorrect
3,303,299,B,72.35522468324008,45.47375650170864,3.617761234162004,0.7143000967844949,B,625.4606000002241,Correct
3,303,300,A,44.508458734979556,65.11069642976648,2.225422936748978,1.0227564278693477,A,716.4689999990514,Correct
3,303,301,A,24.572238623774105,47.97098932487261,1.2286119311887052,0.7535265382422709,A,565.0335999998788,Correct
3,303,302,A,45.30056075861307,52.15641841865571,2.2650280379306533,0.8192711047080208,A,2559.8208000010345,Correct
3,303,303,B,42.9238281849006,31.90907040336033,2.14619140924503,0.5012265058103816,A,735.0310999972862,Incorrect
3,303,304,A,25.055159950505686,52.37756915709593,1.2527579975252843,0.8227449323841196,A,569.8075000000244,Correct
3,303,305,B,37.19366083466965,18.471439003738055,1.8596830417334826,0.2901486853768772,B,1823.0745000000752,Correct
3,303,306,A,64.98354461438522,80.31338302781766,3.249177230719261,1.2615596705256755,A,927.8943999997864,Correct
3,303,307,B,45.26788499188472,18.104708960140478,2.2633942495942363,0.28438810332279313,B,2414.266799998586,Correct
3,303,308,B,56.00682417154585,39.926948034487154,2.8003412085772923,0.6271710331270314,B,694.8627999991004,Correct
3,303,309,B,79.7340987119981,53.377991337792025,3.986704935599905,0.8384595272509352,B,1193.6066999987816,Correct
3,303,310,B,73.65251112067419,57.79479747404143,3.6826255560337096,0.9078385558007923,B,505.375599997933,Correct
3,303,311,A,36.82746824284143,47.06187347954715,1.8413734121420715,0.7392461799375881,A,917.5088000010874,Correct
3,303,312,B,59.277294167407646,44.94537996360295,2.9638647083703824,0.7060003775322846,B,651.6013000000385,Correct
3,303,313,A,49.244884210668,69.40846893010263,2.4622442105334,1.0902656804386293,A,846.9171000033384,Correct
3,303,314,A,33.949837848484414,61.31809069328174,1.6974918924242206,0.9631823162708327,A,809.7300000008545,Correct
3,303,315,A,41.00309094267284,71.80193228065546,2.050154547133642,1.127862114832295,A,606.9938000000548,Correct
3,303,316,B,33.24347194664116,11.74279841151126,1.662173597332058,0.18445544611094833,A,1963.6723000003258,Incorrect
3,303,317,B,63.427575939202534,55.54537350553148,3.1713787969601266,0.8725046867293942,B,831.5821000032884,Correct
3,303,318,B,66.25205179373016,41.90939527678966,3.312602589686508,0.6583112415897658,B,523.4353999985615,Correct
3,303,319,B,34.073635578738106,11.8989552432082,1.7036817789369052,0.18690835188728316,B,1347.469500000443,Correct
3,303,320,B,44.44370467584558,20.00898379323265,2.2221852337922794,0.31430038245308467,B,981.1292000013054,Correct
3,303,321,A,21.79193110480941,37.40013097688315,1.0895965552404705,0.5874798836013606,A,1266.422299999249,Correct
3,303,322,B,72.38072213829683,49.22678310733731,3.619036106914842,0.7732525008493453,B,799.3773000016517,Correct
3,303,323,A,49.82310101291377,61.465564198666264,2.491155050645688,0.9654988246764088,A,1968.480699997599,Correct
3,303,324,A,50.020513790883015,63.03108928416712,2.5010256895441505,0.990090035214509,A,732.6576000014029,Correct
3,303,325,B,57.92077970729784,44.38837484051016,2.896038985364892,0.6972509615186836,B,838.5990999995556,Correct
3,303,326,A,42.24595076551772,71.70016896368462,2.112297538275886,1.1262636203872924,A,931.2901000012062,Correct
3,303,327,A,25.326654128666327,45.70767725861446,1.2663327064333163,0.7179745154415823,A,904.0182999997342,Correct
3,303,328,B,41.56623597038245,24.257401712558345,2.0783117985191226,0.38103437507674875,B,552.5499999966996,Correct
3,303,329,B,74.92384749179115,48.80635965039203,3.7461923745895573,0.7666485046306647,B,638.1077000005462,Correct
3,303,330,B,59.999696914231194,33.3476005464633,2.99998484571156,0.5238228844580803,B,566.3843999973324,Correct
3,303,331,A,51.17624030753195,72.84516487610232,2.5588120153765974,1.1442491741215013,A,689.1909000005398,Correct
3,303,332,B,60.608208472724506,47.645439769554116,3.030410423636225,0.7484128177854308,B,608.1034000017098,Correct
3,303,333,A,65.31880168890532,78.03990689666429,3.265940084445266,1.2258479909669597,A,651.9513999992341,Correct
3,303,334,A,53.149938268147004,62.72277667770528,2.6574969134073503,0.9852470721171607,A,1896.4326999994228,Correct
3,303,335,A,31.461049591230953,57.55666374777554,1.5730524795615477,0.9040979599757479,A,637.409300001309,Correct
3,303,336,A,30.565909166485604,51.96532205814173,1.52829545832428,0.8162693700964284,A,1137.8153999976348,Correct
3,303,337,B,49.844683819986166,28.024807705337746,2.492234190999308,0.4402126500267785,B,924.8441999989154,Correct
3,303,338,B,56.26574623070565,44.16991971257772,2.8132873115352828,0.6938194763934258,B,760.5038000001514,Correct
3,303,339,B,76.55358138854507,48.772327516107474,3.8276790694272536,0.7661139291153928,B,545.5985000007786,Correct
3,303,340,A,56.54363933945742,67.45641556903476,2.827181966972871,1.0596028979458987,A,1819.573599997966,Correct
3,303,341,B,49.5627878631109,37.21574507200729,2.4781393931555447,0.5845835565804433,B,793.0664999985311,Correct
3,303,342,A,52.74281922273812,80.08382738584385,2.637140961136906,1.2579538189336006,A,1034.1976999989129,Correct
3,303,343,B,44.21759916849958,29.291917437930852,2.210879958424979,0.4601163631628116,B,889.9180000007618,Correct
3,303,344,A,60.00862221621766,85.28363454159918,3.000431110810883,1.3396321987366238,A,947.0707000000402,Correct
3,303,345,A,44.56525100469074,66.52576753058065,2.228262550234537,1.0449843127424727,A,880.6291000000783,Correct
3,303,346,B,74.46003119100624,52.349151072380366,3.723001559550312,0.8222985421532619,B,841.4555000017572,Correct
3,303,347,A,19.567371935424898,33.51180264418856,0.978368596771245,0.526402164977669,A,571.4044000014837,Correct
3,303,348,A,19.76705644601154,34.818749538112144,0.988352822300577,0.5469316387805806,A,531.4093999986653,Correct
3,303,349,B,61.42927496069229,31.14790228356984,3.0714637480346147,0.4892701049439789,B,778.047299998434,Correct
3,303,350,A,20.00472039017897,43.98081567237796,1.0002360195089486,0.6908490370761472,A,613.0907000006118,Correct
3,303,351,A,27.6147504966737,42.0417036721974,1.380737524833685,0.6603895370048719,A,642.0883999999205,Correct
3,303,352,A,32.06034120909761,52.70140751482916,1.6030170604548803,0.8278317734121459,A,583.9143000011973,Correct
3,303,353,B,46.05238485089232,23.655429414899327,2.302619242544616,0.37157861633679806,B,487.36450000069453,Correct
3,303,354,B,42.479539616422116,32.35400427622963,2.123976980821106,0.5082155107420788,B,1060.889500000485,Correct
3,303,355,B,62.339623656330055,29.75488638937881,3.116981182816503,0.467388662446357,B,649.3206000013743,Correct
3,303,356,A,24.13772506885997,47.45409218447721,1.2068862534429985,0.745407136947632,A,588.6686999983795,Correct
3,303,357,A,30.929472868198843,47.48953519104878,1.5464736434099422,0.7459638743929641,A,963.8395000001765,Correct
3,303,358,A,25.267567429528953,54.34208283036986,1.2633783714764477,0.8536034410032899,A,652.1329000024707,Correct
3,303,359,B,81.38139477030063,55.176073896570045,4.069069738515031,0.8667037420369599,B,603.0304999985674,Correct
3,303,360,A,11.874744300141732,33.74842850665951,0.5937372150070865,0.5301190753336092,A,549.2678999980853,Correct
3,303,361,A,50.177475096324336,62.602483046524576,2.508873754816217,0.9833575041772058,A,1748.1590999996115,Correct
3,303,362,B,41.20926710514388,30.03148888435421,2.060463355257194,0.4717335242772536,B,549.5429000002332,Correct
3,303,363,B,72.36296364465169,59.73566036381101,3.6181481822325843,0.9383255587814182,B,519.5539000014833,Correct
3,303,364,B,52.11926986348778,22.325824560958452,2.6059634931743894,0.3506932321302082,B,524.7974000012618,Correct
3,303,365,A,27.488226057777634,50.01499608895988,1.3744113028888816,0.785633721411993,A,665.2315999999701,Correct
3,303,366,A,46.05340685921614,69.06193272080529,2.302670342960807,1.0848223023919723,A,918.4839999979886,Correct
3,303,367,B,63.440622271682344,33.689463662929654,3.1720311135841173,0.5291928577342004,B,613.3688000008988,Correct
3,303,368,A,45.259587543835025,70.04756727996838,2.2629793771917512,1.100304613842927,A,762.4000999967393,Correct
3,303,369,A,57.5704374676016,71.81334344710343,2.87852187338008,1.1280413610157043,A,605.7159999982105,Correct
3,303,370,A,54.65670467823082,65.40005048880894,2.7328352339115405,1.0273015908002188,A,791.9089999995776,Correct
3,303,371,B,55.175118082753656,34.31073769926072,2.758755904137683,0.5389518074762192,B,674.4483000002219,Correct
3,303,372,B,62.868630763814096,55.08534921851139,3.143431538190705,0.8652786421265183,B,845.7161999976961,Correct
3,303,373,A,66.64931866520845,88.95632133799324,3.3324659332604227,1.3973226280290627,A,656.8155999993905,Correct
3,303,374,A,48.57226417446848,55.989731199273365,2.428613208723424,0.8794846410605224,A,3670.9498000018357,Correct
3,303,375,B,35.73456077438749,19.67408408824456,1.7867280387193745,0.3090397901886847,B,1240.836600001785,Correct
3,303,376,A,47.76369805825053,74.11219112295666,2.3881849029125264,1.1641515758666166,A,552.593500000512,Correct
3,303,377,B,70.76882016718525,39.78050120316661,3.538441008359263,0.6248706516799407,B,477.0336999972642,Correct
3,303,378,B,34.789261742091995,11.604448278500382,1.7394630871045995,0.18228224730349762,B,1309.8788999996032,Correct
3,303,379,A,13.150972485551002,38.60081855865868,0.65754862427755,0.6063402400321732,A,528.6233000006177,Correct
3,303,380,A,54.72171154443481,79.50168059215073,2.7360855772217407,1.2488094784817148,A,630.9958999991068,Correct
3,303,381,A,65.56620750131421,84.88880856610933,3.2783103750657108,1.333430286816397,A,881.7588000019896,Correct
3,303,382,B,78.8450859292654,63.95549575988928,3.9422542964632696,1.0046105781798067,B,774.7711000010895,Correct
3,303,383,A,48.82463616412879,72.10953849264551,2.4412318082064393,1.1326939819112276,A,962.344600000506,Correct
3,303,384,A,22.714184739412172,35.130927131962224,1.1357092369706085,0.5518353129578543,A,789.4040999999561,Correct
3,303,385,B,54.221544732529864,35.308258484915285,2.7110772366264935,0.5546208273362967,B,529.0205999990576,Correct
3,303,386,A,37.712078381257164,67.89962721469433,1.8856039190628582,1.0665648501958465,A,842.9729000017687,Correct
3,303,387,B,75.36399280521344,51.24945947643521,3.768199640260672,0.8050246269580834,B,753.6098000018683,Correct
3,303,388,A,16.803393286750307,34.43691460503386,0.8401696643375154,0.5409337896773672,A,815.4171999995015,Correct
3,303,389,B,84.1830010101382,68.53027391564278,4.20915005050691,1.0764710254093979,B,520.5222000004142,Correct
3,303,390,B,58.88372138245238,43.21159214867104,2.944186069122619,0.6787661022209166,B,777.67749999839,Correct
3,303,391,B,47.541399632183115,19.338434256106627,2.377069981609156,0.3037674149545689,B,716.4444000009098,Correct
3,303,392,B,53.9263106968923,28.46003101499332,2.696315534844615,0.44704912178820333,B,499.09829999887734,Correct
3,303,393,A,62.23356984807184,78.99550964611268,3.111678492403592,1.2408585638540461,A,739.8925000015879,Correct
3,303,394,A,55.88074896334386,84.40972120139048,2.7940374481671935,1.3259048000892546,A,604.7691000021587,Correct
3,303,395,A,23.367452528781307,42.61481578855592,1.1683726264390655,0.669391961077048,A,498.58859999949345,Correct
3,303,396,B,71.10186291237753,52.35606155304403,3.555093145618877,0.8224070917296907,B,673.7450000000536,Correct
3,303,397,B,73.88328005382,49.52923017752347,3.694164002691,0.778003328318328,B,508.2394999990356,Correct
3,303,398,A,58.92518606132763,79.56988975186275,2.9462593030663817,1.2498809054570088,A,738.0431000019598,Correct
3,303,399,B,42.06258534103155,31.99152330323257,2.1031292670515773,0.5025216729329105,B,2113.5116000004928,Correct
3,303,400,B,34.6958646840563,14.955746413471793,1.734793234202815,0.2349243153075744,B,845.6891000023461,Correct
3,303,401,B,55.52807439322876,28.035910470271055,2.7764037196614377,0.4403870518505235,B,895.1034999990952,Correct
3,303,402,B,79.13740177524437,52.97164355746517,3.9568700887622184,0.8320766312435482,B,647.0924999994168,Correct
3,303,403,A,33.18204202163923,63.32188519206895,1.6591021010819613,0.9946578466543006,A,678.0274000011559,Correct
3,303,404,A,52.02018662509553,62.17427760348281,2.601009331254777,0.9766312688067699,B,692.9244999992079,Incorrect
3,303,405,B,56.362948750300816,34.49850257108044,2.818147437515041,0.5419012111857744,B,877.2368999998434,Correct
3,303,406,A,29.72380997921036,51.33569140265524,1.486190498960518,0.8063791548876721,A,950.6187000006321,Correct
3,303,407,A,35.30104325965529,62.383093429749024,1.7650521629827642,0.9799113401355262,A,1536.8468999986362,Correct
3,303,408,A,28.04286511698233,49.2724300623537,1.4021432558491165,0.7739695215420362,A,991.4859000018623,Correct
3,303,409,A,52.673533154449046,65.75252365624337,2.6336766577224524,1.0328382263672162,A,1489.7124000017357,Correct
3,303,410,B,49.051175693714804,29.05694007417214,2.45255878468574,0.45642534736409024,B,903.2535000005737,Correct
3,303,411,A,37.93007457171486,59.37517384768469,1.8965037285857431,0.9326630498275152,A,1061.0531999991508,Correct
3,303,412,A,33.45205269679643,57.80222846573691,1.6726026348398215,0.9079552815453894,A,1179.9893000024895,Correct
3,303,413,A,34.052357969896626,49.988464995496294,1.7026178984948315,0.7852169719704083,A,1602.3461000004318,Correct
3,303,414,A,31.492240926395862,53.0907606918859,1.5746120463197932,0.8339477188156126,A,977.2941999981413,Correct
3,303,415,A,48.64105425123357,79.0016016172889,2.4320527125616787,1.2409542563135116,A,973.7030000032973,Correct
3,303,416,A,30.226308192885625,42.692650510972676,1.5113154096442813,0.6706145860377414,A,922.3906000006536,Correct
3,303,417,A,50.673160354129664,62.69082507524951,2.5336580177064834,0.9847451775194332,A,2467.7857999995467,Correct
3,303,418,B,59.324484776959906,41.33613129367588,2.9662242388479956,0.6493064320001765,B,874.4561000021349,Correct
3,303,419,B,76.9946406815773,52.394912156455334,3.8497320340788646,0.8230173555810131,B,851.2768000000506,Correct
3,303,420,B,80.88749664658542,56.30238315974679,4.044374832329271,0.8843957665712909,B,860.6904000007489,Correct
3,303,421,B,70.51943778966707,38.43228459013956,3.525971889483353,0.6036929146452733,B,686.0789000020304,Correct
3,303,422,A,13.828221040614903,35.975206830272214,0.6914110520307452,0.5650972274467827,A,948.9633999983198,Correct
3,303,423,A,23.58888882900923,51.77141026531906,1.1794444414504612,0.8132234107775479,A,518.6583999966388,Correct
3,303,424,A,18.995470093236,31.944267585976682,0.9497735046618001,0.5017793818620544,A,1118.3727999996336,Correct
3,303,425,B,68.58709828614651,58.808099650944925,3.4293549143073254,0.9237554691749251,B,595.6727000011597,Correct
3,303,426,B,86.40747758668614,65.69575519216,4.320373879334307,1.0319465094186167,B,636.4761999975599,Correct
3,303,427,A,45.61043868054249,63.600969492339814,2.2805219340271243,0.9990416925916167,A,1567.5831000007747,Correct
3,303,428,A,15.351111298892405,44.64277846225183,0.7675555649446203,0.701247124264235,A,913.2331000000704,Correct
3,303,429,B,41.27362583696045,21.257280657510655,2.063681291848022,0.3339085837446594,B,1367.6125000019965,Correct
3,303,430,A,52.70768722410046,78.68031661744291,2.635384361205023,1.235907523337388,A,1224.1810999985319,Correct
3,303,431,B,75.59601925773552,61.49061446747635,3.779800962886776,0.9658923133787297,B,805.4732000018703,Correct
3,303,432,B,40.7974506201099,23.785465231770157,2.0398725310054946,0.3736212141717229,B,1003.797499997745,Correct
3,303,433,B,67.10819065836179,43.52793374095891,3.3554095329180895,0.683735184332699,B,765.4414999997243,Correct
3,303,434,A,29.65216653169095,46.422113715730376,1.4826083265845476,0.7291968570672426,A,994.4388000003528,Correct
3,303,435,A,42.90729346850098,53.14063016503487,2.1453646734250493,0.8347310666680284,A,2092.952200000582,Correct
3,303,436,A,63.78446212184335,80.17359052960899,3.1892231060921676,1.259363815098679,A,1128.5750999995798,Correct
3,303,437,A,24.641426902363214,40.924313248020425,1.2320713451181606,0.642837609265942,A,1138.7686999987636,Correct
3,303,438,A,32.48270185656408,43.184264529417504,1.6241350928282037,0.6783368409814816,A,1357.2846999995818,Correct
3,303,439,A,45.21143625284837,71.5068108500837,2.260571812642419,1.1232263582412891,A,1061.5887999992992,Correct
3,303,440,A,31.16538832015201,41.043801120235685,1.5582694160076005,0.6447145203736647,A,1504.3664000004355,Correct
3,303,441,B,75.24166560983318,43.25356774313987,3.7620832804916584,0.6794254533169832,B,894.1690999999992,Correct
3,303,442,A,40.41345688893932,68.77522880175349,2.020672844446966,1.0803187677627295,A,1798.1916999997338,Correct
3,303,443,B,59.002929505154334,34.24015945424248,2.950146475257717,0.5378431669959564,B,527.2910999992746,Correct
3,303,444,A,15.284286733758154,43.27527297176529,0.7642143366879077,0.6797663982509538,A,1322.3715000021912,Correct
3,303,445,B,59.56850885402795,48.93862809471661,2.9784254427013974,0.7687261724956238,B,604.3496999991476,Correct
3,303,446,B,82.20239468888812,57.81765202180421,4.110119734444407,0.9081975541975557,B,749.1613999991387,Correct
3,303,447,A,15.496798963289123,34.58687621946798,0.7748399481644561,0.5432893812085007,A,1006.8549999996321,Correct
3,303,448,B,82.14346433625118,68.10724968416007,4.107173216812559,1.0698261763198151,B,488.5102000007464,Correct
3,303,449,B,45.73290080631921,23.69358067266124,2.2866450403159604,0.37217789489234837,B,738.7258999988262,Correct
3,303,450,A,38.737044551482654,70.99859572323642,1.9368522275741327,1.1152433336965564,A,671.716100001504,Correct
3,303,451,A,62.78121688875308,75.12685457383826,3.1390608444376538,1.1800898720823951,A,1236.704999999347,Correct
3,303,452,B,59.462774814073214,34.97128413421392,2.9731387407036607,0.5493276466132386,B,464.0369999979157,Correct
3,303,453,A,15.040280701558832,35.03799540898909,0.7520140350779415,0.5503755448669652,A,494.101899999805,Correct
3,303,454,A,23.814206948277214,34.739302564055336,1.1907103474138607,0.5456836886303466,A,670.9553000000597,Correct
3,303,455,B,30.158896688875036,12.736473450683558,1.5079448344437518,0.20006405712654454,A,1241.4499999977124,Incorrect
3,303,456,B,74.29149299891091,53.20922970343128,3.7145746499455456,0.8358086256973576,B,588.235999999597,Correct
3,303,457,A,28.769376881132175,41.307545822863744,1.438468844056609,0.6488574124746623,A,1235.4238000007172,Correct
3,303,458,B,61.44772206283679,39.81982639660084,3.0723861031418394,0.6254883703739106,B,903.8457999995444,Correct
3,303,459,B,55.457577667708776,45.07687620324911,2.772878883385439,0.7080659156345198,B,828.5321000003023,Correct
3,303,460,A,26.704262392249078,56.06743478570051,1.3352131196124537,0.880705206141908,A,999.6491000019887,Correct
3,303,461,B,38.995129094938406,24.326503373223325,1.9497564547469204,0.3821198214242286,B,1318.7975000000733,Correct
3,303,462,B,53.96373078080805,46.19575837096409,2.6981865390404027,0.72564127562615,B,931.782600000588,Correct
3,303,463,B,59.59717041109549,32.325088606956825,2.9798585205547745,0.5077613044712734,B,847.931600001175,Correct
3,303,464,B,50.918283323378965,19.881783005302008,2.545914166168948,0.31230231714861595,B,809.6253999974579,Correct
3,303,465,B,39.57488443610765,27.38992501798431,1.9787442218053826,0.430239936094374,B,952.4793999989924,Correct
3,303,466,A,37.666897908697194,65.65284159743929,1.8833448954348597,1.0312724242490483,A,945.6563000021561,Correct
3,303,467,B,57.10731130339589,29.206631053680972,2.8553655651697945,0.4587766877717583,B,913.4011999994982,Correct
3,303,468,A,46.51815781370779,64.40862922201005,2.3259078906853894,1.0117283819582783,A,1096.57850000076,Correct
3,303,469,B,44.14916944897708,19.20522952348501,2.207458472448854,0.3016750399074315,B,494.6890999999596,Correct
3,303,470,B,69.78798539788244,39.482674739351054,3.489399269894122,0.6201924045261029,B,697.7097999988473,Correct
3,303,471,B,75.45110851803105,47.300246170820515,3.7725554259015524,0.7429905294161924,B,685.9015999980329,Correct
3,303,472,A,36.28595547969922,47.70039031400559,1.814297773984961,0.7492759789192284,A,896.3831999972172,Correct
3,303,473,A,33.84217020877901,45.51393612225159,1.6921085104389504,0.7149312367881037,A,823.004599998967,Correct
3,303,474,B,51.68053748454656,21.04437133313215,2.584026874227328,0.330564211897918,B,801.7842000008386,Correct
3,303,475,A,19.095905850181023,32.905647925811536,0.9547952925090512,0.5168807089267087,A,1013.3844999982102,Correct
3,303,476,A,43.07473911984174,65.05488753223727,2.153736955992087,1.0218797837569342,A,966.2444999994477,Correct
3,303,477,A,42.83866854194075,70.59432856408337,2.1419334270970376,1.108893120010142,A,910.2626000021701,Correct
3,303,478,B,46.258653717190604,34.96366437783351,2.3129326858595305,0.5492079557599046,B,3090.132799999992,Correct
3,303,479,B,84.52214415198033,57.554752053841696,4.226107207599017,0.9040679311576557,B,753.0726999975741,Correct
3,303,480,A,40.072154482902405,60.95848945413317,2.0036077241451205,0.9575337132151781,A,1345.0841000012588,Correct
3,303,481,B,36.786646508634135,21.386432467189056,1.8393323254317067,0.3359372956270769,B,1025.9124000003794,Correct
3,303,482,B,40.223864099173035,26.613735056697053,2.011193204958652,0.41804757269352305,B,857.1173999989696,Correct
3,303,483,B,79.25819978353688,66.59153101425234,3.9629099891768442,1.0460173231283603,B,951.773000000685,Correct
3,303,484,B,75.65043012565204,52.91110316278217,3.782521506282602,0.8311256649476407,B,760.0138999987394,Correct
3,303,485,B,74.37270433244417,59.33261176849197,3.718635216622209,0.9319944862509484,B,758.6912000006123,Correct
3,303,486,A,33.14074777244201,63.65615718046519,1.6570373886221006,0.9999085787695331,A,873.2008000006317,Correct
3,303,487,B,53.70320962436612,26.007754955233587,2.685160481218306,0.4085288595186269,B,883.1308000007994,Correct
3,303,488,A,56.27677434648242,72.3274914577042,2.813838717324121,1.13611757908051,A,1128.386699998373,Correct
3,303,489,A,61.7398983748959,79.93147484472414,3.086994918744795,1.2555606708139135,A,927.8487999981735,Correct
3,303,490,A,31.499324971082018,40.4920567437152,1.574966248554101,0.6360477399739837,A,1170.0543000006292,Correct
3,303,491,B,48.45087461912092,24.944597183576413,2.422543730956046,0.39182881629340155,B,899.7769999987213,Correct
3,303,492,A,64.21074416028297,84.2777529823709,3.2105372080141485,1.3238318481523583,A,1052.5983999978052,Correct
3,303,493,A,21.50879813285548,48.26374359672706,1.0754399066427738,0.7581251115910957,A,1033.8857999995525,Correct
3,303,494,A,27.51996251333474,40.48519440328684,1.375998125666737,0.6359399465826028,A,1025.6053000011889,Correct
3,303,495,B,84.33643691605461,61.07127612932575,4.2168218458027305,0.9593053621662174,B,932.0901999999478,Correct
3,303,496,A,56.94547405348726,70.94182065718212,2.847273702674363,1.11435151304444,A,1148.1079999975918,Correct
3,303,497,A,42.78962601945013,70.04378776682334,2.139481300972507,1.1002452453892742,A,1054.6222000011767,Correct
3,303,498,B,35.54555355081484,19.482133633729894,1.777277677540742,0.30602463949990233,B,1196.689200001856,Correct
3,303,499,B,63.73347563384097,55.08719136880301,3.1866737816920483,0.8653075785556331,B,778.513600002043,Correct
3,303,500,B,88.72284243432287,65.13693849280459,4.436142121716143,1.0231686372316255,B,881.984100000409,Correct
3,303,501,B,53.04765278019029,23.340973494652104,2.6523826390095144,0.36663915429216565,B,774.9776000018755,Correct
3,303,502,A,54.166178981806254,66.75012791531327,2.7083089490903127,1.0485085574246358,A,2217.4816000006103,Correct
3,303,503,B,50.115323980392155,35.14064540751196,2.505766199019608,0.5519879672732174,B,497.24369999967166,Correct
3,303,504,A,23.19551849828006,38.30807557071242,1.159775924914003,0.6017418439305638,A,595.1607000024524,Correct
3,303,505,B,62.45521593614996,47.49636110554051,3.122760796807498,0.7460710956070703,B,544.4650999997975,Correct
3,303,506,A,19.348622512480155,46.18464355585828,0.9674311256240077,0.7254666845187377,A,544.9780999988434,Correct
3,303,507,B,68.24111429226684,35.92682929887832,3.4120557146133423,0.5643373149606533,B,497.5625000006403,Correct
3,303,508,B,65.25036185534883,49.71106121640072,3.2625180927674418,0.7808595235979849,B,558.2379000006767,Correct
3,303,509,B,36.19276947879276,12.784681610773077,1.8096384739396383,0.2008213091344461,B,707.2487000004912,Correct
3,303,510,B,37.35800695632461,25.920179701410547,1.8679003478162304,0.40715323064839326,B,548.6557000003813,Correct
3,303,511,B,66.36111942882397,45.93016583717186,3.3180559714411983,0.7214693578611,B,538.4670999992522,Correct
3,303,512,B,61.841882380083305,40.555079083050835,3.092094119004165,0.6370376925653279,B,525.239499998861,Correct
3,303,513,B,82.17296547557311,68.43276375037482,4.108648273778655,1.0749393393151172,B,2048.2856999988144,Correct
3,303,514,B,57.981958746931,33.358972635759315,2.89909793734655,0.5240015168190221,B,713.3944999986852,Correct
3,303,515,A,49.44181265396643,61.73171297627634,2.4720906326983214,0.9696794798989172,A,2164.986100000533,Correct
3,303,516,B,69.13622799979397,47.084058573537156,3.4568113999896983,0.7395946625790791,B,539.9230000002717,Correct
3,303,517,A,48.5308040806555,60.042430868786624,2.4265402040327753,0.9431442986052654,A,3024.079700000584,Correct
3,303,518,B,50.08711769353616,29.110747385936094,2.5043558846768077,0.45727055064082556,B,808.9328999994905,Correct
3,303,519,B,71.807111480592,57.158041558067765,3.5903555740295996,0.8978364172620289,B,781.3720000012836,Correct
3,303,520,A,23.5484851114719,37.73873456926056,1.1774242555735952,0.5927986563928207,A,857.2185999983049,Correct
3,303,521,B,45.166392834223586,32.449686117154656,2.2583196417111795,0.5097184775847388,B,485.67329999787034,Correct
3,303,522,A,19.47424251210574,48.168093752431886,0.9737121256052871,0.7566226473503221,A,535.6444000026386,Correct
3,303,523,A,20.55527440761646,37.03068709287843,1.0277637203808228,0.5816766726418463,A,786.9516999999178,Correct
3,303,524,B,55.23108423811864,38.15069090035788,2.7615542119059318,0.5992696513096963,B,521.8450000029407,Correct
3,303,525,B,56.30438431810147,28.40379691926671,2.8152192159050737,0.44616579867812356,B,434.45519999659155,Correct
3,303,526,B,40.71129466177585,22.10899805086017,2.0355647330887927,0.34728732927406675,B,513.6224999987462,Correct
3,303,527,A,30.583921988486743,55.310667195350106,1.529196099424337,0.8688179286303094,A,854.8874000007345,Correct
3,303,528,B,31.23301473591346,15.59962898236947,1.5616507367956731,0.24503839904869176,B,770.4788000010012,Correct
3,303,529,A,34.69968847996405,60.826960572769345,1.7349844239982024,0.9554676623780409,A,627.0590999993146,Correct
3,303,530,B,77.2590039732306,50.05215475081032,3.8629501986615304,0.7862174083074257,B,845.8094999987225,Correct
3,303,531,A,57.29540941026002,81.92968863812644,2.8647704705130015,1.2869485396821856,A,630.3993000001356,Correct
3,303,532,A,40.095357472812054,56.53237313630837,2.0047678736406027,0.8880084406751168,A,1049.168199999258,Correct
3,303,533,A,14.935339761780355,41.01203590242787,0.7467669880890178,0.6442155534991412,A,573.3508999983314,Correct
3,303,534,B,36.288092459645114,23.418209015652014,1.8144046229822555,0.36785236701901314,B,2122.3289000008663,Correct
3,303,535,A,17.885374806132493,42.936692605790185,0.8942687403066246,0.6744479902989682,A,542.4724999975297,Correct
3,303,536,A,33.01043193343433,44.787020936567394,1.6505215966717168,0.7035128797524618,A,637.6735000012559,Correct
3,303,537,B,73.93309353836729,48.331973598924456,3.6966546769183646,0.7591968659593846,B,481.8166000004567,Correct
3,303,538,B,71.98058603093487,56.52278650334385,3.599029301546744,0.8878578541966466,B,593.5695999978634,Correct
3,303,539,B,40.92903507224781,30.877763751084004,2.0464517536123905,0.4850267787984336,B,2698.122099998727,Correct
3,303,540,A,41.91551690985235,70.04231174998037,2.0957758454926174,1.1002220601709218,A,679.6801999989839,Correct
3,303,541,B,76.00404263475508,55.94607084318681,3.800202131737754,0.878798825790849,B,423.1283999979496,Correct
3,303,542,A,21.279763159464117,39.627664543177474,1.063988157973206,0.6224698990388354,A,885.491599998204,Correct
3,303,543,A,51.3696465701877,64.469585672422,2.5684823285093845,1.0126858836422936,A,1936.2799000009545,Correct
3,303,544,A,29.55973559502165,51.71597432341467,1.4779867797510826,0.8123526250383896,A,824.5701999985613,Correct
3,303,545,B,52.36131426187599,33.74347909593632,2.618065713093799,0.5300413301717716,B,752.004100002523,Correct
3,303,546,B,48.91036066186898,38.00690285746662,2.445518033093449,0.5970110340135902,B,552.89410000114,Correct
3,303,547,B,64.21392308020823,36.90005457477373,3.210696154010412,0.579624701845858,B,502.9638999985764,Correct
3,303,548,B,51.281231772961235,29.001390750711813,2.5640615886480616,0.4555527806316161,B,469.292999998288,Correct
3,303,549,B,72.91520932404521,41.35153702078923,3.6457604662022605,0.649548424595789,B,491.4042000018526,Correct
