subject,day,trial,cat,x,y,xt,yt,resp,rt,fb
12,212,0,B,76.93784499173981,60.357607900259666,3.84689224958699,0.9480950878385452,B,1211.8024999999761,Correct
12,212,1,B,79.88526220932239,50.37420516283457,3.9942631104661195,0.7912761643499305,B,495.97369999901275,Correct
12,212,2,B,62.947458078219995,35.99177935000415,3.1473729039109997,0.5653575479779893,B,705.0904999996419,Correct
12,212,3,B,71.59931276039232,39.19258235148592,3.579965638019616,0.6156356439532057,B,481.4014000003226,Correct
12,212,4,B,37.13069805005611,24.306978146582402,1.8565349025028055,0.38181311988135463,A,1337.1279999992112,Incorrect
12,212,5,A,31.89526899574784,63.669344269701064,1.5947634497873922,1.0001157210828613,A,633.6554000008618,Correct
12,212,6,A,30.56648304904425,54.42362670377219,1.5283241524522126,0.85488432917142,A,500.1832000016293,Correct
12,212,7,B,84.58751340928426,55.46773594744374,4.229375670464213,0.8712851588187388,B,565.0355000016134,Correct
12,212,8,B,63.548092581959516,40.757219997554174,3.177404629097976,0.6402129146252961,B,541.8503000000783,Correct
12,212,9,B,57.75539750850985,25.435566683674004,2.8877698754254926,0.39954094716661775,B,576.6769999991084,Correct
12,212,10,A,68.0210011079644,87.62042068240963,3.4010500553982195,1.3763383496015265,A,621.3392000008753,Correct
12,212,11,B,84.0509268238437,57.41959634973853,4.2025463411921855,0.9019449103221493,B,591.0139999996318,Correct
12,212,12,A,27.112827523143636,38.00692864444453,1.3556413761571817,0.597011439074492,A,533.9559000003646,Correct
12,212,13,A,37.177242934626285,67.5731030724637,1.8588621467313144,1.0614358209635892,A,1350.812800001222,Correct
12,212,14,B,60.91302123155399,38.60404452390227,3.0456510615776993,0.6063909133757233,B,547.2329999993235,Correct
12,212,15,B,40.19832586238289,12.85903833585813,2.0099162931191445,0.2019893018408071,B,852.6476999995793,Correct
12,212,16,A,20.233539409471494,38.52453652252865,1.0116769704735746,0.6051420046106384,A,775.6582000001799,Correct
12,212,17,A,35.556152048008826,55.33566522090309,1.7778076024004412,0.8692105966974667,A,1233.926100001554,Correct
12,212,18,B,46.975348141953084,29.6605973190213,2.3487674070976543,0.4659075731926122,B,1217.3891000002186,Correct
12,212,19,B,69.21698997501629,49.96142805734522,3.4608494987508145,0.7847922767390536,B,569.3964999991294,Correct
12,212,20,A,23.07056263547314,51.03919312268536,1.153528131773657,0.8017217707968952,A,646.3964999984455,Correct
12,212,21,A,44.79197949509684,57.8967871893702,2.2395989747548417,0.9094406065028853,A,1162.225000000035,Correct
12,212,22,B,52.56416510319939,39.32090150000356,2.6282082551599695,0.6176512764246952,B,1051.6372000001866,Correct
12,212,23,A,16.0344323296432,36.35462263999938,0.8017216164821599,0.5710570770492561,A,585.4505000006611,Correct
12,212,24,B,45.06781098031138,35.87875916876226,2.253390549015569,0.5635822311225047,A,1362.3188999990816,Incorrect
12,212,25,B,82.69794615048919,59.989644892632484,4.13489730752446,0.9423151384307733,B,497.19890000051237,Correct
12,212,26,A,19.26531972604925,36.922371969179416,0.9632659863024625,0.5799752626574188,A,543.5729999990144,Correct
12,212,27,A,31.022273487683606,58.221747025790705,1.5511136743841802,0.9145450636769373,A,493.9460000005056,Correct
12,212,28,A,46.765878488417314,62.42821079497499,2.338293924420866,0.9806200420512421,B,1182.7675999993517,Incorrect
12,212,29,B,73.90360821016428,62.50917612219871,3.695180410508214,0.9818918424372499,B,625.8548999994673,Correct
12,212,30,A,23.01917550320672,46.0763599164371,1.150958775160336,0.72376576908819,A,608.4979999995994,Correct
12,212,31,B,51.37254776595721,44.7584653620282,2.5686273882978607,0.7030643298365049,B,580.625799999325,Correct
12,212,32,A,24.799696495875786,55.602182094081165,1.2399848247937895,0.8733970339516367,A,532.3668000000907,Correct
12,212,33,A,55.75943285866708,68.33393321748089,2.7879716429333543,1.0733869129346674,A,937.0785000010073,Correct
12,212,34,A,42.09369467634169,73.83774702064439,2.1046847338170847,1.1598406179883902,A,495.43009999979404,Correct
12,212,35,A,49.66815295375752,76.42040234028666,2.483407647687876,1.200408872883104,A,586.472799999683,Correct
12,212,36,B,51.75111164185895,43.4814608476324,2.5875555820929477,0.6830051898313708,B,870.6586999996944,Correct
12,212,37,A,33.92222126836757,53.86199239294888,1.6961110634183785,0.8460621980469877,A,757.3013000001083,Correct
12,212,38,B,49.97356204276719,27.9146872282748,2.4986781021383595,0.43848288161802473,B,546.551699999327,Correct
12,212,39,B,46.54688777263705,22.513449477095424,2.327344388631852,0.35364043742103973,B,510.16619999973045,Correct
12,212,40,B,78.71531567473362,62.876809835173916,3.935765783736681,0.9876666192967242,B,614.4299000006868,Correct
12,212,41,A,26.637937484509308,54.31135138616511,1.3318968742254653,0.8531207126065505,A,503.254500001276,Correct
12,212,42,B,64.25812584372382,40.60104659052373,3.2129062921861906,0.6377597484842313,B,676.258899999084,Correct
12,212,43,A,22.869827671549935,40.42683214861824,1.1434913835774967,0.6350231944300336,A,496.6741999996884,Correct
12,212,44,A,31.697131928794736,61.22246277685993,1.584856596439737,0.9616801964722886,A,506.3740000005055,Correct
12,212,45,A,44.568832315587095,69.57266772874927,2.2284416157793547,1.0928449091364119,A,1036.8825999994442,Correct
12,212,46,B,67.68710770647283,44.18271830472403,3.3843553853236417,0.6940205162087414,B,509.1485000011744,Correct
12,212,47,A,31.96121175865511,44.62295673666201,1.5980605879327556,0.7009357653267626,B,1263.4027000003698,Incorrect
12,212,48,A,35.80708004390716,55.40189992940425,1.7903540021953581,0.8702510090656664,A,818.7385000001086,Correct
12,212,49,A,65.16304445075629,85.97318063971989,3.2581522225378143,1.350463563517461,A,774.019299999054,Correct
12,212,50,B,83.39851202462107,59.00731302341943,4.1699256012310535,0.926884705512239,B,616.5117000000464,Correct
12,212,51,A,45.34342689866034,62.359434564340205,2.267171344933017,0.979539707546723,B,934.6605000009731,Incorrect
12,212,52,B,45.898890496751264,32.71280753508722,2.2949445248375633,0.5138515791526342,B,616.8730999997933,Correct
12,212,53,B,34.238565856992125,21.563563229707626,1.7119282928496062,0.33871965913834234,B,550.6872000005387,Correct
12,212,54,B,78.1423599626041,57.323960075806724,3.9071179981302055,0.900442659244145,B,457.16820000052394,Correct
12,212,55,A,56.67450080773594,74.22338170073576,2.8337250403867973,1.1658981533781128,B,740.2255999986664,Incorrect
12,212,56,A,11.79853229557661,35.46578175975614,0.5899266147788305,0.5570951971513438,A,589.3204000003607,Correct
12,212,57,B,34.52109757742706,14.184636895343854,1.7260548788713528,0.2228117553212549,B,703.2755999989604,Correct
12,212,58,B,43.14957923485747,16.76368688503698,2.1574789617428736,0.2633233778255587,B,544.4489999990765,Correct
12,212,59,B,48.96343918528239,37.39379131146012,2.4481719592641196,0.5873803003697647,B,456.15250000082597,Correct
12,212,60,A,57.68266953256036,72.06456632812903,2.8841334766280182,1.1319875608029228,A,688.9869999995426,Correct
12,212,61,A,45.094746288313935,73.45332647038109,2.2547373144156966,1.1538021541054095,A,563.4935999987647,Correct
12,212,62,A,45.3393590132802,57.91588446341154,2.2669679506640104,0.9097405857820446,A,1322.9793000009522,Correct
12,212,63,B,60.03145133258594,47.013429840120914,3.0015725666292967,0.7384852290289152,B,894.8554000016884,Correct
12,212,64,B,67.57642808887401,49.81789658676293,3.3788214044437006,0.7825376896713523,B,506.4763000009407,Correct
12,212,65,B,45.57191932540961,32.13650675389104,2.2785959662704807,0.5047990676503143,B,652.6704999996582,Correct
12,212,66,A,16.598459255123903,36.140472579637134,0.829922962756195,0.5676932157672568,A,482.2208000005048,Correct
12,212,67,B,42.17273710828316,28.85634692518533,2.108636855414158,0.45327443754800323,A,1149.246700000731,Incorrect
12,212,68,A,22.667389477086743,46.180254191194095,1.1333694738543372,0.7253977365398231,A,558.6717000005592,Correct
12,212,69,B,50.15064405416994,40.56489683752841,2.507532202708497,0.6371919094920355,B,604.4431999998778,Correct
12,212,70,B,78.81223448265499,65.40461115147517,3.940611724132749,1.0273732295218572,B,571.6406000010466,Correct
12,212,71,A,62.49428687220849,88.43489130586403,3.1247143436104245,1.3891320242375715,A,586.5731000012602,Correct
12,212,72,A,33.30364786584258,46.089957006733286,1.6651823932921288,0.7239793516831134,A,982.1797999993578,Correct
12,212,73,A,62.608225688125906,74.1356629264516,3.130411284406295,1.1645202700937478,B,818.3324999990873,Incorrect
12,212,74,B,76.33426986257027,56.59186831739036,3.8167134931285136,0.8889429887941726,B,552.703700001075,Correct
12,212,75,A,47.1365806258749,68.28701795846243,2.3568290312937448,1.072649969769299,A,1036.295699999755,Correct
12,212,76,B,59.889084479447725,47.0549444296544,2.9944542239723866,0.7391373386763911,B,503.3685999987938,Correct
12,212,77,A,32.0188657056044,53.54261487779345,1.6009432852802201,0.8410454277703171,A,627.7673000004143,Correct
12,212,78,A,56.664458288171474,69.68164543785319,2.833222914408574,1.0945567269880416,B,1344.7949000001245,Incorrect
12,212,79,A,48.43262667832724,78.56344482217513,2.4216313339163618,1.2340717054702623,A,559.6945999986929,Correct
12,212,80,A,46.15917992038683,64.3563027104811,2.307958996019342,1.0109064390372415,A,621.491199999582,Correct
12,212,81,A,33.68881300958208,57.919864600063384,1.6844406504791039,0.9098031056223733,A,652.4074999997538,Correct
12,212,82,A,52.99016209791776,62.651061260114325,2.649508104895888,0.9841205689718963,B,1233.389700000771,Incorrect
12,212,83,B,45.15129329543635,28.263669356979275,2.2575646647718175,0.4439646800768852,B,653.2814000001963,Correct
12,212,84,A,15.43795385617539,43.165332488862504,0.7718976928087696,0.6780394571838563,A,479.5076999998855,Correct
12,212,85,B,72.37021292419857,57.67798752727025,3.6185106462099283,0.9060037094475797,B,603.9171000011265,Correct
12,212,86,A,25.3261330236328,44.789280518807956,1.2663066511816399,0.7035483731872976,A,502.11699999999837,Correct
12,212,87,B,77.8443922180339,57.2964016547172,3.8922196109016953,0.9000097725779481,B,615.262299999813,Correct
12,212,88,B,65.13282171492692,52.54740194851824,3.256641085746346,0.8254126596334744,B,509.34459999916726,Correct
12,212,89,B,55.33324536686741,36.26324974871384,2.766662268343371,0.5696217950292566,B,611.4463999983855,Correct
12,212,90,B,75.63545819876636,50.417017704793345,3.7817729099383177,0.7919486621864266,B,428.5762999988947,Correct
12,212,91,B,59.41647495343918,32.4726806215549,2.9708237476719592,0.5100796744152225,B,473.54019999875163,Correct
12,212,92,A,18.693016122371528,32.37821521192542,0.9346508061185764,0.508595815230671,A,482.1116000002803,Correct
12,212,93,A,40.769592591086074,64.03523319950038,2.038479629554304,1.005863090952298,A,713.8367999996262,Correct
12,212,94,A,40.14272497903619,64.90718138865496,2.0071362489518094,1.019559621079093,A,1457.5949999998556,Correct
12,212,95,B,41.627504492984855,19.03550018601596,2.0813752246492427,0.2990089377089744,B,600.5066999987321,Correct
12,212,96,B,39.58784218189897,18.387303223977305,1.9793921090949484,0.2888270836388751,B,717.4666999999317,Correct
12,212,97,A,38.19664148062777,60.45079201766238,1.9098320740313883,0.949558820531863,A,798.3605000008538,Correct
12,212,98,A,31.6194070350774,54.1274333305555,1.5809703517538702,0.8502317345447222,A,878.3571999993001,Correct
12,212,99,A,59.34984298867498,83.26765252285982,2.967492149433749,1.30796522723742,A,1206.628100000671,Correct
12,212,100,A,60.684745959951556,83.40648728886055,3.034237297997578,1.3101460386420738,A,640.6074999995326,Correct
12,212,101,B,39.68657670648203,28.206910663235664,1.9843288353241013,0.44307311660042376,A,1348.7408999990294,Incorrect
12,212,102,A,60.07391035620397,83.06253469318435,3.0036955178101983,1.3047432439032762,A,927.488600000288,Correct
12,212,103,A,42.718222279147305,63.10695509175837,2.1359111139573654,0.9912817325334455,A,690.3105000001233,Correct
12,212,104,B,61.03803177465246,39.00780785535266,3.051901588732623,0.6127332129550908,B,1219.726899998932,Correct
12,212,105,B,77.50047088907999,55.69486286130243,3.8750235444539998,0.8748528600387936,B,456.93589999973483,Correct
12,212,106,A,45.487103566424345,57.69079319986993,2.2743551783212173,0.9062048604823968,B,715.463999998974,Incorrect
12,212,107,A,42.33830569893291,59.43735656623318,2.1169152849466455,0.933639813686376,A,713.2844000007026,Correct
12,212,108,B,70.92098715191425,48.560677143175255,3.546049357595712,0.7627893328317258,B,938.6797999995906,Correct
12,212,109,B,81.88097661352558,63.82631523395811,4.094048830676279,1.0025814152235455,B,610.7014000008348,Correct
12,212,110,A,45.4431111823915,75.79500747152831,2.272155559119575,1.190585193256684,A,848.4662999999273,Correct
12,212,111,A,24.142621333350707,35.46659971952937,1.2071310666675352,0.5571080456334164,A,680.506400000013,Correct
12,212,112,A,50.43012025749165,72.79689923199058,2.5215060128745823,1.1434910191566903,A,913.9150999999401,Correct
12,212,113,B,42.97550642418278,25.36072037255341,2.148775321209139,0.39836526406079403,B,670.6211000000621,Correct
12,212,114,B,73.9285930731145,43.14649958018115,3.696429653655725,0.677743630546061,B,656.280400000469,Correct
12,212,115,B,65.12918834771358,36.98808640354252,3.256459417385679,0.5810075025785685,B,569.1122999996878,Correct
12,212,116,B,43.18917872877885,17.150216910820376,2.1594589364389423,0.26939497727252365,B,596.4620000013383,Correct
12,212,117,A,63.41242952802211,89.08737073466817,3.1706214764011054,1.3993811471383193,A,604.7244000001228,Correct
12,212,118,A,44.11754756940723,58.87184319788686,2.2058773784703614,0.924756750468858,B,797.343299998829,Incorrect
12,212,119,A,64.65355567814743,83.25222340796677,3.2326777839073713,1.3077228672674233,A,614.1637000000628,Correct
12,212,120,A,15.10204449055307,39.83024022714259,0.7551022245276535,0.6256519504415391,A,515.4566999990493,Correct
12,212,121,A,39.62480327669561,53.7848032101378,1.9812401638347805,0.8448497131987083,A,697.8071000012278,Correct
12,212,122,B,71.81537387604172,55.01606264447101,3.5907686938020857,0.8641902911665299,B,565.4161000002205,Correct
12,212,123,A,33.30633708101156,56.91269148684811,1.6653168540505783,0.8939824673555219,A,665.5799000000115,Correct
12,212,124,B,74.63346410001637,42.12735418973257,3.7316732050008183,0.6617349321881953,B,1100.63319999972,Correct
12,212,125,B,48.657550769390106,37.04703485919507,2.4328775384695054,0.5819334627546611,A,1022.5629999986268,Incorrect
12,212,126,B,57.78144276607913,45.17472390436046,2.889072138303957,0.7096029037294302,B,778.9768000002368,Correct
12,212,127,B,53.926333310137714,41.76135369132652,2.696316665506886,0.6559858098031819,B,749.4830999985425,Correct
12,212,128,B,31.78373341375786,10.437400154599086,1.5891866706878932,0.16395029824132729,A,551.1705000008078,Incorrect
12,212,129,B,50.053724604467654,20.92077705407942,2.5026862302233828,0.3286227975024291,B,516.4249999997992,Correct
12,212,130,B,87.81044349719659,61.442580110293186,4.3905221748598295,0.965137791460497,B,542.082300000402,Correct
12,212,131,B,58.819059394462876,31.073833056080453,2.940952969723144,0.4881066282392901,B,541.5703999988182,Correct
12,212,132,A,41.030130817680174,57.96512236583222,2.0515065408840085,0.9105140129446596,A,854.129200000898,Correct
12,212,133,A,55.93894703448009,71.46074158900427,2.7969473517240044,1.122502703980472,A,972.1876999992674,Correct
12,212,134,B,77.01956161142601,45.2737056042935,3.8509780805713008,0.7111577046361776,B,566.7245000004186,Correct
12,212,135,B,38.068989027762335,27.312458304895507,1.9034494513881168,0.4290230918106863,A,1687.5460000010207,Incorrect
12,212,136,B,73.33428080627384,62.24873044135809,3.666714040313692,0.9778007712493094,B,558.1505999998626,Correct
12,212,137,B,56.227287124725414,46.63101609209707,2.8113643562362705,0.7324782879217979,B,610.6069999987085,Correct
12,212,138,A,62.8488440450589,87.03765284932331,3.142442202252945,1.3671842538856642,A,669.6748000013031,Correct
12,212,139,B,47.31203454568118,22.827175569128045,2.365601727284059,0.3585684353508854,B,712.1788000004017,Correct
12,212,140,A,31.98612182071166,51.79311496176644,1.5993060910355832,0.8135643473520852,A,2012.3160000002827,Correct
12,212,141,A,46.01835305789057,55.373520807967644,2.3009176528945288,0.8698052308685635,A,1421.179699998902,Correct
12,212,142,B,56.43357590902024,39.788070226739634,2.821678795451012,0.6249895456242001,B,1210.994600000049,Correct
12,212,143,B,72.11457956377023,55.967347877165295,3.6057289781885116,0.8791330446590339,B,587.858500000948,Correct
12,212,144,A,45.7501797957398,65.8782943914119,2.28750898978699,1.0348138284554265,B,1240.565100000822,Incorrect
12,212,145,B,86.7806712776111,64.91161524330062,4.339033563880555,1.0196292679050023,B,486.6514000004827,Correct
12,212,146,B,66.14886824509344,41.507109677421724,3.3074434122546723,0.6519921541716696,B,402.5275000003603,Correct
12,212,147,B,57.47042863966154,46.19142125031692,2.873521431983077,0.7255731482943356,B,985.1629999993747,Correct
12,212,148,A,52.109209583177,77.95403597804622,2.60546047915885,1.2244991337315223,A,843.943699999727,Correct
12,212,149,A,26.252923630692344,52.891969794417584,1.3126461815346173,0.8308251187001776,A,501.3377999985096,Correct
12,212,150,A,12.404215444304178,31.55882179824909,0.6202107722152089,0.49572481358664383,A,438.4541999988869,Correct
12,212,151,A,24.96171961083688,52.38322072252348,1.248085980541844,0.8228337069662618,A,424.40460000034363,Correct
12,212,152,A,19.95820182152266,34.71489816173266,0.997910091076133,0.5453003451750857,A,407.0585999998002,Correct
12,212,153,B,65.89032022485051,39.69714881942945,3.2945160112425254,0.6235613554979015,B,860.8414000009361,Correct
12,212,154,A,69.48605782654947,87.10943896899686,3.474302891327474,1.3683118676166448,A,717.9697999999917,Correct
12,212,155,B,50.40048510698067,19.901058796833627,2.5200242553490337,0.31260510057395524,B,731.4876000000368,Correct
12,212,156,A,54.86534355235807,80.94294092266273,2.7432671776179034,1.2714487428129493,A,540.6225999995513,Correct
12,212,157,B,76.14896124314521,64.16915132192506,3.8074480621572606,1.0079666719002576,B,1274.6991999993043,Correct
12,212,158,A,50.093472056719605,70.97773872026863,2.50467360283598,1.1149157126600586,A,1266.4559999993799,Correct
12,212,159,A,20.454508994584433,45.75139212094334,1.0227254497292215,0.7186611868933077,A,506.17009999950824,Correct
12,212,160,A,48.30660322977423,71.31315325605657,2.4153301614887117,1.1201843918677516,A,564.6785999997519,Correct
12,212,161,A,52.24419939756518,69.31385168923448,2.612209969878259,1.0887794362945575,A,809.1141000004427,Correct
12,212,162,B,65.92694532197919,33.23362162942484,3.2963472660989597,0.5220325078159196,B,646.0843000004388,Correct
12,212,163,B,41.95036426300139,34.08978198443976,2.0975182131500696,0.5354810432239682,B,1909.2774000000645,Correct
12,212,164,A,42.10445586849211,68.72400000769457,2.1052227934246055,1.0795140677473907,A,1480.082300000504,Correct
12,212,165,B,78.74640187655076,63.92354610063893,3.937320093827538,1.0041087141058787,B,744.9364000003698,Correct
12,212,166,A,55.776677290022555,67.03583998517405,2.7888338645011275,1.0529965121232185,B,1007.8704000006837,Incorrect
12,212,167,A,26.00224543346738,47.60404862049147,1.300112271673369,0.7477626471363366,A,649.5145000008051,Correct
12,212,168,A,20.558991995788546,44.55047222587323,1.0279495997894272,0.6997971812937972,A,447.0529999998689,Correct
12,212,169,A,57.9375131499373,76.58521521800772,2.8968756574968655,1.2029977475124316,A,650.6275000010646,Correct
12,212,170,B,35.641953807882295,19.084397605592507,1.7820976903941146,0.2997770165795803,B,733.7025000015274,Correct
12,212,171,A,17.3821794676759,41.05352030106363,0.869108973383795,0.6448671889091047,A,618.9709000009316,Correct
12,212,172,A,17.213627992574448,34.846167309293705,0.8606813996287224,0.5473623161231895,A,499.50300000091374,Correct
12,212,173,B,46.72025076754349,33.64391136659626,2.3360125383771746,0.5284773239366246,B,950.5753999983426,Correct
12,212,174,B,32.15130354238757,15.247661988882712,1.6075651771193789,0.2395097144434713,B,703.6480999995547,Correct
12,212,175,B,78.31001492992631,52.92887665305149,3.915500746496315,0.8314048502799344,B,523.8363000007666,Correct
12,212,176,A,39.531947621301285,48.35630391550847,1.9765973810650643,0.7595790456785837,A,1303.1944000013027,Correct
12,212,177,A,53.08697334750284,69.0704708571814,2.654348667375142,1.084956419124545,B,1117.5367000014376,Incorrect
12,212,178,B,65.58807711018193,51.73493325964821,3.2794038555090963,0.8126504313123453,B,546.5574999998353,Correct
12,212,179,B,37.60390878797145,26.755810707936167,1.8801954393985725,0.42027929180445694,B,830.1284000008309,Correct
12,212,180,A,49.41620663701517,80.3734956419851,2.4708103318507586,1.2625039172609585,A,597.86239999994,Correct
12,212,181,A,30.59251668025477,51.51224298486123,1.5296258340127387,0.809152420655862,A,782.7118999994127,Correct
12,212,182,B,86.93056938429078,63.1323205587313,4.3465284692145385,0.9916801723569305,B,469.34780000083265,Correct
12,212,183,A,56.20520710451544,76.56670138165383,2.8102603552257723,1.2027069328510356,A,805.6602999986353,Correct
12,212,184,B,82.20869584168028,55.212558517588086,4.110434792084014,0.8672768411237565,B,1197.1083000007638,Correct
12,212,185,A,52.525127924613685,75.03258879240111,2.6262563962306844,1.178609148650156,B,988.8305000004038,Incorrect
12,212,186,B,83.89076804813433,62.71868927035116,4.1945384024067165,0.985182867272581,B,452.86160000068776,Correct
12,212,187,B,50.56246972718506,26.352032002240513,2.528123486359253,0.4139367507270096,A,2159.677300000112,Incorrect
12,212,188,B,56.41119653793608,33.44643502783023,2.8205598268968037,0.5253753728609989,B,885.4553999990458,Correct
12,212,189,A,38.576909034164515,47.10601957976867,1.9288454517082259,0.7399396252582909,B,639.6638999995048,Incorrect
12,212,190,B,71.26357297217258,55.12942593149389,3.563178648608629,0.8659709975150193,B,483.28630000105477,Correct
12,212,191,A,25.320764468503768,55.9971246230679,1.2660382234251883,0.8796007766899111,A,453.2370999986597,Correct
12,212,192,B,75.39622907113714,56.88481719791432,3.769811453556857,0.8935446190488298,B,705.1253000008728,Correct
12,212,193,B,81.31254827853411,67.0653912226847,4.0656274139267055,1.053460701876558,B,667.3362999990786,Correct
12,212,194,B,46.99953583652067,32.757907040014,2.3499767918260335,0.5145600005194266,B,638.653100000738,Correct
12,212,195,B,69.86720334349585,51.21480269254614,3.493360167174792,0.8044802394697684,B,1056.8925999996281,Correct
12,212,196,B,47.16219139935759,32.84431094285707,2.3581095699678793,0.5159172298514931,B,946.5982999990956,Correct
12,212,197,A,42.494243327753765,62.39368814028339,2.1247121663876882,0.9800777614594343,A,821.3706999995338,Correct
12,212,198,A,38.28799005165132,48.695198910970596,1.914399502582566,0.7649023958189944,A,596.2686999992002,Correct
12,212,199,B,55.90351921761648,24.215336407310943,2.7951759608808238,0.38037361480706755,B,1727.30539999975,Correct
12,212,200,A,16.777006036488945,31.02055882987862,0.8388503018244472,0.4872697986509833,A,681.0080000013841,Correct
12,212,201,B,50.04557800362055,24.066440088148934,2.5022789001810275,0.378034756894938,B,1576.197600001251,Correct
12,212,202,A,55.02820786521389,82.72842027028483,2.7514103932606946,1.299494986821079,A,708.8664000002609,Correct
12,212,203,A,26.627212822821818,41.205207602690905,1.331360641141091,0.6472498874712802,A,745.8667999999307,Correct
12,212,204,A,52.798708451595985,73.36418023760359,2.639935422579799,1.1524018483554646,A,840.4936999995698,Correct
12,212,205,B,73.97890636219482,44.19008976685991,3.6989453181097414,0.6941363068652031,B,530.7222999999794,Correct
12,212,206,A,34.90537153300636,60.47670635598175,1.745268576650318,0.9499658820062972,A,619.5915999996942,Correct
12,212,207,A,48.38202770533727,78.74858950929065,2.4191013852668637,1.2369799514147288,A,651.3092999994115,Correct
12,212,208,B,65.68644122261816,46.71662791755204,3.284322061130908,0.7338230753313466,B,1400.0052000010328,Correct
12,212,209,A,54.10993826848142,68.76347340245437,2.705496913424071,1.0801341143823389,A,632.3298000006616,Correct
12,212,210,B,34.18571023260185,11.29727673476049,1.7092855116300925,0.17745720797747222,B,986.8128999987675,Correct
12,212,211,A,65.01660552376423,88.15859409210553,3.250830276188211,1.3847919577528165,A,608.1030999994255,Correct
12,212,212,B,76.54035135042336,59.32771633715812,3.827017567521168,0.9319175889953755,B,712.6274999991438,Correct
12,212,213,B,39.579739249185366,27.159554265192682,1.9789869624592682,0.42662128077151334,B,1982.4779000009585,Correct
12,212,214,A,49.69777158839074,66.5792797967176,2.484888579419537,1.0458248814533369,A,638.792800000374,Correct
12,212,215,B,45.75462766975983,26.274161275719816,2.2877313834879915,0.41271356021517397,B,838.2375999990472,Correct
12,212,216,B,43.67022011253037,25.04258465182479,2.183511005626519,0.39336799984536636,B,574.5215999995708,Correct
12,212,217,B,34.55518905865916,10.449272307175882,1.7277594529329579,0.16413678557791508,B,769.8694999999134,Correct
12,212,218,A,23.80281285137179,44.04918816134006,1.1901406425685894,0.6919230296213021,A,676.8699000003835,Correct
12,212,219,A,53.8899610253146,61.55878545416449,2.6944980512657297,0.966963140733567,B,6247.129499999573,Incorrect
12,212,220,B,81.07493187061941,63.99245849409418,4.05374659353097,1.0051911874509802,B,462.90050000061456,Correct
12,212,221,A,66.4173115643942,89.42958767484647,3.32086557821971,1.40475667826431,A,2393.4149999986403,Correct
12,212,222,B,73.21668065402795,56.1774508228373,3.660834032701398,0.8824333340121379,B,1941.8300999986968,Correct
12,212,223,A,47.4069871640368,54.16705054446072,2.37034935820184,0.8508540402855241,B,5367.242599999372,Incorrect
12,212,224,B,55.495953506259184,41.09217840667973,2.7747976753129593,0.6454744290121308,B,1144.120599999951,Correct
12,212,225,A,24.874941698004566,57.63476286041666,1.2437470849002283,0.9053247379683741,A,494.4289999984903,Correct
12,212,226,B,56.8262490009973,27.943648281899335,2.841312450049865,0.43893780078456,B,843.7008000000787,Correct
12,212,227,B,42.36988754289763,23.993063790749314,2.1184943771448816,0.37688216471064656,B,3742.2076999991987,Correct
12,212,228,B,40.42736730786221,14.859660304868772,2.0213683653931103,0.233414998243078,B,1233.5831000000326,Correct
12,212,229,B,70.46979339672168,40.88924480754599,3.523489669836084,0.6422867554911055,B,631.6642000001593,Correct
12,212,230,B,43.3034839159848,20.875490842941332,2.16517419579924,0.3279114433613274,B,1118.002900000647,Correct
12,212,231,B,77.32164095943935,55.34849323126816,3.8660820479719678,0.869412098613082,B,542.8542999998172,Correct
12,212,232,B,87.46870511020695,60.66993442586083,4.373435255510348,0.9530011014302945,B,533.7902999999642,Correct
12,212,233,B,50.32306450487093,20.61219529976693,2.5161532252435466,0.3237756066405293,B,694.6201999999175,Correct
12,212,234,A,15.043549302390762,33.23740280963551,0.7521774651195381,0.5220919024557784,A,793.3482000007643,Correct
12,212,235,B,38.25797766718618,27.602582592105037,1.9128988833593092,0.4335803534573134,A,1014.1046999997343,Incorrect
12,212,236,B,88.79568644137325,66.62261161092397,4.439784322068663,1.0465055359992237,B,464.6143999998458,Correct
12,212,237,B,63.26293290965604,32.88933478891587,3.1631466454828017,0.5166244627715665,B,407.80350000022736,Correct
12,212,238,A,25.981357017353304,41.76847132263207,1.2990678508676652,0.6560976132942843,A,643.6539000005723,Correct
12,212,239,A,35.27294194547441,47.8054725270772,1.7636470972737204,0.750926606462272,A,872.6414000011573,Correct
12,212,240,A,52.20221117021297,75.43970033757438,2.6101105585106485,1.1850040418476955,A,745.2489000006608,Correct
12,212,241,B,77.04558869656067,52.09636010808783,3.852279434828034,0.8183277109716854,B,823.8593999994919,Correct
12,212,242,B,78.71186181996768,57.8557051639,3.935593090998384,0.9087952915558265,B,522.902200000317,Correct
12,212,243,A,51.548925500632635,70.49078089313812,2.577446275031632,1.1072665969984523,A,700.5950000002485,Correct
12,212,244,A,64.5601125341941,78.05776906205556,3.228005626709705,1.2261285692048118,A,578.9762000003975,Correct
12,212,245,B,70.21492655753791,46.09393362349082,3.5107463278768956,0.7240418162330715,B,635.797699998875,Correct
12,212,246,A,46.80445039140688,78.70314912055308,2.340222519570344,1.2362661754575577,A,558.2854000003863,Correct
12,212,247,B,51.7918049193775,23.703095590845166,2.589590245968875,0.37232735487767893,B,655.678799999805,Correct
12,212,248,A,25.029162779146205,37.7394974711312,1.2514581389573103,0.5928106400273817,A,595.5730000005133,Correct
12,212,249,A,47.00267601106207,62.59588838167193,2.350133800553104,0.983253915423936,A,4025.681099999929,Correct
12,212,250,A,65.47424732043967,81.48710225226712,3.2737123660219836,1.2799964089902134,A,745.9837000005791,Correct
12,212,251,B,63.77430045507992,34.680028073041925,3.1887150227539958,0.5447526071027815,B,611.6428999994241,Correct
12,212,252,B,67.55086356776742,50.334090709363544,3.377543178388371,0.7906460479882937,B,538.573699999688,Correct
12,212,253,A,60.42576777911836,75.700109177612,3.021288388955918,1.1890945343416557,A,665.7145999997738,Correct
12,212,254,B,78.48389075558259,56.26207678641469,3.9241945377791296,0.8837626355395262,B,665.7352000001993,Correct
12,212,255,B,49.752678151416774,23.272439651472098,2.4876339075708387,0.36556262720088273,B,922.0439000000624,Correct
12,212,256,A,53.11928194681235,76.60991047350501,2.6559640973406173,1.2033856596786754,A,537.4898000009125,Correct
12,212,257,B,75.44900929390086,45.87353188183016,3.772450464695043,0.7205797537708739,B,586.3487000005989,Correct
12,212,258,B,75.03075160218172,47.97640599589888,3.7515375801090864,0.7536116231117861,B,635.994500000379,Correct
12,212,259,A,39.579616375845355,70.47520146848731,1.9789808187922677,1.1070218759683017,A,752.4138999997376,Correct
12,212,260,B,40.24779918212788,16.28933295349221,2.012389959106394,0.2558722436928463,B,751.0954999997921,Correct
12,212,261,B,32.74654271882973,10.553814331295957,1.6373271359414867,0.16577892785275028,B,654.537700000219,Correct
12,212,262,A,26.895930557281304,45.728840379164986,1.3447965278640652,0.7183069449618249,A,1175.965599999472,Correct
12,212,263,B,54.40164782212723,42.07443425275706,2.7200823911063616,0.6609036677620417,B,707.0244999995339,Correct
12,212,264,B,67.98205814762252,45.36416364799734,3.3991029073811263,0.712578616263968,B,555.2759999991395,Correct
12,212,265,B,34.42536672830906,21.766705967231413,1.7212683364154528,0.3419106177975166,B,781.5041999983805,Correct
12,212,266,B,45.440580278425806,22.566329387549697,2.27202901392129,0.35447107311206794,B,594.2322999999305,Correct
12,212,267,A,16.07143193291038,46.17841261400628,0.8035715966455189,0.7253688091130017,A,529.1710000001331,Correct
12,212,268,B,49.066366871404895,20.687390142975584,2.453318343570245,0.32495676447558997,B,692.7589999995689,Correct
12,212,269,B,74.22781797385616,43.27155073384145,3.7113908986928084,0.6797079294743716,B,497.42719999994733,Correct
12,212,270,B,67.68906636393547,41.79456634248288,3.3844533181967735,0.6565075129075774,B,579.3768999992608,Correct
12,212,271,B,66.31821240170471,42.674554094010404,3.3159106200852357,0.6703303281848166,B,477.6231999985612,Correct
12,212,272,B,58.31103025040119,26.478993699213703,2.9155515125200595,0.41593106039950095,B,458.9118999992934,Correct
12,212,273,A,30.584192697364557,47.26839656720778,1.5292096348682278,0.7424902370125448,A,797.6091999989876,Correct
12,212,274,B,43.677806315501954,32.723505362139484,2.1838903157750975,0.5140196202270181,B,850.6553000006534,Correct
12,212,275,B,43.90209882684783,14.512398939789595,2.1951049413423918,0.22796022947603645,B,545.2952000014193,Correct
12,212,276,B,65.63412977494558,56.77343964315982,3.281706488747279,0.8917951045098721,B,546.9523000010668,Correct
12,212,277,B,64.3905234268925,49.762978916656806,3.2195261713446253,0.7816750449265637,B,399.7041000002355,Correct
12,212,278,A,41.682195707684635,74.34691510917949,2.0841097853842316,1.1678386116203114,A,723.2669999993959,Correct
12,212,279,A,37.47153297729366,57.25177615542803,1.8735766488646832,0.8993087968743,A,1462.2911000005843,Correct
12,212,280,B,52.02676084229865,29.0146584226392,2.6013380421149326,0.45576118873490257,B,551.7006999998557,Correct
12,212,281,A,30.22420498757906,51.75282178135703,1.511210249378953,0.8129314235542653,A,1034.1590000007272,Correct
12,212,282,B,55.582858108583466,32.64951093655751,2.7791429054291736,0.5128573185079435,B,1493.0306000005658,Correct
12,212,283,A,51.1058544794155,80.30651910153092,2.5552927239707746,1.2614518522236897,A,559.7858999990422,Correct
12,212,284,A,48.647867355389934,77.52457479457571,2.432393367769497,1.2177531732365574,A,640.8611000006204,Correct
12,212,285,B,72.02457558079637,48.16647321730788,3.6012287790398183,0.75659719204412,B,1030.1237000003312,Correct
12,212,286,B,47.57048884555849,24.317213130159587,2.3785244422779246,0.38197389062743314,B,834.5509999999194,Correct
12,212,287,B,41.37249713444854,23.617177332847373,2.068624856722427,0.37097775403700345,B,1080.0800000015442,Correct
12,212,288,B,75.19114374920657,44.42267790383435,3.7595571874603286,0.6977897927773581,B,581.1021999998047,Correct
12,212,289,B,71.77004124987434,57.228167954477385,3.588502062493717,0.898937960120945,B,1062.749700000495,Correct
12,212,290,B,74.66518321796754,48.82421691389192,3.7332591608983767,0.7669290058697869,B,1654.1942000003473,Correct
12,212,291,A,66.1054694357959,79.78694250764961,3.305273471789795,1.253290362172116,A,602.9404000000795,Correct
12,212,292,A,19.736723905236666,41.39836243583256,0.9868361952618332,0.6502839564952961,A,488.4837999998126,Correct
12,212,293,A,20.497112898583605,34.712335816983,1.0248556449291804,0.5452600959578782,A,529.0323000008357,Correct
12,212,294,A,28.47483420172051,54.838079422393264,1.4237417100860252,0.8613945372518215,A,537.3425999987376,Correct
12,212,295,A,56.43650804636967,84.58725442101749,2.8218254023184834,1.3286934853819963,A,615.1632000000973,Correct
12,212,296,A,22.421928991312406,50.690359430814816,1.1210964495656202,0.7962423039783696,A,600.8338999999978,Correct
12,212,297,A,18.871457568842008,33.49582258244527,0.9435728784421004,0.5261511507547858,A,943.2067000016104,Correct
12,212,298,B,45.74304735104331,36.04027358460899,2.2871523675521654,0.5661192936338695,A,2303.199300000415,Incorrect
12,212,299,B,43.792461678364035,23.728033190171953,2.1896230839182014,0.37271907377189495,B,510.66759999957867,Correct
12,212,300,B,34.46158539086488,13.298694143374902,1.7230792695432442,0.20889539911582103,B,633.994599998914,Correct
12,212,301,B,72.24315746258961,61.288467498495805,3.61215787312948,0.9627169962152561,B,532.2077999990142,Correct
12,212,302,B,89.65470954707112,67.72208113609736,4.482735477353556,1.063775962914877,B,522.0640000006824,Correct
12,212,303,B,35.430986818029936,10.503531754068899,1.7715493409014968,0.16498909097664982,B,618.6232000000018,Correct
12,212,304,B,84.08546772428707,58.05290605057398,4.2042733862143535,0.9118929158401085,B,431.3188000014634,Correct
12,212,305,A,44.709166636300196,65.84289940757873,2.23545833181501,1.0342578453495053,B,712.4493999999686,Incorrect
12,212,306,A,68.73237907520256,86.60077236840493,3.436618953760128,1.3603217513389145,A,1256.9992000007915,Correct
12,212,307,B,52.41314798011339,26.901277259232867,2.62065739900567,0.42256427504894073,B,681.0334000001603,Correct
12,212,308,A,64.44895368761601,86.20440754678506,3.2224476843808008,1.3540956672802023,A,1619.5268999999826,Correct
12,212,309,B,49.772980364655,39.852247245943715,2.4886490182327496,0.6259976358845043,B,1597.4760000008246,Correct
12,212,310,B,52.85453726104907,35.86907171599084,2.642726863052453,0.5634300609702113,B,658.7440000002971,Correct
12,212,311,A,55.39430201497298,78.02027615314915,2.769715100748649,1.2255396319689016,A,669.4800000004761,Correct
12,212,312,A,54.59888864896135,83.40460082349398,2.7299444324480673,1.3101164061133896,A,646.6386000010971,Correct
12,212,313,B,34.72431121650749,11.718659549398573,1.7362155608253744,0.1840762737515522,B,593.3924000000843,Correct
12,212,314,B,87.78467032742078,68.0868307727983,4.389233516371039,1.0695054368101728,B,1099.9112999998033,Correct
12,212,315,A,22.664625142857314,39.932566100181916,1.1332312571428658,0.6272592814966016,A,611.3320999993448,Correct
12,212,316,B,67.44540484653207,34.17841226100915,3.3722702423266036,0.5368732443527483,B,511.7664999997942,Correct
12,212,317,A,23.23823962799116,44.193456130172834,1.161911981399558,0.6941891855764689,A,995.4246999986935,Correct
12,212,318,A,49.41819815977932,74.92607495570115,2.470909907988966,1.1769360332157448,A,1935.5622000002768,Correct
12,212,319,B,79.57039116847974,64.30018523386123,3.9785195584239874,1.0100249477758065,B,676.5264999994542,Correct
12,212,320,A,50.91321356307473,62.04685876710506,2.545660678153736,0.9746297784053035,A,1261.1197999995056,Correct
12,212,321,A,40.69427520697825,72.35713839103582,2.0347137603489127,1.1365832720202906,A,678.7932999995974,Correct
12,212,322,B,47.53182447196182,34.023445715749695,2.376591223598091,0.5344390355520519,B,1905.2879999999277,Correct
12,212,323,A,62.18695911774752,86.0240161124112,3.109347955887376,1.351262085255205,A,658.9688000003662,Correct
12,212,324,A,54.664078836900615,69.79635220694418,2.733203941845031,1.0963585367035078,A,3209.621199999674,Correct
12,212,325,B,55.78913766064265,33.27663724067431,2.7894568830321327,0.5227081954573747,B,813.2032000012259,Correct
12,212,326,B,87.49401868647394,68.5684616924898,4.374700934323697,1.0770708776053957,B,627.5624999998399,Correct
12,212,327,B,73.5518552664265,47.54085651364413,3.677592763321325,0.7467700278431543,B,611.589099999037,Correct
12,212,328,A,50.92673291993465,58.03308634626264,2.5463366459967323,0.9115815886528043,A,1152.034900000217,Correct
12,212,329,A,55.62779561356151,74.27626238999012,2.7813897806780754,1.1667288013025041,A,823.7900999993144,Correct
12,212,330,B,67.48738430073952,58.925114306894,3.374369215036976,0.9255935310923851,B,605.5873000004794,Correct
12,212,331,A,38.01704741726564,63.226406642136446,1.9008523708632818,0.9931580730990839,A,715.9694000001764,Correct
12,212,332,B,61.90674031370054,44.064770650489294,3.095337015685027,0.6921677987884814,B,502.7088000006188,Correct
12,212,333,B,72.40052724190792,43.89782912022904,3.620026362095396,0.6895454873632583,B,721.7766000012489,Correct
12,212,334,B,73.9502639075518,54.72521945253023,3.69751319537759,0.859621736990791,B,590.4752999995253,Correct
12,212,335,B,69.55371205511688,59.5720428300811,3.4776856027558436,0.9357554605715964,B,615.0508999999147,Correct
12,212,336,A,13.115193629759297,40.10254337485006,0.6557596814879648,0.6299292782834749,A,566.8040000000474,Correct
12,212,337,A,19.60744035888317,35.4695006036108,0.9803720179441585,0.557153612614012,A,433.03220000052534,Correct
12,212,338,B,45.26654783638867,16.861682581739775,2.263327391819433,0.26486269062978324,B,847.706599999583,Correct
12,212,339,B,48.19726019966042,21.319402483289732,2.409863009983021,0.334884391102135,B,487.6840999986598,Correct
12,212,340,B,77.95985640431317,64.73494430480801,3.897992820215659,1.0168541272926463,B,504.4813000004069,Correct
12,212,341,B,72.98299461120939,41.27100538472702,3.6491497305604694,0.648283436614616,B,410.44680000049993,Correct
12,212,342,B,63.72178582355857,47.07824523196258,3.1860892911779284,0.7395033468231619,B,555.5870000007417,Correct
12,212,343,A,17.506158682585987,38.442795126655426,0.8753079341292994,0.6038580137667909,A,1174.908900000446,Correct
12,212,344,A,42.14107566036104,50.856685474885026,2.107053783018052,0.7988549473691278,A,570.5058000003191,Correct
12,212,345,B,44.61741209684315,35.482233207661025,2.230870604842157,0.5573536158907384,A,788.467700000183,Incorrect
12,212,346,B,65.82481351468269,41.85275819211519,3.291240675734134,0.6574215883440956,B,405.6108000004315,Correct
12,212,347,B,52.04826148408776,22.852946855506353,2.6024130742043883,0.3589732497706836,B,363.10279999997874,Correct
12,212,348,A,45.23942507933102,61.318151813983484,2.2619712539665513,0.9631832763525707,A,707.6441999997769,Correct
12,212,349,A,37.38080348472199,58.93821534622349,1.8690401742360994,0.9257993217369446,A,724.2689000013343,Correct
12,212,350,A,58.39570392778967,84.94623939804308,2.9197851963894834,1.3343324082148598,A,1296.3843999987148,Correct
12,212,351,B,42.119624150817955,13.680962286059248,2.105981207540898,0.2149000530596138,B,683.7465999997221,Correct
12,212,352,B,84.19332052432839,65.84989698597326,4.20966602621642,1.0343677630538912,B,478.7699000007706,Correct
12,212,353,A,45.115924242692536,56.148201377439,2.255796212134627,0.8819738847982134,B,881.3136000007944,Incorrect
12,212,354,B,42.96789973745436,29.126402077566574,2.148394986872718,0.45751645396192825,B,566.2763000000268,Correct
12,212,355,A,25.759400883679017,43.85018649826827,1.287970044183951,0.6887971188075096,A,594.9927999990905,Correct
12,212,356,B,44.10767370511373,24.155812340259402,2.2053836852556867,0.37943861294826303,B,971.2756000008085,Correct
12,212,357,B,77.46487691923252,46.253523244089095,3.8732438459616265,0.7265486441313751,B,443.00900000052934,Correct
12,212,358,A,34.40204856844194,52.24247819201496,1.7201024284220972,0.8206229284667959,A,665.9299999992072,Correct
12,212,359,A,66.7723505348419,86.79356394753806,3.3386175267420954,1.3633501143823075,A,731.037200001083,Correct
12,212,360,A,52.5007264453625,71.1527121164289,2.6250363222681248,1.1176641883398124,B,1200.028299999758,Incorrect
12,212,361,A,69.02593775061834,84.97886033558461,3.4512968875309173,1.3348448167035285,A,1378.5678000003827,Correct
12,212,362,A,38.26125804345202,57.46619387502816,1.9130629021726009,0.9026768625377761,A,885.0245999983599,Correct
12,212,363,A,24.520877106384702,35.403581049505384,1.2260438553192352,0.5561181506794847,A,1217.7626000011514,Correct
12,212,364,B,64.71323300345442,37.90262448554355,3.2356616501727213,0.5953730331777811,B,1511.60340000024,Correct
12,212,365,B,58.181733713134626,29.82327063379379,2.9090866856567312,0.46846283964573393,B,534.4631000007212,Correct
12,212,366,B,61.877107775856246,51.56572981164062,3.093855388792812,0.8099925897662318,B,500.272600000244,Correct
12,212,367,B,51.19583777724206,33.65048172620591,2.5597918888621027,0.5285805309040303,B,577.5097000005189,Correct
12,212,368,B,59.88764690465884,46.38036514258297,2.9943823452329417,0.7285410720137537,B,358.7688999996317,Correct
12,212,369,A,31.431606301366827,53.89683238792205,1.5715803150683414,0.8466094634082817,A,722.9160000006232,Correct
12,212,370,A,45.90607314208791,76.48049462117304,2.2953036571043954,1.2013528002239546,A,1216.2105000006704,Correct
12,212,371,A,17.41252141296816,39.2171314379688,0.870626070648408,0.6160212601019406,A,587.5525999999809,Correct
12,212,372,A,45.21055436749671,54.98198011159319,2.260527718374836,0.8636549239920064,A,716.0889999995561,Correct
12,212,373,A,38.805367042945015,48.88281307105263,1.9402683521472508,0.7678494321541104,A,838.8840000006894,Correct
12,212,374,A,32.16676845226566,50.60325698816901,1.608338422613283,0.7948741020087406,A,580.1272999997309,Correct
12,212,375,A,48.30962374015709,56.40347227779748,2.4154811870078547,0.8859836707244206,A,516.699099998732,Correct
12,212,376,B,46.0509757658314,26.67187400012073,2.30254878829157,0.41896081708125943,B,1303.7758999998914,Correct
12,212,377,B,53.52432509177857,33.003808997405095,2.6762162545889288,0.5184226194336429,B,660.4690999993181,Correct
12,212,378,B,59.96507354869918,29.277263123927906,2.9982536774349593,0.45988617373673635,B,651.6476000015246,Correct
12,212,379,B,58.98228758795905,31.438436681113586,2.9491143793979524,0.4938338085886716,B,454.44859999952314,Correct
12,212,380,A,57.262768302683824,82.45347697108808,2.863138415134191,1.2951761875765275,B,971.6733999994176,Incorrect
12,212,381,A,42.54382021643587,73.88746307687052,2.1271910108217935,1.1606215559734174,A,536.4133999992191,Correct
12,212,382,A,59.891571216906726,79.28008577213681,2.9945785608453366,1.2453286751885684,A,827.4789999995846,Correct
12,212,383,B,82.26170839772982,61.44160718866637,4.113085419886491,0.9651225088433204,B,1102.2099000001617,Correct
12,212,384,A,43.79727381231433,72.0189090592641,2.1898636906157165,1.1312703781006777,A,1351.3437000001431,Correct
12,212,385,B,62.41687376098494,37.6225374549789,3.1208436880492467,0.5909734363898428,B,843.4624999990774,Correct
12,212,386,A,51.660724809809665,64.11521276943175,2.5830362404904834,1.0071194070989666,A,835.509299999103,Correct
12,212,387,B,63.87609185800802,49.81699052612204,3.193804592900401,0.7825234573040866,B,908.3582999992359,Correct
12,212,388,B,58.12562259651882,39.52941175816461,2.9062811298259406,0.6209265479008796,B,1278.8901000003534,Correct
12,212,389,A,61.038705598171376,77.25670491637173,3.0519352799085686,1.2135454830291394,A,1287.701699999161,Correct
12,212,390,A,52.26848771826123,80.09235927484569,2.6134243859130613,1.2580878375326479,A,579.6179000008124,Correct
12,212,391,B,44.86152356550575,29.297673422069415,2.2430761782752877,0.460206777950231,B,2481.68909999913,Correct
12,212,392,A,20.430952414881208,42.36279376464415,1.0215476207440604,0.6654332083827279,A,510.0971000010759,Correct
12,212,393,A,38.50269915607858,46.319436405140216,1.9251349578039287,0.7275840056440406,A,1982.1692000004987,Correct
12,212,394,A,50.5678579780669,64.56087041037175,2.528392898903345,1.0141197809529325,B,948.5114999988582,Incorrect
12,212,395,A,61.91831490222989,85.72032165218765,3.095915745111494,1.346491663829334,A,1130.0614000010683,Correct
12,212,396,A,55.24283047083499,74.35608047600932,2.7621415235417492,1.1679825808658117,A,1189.9211999989348,Correct
12,212,397,B,80.88669593753362,64.20033760264555,4.04433479687668,1.0084565448522789,B,568.7536000004911,Correct
12,212,398,B,63.48575878032951,53.193083807655356,3.1742879390164758,0.8355550065595811,B,1020.5891000005067,Correct
12,212,399,B,74.28736987440291,61.76616601943802,3.7143684937201455,0.97022066703537,B,1187.205799998992,Correct
12,212,400,B,85.06181218004129,65.27937262821331,4.253090609002064,1.0254059873987278,B,645.728000001327,Correct
12,212,401,B,44.04880845372286,21.463198459967767,2.202440422686143,0.33714313302187254,B,1324.9183999996603,Correct
12,212,402,A,30.8410431445568,64.20004157972686,1.54205215722784,1.0084518949351455,A,1438.8895000010962,Correct
12,212,403,A,29.79644752715223,38.550464573356464,1.4898223763576115,0.6055492814806512,A,912.2588999998698,Correct
12,212,404,A,28.500079716600325,60.311749687979855,1.4250039858300163,0.9473747487245201,A,1061.5411999988282,Correct
12,212,405,A,39.36073283508293,68.39681251902644,1.9680366417541464,1.0743746186936591,A,727.742600000056,Correct
12,212,406,B,53.95775419134777,35.150973462438145,2.6978877095673885,0.5521501999806273,B,922.8167000001122,Correct
12,212,407,B,80.42214290842556,64.08233736129426,4.0211071454212775,1.0066030013955238,B,571.3826999999583,Correct
12,212,408,B,83.05645725651011,52.98543421841228,4.152822862825506,0.8322932544391464,B,488.6186000003363,Correct
12,212,409,A,57.342768204540064,74.66361433585331,2.867138410227003,1.1728133114398915,A,677.3293000005651,Correct
12,212,410,A,13.850125329756434,38.353451218389466,0.6925062664878218,0.6024546029375343,A,544.6673999995255,Correct
12,212,411,A,26.958060826581658,36.905240186681546,1.347903041329083,0.5797061572472277,A,974.2052000001422,Correct
12,212,412,A,22.390496476330277,39.158326130868225,1.1195248238165139,0.6150975484980442,A,530.6328999995458,Correct
12,212,413,A,17.649194679737217,47.42356976234613,0.882459733986861,0.7449276918619483,A,454.7856999997748,Correct
12,212,414,B,52.669697893422175,23.661793804832943,2.633484894671109,0.3716785879400983,B,945.285400001012,Correct
12,212,415,B,55.878307065578866,42.78333083585442,2.793915353278943,0.6720389892501095,B,653.1773000006069,Correct
12,212,416,B,60.11289028520317,45.93190336398319,3.0056445142601587,0.7214966508684295,B,556.3480999990134,Correct
12,212,417,B,59.873816542736314,30.012747538906048,2.9936908271368154,0.4714391359113619,B,455.96370000021125,Correct
12,212,418,A,42.19145115631669,52.304998667120394,2.1095725578158344,0.8216049977932468,A,1067.2501999997621,Correct
12,212,419,A,58.557932938268124,75.62894156042474,2.927896646913406,1.1879766360250106,A,1139.0375000009954,Correct
12,212,420,A,50.91119880379431,81.31475692604633,2.5455599401897158,1.2772892149365345,A,673.9666000012221,Correct
12,212,421,A,52.17437897406555,77.10769825114339,2.608718948703278,1.211204891805053,A,678.945499999827,Correct
12,212,422,B,51.32985638170916,41.431071641561225,2.5664928190854583,0.6507977514974058,B,1821.580300000278,Correct
12,212,423,A,25.469939383344844,54.02990491042962,1.2734969691672422,0.8486997617038039,A,821.5665999996418,Correct
12,212,424,B,71.45185054570767,55.601123093430665,3.5725925272853836,0.8733803992083179,B,586.2811999995756,Correct
12,212,425,A,30.744785899290953,47.996883208227366,1.5372392949645475,0.753933278410872,A,875.7190999986051,Correct
12,212,426,A,32.911372707541005,65.87211129204424,1.6455686353770502,1.034716704557677,A,561.4707999993698,Correct
12,212,427,A,64.67507441864225,89.36812854439474,3.2337537209321123,1.4037912805006942,A,628.545400000803,Correct
12,212,428,A,24.52313507168207,46.37176323656229,1.2261567535841036,0.7284059535899468,A,500.56380000023637,Correct
12,212,429,B,38.52036532182654,16.626797041872955,1.926018266091327,0.2611731171973829,B,888.7286999997741,Correct
12,212,430,A,41.40061608592044,62.76106074891472,2.070030804296022,0.985848436901466,A,1597.96070000084,Correct
12,212,431,A,29.053807434984954,58.51490984351223,1.4526903717492476,0.9191500544492354,A,756.8976000002294,Correct
12,212,432,B,62.349831624311676,36.809874484112726,3.1174915812155835,0.5782081562942546,B,622.2907999999734,Correct
12,212,433,B,33.62904637822987,12.319662177514555,1.6814523189114936,0.19351680095793886,B,577.6045000002341,Correct
12,212,434,A,36.88882045939421,60.950438949790154,1.8444410229697104,0.9574072561886696,A,1013.217200001236,Correct
12,212,435,B,68.76396092089408,41.691858193739726,3.438198046044704,0.6548941770798007,B,547.0452999998088,Correct
12,212,436,A,35.89897148817424,61.66248121824275,1.7949485744087121,0.9685919899867501,A,827.8569000012794,Correct
12,212,437,A,27.407656111720037,42.20915662266616,1.3703828055860017,0.6630198817999448,A,1610.2633000009519,Correct
12,212,438,A,28.018320733097053,47.268028232725094,1.4009160366548525,0.7424844512280204,A,904.0549000001192,Correct
12,212,439,A,19.063266867631196,32.0322908070287,0.9531633433815598,0.5031620473850662,A,868.4697000007873,Correct
12,212,440,B,63.702397554496095,55.49885228531464,3.185119877724805,0.8717739331110478,B,521.4615000004414,Correct
12,212,441,A,52.875644060670155,83.35779971936428,2.6437822030335076,1.3093812560888205,A,865.7641999998305,Correct
12,212,442,A,57.5385557618613,69.38968299865168,2.876927788093065,1.0899705917174434,B,627.4568999997427,Incorrect
12,212,443,B,85.77276774544822,57.25264202624487,4.288638387272411,0.8993223979412858,B,544.1623000006075,Correct
12,212,444,A,35.32918273831704,43.716390534466754,1.7664591369158518,0.6866954567227157,A,718.2603000001109,Correct
12,212,445,B,69.98532797595549,59.81826179240589,3.4992663987977743,0.9396230589876668,B,502.77969999842753,Correct
12,212,446,A,56.409045918422215,73.37393401144206,2.8204522959211107,1.1525550602766432,A,1975.3737000010005,Correct
12,212,447,B,68.61376173014905,52.660925498972546,3.4306880865074527,0.8271958833940578,B,531.8360999990546,Correct
12,212,448,B,37.98265554875258,28.96058232364787,1.899132777437629,0.4549117633582729,A,620.9105999987514,Incorrect
12,212,449,A,45.052476721495594,60.886994302099254,2.25262383607478,0.9564106699931931,B,405.4985000002489,Incorrect
12,212,450,B,62.87897974377045,47.79809581097501,3.1439489871885224,0.7508107332767008,B,605.5011000007653,Correct
12,212,451,A,42.57681251062532,70.33632043808541,2.1288406255312657,1.1048403378441336,A,602.7598999990005,Correct
12,212,452,B,63.28575824464527,36.7806856984442,3.164287912232264,0.5777496599211374,B,563.0621000000247,Correct
12,212,453,A,35.56787444928232,58.75176139854921,1.7783937224641162,0.922870509975713,A,843.6514000004536,Correct
12,212,454,A,22.129965279519542,42.435322419331825,1.106498263975977,0.6665724858264356,A,479.7540999988996,Correct
12,212,455,B,66.87483260544109,58.15298960621476,3.3437416302720546,0.9134650246558393,B,522.0090000002529,Correct
12,212,456,B,80.09886049653113,51.79006185482325,4.004943024826557,0.8135163892603684,B,462.98859999842534,Correct
12,212,457,B,44.965113589142376,22.851788836669858,2.248255679457119,0.35895505965333635,B,760.6680999997479,Correct
12,212,458,B,51.08333340645744,39.49747998071088,2.554166670322872,0.620424964713556,B,448.7078999991354,Correct
12,212,459,A,41.31477526559923,55.726658123838554,2.0657387632799615,0.8753522988548058,B,1012.5702000004821,Incorrect
12,212,460,B,42.09619650033943,26.409142843460437,2.1048098250169716,0.4148338457230938,B,543.0218999990757,Correct
12,212,461,A,19.619666649046135,48.517012968668965,0.9809833324523067,0.7621034575824557,A,538.6438999994425,Correct
12,212,462,B,36.532241459352065,16.823370934118955,1.8266120729676032,0.2642608926762208,B,613.7208999989525,Correct
12,212,463,B,42.082881935349825,21.508857485732776,2.104144096767491,0.3378603433214396,B,413.45929999988584,Correct
12,212,464,B,34.41963578546404,22.502134058454036,1.720981789273202,0.3534626952406594,B,518.0132999994385,Correct
12,212,465,B,41.3331402962656,30.47714109064252,2.0666570148132797,0.47873381276391075,B,448.2413000005181,Correct
12,212,466,B,70.28569937484333,60.39804562931009,3.5142849687421664,0.9487302822011086,B,471.2872000000061,Correct
12,212,467,A,59.75834152309227,75.07918314293029,2.9879170761546137,1.1793410509967621,A,824.5334000002913,Correct
12,212,468,A,47.20821158135595,65.08900241669419,2.3604105790677976,1.0224156591088738,A,1506.2457999993057,Correct
12,212,469,B,59.21653826927376,45.771051488097925,2.9608269134636878,0.718969995510443,B,534.8227000013139,Correct
12,212,470,B,50.38556846364296,36.70897527356239,2.519278423182148,0.5766232352011648,B,948.1981000008091,Correct
12,212,471,A,31.071204312954173,41.75239777110406,1.5535602156477086,0.6558451305372968,A,1115.3804000005039,Correct
12,212,472,A,64.10568157340192,74.71454193400142,3.205284078670096,1.1736132802809272,A,782.4430000000575,Correct
12,212,473,A,26.442018981885916,38.86799465806569,1.3221009490942959,0.6105370323877325,A,741.6247999990446,Correct
12,212,474,A,49.703295560321905,68.39141935505441,2.4851647780160953,1.0742899030720887,A,832.9698999987158,Correct
12,212,475,B,76.95685101704646,53.87591919916663,3.847842550852323,0.846280959807496,B,860.2732999988802,Correct
12,212,476,B,58.65895777488325,47.09837961463849,2.9329478887441622,0.7398196169666578,B,922.6880999995046,Correct
12,212,477,B,42.599295757722416,24.264691565283616,2.129964787886121,0.3811488838155861,B,841.2793999996211,Correct
12,212,478,A,50.52374463107721,80.79265933092843,2.5261872315538603,1.269088125090138,A,672.2036000010121,Correct
12,212,479,A,34.84822122755288,50.57654031987879,1.7424110613776438,0.7944544375645958,A,2471.083300000828,Correct
12,212,480,A,42.781221927524754,55.709602200116485,2.139061096376238,0.8750843850314787,B,1333.4570000006352,Incorrect
12,212,481,A,43.12651445660325,70.12831186571228,2.1563257228301627,1.1015729468298778,A,689.0719000002719,Correct
12,212,482,B,62.85957254465801,45.15756924161734,3.1429786272329006,0.7093334389171871,B,4022.0803000011074,Correct
12,212,483,B,80.34301136226874,67.4836304904934,4.017150568113437,1.0600303889325111,B,1516.7508000013186,Correct
12,212,484,A,65.39232616641611,86.06677514961405,3.269616308320806,1.3519337426409603,A,824.8549999989336,Correct
12,212,485,A,56.88319435280066,81.84788733781191,2.844159717640033,1.2856636078615746,A,1499.1049000000203,Correct
12,212,486,B,50.36241429599373,30.335709372126352,2.5181207147996867,0.4765122085245359,B,929.1983999992226,Correct
12,212,487,B,56.38256945402209,26.89952482746079,2.819128472701104,0.4225367479150353,B,501.05339999936405,Correct
12,212,488,A,21.527256350898455,46.42497168701658,1.0763628175449227,0.7292417499752271,A,815.0026000002981,Correct
12,212,489,B,60.178880337495336,50.32738969789084,3.0089440168747665,0.7905407887462224,B,1421.1140999996132,Correct
12,212,490,B,45.48268660893267,25.798872025988786,2.2741343304466337,0.405247734138748,B,4365.657599999395,Correct
12,212,491,A,15.552368492198521,42.26154034858358,0.7776184246099261,0.663842723442494,A,527.6641999989806,Correct
12,212,492,B,34.272388785036874,14.859874651182004,1.7136194392518436,0.23341836518709286,B,728.7708999992901,Correct
12,212,493,A,21.13436978494241,39.28548475163848,1.0567184892471204,0.6170949514423063,A,805.9912999997323,Correct
12,212,494,A,32.08954009161626,57.83706771401887,1.6044770045808128,0.9085025351776854,A,1511.1529999994673,Correct
12,212,495,A,20.487084420748584,34.176532328919535,1.0243542210374292,0.5368437144485384,A,689.3383999995422,Correct
12,212,496,B,75.05371193443767,61.54434853687091,3.7526855967218835,0.9667363661670169,B,449.3921000012051,Correct
12,212,497,B,83.21659243267234,63.528030564213594,4.160829621633617,0.9978959705878064,B,461.00939999996626,Correct
12,212,498,A,36.79926243311361,69.0531876068931,1.8399631216556804,1.0846849344638656,A,669.300800000201,Correct
12,212,499,A,49.130793169298165,68.75544448693493,2.456539658464908,1.080007996472278,A,830.3933000006509,Correct
12,212,500,B,64.98362565176664,48.814821465030704,3.2491812825883324,0.766781422504189,B,430.15029999878607,Correct
12,212,501,A,63.37860003978436,84.94976696123125,3.168930001989218,1.3343878190478449,A,650.2709999986109,Correct
12,212,502,A,23.08516032441161,46.862378807261855,1.1542580162205807,0.7361125249531794,A,563.3986000011646,Correct
12,212,503,A,54.105210113461,66.35982806751619,2.70526050567305,1.0423777417519533,A,527.0015999994939,Correct
12,212,504,B,54.58590000521832,33.80546223583816,2.729295000260916,0.5310149590565817,B,663.5659000003216,Correct
12,212,505,B,60.13953788751234,47.374953800548255,3.006976894375617,0.7441640341197912,B,708.0040000000736,Correct
12,212,506,A,65.1406081077201,88.81810224613325,3.2570304053860046,1.3951514876111966,A,616.179300001022,Correct
12,212,507,B,61.50875528784117,36.54455756953018,3.075437764392058,0.5740405679456263,B,536.7506999991747,Correct
12,212,508,A,49.50930160209373,73.61087623197335,2.4754650801046862,1.156276939973375,B,938.4062999997695,Incorrect
12,212,509,A,15.429505160763402,37.305635980071685,0.7714752580381701,0.5859955596624413,A,730.72780000075,Correct
12,212,510,A,51.90819050350427,62.727440548837556,2.5954095251752136,0.9853203320335928,B,570.4451999990852,Incorrect
12,212,511,A,68.95035558686978,88.38428768880684,3.447517779343489,1.3883371444796115,A,786.4405000000261,Correct
12,212,512,B,77.31982605398683,63.31106799260492,3.8659913026993418,0.9944879304824574,B,619.5936999993137,Correct
12,212,513,B,50.62991428937183,31.56464770604713,2.531495714468592,0.49581632673233783,B,1306.79869999949,Correct
12,212,514,A,48.0296681222696,75.53759587285786,2.4014834061134795,1.1865417813200247,A,534.9682000014582,Correct
12,212,515,B,45.93902098295246,27.862244466393058,2.296951049147623,0.4376591126407165,B,523.1096000006801,Correct
12,212,516,A,29.693758984648788,62.13590650700074,1.4846879492324394,0.9760285370326787,A,687.8176999998686,Correct
12,212,517,A,40.64098135755049,68.47209815145047,2.0320490678775243,1.07555720264238,A,603.1401999989612,Correct
12,212,518,B,46.20193816249238,33.6786670310225,2.310096908124619,0.5290232646367853,B,846.7307999999321,Correct
12,212,519,B,61.105051415850426,28.161538350055004,3.055252570792521,0.4423604099716001,B,501.3677999995707,Correct
12,212,520,A,38.450239586057165,49.475073806446645,1.9225119793028582,0.7771526420307279,A,854.4855000000098,Correct
12,212,521,B,39.13884155014087,27.482650885181044,1.9569420775070432,0.431696470610289,B,866.6080999992118,Correct
12,212,522,A,37.81907960677439,54.99869654077209,1.8909539803387192,0.8639175050475197,B,1236.312299999554,Incorrect
12,212,523,B,47.857986169709484,26.953325794817637,2.392899308485474,0.4233818515340568,B,583.1071000011434,Correct
12,212,524,A,28.957449344205017,55.432734028155004,1.447872467210251,0.8707353499562436,A,679.4114999993326,Correct
12,212,525,A,38.75538667832577,63.34008006235701,1.9377693339162887,0.9949436510084505,A,663.9635999999882,Correct
12,212,526,A,41.01283554539931,64.54996110561032,2.0506417772699654,1.0139484179944613,A,1910.0147999997716,Correct
12,212,527,B,64.370440713317,43.676361601838906,3.21852203566585,0.6860666837193421,B,497.34299999909126,Correct
12,212,528,B,72.10871032357174,46.027892128019104,3.6054355161785874,0.7230044388480414,B,652.4041000011493,Correct
12,212,529,A,11.561108980462144,36.33151656552535,0.5780554490231072,0.5706941276801516,A,499.8837999992247,Correct
12,212,530,A,37.38507663092835,58.09636368912679,1.8692538315464176,0.9125755468302077,A,1139.6408999989944,Correct
12,212,531,A,24.610428544875106,51.62893538866916,1.2305214272437552,0.8109854206485257,A,654.1161999994074,Correct
12,212,532,B,62.586666144802365,53.84319648776757,3.1293333072401186,0.8457669526588119,B,546.5886000001774,Correct
12,212,533,A,44.59926575443663,61.046962003378596,2.2299632877218314,0.9589234367689471,A,761.4562999988266,Correct
12,212,534,B,50.8946702829691,20.05985670330782,2.5447335141484553,0.3150994922558791,B,531.6875999997137,Correct
12,212,535,B,75.95229743088208,44.26327902149778,3.7976148715441043,0.6952859609886631,B,558.1756999999925,Correct
12,212,536,A,30.72112436927207,59.72336127016185,1.5360562184636035,0.9381323650701483,A,614.747499999794,Correct
12,212,537,A,56.849955533453624,65.14971439161584,2.842497776672681,1.0233693205808678,B,717.3868999998376,Incorrect
12,212,538,A,18.115004991578836,34.74793476538626,0.9057502495789419,0.5458192829317743,A,494.5167000005313,Correct
12,212,539,B,71.26628296552362,40.355332899895814,3.5633141482761808,0.633900086857416,B,559.9124999989726,Correct
12,212,540,A,50.31841776616278,71.18645559734375,2.515920888308139,1.1181942296985556,A,616.2232999995467,Correct
12,212,541,A,43.20728073651711,53.118593822674434,2.1603640368258556,0.8343849206116709,A,1382.2799999998097,Correct
12,212,542,B,42.02397322966956,31.33736735125597,2.101198661483478,0.492246215267752,B,928.270500000508,Correct
12,212,543,B,56.12877636015832,25.60197069600421,2.8064388180079156,0.40215481527993996,B,605.4903000003833,Correct
12,212,544,A,53.83905769725396,62.59386014080049,2.6919528848626983,0.983222055890829,A,904.281599998285,Correct
12,212,545,A,28.7522901461855,58.443643558836584,1.437614507309275,0.9180306062673073,A,593.3841000005486,Correct
12,212,546,A,53.3012412209791,66.6995794213639,2.665062061048955,1.047714543538429,A,1258.8073000006261,Correct
12,212,547,A,23.63882164153628,52.84009126343452,1.181941082076814,0.8300102126411005,A,552.6229999995849,Correct
12,212,548,A,62.00907277961042,78.49454521566983,3.100453638980521,1.232989432982101,B,744.1030999998475,Incorrect
12,212,549,B,77.49845116194625,63.088882778192755,3.8749225580973126,0.9909978532957898,B,673.7577000003512,Correct
