subject,day,trial,cat,x,y,xt,yt,resp,rt,fb
17,317,0,A,12.86178170615539,33.36553990840026,0.6430890853077696,0.5241046752964366,A,557.5297000004866,Correct
17,317,1,B,51.46076478908309,25.89657993863804,2.5730382394541547,0.40678252644163043,B,369.9135999995633,Correct
17,317,2,B,52.45296047379924,35.83212286392356,2.622648023689962,0.5628496697591454,B,444.15920000028564,Correct
17,317,3,A,41.79902435115723,59.31881697680111,2.0899512175578616,0.9317777981697793,A,436.1847999998645,Correct
17,317,4,B,70.23797124399152,39.49335457786176,3.511898562199576,0.6203601630371366,B,290.2577000004385,Correct
17,317,5,B,72.20472484387177,39.999187953117705,3.6102362421935883,0.6283057751153597,B,326.96670000041195,Correct
17,317,6,B,43.48224294145304,30.130044890797826,2.174112147072652,0.4732816384063057,B,435.9549999999217,Correct
17,317,7,A,60.2908001511121,69.1555395129115,3.0145400075556052,1.0862926744440071,A,445.35540000015317,Correct
17,317,8,A,47.94294566645077,77.14892729353932,2.3971472833225387,1.211852516088581,A,389.1139999996085,Correct
17,317,9,B,50.79905967347855,25.65695684642604,2.5399529836739276,0.403018535711012,B,340.5566999999792,Correct
17,317,10,B,49.93575109974212,39.89037496562891,2.496787554987106,0.6265965447048099,B,299.99169999973674,Correct
17,317,11,A,48.486981789799515,78.14423390883613,2.4243490894899757,1.2274867558420102,A,506.0942999998588,Correct
17,317,12,B,44.740399972006685,36.055738957793274,2.237019998600334,0.5663622231477734,B,404.597300000205,Correct
17,317,13,A,62.93848620152919,75.98066393052095,3.1469243100764595,1.193501478094998,A,358.0202000002828,Correct
17,317,14,A,52.026646242684116,62.32461428922918,2.601332312134206,0.9789927519442991,B,895.658800000092,Incorrect
17,317,15,B,80.74752628116478,64.82676462344196,4.037376314058239,1.0182964374849997,B,432.25339999935386,Correct
17,317,16,A,17.6726239122029,46.96656609769429,0.8836311956101451,0.7377490950842792,A,434.7394999995231,Correct
17,317,17,A,66.30180814849336,86.43415440912588,3.3150904074246683,1.3577045225547784,A,504.01719999990746,Correct
17,317,18,A,23.869860215943937,55.093993800558344,1.1934930107971968,0.8654144309037785,A,391.4666999999099,Correct
17,317,19,B,80.1520638260366,54.121524633094,4.00760319130183,0.8501389209420357,B,459.0732000006028,Correct
17,317,20,A,29.310778540800477,55.88065341950614,1.4655389270400239,0.8777712513025893,A,462.64740000060556,Correct
17,317,21,A,59.775300380875066,83.38105823795657,2.9887650190437536,1.3097466000445352,A,458.824000000277,Correct
17,317,22,A,28.209586385143144,57.46955606471945,1.4104793192571572,0.9027296756899468,A,470.98730000016076,Correct
17,317,23,B,69.25414858997269,49.936932246977534,3.4627074294986344,0.7844074974495793,B,622.4144999996497,Correct
17,317,24,B,36.36775360702315,17.79969914772629,1.8183876803511572,0.2795970203930271,B,439.0210000001389,Correct
17,317,25,A,67.2948512939165,83.77945083869595,3.364742564695825,1.3160045363831723,A,459.4962999999552,Correct
17,317,26,B,46.58067495869172,36.269145000147944,2.329033747934586,0.5697143974222388,B,352.4286000001666,Correct
17,317,27,B,54.396370477458525,37.36834756384527,2.7198185238729264,0.5869806309168316,B,368.72589999984484,Correct
17,317,28,B,39.62469082828672,18.804881039535903,1.9812345414143357,0.2953863806271799,B,326.52409999991505,Correct
17,317,29,B,52.91767396308248,31.352642541908455,2.6458836981541243,0.49248615740143215,B,465.31880000020465,Correct
17,317,30,B,47.439952699899315,33.75566860602023,2.371997634994966,0.5302328025484238,B,395.27910000015254,Correct
17,317,31,B,50.54548098054373,22.292962483380705,2.5272740490271866,0.3501770358227085,B,314.44980000014766,Correct
17,317,32,A,16.13729018409028,30.932665244743145,0.8068645092045139,0.485889169444187,A,467.8326000002926,Correct
17,317,33,A,56.59556874686915,76.6374522846568,2.8297784373434576,1.2038182854365809,B,411.83120000005147,Incorrect
17,317,34,A,43.21628644948121,54.35049236371388,2.1608143224740606,0.8537355376441584,A,842.7687999992486,Correct
17,317,35,A,45.3419574865099,75.51467832284945,2.267097874325495,1.186181793286301,A,562.8058000002056,Correct
17,317,36,A,59.15496368633863,81.84795948121138,2.957748184316932,1.2856647410874436,A,452.69740000003367,Correct
17,317,37,A,45.506486245911034,67.1358507955443,2.275324312295552,1.0545674782589123,A,593.4191999995164,Correct
17,317,38,A,47.34630957804343,66.42059505008609,2.3673154789021713,1.043332267282065,A,466.0139999996318,Correct
17,317,39,A,58.956373714350505,66.96409729071252,2.9478186857175253,1.0518695805138731,A,424.6365999997579,Correct
17,317,40,A,38.354962578900896,66.46089590291696,1.9177481289450446,1.0439653115979994,A,514.0601000002789,Correct
17,317,41,A,24.055306602181012,39.94465435549371,1.2027653301090506,0.6274491633670128,A,506.0539999994944,Correct
17,317,42,B,68.44144482805214,51.93597006884961,3.422072241402607,0.8158083101267868,B,490.9124999994674,Correct
17,317,43,B,61.73774090130172,34.92650297247876,3.086887045065086,0.5486242257696067,B,771.2185000000318,Correct
17,317,44,B,68.54111081642851,56.84347492258054,3.4270555408214256,0.8928952161064733,B,523.2055999995282,Correct
17,317,45,A,38.19925381602772,71.25413175365891,1.909962690801386,1.1192572842760702,A,660.8867000004466,Correct
17,317,46,A,27.398416309448546,49.05995714620873,1.3699208154724272,0.7706320047797972,A,621.7350999995688,Correct
17,317,47,A,32.00819014061737,42.6174585606845,1.6004095070308688,0.6694334736445692,A,1106.9655999999668,Correct
17,317,48,A,35.98137069517202,66.7086041016492,1.7990685347586008,1.0478563028848553,A,604.1078999996898,Correct
17,317,49,B,67.85656912207196,43.31618651622378,3.392828456103598,0.6804090667044694,B,470.63150000030873,Correct
17,317,50,A,68.76162603688084,84.13744286209285,3.438081301844042,1.3216278619369095,A,1088.28689999973,Correct
17,317,51,A,65.925439326394,85.01551676132163,3.2962719663196998,1.3354206144925398,A,530.2487000008114,Correct
17,317,52,A,37.12174618670867,63.422038351307805,1.8560873093354333,0.9962310488007936,A,808.3371000002444,Correct
17,317,53,A,31.647542841498215,59.937492900938146,1.5823771420749109,0.9414959368608883,A,492.7566000005754,Correct
17,317,54,B,36.15014814011679,23.93450617851832,1.8075074070058395,0.3759623438886633,B,689.4530999998096,Correct
17,317,55,A,31.476384614081002,61.802469973114015,1.5738192307040502,0.9707909282061938,A,542.4235000000408,Correct
17,317,56,B,49.05943287480307,42.134009524907206,2.4529716437401534,0.6618394739486543,B,473.78480000043055,Correct
17,317,57,B,41.39243670666322,29.56723025761623,2.0696218353331606,0.46444096682162495,B,799.0032999996401,Correct
17,317,58,B,62.26898281633302,46.19089801123583,3.1134491408166514,0.7255649292740695,B,481.54760000034,Correct
17,317,59,A,36.50768181880163,57.459596478290976,1.8253840909400816,0.9025732308721643,A,556.3231999994969,Correct
17,317,60,B,41.16443569745424,27.892069339546257,2.058221784872712,0.43812760065267825,B,476.04629999932513,Correct
17,317,61,B,68.58634871595184,35.56077297951107,3.429317435797592,0.558587315742032,B,481.30250000031083,Correct
17,317,62,A,44.4759335139628,70.42631620976512,2.2237966756981398,1.1062539881199493,A,644.9234000001525,Correct
17,317,63,B,83.58218047506024,58.135494251688755,4.1791090237530115,0.9131902082695851,B,502.284399999553,Correct
17,317,64,B,42.95351005872293,20.30919250504332,2.1476755029361465,0.3190160498709249,B,730.1888000001782,Correct
17,317,65,A,54.218330482929126,73.18996890997413,2.7109165241464566,1.1496653432202004,A,807.4196999996275,Correct
17,317,66,A,26.35519248285381,47.2303695785227,1.3177596241426903,0.7418929104710889,A,766.6295999997601,Correct
17,317,67,A,12.886295007116633,36.21981733284804,0.6443147503558316,0.5689395602361982,A,508.7145000006785,Correct
17,317,68,B,50.937795942240186,30.840685353502383,2.5468897971120095,0.48444435269118713,B,951.7521000007036,Correct
17,317,69,B,62.106473287741636,52.47389167582218,3.105323664387082,0.8242579629701479,B,701.0086999998748,Correct
17,317,70,A,59.72718270250145,71.57494079396444,2.9863591351250727,1.1242965408972156,A,722.3323999996865,Correct
17,317,71,A,66.24562342587834,87.70400046040136,3.3122811712939164,1.3776512176841638,A,612.7728000001298,Correct
17,317,72,B,35.82056177052348,19.159651607748817,1.7910280885261742,0.30095910368121775,B,791.280800000095,Correct
17,317,73,B,77.95174760112403,48.120662329786605,3.897587380056201,0.7558775963056634,B,575.5509000000529,Correct
17,317,74,A,69.9361142893819,87.53947921905984,3.4968057144690956,1.3750669240683737,A,609.7659000006388,Correct
17,317,75,B,75.67926421402902,45.91544121393442,3.7839632107014505,0.7212380640201519,B,714.0804000000571,Correct
17,317,76,A,30.491873240708486,39.66695018250878,1.5245936620354243,0.6230869964184095,A,878.2293000003847,Correct
17,317,77,B,85.45494349423844,56.71178430699358,4.272747174711921,0.8908266247540998,B,819.7862999995777,Correct
17,317,78,A,65.9376820536603,81.68847772829152,3.296884102683015,1.2831596075706702,A,495.1280000004772,Correct
17,317,79,B,31.363064888392778,16.59125697704779,1.5681532444196389,0.26061485516456867,B,732.0778000002974,Correct
17,317,80,B,85.96765638462139,64.54597884569105,4.298382819231069,1.013885864801926,B,540.9406999997373,Correct
17,317,81,B,84.31365083118105,69.22191787915968,4.215682541559053,1.08733534338282,B,453.2251999999062,Correct
17,317,82,B,41.635796049026844,29.030289312912938,2.0817898024513424,0.45600671818516786,B,381.25659999968775,Correct
17,317,83,A,56.85625242336044,73.3352427813413,2.842812621168022,1.1519472998554288,A,401.39499999986583,Correct
17,317,84,B,71.58030434579612,41.88185718860609,3.5790152172898058,0.6578786743121088,B,672.318500000074,Correct
17,317,85,B,53.579847662377304,39.02638188106011,2.678992383118865,0.6130249730686413,B,403.08829999958107,Correct
17,317,86,B,67.95737635444604,50.60142374090575,3.397868817722302,0.7948453054280683,B,406.7144999999073,Correct
17,317,87,A,64.92790383129031,82.59294373559851,3.2463951915645155,1.297366926390557,A,454.7241000000213,Correct
17,317,88,A,24.27443340458253,48.11147576893013,1.2137216702291267,0.7557332941451711,B,-1.8370000007053022,Incorrect
17,317,89,B,48.02294312319865,38.85542369824601,2.4011471561599325,0.6103395682126421,B,453.6015000003317,Correct
17,317,90,B,84.72725175855865,55.43250150287723,4.236362587927932,0.8707316974577214,B,390.7329000003301,Correct
17,317,91,B,68.8953418466408,46.806146642717934,3.4447670923320404,0.7352292321780461,B,355.45079999974405,Correct
17,317,92,B,40.3778090918468,15.376034442318304,2.01889045459234,0.2415261842266541,B,421.1109000007127,Correct
17,317,93,A,42.875115168332606,73.18645182281567,2.14375575841663,1.149610096944305,A,538.930500000788,Correct
17,317,94,A,30.960579556046476,45.89839572324731,1.5480289778023237,0.7209703140785546,A,944.2011000001003,Correct
17,317,95,A,43.431396655944205,75.62087356112201,2.17156983279721,1.1878499041883175,A,609.0360000007422,Correct
17,317,96,B,72.90856634518887,47.412081596540226,3.645428317259444,0.744747236175453,B,377.30939999983093,Correct
17,317,97,B,49.222816604605406,35.882568238810016,2.46114083023027,0.5636420638548999,B,459.0088000004471,Correct
17,317,98,A,65.30445682896031,76.62388879163133,3.265222841448016,1.2036052305863514,A,552.8070999998818,Correct
17,317,99,A,15.871120600977715,31.395670427583592,0.7935560300488858,0.49316203784911467,A,478.88049999983195,Correct
17,317,100,B,75.64431619157071,53.14858139852684,3.7822158095785356,0.8348559643516552,B,456.8301999997857,Correct
17,317,101,B,39.99768066695019,14.801557595982509,1.9998840333475096,0.23250232302612422,B,360.8672000000297,Correct
17,317,102,A,40.45608735872395,62.32774269679066,2.0228043679361973,0.979041892855362,A,1003.3434000006309,Correct
17,317,103,B,84.7300643392893,69.0439516001305,4.236503216964465,1.084539855608896,B,445.0304000001779,Correct
17,317,104,A,25.194559030641855,37.37242798887693,1.2597279515320927,0.5870447260833467,A,562.8163000001223,Correct
17,317,105,B,75.7993903100585,58.53546264995071,3.7899695155029245,0.9194728971778243,B,380.5071000006137,Correct
17,317,106,B,71.11125761780724,39.554814533499325,3.555562880890362,0.6213255737627412,B,399.29579999989073,Correct
17,317,107,B,31.405674229605257,15.39433001483415,1.5702837114802628,0.2418135704076991,B,681.7971999998917,Correct
17,317,108,A,53.53866117638524,83.65060101446755,2.6769330588192624,1.3139805680771108,A,612.0132999994894,Correct
17,317,109,B,59.571177760991155,31.915677452995453,2.978558888049558,0.5013302891033595,B,489.54670000057376,Correct
17,317,110,B,36.702730928824366,23.444711978575338,1.8351365464412184,0.36826867458710455,B,433.8230000003023,Correct
17,317,111,A,37.239170227663465,53.07986907784833,1.8619585113831731,0.8337766337423816,A,524.0587000007508,Correct
17,317,112,A,63.76623795878166,83.25282572066558,3.1883118979390828,1.3077323283731719,B,393.829800000276,Incorrect
17,317,113,A,57.86852615440133,68.083304741435,2.8934263077200666,1.0694500500390367,A,732.6278999998976,Correct
17,317,114,A,35.84080173292385,58.48249613599222,1.7920400866461927,0.918640901122133,A,1287.3971999997593,Correct
17,317,115,A,32.999634044765024,60.33469047213377,1.6499817022382512,0.9477351017193476,A,1018.1952000002639,Correct
17,317,116,B,32.34999671084565,17.550960645020126,1.6174998355422827,0.27568984512919403,B,722.7783999996973,Correct
17,317,117,B,46.878502739930916,17.341679835183292,2.3439251369965457,0.2724024698555904,B,1102.8986999999688,Correct
17,317,118,A,29.561924058732373,55.69652056290548,1.4780962029366185,0.8748788991546834,A,1688.3182000001398,Correct
17,317,119,B,56.25535717051978,40.3906179673068,2.812767858525989,0.6344543434002148,B,1340.1961999998093,Correct
17,317,120,A,45.3810494969945,66.44153802586864,2.269052474849725,1.043661238776379,A,1975.2730000000156,Correct
17,317,121,A,37.062094091586246,60.84625613915413,1.853104704579312,0.9557707564260473,A,809.2083000001367,Correct
17,317,122,B,44.24626306321343,31.83059157514623,2.2123131531606717,0.49999376325948275,B,2456.942299999355,Correct
17,317,123,B,64.58631325090198,43.63410602983339,3.229315662545099,0.6854029347464135,B,610.3589999993346,Correct
17,317,124,B,48.80829749180644,28.45316305004385,2.4404148745903225,0.4469412400470515,B,474.65420000025915,Correct
17,317,125,B,41.60039469028823,24.77116679478314,2.0800197345144116,0.3891045781166907,B,997.704700000213,Correct
17,317,126,A,59.0318922457941,73.09788465836571,2.9515946122897048,1.1482188871783792,A,557.4126999999862,Correct
17,317,127,B,64.9201640534541,57.23408201316032,3.2460082026727046,0.8990308579375009,A,449.0464000000429,Incorrect
17,317,128,B,58.48261916502161,43.69627106876051,2.92413095825108,0.6863794208944312,B,1033.0375000003187,Correct
17,317,129,A,45.275127972044615,73.30727002725928,2.263756398602231,1.1515079048618049,A,634.7352000002502,Correct
17,317,130,B,61.22984065457981,29.288151943944726,3.0614920327289905,0.4600572149215918,B,805.5189999995491,Correct
17,317,131,A,42.383209250351484,74.78041093414552,2.1191604625175744,1.174647948115687,A,462.37700000074256,Correct
17,317,132,A,26.350150644935837,44.5378053073105,1.317507532246792,0.6995982098022958,A,575.763900000311,Correct
17,317,133,B,67.14196424360394,34.64012823351805,3.3570982121801967,0.5441258618891435,B,547.626699999455,Correct
17,317,134,B,62.531277122183994,53.9705855764807,3.1265638561092,0.847767975785055,B,670.1246000002357,Correct
17,317,135,A,49.29829559965334,75.80621102839547,2.464914779982667,1.1907611783164238,A,491.7193999999654,Correct
17,317,136,A,15.737917951828855,39.24307585931484,0.7868958975914427,0.6164287941194523,A,488.3832000004986,Correct
17,317,137,A,60.16702475028485,79.6280345285532,3.0083512375142423,1.2507942414734858,A,692.2409999997399,Correct
17,317,138,A,45.241326300223946,70.80382849661332,2.262066315011197,1.1121839372549602,A,626.3571999998021,Correct
17,317,139,A,48.170376822310175,66.02005677683071,2.4085188411155087,1.0370406267983618,A,476.8244999995659,Correct
17,317,140,B,40.13112577099288,29.49092798907776,2.006556288549644,0.46324241359016155,B,616.9947999997021,Correct
17,317,141,A,50.432962287913,70.52758981004091,2.52164811439565,1.1078447901130946,A,571.2044000001697,Correct
17,317,142,A,48.31791472034927,78.90458307333975,2.4158957360174638,1.2394302925888485,A,571.2266000000454,Correct
17,317,143,B,43.942060054903195,29.859954172980697,2.19710300274516,0.46903906333182027,B,968.7690000000657,Correct
17,317,144,B,34.54198294062825,15.508974185394038,1.7270991470314128,0.24361439682773825,B,478.03299999941373,Correct
17,317,145,B,52.20975954851065,42.61260416056163,2.6104879774255325,0.6693572209057513,B,351.7149999997855,Correct
17,317,146,B,63.31797177997649,50.753296221089116,3.1658985889988243,0.7972309127682008,B,398.3268000001772,Correct
17,317,147,A,60.566195290122884,85.5261471231787,3.028309764506144,1.3434415774600903,A,401.9210000005842,Correct
17,317,148,B,48.20039033881037,17.504920535672188,2.4100195169405185,0.27496664878270427,B,419.88039999978355,Correct
17,317,149,B,79.88518570710826,56.97299969661239,3.994259285355413,0.8949297864992549,A,407.188799999858,Incorrect
17,317,150,A,57.142604300603544,67.36253133567683,2.8571302150301774,1.0581281678568728,A,908.1962999998723,Correct
17,317,151,A,14.278459207506465,37.7418547339914,0.7139229603753233,0.5928476678258027,A,510.9591000000364,Correct
17,317,152,B,48.50816180970069,39.13578131812419,2.425408090485034,0.614743415407578,B,928.0683999995745,Correct
17,317,153,A,40.31514908539124,67.72592801369214,2.0157574542695618,1.063836389526832,A,667.4057000000175,Correct
17,317,154,B,78.10930734229112,49.792212175397175,3.905465367114556,0.7821342398810601,B,419.9991000004957,Correct
17,317,155,B,89.77685489529581,67.00740665938596,4.48884274476479,1.0525498824861537,B,501.98229999932664,Correct
17,317,156,A,68.91754686052103,86.12089123639927,3.4458773430260514,1.3527837961443878,A,607.8630000001795,Correct
17,317,157,A,15.2612989081091,39.210443588730485,0.763064945405455,0.6159162076117635,A,505.5071000006137,Correct
17,317,158,B,39.42310451814506,30.831770368828806,1.9711552259072531,0.48430431643940025,B,444.8465000004944,Correct
17,317,159,A,23.931873545644546,55.98191836297801,1.1965936772822274,0.8793619173149761,A,529.3032999998104,Correct
17,317,160,A,61.72611934747208,82.98637015242483,3.086305967373604,1.3035468540947053,A,703.6530999994284,Correct
17,317,161,A,48.822060213088406,75.06065305997721,2.4411030106544205,1.1790499811343833,A,903.4100999997463,Correct
17,317,162,B,34.50905206157395,17.229143622058682,1.7254526030786976,0.270634755153515,B,547.5843999993231,Correct
17,317,163,A,18.2888811468946,43.36942108728279,0.9144440573447299,0.6812452733912493,A,504.27420000050915,Correct
17,317,164,A,34.270524582578304,59.74433375572495,1.7135262291289153,0.9384618001030111,A,790.8873999995194,Correct
17,317,165,A,61.45442153472837,72.87524834205162,3.072721076736418,1.1447217240996057,B,680.8676999999079,Incorrect
17,317,166,B,32.44145528075141,16.500175514347305,1.6220727640375707,0.25918415089407837,B,456.577500000094,Correct
17,317,167,B,43.05942718536069,24.428947974434227,2.1529713592680344,0.3837290174570492,B,504.322100000536,Correct
17,317,168,A,32.46885264820516,56.60873178672518,1.6234426324102578,0.8892078795510541,A,495.8004999998593,Correct
17,317,169,B,69.47589165252481,52.095571619525245,3.4737945826262404,0.8183153254223072,B,512.3689000001832,Correct
17,317,170,B,37.49528758934704,21.927356037430688,1.874764379467352,0.34443410319920026,B,413.6287999999695,Correct
17,317,171,B,79.66533924453309,52.058317381713984,3.9832669622266543,0.8177301372231925,B,408.408899999813,Correct
17,317,172,B,38.11756568417371,13.412878824784467,1.9058782842086857,0.2106890078971649,B,472.98070000033476,Correct
17,317,173,A,33.47192206459327,43.12944655747165,1.6735961032296638,0.6774757622917327,A,566.7748999994728,Correct
17,317,174,B,51.66973606102156,30.30212516403249,2.583486803051078,0.4759846690174144,B,395.4780000003666,Correct
17,317,175,A,48.22650294369126,65.48064294313565,2.411325147184563,1.0285675341124565,A,457.8490000003512,Correct
17,317,176,B,44.49158104573732,27.571209271535615,2.224579052286866,0.4330875424902154,B,436.3579999999274,Correct
17,317,177,B,75.02617476002182,51.05855386294574,3.751308738001091,0.8020258885937455,B,576.1985999997705,Correct
17,317,178,A,17.127122563622653,45.48240934028732,0.8563561281811326,0.7144360152550522,A,418.1589999998323,Correct
17,317,179,A,66.18874490255101,88.77676467556212,3.30943724512755,1.394502158571079,B,343.43510000053357,Incorrect
17,317,180,A,19.77695287975844,42.117319830386734,0.988847643987922,0.6615773128401734,A,450.47990000057325,Correct
17,317,181,A,57.807689823877546,83.83000966195706,2.890384491193877,1.3167987125218283,A,535.7320000002801,Correct
17,317,182,B,59.107464554809134,50.92767729066878,2.9553732277404565,0.7999700842037839,B,654.0586999999505,Correct
17,317,183,B,49.63663949314076,30.881925467314584,2.4818319746570383,0.4850921508841151,B,443.350399999872,Correct
17,317,184,B,61.131917652614135,45.68423452320566,3.0565958826307065,0.7176062778148805,B,678.4120000002076,Correct
17,317,185,B,73.99574426108501,56.84161081946834,3.6997872130542504,0.8928659348432593,B,483.38110000076995,Correct
17,317,186,B,45.998571690235515,33.973139339143955,2.299928584511776,0.5336488248361853,B,371.69340000036755,Correct
17,317,187,A,28.094439060751625,56.35231312318913,1.4047219530375812,0.8851800646030132,A,442.5909000001411,Correct
17,317,188,A,35.75711281116397,43.806084118977644,1.7878556405581987,0.6881043602535835,A,687.8300999997009,Correct
17,317,189,B,45.385694091188704,18.507936305600918,2.269284704559435,0.29072198365391827,B,276.28160000040225,Correct
17,317,190,A,28.020371237594908,41.477370797285076,1.4010185618797453,0.6515250169348531,B,311.5927999997439,Incorrect
17,317,191,B,56.84941404629234,42.395141109492414,2.8424707023146167,0.66594131928742,B,618.9283000003343,Correct
17,317,192,A,27.081165340887402,49.03991205894794,1.35405826704437,0.7703171372854019,A,522.1148999999059,Correct
17,317,193,A,60.199087149806815,82.04244938217802,3.009954357490341,1.2887197813078148,A,563.5230999996566,Correct
17,317,194,A,32.95612523768135,52.03980441509397,1.6478062618840676,0.8174393362235446,A,860.9203000005436,Correct
17,317,195,A,10.450126536352812,32.486414443537384,0.5225063268176406,0.510295404786452,A,411.2605000000258,Correct
17,317,196,B,59.48708344328517,50.38244079498871,2.974354172164259,0.7914055293572962,B,654.8802000006617,Correct
17,317,197,B,74.99170524281632,43.33182024129791,3.7495852621408163,0.6806546406836751,B,393.0710000004183,Correct
17,317,198,A,37.794663924562656,67.68444181355584,1.8897331962281327,1.0631847258189642,A,703.4295999992537,Correct
17,317,199,A,36.673284666275414,56.23709249949773,1.8336642333137707,0.8833701832783585,A,528.5819000000629,Correct
17,317,200,B,34.53389524352659,20.539141260409107,1.7266947621763293,0.32262807647372127,A,467.8777999997692,Incorrect
17,317,201,A,11.229690396107433,31.606120954353766,0.5614845198053716,0.496467786993341,A,486.6830000000846,Correct
17,317,202,A,43.08183274374754,52.77025495975876,2.1540916371873773,0.8289132265481923,A,934.1414000000441,Correct
17,317,203,A,14.268392887421367,42.15932828603475,0.7134196443710684,0.6622371801184357,A,643.4089000003951,Correct
17,317,204,A,47.9542981177781,78.5108633291176,2.3977149058889053,1.2332457573087405,A,475.948199999948,Correct
17,317,205,B,84.48174460222018,66.24089024436586,4.224087230111008,1.0405094707947378,B,465.7220999997662,Correct
17,317,206,A,50.0547235831855,61.32020309365515,2.502736179159275,0.9632154977783056,A,725.9352000000945,Correct
17,317,207,A,34.30798961058362,58.00476739266313,1.7153994805291808,0.9111367555698763,A,759.0255000004618,Correct
17,317,208,A,42.237237143362144,52.40707543439362,2.111861857168107,0.8232084159040857,B,615.0637999999162,Incorrect
17,317,209,B,48.792946192549294,33.53605884465724,2.439647309627465,0.526783180483651,B,1013.9482000004136,Correct
17,317,210,B,64.13710572950906,37.17852920337995,3.206855286475453,0.5839989710830602,B,490.95519999991666,Correct
17,317,211,B,78.12743323305226,59.56065466445618,3.906371661652613,0.935576575684271,B,434.1432999999597,Correct
17,317,212,A,34.925096957582745,54.389602402394274,1.7462548478791373,0.854349876695158,B,453.4686999995756,Incorrect
17,317,213,B,59.13868328217316,41.15862757046245,2.9569341641086577,0.6465182100360157,B,396.6688000000431,Correct
17,317,214,A,18.78518086048066,34.45903543527328,0.9392590430240331,0.5412812628662245,A,376.80340000042634,Correct
17,317,215,B,37.590659861746246,18.939079559432653,1.8795329930873124,0.2974943660483312,B,387.2935999997935,Correct
17,317,216,B,72.43894504160112,62.02520189986792,3.621947252080056,0.9742895931302439,A,478.9059000004272,Incorrect
17,317,217,B,37.63496023818916,11.851748676646558,1.881748011909458,0.1861668328737269,B,609.6674999998868,Correct
17,317,218,B,68.20450442118485,45.195769119991056,3.410225221059243,0.7099334812035216,B,525.8442000003924,Correct
17,317,219,B,50.03315718703408,39.9612322417095,2.501657859351704,0.6277095681947508,B,574.1324999999051,Correct
17,317,220,A,49.738397325159696,62.17481693820043,2.486919866257985,0.9766397406567034,A,426.81399999946734,Correct
17,317,221,B,57.31147029807336,47.52332118599945,2.8655735149036676,0.7464945835606203,B,538.2761000000755,Correct
17,317,222,B,83.88815432726716,66.21769875450778,4.194407716363358,1.040145179723918,B,503.58850000066013,Correct
17,317,223,B,31.4154664687509,13.410260849830621,1.5707733234375452,0.21064788484275346,B,758.1880000007004,Correct
17,317,224,B,32.75959847402406,19.238444115521023,1.6379799237012032,0.3021967734990932,B,434.90290000045206,Correct
17,317,225,A,33.55546206197754,64.28826669228683,1.6777731030988772,1.0098377317625484,A,463.8990000003105,Correct
17,317,226,B,40.62209414985807,16.917548825401347,2.0311047074929034,0.2657402355331375,B,484.85530000016297,Correct
17,317,227,A,25.095925266410404,37.82867779397269,1.2547962633205203,0.5942114812627997,B,660.5827000003046,Incorrect
17,317,228,B,81.03212234646418,67.82314573996027,4.0516061173232085,1.065363482000045,B,404.36489999956393,Correct
17,317,229,A,59.92462630268297,82.89437213014494,2.996231315134148,1.3021017525400091,A,544.2408999997497,Correct
17,317,230,B,44.99762690826583,27.666017728283556,2.2498813454132915,0.434576790246303,B,521.3372999996864,Correct
17,317,231,A,33.78229342929978,47.07646730034162,1.689114671464989,0.7394754191385667,A,385.0910000001022,Correct
17,317,232,A,45.993766996222575,53.152825137107385,2.2996883498111287,0.8349226248413973,A,428.9578999996593,Correct
17,317,233,B,56.05238841507933,44.0414030418565,2.8026194207539663,0.6918007412504178,B,563.0792000001748,Correct
17,317,234,A,34.22333282397457,59.030434925499094,1.7111666411987287,0.9272479035007916,A,500.1737000002322,Correct
17,317,235,A,29.69087957110407,48.67004869228876,1.4845439785552035,0.7645073371077594,A,503.48359999952663,Correct
17,317,236,B,68.15770959672517,59.257555813605066,3.4078854798362586,0.9308155100685441,B,448.3444999996209,Correct
17,317,237,A,27.86694805410781,37.48662867285286,1.3933474027053905,0.5888385862324153,A,541.6094000001976,Correct
17,317,238,B,33.876870216163326,12.707758518063084,1.6938435108081662,0.19961300401970053,B,520.0938000007227,Correct
17,317,239,A,34.190224361729655,63.32549814528172,1.7095112180864829,0.9947145987906557,A,506.33620000007795,Correct
17,317,240,B,70.4042354915376,38.16177120084049,3.5202117745768806,0.5994437002626751,B,390.1798000006238,Correct
17,317,241,A,60.19828746501145,76.3195950180786,3.0099143732505724,1.1988253951687196,A,677.6860999998462,Correct
17,317,242,B,70.51526899102814,48.002038375024355,3.525763449551407,0.7540142555815592,B,551.0761999994429,Correct
17,317,243,B,30.220592393444573,12.367086074644956,1.5110296196722286,0.19426173379208614,B,467.76019999924756,Correct
17,317,244,B,59.74138270904865,48.51449533541923,2.9870691354524324,0.7620639106918466,B,472.77440000016213,Correct
17,317,245,A,25.672765417642957,38.46814141475282,1.2836382708821477,0.6042561523292036,A,503.11430000056134,Correct
17,317,246,B,49.42364473086814,20.92924896366653,2.4711822365434073,0.3287558739470328,B,486.0410999999658,Correct
17,317,247,A,64.77502277977709,87.06592044263658,3.2387511389888544,1.3676282802031023,A,565.1944999999614,Correct
17,317,248,B,62.42830674627518,54.44156664166812,3.1214153373137594,0.8551661290569185,B,491.8540999997276,Correct
17,317,249,B,33.37969027057957,15.131392363322473,1.6689845135289787,0.23768335543599287,B,582.640800000263,Correct
17,317,250,B,56.03010693352055,37.658681494791686,2.8015053466760276,0.5915411856395772,B,474.4811000000482,Correct
17,317,251,A,49.56242981391452,69.31433734632806,2.478121490695726,1.0887870649783444,A,849.982299999283,Correct
17,317,252,B,31.562123425387593,13.713794899458922,1.5781061712693796,0.21541578654488663,B,594.8198999994929,Correct
17,317,253,A,24.26600586200292,36.221537612401434,1.213300293100146,0.5689665823242336,A,1150.4015999998956,Correct
17,317,254,B,73.88507718072272,55.92360739479865,3.694253859036136,0.8784459707686961,B,726.4345000003232,Correct
17,317,255,B,71.34175180255144,58.04895335482947,3.5670875901275725,0.9118308270405441,B,909.0660000001662,Correct
17,317,256,B,69.27554422054108,53.15004528133021,3.463777211027054,0.8348789589689593,B,473.7823000004937,Correct
17,317,257,B,77.36192251766951,64.22574988557142,3.868096125883476,1.0088557200590333,B,542.4714999999196,Correct
17,317,258,A,49.69612403329205,74.2107147742159,2.4848062016646026,1.165699181761621,A,1940.3394999999364,Correct
17,317,259,B,66.05432101503672,49.52221333115685,3.3027160507518363,0.7778931079533444,B,1306.9208000006256,Correct
17,317,260,B,46.057132164591664,35.26479008142375,2.3028566082295834,0.5539380272509352,B,385.292599999957,Correct
17,317,261,A,27.64246080661433,52.91635163813756,1.3821230403307165,0.831208107805736,A,608.4836999998515,Correct
17,317,262,A,31.86410030519643,52.68895460218556,1.5932050152598214,0.8276361635177613,A,504.50009999985923,Correct
17,317,263,B,55.17115885544854,39.56119562650104,2.758557942772427,0.6214258077372216,B,477.19729999971605,Correct
17,317,264,B,72.77366227015497,53.017045973678115,3.638683113507749,0.8327898107296974,B,427.27930000000924,Correct
17,317,265,A,39.24352878100055,53.83677955486702,1.9621764390500274,0.845666155712517,A,515.5656000006275,Correct
17,317,266,A,17.09920506323465,37.80717260521437,0.8549602531617324,0.5938736785477138,A,456.0330000003887,Correct
17,317,267,A,54.178749109531694,70.98998868810286,2.7089374554765846,1.1151081347048322,B,358.37070000070526,Incorrect
17,317,268,A,53.005243562845166,74.4408807637413,2.6502621781422584,1.169314620670617,A,548.7382999999681,Correct
17,317,269,A,61.82148726291237,83.97509972372923,3.0910743631456183,1.3190777818826902,A,686.9541000005484,Correct
17,317,270,A,49.83052908331797,70.6941555646018,2.4915264541658986,1.1104611988674349,A,480.0537000000986,Correct
17,317,271,A,47.411621157826715,78.84470225666762,2.3705810578913358,1.2384896869201079,A,501.3359999993554,Correct
17,317,272,B,70.04921232132338,49.425773957974386,3.502460616066169,0.77637824182181,B,513.2225999996081,Correct
17,317,273,B,41.4195102845364,16.919450894093448,2.07097551422682,0.2657701131582862,B,447.0413999997618,Correct
17,317,274,A,47.20073180488957,68.57174441299519,2.3600365902444786,1.077122442458513,A,431.5755000006902,Correct
17,317,275,B,42.56776327765178,25.119158147700453,2.128388163882589,0.39457081350587975,B,647.0485999998346,Correct
17,317,276,B,63.98778028551303,48.41550779393397,3.1993890142756514,0.7605090180262117,B,798.8103000006959,Correct
17,317,277,A,66.78891962651622,87.26098308727873,3.339445981325811,1.3706923170600904,A,489.30080000081944,Correct
17,317,278,B,53.71364382214136,40.48113604477824,2.685682191107068,0.6358761980362214,B,637.7200000006269,Correct
17,317,279,B,41.79822559359879,19.46166571983244,2.089911279679939,0.3057031302602295,B,454.56410000042524,Correct
17,317,280,A,24.353461787453654,38.1917176028007,1.2176730893726826,0.5999140972446734,B,527.3860999996032,Incorrect
17,317,281,B,39.55178312842238,28.04784245660933,1.977589156421119,0.4405744790536389,B,654.3338000001313,Correct
17,317,282,A,51.54538967224535,71.41547868549496,2.5772694836122674,1.1217917159547472,A,445.7947000000786,Correct
17,317,283,B,64.40584817939431,35.89339425367453,3.2202924089697156,0.5638121184987299,B,397.49790000041685,Correct
17,317,284,A,34.152285484211006,60.97474133145214,1.7076142742105502,0.9577889971071398,A,494.0833999999086,Correct
17,317,285,B,57.02239576251021,28.508683301657825,2.8511197881255104,0.4478133501200312,B,504.337299999861,Correct
17,317,286,B,46.761966996322364,19.18593681094405,2.3380983498161183,0.30137199068749904,B,469.8539000000892,Correct
17,317,287,A,47.50000614789019,71.27181586629493,2.3750003073945094,1.1195350656677832,A,588.4728999999425,Correct
17,317,288,A,49.15897971939813,58.97783727179317,2.4579489859699066,0.9264217014883985,B,910.7315000001108,Incorrect
17,317,289,B,60.033993550804944,39.09972126098578,3.001699677540247,0.6141769853546079,B,615.5497999998261,Correct
17,317,290,A,64.41785546864556,77.19992247690287,3.2208927734322774,1.212653546555698,A,640.9608000003573,Correct
17,317,291,A,64.36550170129541,87.81978076172231,3.218275085064771,1.3794698904044653,A,482.893200000035,Correct
17,317,292,B,59.19354668493205,50.587083657374784,2.9596773342466025,0.7946200519227045,B,546.9223000000056,Correct
17,317,293,A,32.19111611589842,40.36868865767231,1.6095558057949209,0.6341098786099847,A,860.0839999999152,Correct
17,317,294,B,86.69178736058745,66.79014609058314,4.334589368029373,1.0491371614518252,B,794.981099999859,Correct
17,317,295,B,68.3053797389,43.74131859532021,3.415268986945,0.6870870257869429,B,479.65189999922586,Correct
17,317,296,B,38.47618017974176,19.629898829720727,1.923809008987088,0.30834572977080754,A,367.678600000545,Incorrect
17,317,297,A,48.57312773945219,76.32952352123985,2.4286563869726097,1.198981351731682,A,588.118100000429,Correct
17,317,298,B,72.75499472145283,46.71296801962459,3.6377497360726414,0.7337655857891379,B,386.72289999976783,Correct
17,317,299,B,52.563092552041326,29.43096495859468,2.628154627602066,0.4623005165098984,B,570.4908999996405,Correct
17,317,300,B,51.963876699923425,34.982052950472834,2.598193834996171,0.549496802783473,B,425.1023000006171,Correct
17,317,301,A,66.20460758255177,82.79018331156388,3.3102303791275887,1.300465158404807,A,555.6117999994967,Correct
17,317,302,B,62.3306452780349,40.405965898117614,3.1165322639017448,0.63469542813363,B,457.1539999997185,Correct
17,317,303,A,29.25887577240733,54.93687805144167,1.4629437886203664,0.8629464624878375,A,400.640800000474,Correct
17,317,304,A,39.18910988591892,51.24542903424764,1.959455494295946,0.8049613169202475,A,884.766000000127,Correct
17,317,305,B,31.991675219779403,19.163726484349567,1.5995837609889703,0.30102311169318374,A,767.8158999997322,Incorrect
17,317,306,A,36.395426061044205,69.64551181321993,1.81977130305221,1.0939891413395644,A,544.9325999998109,Correct
17,317,307,B,69.5147319760078,45.18891941774685,3.4757365988003897,0.7098258863322732,B,478.15970000010566,Correct
17,317,308,B,49.06269195189938,37.55184582989814,2.453134597594969,0.5898630149397225,B,628.2892999997785,Correct
17,317,309,A,38.28576075167127,53.680105681938606,1.9142880375835634,0.8432051282715102,A,516.8526999996175,Correct
17,317,310,B,71.95850671509723,43.195569934737485,3.5979253357548613,0.6785144258729771,B,457.2625999999218,Correct
17,317,311,B,61.77474772812987,53.82319500727051,3.088737386406493,0.8454527701378594,B,465.82670000043436,Correct
17,317,312,B,37.46381055041127,24.86026690888555,1.8731905275205634,0.39050415943618133,B,583.9410000007774,Correct
17,317,313,B,57.895948501917964,49.98180375630182,2.894797425095898,0.7851123374698228,A,458.43319999949017,Incorrect
17,317,314,B,71.40552553477278,60.263411800041375,3.570276276738639,0.9466154589563321,B,616.2341999997807,Correct
17,317,315,B,71.39554355145474,40.238112414244284,3.569777177572737,0.6320587917745505,B,438.3348000001206,Correct
17,317,316,B,70.45678260344121,52.95322297332049,3.5228391301720605,0.8317872813844296,B,572.1205000008922,Correct
17,317,317,A,29.804943975834348,53.664864893806644,1.4902471987917176,0.8429657265313586,A,430.06340000010823,Correct
17,317,318,B,74.77171496256541,56.76297377585462,3.7385857481282705,0.8916307070506747,B,685.2737999997771,Correct
17,317,319,A,20.390311293754202,46.90626298242598,1.01951556468771,0.7368018559647016,A,486.94760000034876,Correct
17,317,320,A,39.92369750436061,47.627808848519116,1.9961848752180305,0.7481358719254331,A,650.5521999997654,Correct
17,317,321,B,59.467672458985476,41.63677270359141,2.9733836229492736,0.654028896223954,B,688.3659000004627,Correct
17,317,322,A,24.027654045867173,44.85620046689651,1.2013827022933585,0.7045995492737657,A,538.598600000114,Correct
17,317,323,B,62.49129348393157,34.62513426215208,3.124564674196579,0.5438903371376861,B,466.58229999957257,Correct
17,317,324,B,52.224712497429785,44.17744137384092,2.6112356248714894,0.6939376263722621,A,536.9584999998551,Incorrect
17,317,325,B,51.07431589712196,23.02421523762821,2.553715794856098,0.36166352722601475,B,457.7996999996685,Correct
17,317,326,B,60.33175204560631,42.03751300775667,3.0165876022803157,0.6603237102017686,B,375.061700000515,Correct
17,317,327,B,69.51437638910188,54.28119745539141,3.475718819455094,0.8526470557695731,B,574.5271000005232,Correct
17,317,328,A,42.167472346553865,73.91361960060911,2.1083736173276932,1.1610324216875203,A,431.36199999935343,Correct
17,317,329,A,58.29470085356654,84.83628131537516,2.914735042678327,1.3326051906912981,A,463.1095999993704,Correct
17,317,330,B,39.59597942854093,29.697480246826508,1.9797989714270465,0.4664869288677908,B,535.9558999998626,Correct
17,317,331,B,37.60154825217426,14.375259680848615,1.8800774126087132,0.22580605103399776,B,562.7291000000696,Correct
17,317,332,A,22.498736375651017,40.05101139442543,1.1249368187825508,0.6291198158278402,A,787.2894000001907,Correct
17,317,333,A,17.612118736267853,31.163157683562233,0.8806059368133927,0.48950973620669713,A,521.3998999997784,Correct
17,317,334,A,28.00454879298939,54.9735622198395,1.4002274396494696,0.863522696057546,A,760.5607000004966,Correct
17,317,335,A,13.279309328388063,38.38046978932073,0.6639654664194032,0.6028790096572749,A,465.41049999996176,Correct
17,317,336,A,38.41171778389025,62.68255952129924,1.9205858891945127,0.9846153425015931,A,909.2988000002151,Correct
17,317,337,A,36.626843912115376,51.16191223223776,1.8313421956057687,0.8036494380620196,A,1138.284300000123,Correct
17,317,338,B,75.93431351577895,56.984895889560136,3.7967156757889478,0.8951166514611066,B,427.9433000001518,Correct
17,317,339,B,65.03112021889221,45.15021866882982,3.251556010944611,0.7092179763898425,A,657.7432000003682,Incorrect
17,317,340,B,80.73544612629131,60.644526095387576,4.036772306314566,0.9526019883085204,B,844.5447999993121,Correct
17,317,341,B,66.36148512112975,41.934807486006264,3.3180742560564873,0.6587104156386977,B,468.7988999994559,Correct
17,317,342,B,81.7361717237626,63.749395911118626,4.08680858618813,1.0013731693257872,B,530.3850000000239,Correct
17,317,343,B,41.635325784314446,27.85857053324514,2.081766289215722,0.43760140263378006,B,841.261300000042,Correct
17,317,344,A,25.561324574587665,38.95409323885166,1.2780662287293834,0.611889465732141,A,453.67179999993823,Correct
17,317,345,A,57.3346342536729,71.14639659866009,2.866731712683645,1.117564984418682,A,628.3382999999958,Correct
17,317,346,B,73.30465364420155,60.625762953800276,3.6652326822100774,0.9523072575696758,B,425.86779999965074,Correct
17,317,347,B,88.67048200178526,64.99361447466835,4.433524100089263,1.0209173088193266,B,452.3394999996526,Correct
17,317,348,A,26.911320198876208,44.37922320530026,1.3455660099438103,0.6971072079689649,A,400.8111999992252,Correct
17,317,349,B,56.97101474390132,29.16748923273819,2.8485507371950662,0.45816184948614846,B,386.4773999994213,Correct
17,317,350,A,50.11946915819399,67.51660706208843,2.5059734579096995,1.0605483837078287,A,495.99529999977676,Correct
17,317,351,B,31.382779852468616,10.517400148923933,1.5691389926234307,0.1652069352136181,B,509.00169999931677,Correct
17,317,352,B,48.429963382941025,19.93353884151806,2.421498169147051,0.31311529592279974,B,580.4332999996404,Correct
17,317,353,B,49.403907634088526,39.4759214342937,2.470195381704426,0.6200863238583246,B,648.6076999999568,Correct
17,317,354,A,45.94003644095018,56.472385905860484,2.297001822047509,0.8870661634626954,A,706.2866999995094,Correct
17,317,355,A,59.74150759816251,85.20168385977298,2.9870753799081253,1.3383449204367142,A,546.3365000005069,Correct
17,317,356,A,48.14547422098675,77.14831256513568,2.4072737110493376,1.2118428599573967,A,458.87889999994513,Correct
17,317,357,B,54.6607899085172,26.19780266175337,2.73303949542586,0.4115141219117976,B,490.32850000003236,Correct
17,317,358,B,32.85004235371968,14.424047190174605,1.642502117685984,0.22657240343842516,B,450.915200000054,Correct
17,317,359,B,37.038830897636174,13.572193069151638,1.8519415448818086,0.21319151019574545,B,637.1348000002399,Correct
17,317,360,A,34.47588825694015,49.423169008728294,1.7237944128470075,0.7763373233747376,A,745.2721999998175,Correct
17,317,361,A,67.10821896798535,79.0388895213826,3.3554109483992676,1.2415399733413544,B,391.0768999994616,Incorrect
17,317,362,A,35.349020919305296,51.48794984881145,1.7674510459652648,0.8087708249671288,A,738.9696000000185,Correct
17,317,363,B,70.97802171595774,55.39440334543589,3.5489010857978873,0.8701332530000563,B,667.2444999994696,Correct
17,317,364,A,53.291035848035904,70.16509814184649,2.664551792401795,1.1021507843041587,A,638.562300000558,Correct
17,317,365,B,68.53244754641926,56.87656605465928,3.426622377320963,0.893415010393661,B,822.323100000176,Correct
17,317,366,A,17.872943983245047,42.003949670852236,0.8936471991622524,0.659796498538524,A,468.95760000006703,Correct
17,317,367,A,27.028249979300703,59.556585164468984,1.3514124989650353,0.9355126521279532,A,876.1581999997361,Correct
17,317,368,A,30.253179942016715,58.400964304735304,1.5126589971008357,0.9173602021115809,A,432.8387000005023,Correct
17,317,369,B,37.648259732035854,15.768125724794789,1.8824129866017927,0.2476851396894777,B,405.01299999959883,Correct
17,317,370,A,50.697922079608375,66.24108310024666,2.5348961039804188,1.0405125001678295,A,651.3479999994161,Correct
17,317,371,A,66.30232212819669,86.40388911957066,3.3151161064098345,1.3572291164981514,A,759.4956999992064,Correct
17,317,372,A,57.788597436689514,68.14353795916612,2.889429871834476,1.0703961912106674,A,426.8502000004446,Correct
17,317,373,A,28.263235848638047,56.8684450081598,1.4131617924319022,0.8932874452935499,A,539.7154000002047,Correct
17,317,374,A,19.294659911756394,47.95455763943375,0.9647329955878198,0.7532684299309668,A,542.75620000044,Correct
17,317,375,A,44.39779930398619,70.94977760441814,2.219889965199309,1.1144765004793484,A,532.8095000004396,Correct
17,317,376,B,45.01040214484935,31.660591238546388,2.2505201072424676,0.49732340421663357,B,551.311799999894,Correct
17,317,377,A,48.79665821560113,63.851263588274485,2.4398329107800563,1.002973303056743,A,676.0158999995838,Correct
17,317,378,A,60.240345404393565,78.88957111002523,3.0120172702196784,1.2391944852205241,A,530.1172999998016,Correct
17,317,379,A,28.694543853026005,45.95793599981373,1.4347271926513003,0.7219055705558235,A,644.6339000003718,Correct
17,317,380,B,44.49678907740626,20.46734445504464,2.224839453870313,0.32150029489230014,B,697.8497000000061,Correct
17,317,381,B,76.31208202281996,54.12776450344099,3.815604101140998,0.8502369365962431,B,569.9098000004597,Correct
17,317,382,A,34.60982306708829,45.795279277761175,1.7304911533544145,0.7193505647405369,A,662.3497000000498,Correct
17,317,383,A,19.067077420807347,33.26346717902983,0.9533538710403674,0.5225013206128265,A,451.0169999994105,Correct
17,317,384,A,34.3422550512427,49.24010156209199,1.7171127525621352,0.7734617066474176,A,465.931300000193,Correct
17,317,385,A,22.64558862363905,47.46632826464339,1.1322794311819524,0.7455993408454262,A,556.1392999998134,Correct
17,317,386,A,36.84474962372902,66.19949519963242,1.8422374811864513,1.03985923895259,A,678.1019000000015,Correct
17,317,387,B,65.1151342265037,43.53601198402803,3.255756711325185,0.6838620770780982,B,567.2210999991876,Correct
17,317,388,A,45.52271969570012,60.30042050349515,2.276135984785006,0.9471967903107785,A,596.2208999999348,Correct
17,317,389,A,16.767632759665293,37.44403693154874,0.8383816379832646,0.5881695567244921,A,483.66580000038084,Correct
17,317,390,B,48.529923650329216,30.496147355522094,2.426496182516461,0.47903236247450004,B,423.8161000002947,Correct
17,317,391,A,67.26893520560648,86.86223244527245,3.3634467602803237,1.3644287566223845,A,553.2377999998062,Correct
17,317,392,B,68.0811187692067,43.250250722162505,3.404055938460335,0.6793733496733119,B,478.2156999999643,Correct
17,317,393,B,46.88800538922029,20.013350698374566,2.3444002694610147,0.31436897763864846,B,412.86810000019614,Correct
17,317,394,A,23.230040429912645,37.850104062995996,1.1615020214956322,0.5945480443095871,A,465.0349000003189,Correct
17,317,395,A,42.57892536360386,68.77282179260415,2.1289462681801927,1.0802809585514261,A,639.9105000000418,Correct
17,317,396,A,29.0831874899345,47.868000438484415,1.454159374496725,0.751908792597878,A,453.1832000002396,Correct
17,317,397,B,52.352716758104165,36.544812232072736,2.6176358379052083,0.5740445681754907,B,988.6240000005273,Correct
17,317,398,A,62.779794794251046,82.43544462724296,3.1389897397125526,1.2948929361817734,A,523.5832999997001,Correct
17,317,399,A,60.60535232155244,82.33491681878755,3.0302676160776216,1.2933138490591483,A,523.8339999996242,Correct
17,317,400,A,34.44163445762552,60.20668920719619,1.722081722881276,0.9457244625514571,B,458.7256000004345,Incorrect
17,317,401,B,48.93750610379337,34.706452084148566,2.4468753051896686,0.5451676744986365,B,547.3094999997556,Correct
17,317,402,B,80.20810218085056,64.68023104164926,4.010405109042528,1.015994693364679,B,779.8861999999644,Correct
17,317,403,A,22.618478446032487,39.241657509644924,1.1309239223016243,0.6164065147349362,A,520.314899999903,Correct
17,317,404,A,41.36392770434931,58.18447033913308,2.0681963852174654,0.9139595228521685,A,606.6769999997632,Correct
17,317,405,A,32.24881533035722,46.30649586657252,1.6124407665178608,0.7273807361395517,A,505.17649999983405,Correct
17,317,406,B,67.47986991983133,47.743726245135434,3.3739934959915665,0.7499566981335983,B,569.7410000002492,Correct
17,317,407,A,36.4332012229199,65.61312528455346,1.821660061145995,1.0306485618650993,A,965.0883000003887,Correct
17,317,408,B,80.10264423328584,56.378325595727034,4.005132211664292,0.8855886675661473,B,485.95620000014605,Correct
17,317,409,B,48.81476429861737,31.283331222298138,2.4407382149308687,0.49139741773894013,B,505.2477999997791,Correct
17,317,410,B,89.8529367789977,67.58317226532878,4.492646838949884,1.0615939874752518,B,529.818900000464,Correct
17,317,411,B,72.32105055609502,40.156704666729986,3.616052527804751,0.6307800418668694,B,443.45549999979994,Correct
17,317,412,B,44.46655975312591,22.186408365866935,2.2233279876562957,0.34850328765875344,B,815.340400000423,Correct
17,317,413,B,53.42062778317291,42.90028400042608,2.671031389158646,0.6738760852632717,B,727.3695999992924,Correct
17,317,414,A,50.32227331992517,67.18439405397584,2.5161136659962584,1.0553299939792613,A,785.9010000001945,Correct
17,317,415,B,83.84957122873195,68.50086531376357,4.192478561436598,1.0760090761713175,B,1061.7692000005263,Correct
17,317,416,A,44.51860715519129,64.53664888197146,2.2259303577595646,1.0137393100745273,A,595.8719000000201,Correct
17,317,417,A,45.82992152950668,68.68736128139835,2.291496076475334,1.0789385479805453,A,492.9744999999457,Correct
17,317,418,A,44.279938390584114,59.97051170523703,2.2139969195292055,0.9420145950259667,A,443.0548999998791,Correct
17,317,419,A,46.87061511832778,72.5593866733947,2.343530755916389,1.1397601806105897,A,622.9424999992261,Correct
17,317,420,B,66.29584591072708,55.38319452349759,3.314792295536354,0.8699571852367726,B,665.118199999597,Correct
17,317,421,B,72.50901452508596,49.66987678406822,3.625450726254298,0.7802126000476948,B,419.1174999996292,Correct
17,317,422,B,31.95291624656541,15.588682449777334,1.5976458123282706,0.24486645131682303,B,466.5580000000773,Correct
17,317,423,A,54.821773812661476,66.27932259792442,2.741088690633074,1.0411131647927365,B,755.3993999999875,Incorrect
17,317,424,B,34.4552483358914,16.19227895240911,1.7227624167945697,0.25434772300882547,B,493.6341000002358,Correct
17,317,425,A,26.090287716672435,56.263755421598155,1.3045143858336217,0.8837890034793283,A,454.7568999996656,Correct
17,317,426,B,36.49416727655557,12.835715703794435,1.8247083638277786,0.20162295079303866,B,385.5265000001964,Correct
17,317,427,A,18.531735249553225,44.849769599362986,0.9265867624776613,0.704498533442768,A,443.2411999996475,Correct
17,317,428,B,39.83782132868642,28.788773118579037,1.9918910664343208,0.4522129906759561,A,434.37010000070586,Incorrect
17,317,429,B,31.906575454340917,14.016749742896685,1.595328772717046,0.22017459009745421,B,506.65489999937563,Correct
17,317,430,B,68.7315155311919,59.19219791196521,3.4365757765595952,0.9297888705503149,B,548.0814000002283,Correct
17,317,431,B,51.43082421831545,42.60093883093619,2.5715412109157727,0.6691739823364864,B,562.7273000000059,Correct
17,317,432,A,35.07095828017578,45.13712911016852,1.7535479140087888,0.7090123660831972,A,592.5240999995367,Correct
17,317,433,B,71.32672300331838,55.68894019691686,3.5663361501659185,0.8747598270441768,B,524.3848000000071,Correct
17,317,434,A,56.074721052458344,76.96016400380691,2.8037360526229174,1.2088874292671272,A,517.237600000044,Correct
17,317,435,B,80.72905054555143,55.00404762147582,4.0364525272775715,0.8640015596266579,A,548.4157000000778,Incorrect
17,317,436,A,40.9320274043438,48.34216845165028,2.0466013702171897,0.7593570063315239,A,774.6477999999115,Correct
17,317,437,A,59.58268329263801,72.73575458749762,2.9791341646319007,1.1425305613269632,A,500.7574000001114,Correct
17,317,438,A,46.082609028763045,60.257522437233874,2.3041304514381524,0.9465229490616803,A,528.3668000001853,Correct
17,317,439,B,60.371924192988565,50.146187335473016,3.0185962096494285,0.7876944686932976,B,559.8165999999765,Correct
17,317,440,A,55.2221423909806,67.24192686966259,2.76110711954903,1.0562337173347704,A,743.2494999993651,Correct
17,317,441,B,65.58144989205923,33.48264155790789,3.2790724946029615,0.5259441037055187,B,519.577300000492,Correct
17,317,442,A,46.50060266834776,66.25255315842494,2.325030133417388,1.0406926714203752,A,641.2319000000934,Correct
17,317,443,B,69.88976984538024,59.84770966237647,3.494488492269012,0.9400856250474839,B,624.9042999997982,Correct
17,317,444,A,17.346797225893404,40.46212503114837,0.8673398612946701,0.635577573732437,A,579.4789999999921,Correct
17,317,445,B,57.068401185031185,37.819857602081655,2.8534200592515595,0.5940729340125591,B,505.56869999945775,Correct
17,317,446,A,31.317801983019244,52.84508494592521,1.5658900991509623,0.8300886532222361,A,557.72799999977,Correct
17,317,447,A,49.32647284284144,58.97888545169961,2.466323642142072,0.9264381662598672,A,547.5017999997362,Correct
17,317,448,B,75.00589685258957,45.25239731316091,3.7502948426294784,0.7108229947817641,B,604.0778000005957,Correct
17,317,449,B,74.78999464230367,48.339793640602736,3.7394997321151835,0.7593197028868207,B,877.7417000001151,Correct
17,317,450,B,67.18701531962846,40.79523949146496,3.3593507659814232,0.6408101234391126,B,506.427000000258,Correct
17,317,451,A,18.442909607512757,32.545899808636904,0.9221454803756379,0.5112297987164157,A,628.9640999993935,Correct
17,317,452,A,21.912463611813088,44.71954404776319,1.0956231805906542,0.70245295526169,A,550.3581999992093,Correct
17,317,453,A,32.49950226946689,47.55611826799339,1.6249751134733443,0.747009758919877,A,723.613999999543,Correct
17,317,454,A,21.173593423529738,33.811866833600504,1.058679671176487,0.5311155622429786,A,558.1138000006831,Correct
17,317,455,B,64.71703805968272,40.40123790153855,3.235851902984136,0.6346211609370351,B,418.55800000030285,Correct
17,317,456,A,61.71162579228691,74.30429691387997,3.0855812896143453,1.167169166574,A,613.8714000007894,Correct
17,317,457,B,56.41891337415524,34.64518432206544,2.820945668707762,0.5442052827423253,B,468.7690000000657,Correct
17,317,458,A,57.93388915487891,80.78121024046945,2.8966944577439455,1.268908283197757,A,463.5790000002089,Correct
17,317,459,A,34.71720151450735,49.531756886447326,1.7358600757253675,0.7780430177692929,A,480.09970000020985,Correct
17,317,460,B,51.182516146575125,34.20591045584803,2.559125807328756,0.5373051849872122,B,471.8651000002865,Correct
17,317,461,B,47.76768847895468,20.7258020524819,2.388384423947734,0.32556013733916694,B,445.1349000000846,Correct
17,317,462,B,38.6598118727922,23.832296965875194,1.93299059363961,0.3743568453308191,B,646.4914999996836,Correct
17,317,463,A,53.74292725782337,69.93193168718037,2.687146362891168,1.0984882141989456,A,434.94600000030914,Correct
17,317,464,B,45.270049990063086,22.219659047585363,2.2635024995031543,0.34902558814582074,B,452.07030000074155,Correct
17,317,465,A,36.71976104067149,62.35636879990641,1.8359880520335747,0.9794915506316089,A,450.99409999966156,Correct
17,317,466,A,18.943935237552793,33.87659255250122,0.9471967618776397,0.5321322714579627,A,421.77540000011504,Correct
17,317,467,A,37.72009992104465,61.785490779501366,1.8860049960522327,0.970524219656607,A,407.68649999972695,Correct
17,317,468,A,47.065231939805976,57.39113463002156,2.353261596990299,0.9014978346742925,A,416.0188999994716,Correct
17,317,469,A,35.40669640783148,66.1366543845267,1.770334820391574,1.0388721377371812,A,495.4875000003085,Correct
17,317,470,B,68.04360840678682,46.51073790839443,3.4021804203393406,0.7305889626302613,B,631.7761999998766,Correct
17,317,471,B,66.06399700111277,40.056537587565224,3.303199850055638,0.6292066210666916,B,444.70839999939926,Correct
17,317,472,B,67.6022797444987,40.3009757697578,3.380113987224935,0.6330462470538568,B,496.9098000001395,Correct
17,317,473,B,67.51939109566551,40.73538761359732,3.3759695547832758,0.6398699723400499,B,453.5819000002448,Correct
17,317,474,B,65.03256715457917,38.98461747368061,3.2516283577289586,0.6123689392916164,B,983.2440999998653,Correct
17,317,475,A,36.75943601555082,65.84919687826698,1.837971800777541,1.0343567657877575,A,483.1477999996423,Correct
17,317,476,A,22.039319117861183,44.03042033180519,1.1019659558930592,0.6916282252443492,A,551.5509999995629,Correct
17,317,477,A,18.142328612811173,48.97498051383986,0.9071164306405586,0.769297194959913,A,511.3202000002275,Correct
17,317,478,A,48.396372815158756,60.901623215482246,2.419818640757938,0.9566404604272631,A,485.6970000000729,Correct
17,317,479,A,33.40711863801057,45.37592968905216,1.6703559319005286,0.7127634368046661,A,900.5816999997478,Correct
17,317,480,A,39.96224967679395,56.85707196517506,1.9981124838396978,0.8931087979521006,B,837.714500000402,Incorrect
17,317,481,B,52.374615632678164,32.29573845615815,2.618730781633908,0.507300273380619,B,599.6304000000237,Correct
17,317,482,B,68.77067676907411,56.27271611925282,3.4385338384537056,0.883929757788943,B,426.72719999973197,Correct
17,317,483,B,68.01139926329489,42.075928585770505,3.4005699631647444,0.660927140690127,B,424.79739999998856,Correct
17,317,484,A,23.838952139143537,48.799275878551505,1.1919476069571768,0.7665372330027951,A,467.0197999994343,Correct
17,317,485,B,52.26198585061368,21.636649569801367,2.6130992925306837,0.3398676966839237,B,471.7374000001655,Correct
17,317,486,B,54.16115180779724,23.219415683880378,2.708057590389862,0.36472972866563114,B,812.4317000001611,Correct
17,317,487,B,72.70378379948333,54.85464975627732,3.6351891899741666,0.8616548234478097,B,466.505600000346,Correct
17,317,488,B,65.59904890807637,36.1046841305008,3.2799524454038185,0.5671310521228066,A,737.9830999998376,Incorrect
17,317,489,A,59.19699373582236,83.86285879480091,2.9598496867911184,1.3173147054939236,A,493.0387000003975,Correct
17,317,490,B,61.35849496413955,37.72766801609133,3.0679247482069774,0.5926248233821357,B,368.3579999997164,Correct
17,317,491,A,30.751891547964767,45.968225135614375,1.5375945773982382,0.722067191923039,A,398.97500000006403,Correct
17,317,492,B,64.63813645767753,38.2423199072715,3.231906822883877,0.6007089563845742,B,543.2853000002069,Correct
17,317,493,B,73.88126103406805,51.63601690512448,3.6940630517034028,0.8110966568488871,B,474.5978999999352,Correct
17,317,494,A,38.021328829655516,51.187729410501944,1.9010664414827758,0.8040549733498755,A,922.0586999999796,Correct
17,317,495,A,19.537995468582206,45.12524822910072,0.9768997734291104,0.7088257416397932,A,593.7996000002386,Correct
17,317,496,B,74.28767843155919,44.711693178393894,3.7143839215779595,0.7023296340940156,B,385.02079999943817,Correct
17,317,497,A,29.819738009831784,39.60031932475172,1.4909869004915892,0.6220403613522496,A,611.5063000006558,Correct
17,317,498,B,47.278942999274946,22.832952580193577,2.363947149963747,0.35865918042850126,B,314.4093000000794,Correct
17,317,499,A,48.0754403325714,66.1435773024889,2.4037720166285697,1.0389808826782383,A,410.42880000077275,Correct
17,317,500,A,28.280631831158065,38.336213934136794,1.4140315915579031,0.6021838403096541,B,377.03939999937575,Incorrect
17,317,501,B,48.30737465461176,18.371827185759752,2.415368732730588,0.2885839865990204,B,439.1544999998587,Correct
17,317,502,B,73.84993380470412,52.32232633790548,3.692496690235206,0.8218771802094581,B,1322.2210000003543,Correct
17,317,503,A,53.77528458884898,69.70262690119701,2.688764229442449,1.094886303043554,A,460.4207000002134,Correct
17,317,504,B,65.0539866838007,36.24220490620001,3.252699334190035,0.5692912234160695,B,600.595599999906,Correct
17,317,505,A,24.299990652044304,41.769580876030304,1.2149995326022152,0.6561150421183076,B,921.6848000005484,Incorrect
17,317,506,B,43.10277502323461,30.843496236746027,2.1551387511617306,0.4844885059419288,B,500.4836999996769,Correct
17,317,507,A,41.11561568778091,54.73459429801086,2.0557807843890457,0.8597689967192435,A,543.774100000519,Correct
17,317,508,B,64.70975533341542,47.99158548116919,3.2354877666707704,0.7538500619088384,B,670.450399999936,Correct
17,317,509,A,23.958357303079456,46.84978915574948,1.1979178651539728,0.7359147671696665,A,412.54399999979796,Correct
17,317,510,A,38.559188705684804,53.75413653834916,1.92795943528424,0.844368002244702,A,803.9820000003601,Correct
17,317,511,B,50.583228662430514,25.063399504609905,2.5291614331215255,0.39369495878834265,B,736.9943999992756,Correct
17,317,512,B,63.79192888064423,51.347964231742324,3.1895964440322113,0.8065719360361658,B,702.5265000002037,Correct
17,317,513,A,31.03791024862095,62.089256795933224,1.5518955124310474,0.9752957650847699,A,399.8925000005329,Correct
17,317,514,A,44.869570447974546,69.21888589931689,2.2434785223987275,1.0872877171548203,A,435.500100000354,Correct
17,317,515,A,28.320282727230037,42.288099690567606,1.416014136361502,0.6642599166107999,A,339.4938999999795,Correct
17,317,516,A,46.64499996368228,56.31605929551268,2.332249998184114,0.8846105908095491,A,555.529000000206,Correct
17,317,517,A,36.09488442396888,66.65169520171176,1.8047442211984441,1.0469623799750187,A,484.6591999994416,Correct
17,317,518,A,15.145702409906306,35.45511450508977,0.7572851204953153,0.5569276363068746,A,466.4674000005107,Correct
17,317,519,B,76.58054362420806,59.495042946903084,3.829027181210403,0.9345459492349998,B,472.0050000005358,Correct
17,317,520,B,86.11325243965436,63.19028747361,4.3056626219827185,0.9925907145266014,B,647.476000000097,Correct
17,317,521,B,49.002712859716866,36.44093276739672,2.450135642985843,0.5724128333600654,B,406.9219000002704,Correct
17,317,522,A,62.29379448205084,73.41562069231476,3.1146897241025417,1.1532098731285543,A,400.05769999970653,Correct
17,317,523,B,70.57669839459743,48.55282394278882,3.5288349197298716,0.7626659750485199,B,439.49350000002596,Correct
17,317,524,A,34.50379545405336,44.7597597900637,1.7251897727026682,0.7030846626645396,A,574.1569000001618,Correct
17,317,525,B,53.899320457436765,36.12521426248247,2.694966022871838,0.5674535386818609,B,318.7206000002334,Correct
17,317,526,B,60.510693068170404,37.18065747989501,3.02553465340852,0.5840324019723828,B,547.4151999997048,Correct
17,317,527,B,61.677566957798085,42.73440558609076,3.083878347889904,0.6712704732239467,B,420.51660000015545,Correct
17,317,528,A,47.360867181310525,54.505168866814,2.3680433590655263,0.8561651904732699,A,668.2467000000543,Correct
17,317,529,B,68.47131553141003,38.87934564131294,3.423565776570501,0.6107153332156354,B,503.0504000005749,Correct
17,317,530,A,35.929249546136724,46.31305419734896,1.7964624773068363,0.7274837541584873,A,367.36300000029587,Correct
17,317,531,A,48.54335733615872,56.16778740451987,2.427167866807936,0.8822815413921647,A,397.43019999968965,Correct
17,317,532,A,35.14980258175874,50.60888733730921,1.757490129087937,0.7949625433262206,A,358.53230000066105,Correct
17,317,533,A,57.64665757647663,83.42919284916823,2.8823328788238314,1.310502696749365,A,527.1351999999752,Correct
17,317,534,A,42.56775985186925,61.75731701681136,2.1283879925934626,0.9700816672271524,A,587.5621000004685,Correct
17,317,535,A,67.47863708220608,85.67350881502745,3.373931854110304,1.345756329502753,A,567.1449000001303,Correct
17,317,536,B,58.092100131733986,35.73180902516119,2.9046050065866997,0.5612739436645993,B,805.2308000005723,Correct
17,317,537,A,31.512535329501176,55.984771186243975,1.575626766475059,0.879406729358048,A,623.9982999995846,Correct
17,317,538,B,61.72706268821201,42.230265393029065,3.0863531344106003,0.6633514575894369,B,613.2529000005889,Correct
17,317,539,B,82.30169588586895,65.01707216148658,4.115084794293448,1.0212857813022185,B,665.1559000001726,Correct
17,317,540,A,25.524862674362616,41.23460753973632,1.2762431337181308,0.6477117006024695,A,581.583999999566,Correct
17,317,541,A,13.403678337862598,30.565774043373036,0.67018391689313,0.48012605592973157,A,794.0213000001677,Correct
17,317,542,B,67.8393333550229,45.219866943827014,3.391966667751145,0.7103120089351744,B,1154.302999999345,Correct
17,317,543,B,68.18490878561278,57.232085796525666,3.409245439280639,0.8989995014399289,B,808.1058999996458,Correct
17,317,544,A,27.787060908305907,45.59187148776131,1.3893530454152954,0.7161554426468045,A,602.8550999999425,Correct
17,317,545,A,46.84690289968221,54.59781991436199,2.342345144984111,0.8576205497248909,A,641.5544000001319,Correct
17,317,546,B,62.94873746353062,34.050770246136786,3.147436873176531,0.5348682482716862,B,812.5431000007666,Correct
17,317,547,B,67.42000553407577,38.08262841942293,3.3710002767037883,0.5982005283592448,B,529.2656999999963,Correct
17,317,548,A,36.15968237738657,46.09678374533326,1.8079841188693282,0.7240865858422819,A,1173.9846000000398,Correct
17,317,549,B,74.17559788593685,59.75092196653554,3.7087798942968426,0.9385652874764252,B,605.7299000003695,Correct
