subject,day,trial,cat,x,y,xt,yt,resp,rt,fb
10,510,0,A,46.12401862894116,64.98299983091351,2.3062009314470577,1.0207505743851233,A,746.9336999993175,Correct
10,510,1,B,37.1435956660904,13.960473050440555,1.8571797833045198,0.21929059787951172,B,575.9424999996554,Correct
10,510,2,A,38.85359542924573,47.72067918083728,1.9426797714622865,0.7495946756941688,B,542.8433000006407,Incorrect
10,510,3,A,19.50412631671926,49.00017877079668,0.975206315835963,0.7696930082546068,A,442.72080000064307,Correct
10,510,4,A,50.616417825712965,75.3340975372122,2.5308208912856482,1.183345236938614,A,423.70819999996456,Correct
10,510,5,A,66.73036633945006,85.72385561390888,3.336518316972503,1.3465471751702414,A,399.48550000008254,Correct
10,510,6,A,18.31757124566635,34.837432442516715,0.9158785622833175,0.5472251091567061,B,590.9248999996635,Incorrect
10,510,7,A,53.32309901744828,66.98079408312384,2.6661549508724143,1.0521318531157628,A,409.9456000003556,Correct
10,510,8,B,33.47581537115866,12.882948256642951,1.673790768557933,0.20236487799823466,B,446.6609999999491,Correct
10,510,9,A,57.06696349066431,65.578361744182,2.8533481745332154,1.0301024974498807,A,535.5257999999594,Correct
10,510,10,A,24.11271144934798,51.94595481362077,1.205635572467399,0.8159651501308919,A,451.65869999982533,Correct
10,510,11,B,38.703082386958314,24.276267864137015,1.9351541193479158,0.38133072389275413,B,378.8709000000381,Correct
10,510,12,B,46.56540971010647,17.081392252945683,2.328270485505324,0.26831388207469886,B,436.26299999959883,Correct
10,510,13,A,51.775840397079875,79.00302715694103,2.5887920198539938,1.2409766486380045,A,428.282500000023,Correct
10,510,14,B,60.002633772011215,32.23445596505297,3.0001316886005607,0.5063376502613706,B,458.36729999973613,Correct
10,510,15,B,50.036658850023926,28.453332920473084,2.501832942501196,0.44694390836551434,B,429.69019999964075,Correct
10,510,16,B,46.02619213643702,25.63952642032663,2.3013096068218513,0.40274473921809767,B,441.01989999944635,Correct
10,510,17,A,27.70949052094939,55.15386057304186,1.3854745260474695,0.8663548159669201,A,449.03160000012576,Correct
10,510,18,A,52.8459766203906,81.51347621242951,2.6422988310195303,1.2804106901876746,A,383.4108000000924,Correct
10,510,19,A,64.8454857421938,85.3299894505109,3.24227428710969,1.3403603399430977,A,433.3452999999281,Correct
10,510,20,B,77.5397662023197,57.91379715301319,3.8769883101159848,0.9097077983869786,A,718.6068000000887,Incorrect
10,510,21,B,33.49831143450715,18.327586091510852,1.6749155717253574,0.28788904911562485,B,454.3469999998706,Correct
10,510,22,B,34.07585201440115,21.38858291267115,1.7037926007200577,0.33597107474571936,A,514.50769999974,Incorrect
10,510,23,B,79.31850253278313,54.752976133702646,3.965925126639156,0.8600577379190876,B,654.085799999848,Correct
10,510,24,B,68.20093249299988,37.08490091136491,3.410046624649994,0.5825282613112471,B,633.1804999999804,Correct
10,510,25,A,52.246211146604175,75.13004247000292,2.6123105573302086,1.1801399474382517,A,1014.1561999998885,Correct
10,510,26,A,65.6796892836495,86.01509829369404,3.283984464182475,1.3511220044863657,A,692.7676999994219,Correct
10,510,27,A,15.21014495426104,39.456664944159,0.760507247713052,0.6197838436186192,A,714.8775000005116,Correct
10,510,28,B,70.03371844284088,50.06916992743067,3.501685922142044,0.786484682076776,A,648.1347999997524,Incorrect
10,510,29,A,40.674220186797875,52.53938573601314,2.0337110093398936,0.825286741261896,A,441.28579999960493,Correct
10,510,30,B,47.859531439323135,40.47310224175345,2.3929765719661567,0.6357500033534061,B,773.1322999998156,Correct
10,510,31,B,80.20560489472442,49.32330092236439,4.0102802447362205,0.7747685991424932,B,689.6107000002303,Correct
10,510,32,B,47.827890044426205,36.6392251506948,2.3913945022213103,0.5755276028332258,B,780.3210000001854,Correct
10,510,33,A,47.952799951862524,66.85237007912184,2.397639997593126,1.0501145735781763,A,875.8225999999922,Correct
10,510,34,A,18.198228966172728,39.96971286118969,0.9099114483086365,0.6278427814540349,A,1763.551300000472,Correct
10,510,35,A,39.42066634881804,67.75722471876047,1.9710333174409018,1.0643279970204529,A,504.53600000037113,Correct
10,510,36,B,72.61162918122304,48.237600037054705,3.630581459061152,0.7577144495160689,B,558.068500000445,Correct
10,510,37,B,72.00308184893694,40.868207497206164,3.6001540924468474,0.641956302193031,B,625.6737000003341,Correct
10,510,38,B,62.89641594622854,46.80882624899776,3.144820797311427,0.7352713233350623,B,487.2236999999586,Correct
10,510,39,A,58.45399564681719,83.47543318542125,2.9226997823408594,1.311229038252725,A,513.7175999998362,Correct
10,510,40,B,69.95249261473869,49.74313903598515,3.4976246307369343,0.781363400809733,B,494.68249999972613,Correct
10,510,41,B,51.976060297731905,42.99936696114701,2.5988030148865953,0.6754324767707556,B,612.7610000003187,Correct
10,510,42,A,18.598227566263002,45.95025067271858,0.9299113783131502,0.7217848497201107,A,473.20329999911337,Correct
10,510,43,A,20.953167910081962,38.40628246239898,1.0476583955040981,0.6032844741778356,A,479.8899999996138,Correct
10,510,44,A,51.957666572958345,63.05044920068529,2.5978833286479177,0.9903941400720468,A,371.43120000018826,Correct
10,510,45,B,64.78402970257427,42.695614221335205,3.2392014851287136,0.6706611398912529,B,526.5117999997528,Correct
10,510,46,B,54.63933141369564,27.43387224832964,2.731966570684782,0.4309302575743665,B,695.3677000001335,Correct
10,510,47,B,72.20359956774905,54.447397307205016,3.6101799783874524,0.8552577169369998,B,1018.1131999997888,Correct
10,510,48,B,59.08141493764487,45.237058499040785,2.954070746882244,0.7105820532529912,B,906.4077000002726,Correct
10,510,49,A,33.128224802331005,42.62343158692747,1.6564112401165503,0.6695272977213924,B,1961.0658999999941,Incorrect
10,510,50,A,48.13341834750233,58.648943627089764,2.4066709173751164,0.9212554521983356,A,445.4994000006991,Correct
10,510,51,B,87.60047197188959,66.17033430350052,4.380023598594479,1.0394011806672898,B,537.0871999994051,Correct
10,510,52,B,83.92695483314581,64.37159494248576,4.1963477416572905,1.0111466488558556,B,684.4463999996151,Correct
10,510,53,B,61.05033471934599,35.19623335905683,3.0525167359672998,0.5528611407742249,B,413.0205000001297,Correct
10,510,54,A,59.98699121225437,87.70879291445458,2.999349560612718,1.377726497376395,A,409.1809999999896,Correct
10,510,55,A,17.142719289088433,31.51150172859814,0.8571359644544216,0.4949815116707299,A,485.8773000005385,Correct
10,510,56,B,87.66450186963507,65.52667080885628,4.383225093481753,1.029290538136498,B,586.290100000042,Correct
10,510,57,B,39.35216988214052,23.53451635526997,1.967608494107026,0.36967931843752494,B,462.1967000002769,Correct
10,510,58,A,45.01155222340225,59.0302287028042,2.2505776111701126,0.927244664162275,B,741.3845000000947,Incorrect
10,510,59,A,38.17716037367633,47.93083408383265,1.9088580186838164,0.7528957811909996,B,542.7416000002268,Incorrect
10,510,60,B,49.24261449843897,19.953131848059872,2.4621307249219484,0.31342306214986715,B,400.1675999998042,Correct
10,510,61,B,59.57244223474316,51.09092591963257,2.978622111737158,0.80253438767109,B,517.6873000000342,Correct
10,510,62,A,55.84466015361973,78.14560697933099,2.792233007680986,1.2275083239829074,A,484.60290000002715,Correct
10,510,63,B,64.10757040167756,48.21717349745174,3.205378520083878,0.7573935901822941,B,550.0061000002461,Correct
10,510,64,B,62.80722310049867,45.86518730727837,3.1403611550249333,0.7204486775003278,B,770.7202000001416,Correct
10,510,65,A,40.73781106910956,63.895699337527454,2.036890553455478,1.0036712981737923,A,497.31639999936306,Correct
10,510,66,A,35.998726809160075,55.01855357893447,1.7999363404580038,0.8642294186735848,A,610.4677000002994,Correct
10,510,67,A,39.27262472841166,57.68951237806603,1.9636312364205828,0.9061847413805483,A,902.33679999983,Correct
10,510,68,B,64.98086271087365,41.39907949987941,3.249043135543683,0.6502952201110048,B,518.360500000199,Correct
10,510,69,B,51.279487685303714,38.57697039064027,2.563974384265186,0.6059656338849322,B,392.8567999992083,Correct
10,510,70,A,42.09524832082113,66.98486627928338,2.1047624160410563,1.0521958190234568,A,467.6394000007349,Correct
10,510,71,A,26.812795403279132,49.87813149145573,1.3406397701639565,0.7834838573417152,B,699.6634000006452,Incorrect
10,510,72,B,59.00233341382427,49.736571496313346,2.9501166706912136,0.7812602381378075,A,568.369900000107,Incorrect
10,510,73,A,52.25638239332267,65.1045486637824,2.6128191196661334,1.0226598589870899,A,563.686599999528,Correct
10,510,74,A,56.96945424387229,84.25143659875997,2.8484727121936144,1.3234184713652526,A,576.4114999992671,Correct
10,510,75,B,49.44958103162385,18.50068382016579,2.4724790515811925,0.290608061879102,B,487.6021000000037,Correct
10,510,76,B,86.7731538157708,61.43768408824634,4.33865769078854,0.9650608849260263,B,824.1656000000148,Correct
10,510,77,B,75.74842827477335,52.2820500743309,3.7874214137386675,0.8212445221406582,B,313.88669999978447,Correct
10,510,78,B,89.53467345144449,68.7530248420462,4.476733672572225,1.0799699887792447,B,613.7351999996099,Correct
10,510,79,B,37.800202465900384,26.6135357348316,1.8900101232950193,0.418044441752982,B,380.6316999998671,Correct
10,510,80,A,57.48098249904412,73.59183184934386,2.8740491249522058,1.1559777915105702,A,804.9032999997507,Correct
10,510,81,B,44.95169625055808,27.377803168862936,2.247584812527904,0.4300495265336358,B,760.2473999995709,Correct
10,510,82,B,73.50466946828908,55.70495542728152,3.675233473414454,0.8750113936944726,B,713.6434000003646,Correct
10,510,83,B,60.12147880331933,49.54002995247265,3.006073940165966,0.7781729707865319,B,738.7758000004396,Correct
10,510,84,A,68.12668863088527,80.7734139646976,3.4063344315442636,1.2687858195843058,A,724.4568999994954,Correct
10,510,85,B,42.033719859341936,27.430965086126285,2.101685992967097,0.43088459197726214,A,752.9015999998592,Incorrect
10,510,86,B,86.81653952765544,62.706040326723326,4.340826976382772,0.9849841781306965,B,546.8311000004178,Correct
10,510,87,B,82.4993195887757,60.74973357670139,4.124965979438786,0.9542545835605114,A,1419.130700000096,Incorrect
10,510,88,B,58.52393745974167,29.304410016356034,2.9261968729870835,0.4603125961258363,B,336.3897999997789,Correct
10,510,89,B,51.423817379221106,22.036203049801113,2.571190868961055,0.3461438680713409,B,367.02950000017154,Correct
10,510,90,B,47.39738979468327,29.56440754509297,2.3698694897341634,0.4643966277569937,B,437.948900000265,Correct
10,510,91,A,63.74016580743991,79.7732371173512,3.1870082903719954,1.253075078404736,A,524.006499999814,Correct
10,510,92,B,30.984302797090788,15.948799062589696,1.5492151398545395,0.25052314984305785,B,336.6902999996455,Correct
10,510,93,A,60.16597831781631,72.65260994688738,3.0082989158908156,1.1412245283663307,A,448.1597999993028,Correct
10,510,94,A,24.76817496929506,47.37912443966172,1.238408748464753,0.7442295463657894,A,509.18109999929584,Correct
10,510,95,B,72.0065577786819,53.37413738602835,3.600327888934095,0.838398989518195,B,492.34550000073796,Correct
10,510,96,A,48.896598858058915,61.138102040549605,2.444829942902946,0.9603550611250689,A,576.5240000000631,Correct
10,510,97,B,59.612600958813275,49.0911431620609,2.980630047940664,0.7711218735712767,B,649.6293000000151,Correct
10,510,98,B,77.95142821332229,56.65626323498872,3.8975714106661146,0.8899545017944501,B,657.9498999999487,Correct
10,510,99,B,58.266383332244374,40.73730723338838,2.9133191666122182,0.6399001256572164,B,465.38239999972575,Correct
10,510,100,B,57.103065582874045,43.83097674294557,2.8551532791437024,0.6884953726765144,B,523.6155000002327,Correct
10,510,101,B,80.97471013194175,54.67323126587249,4.048735506597087,0.858805108464404,B,873.7177999992127,Correct
10,510,102,A,29.128529301071723,43.982588925808486,1.456426465053586,0.6908768912758986,B,582.964200000788,Incorrect
10,510,103,A,33.44147036235883,57.90671674312736,1.6720735181179414,0.90959657956857,A,527.5210999998308,Correct
10,510,104,B,37.70408485513451,22.775099902209597,1.8852042427567255,0.3577504326877765,B,454.98740000039106,Correct
10,510,105,B,61.431680860124835,38.76193858738127,3.0715840430062418,0.6088711075250787,B,440.409499999987,Correct
10,510,106,B,77.15481445429616,65.46579213200411,3.857740722714808,1.028334258116703,A,692.5512999996499,Incorrect
10,510,107,B,56.891593027682056,41.46348288917034,2.8445796513841026,0.6513068661843181,B,449.277699999584,Correct
10,510,108,B,49.40059005121643,31.513462337226578,2.4700295025608217,0.4950123088390483,B,488.162800000282,Correct
10,510,109,B,44.85186721234061,19.683562268549057,2.2425933606170303,0.30918867309675474,B,386.1296000004586,Correct
10,510,110,A,36.00078361584761,65.02326838820443,1.8000391807923806,1.0213831114039025,A,548.8980000000083,Correct
10,510,111,B,46.482062475066904,36.16033548054084,2.324103123753345,0.5680052214850472,B,502.00649999987945,Correct
10,510,112,B,57.790292503304165,41.26870177677627,2.8895146251652086,0.6482472516255419,B,556.394299999738,Correct
10,510,113,B,66.7191624641939,44.45822674166388,3.335958123209695,0.6983481926162026,B,496.7954000003374,Correct
10,510,114,B,88.25635690707857,62.33824437702204,4.412817845353929,0.9792068528626885,A,487.9959999998391,Incorrect
10,510,115,A,62.923388890962,86.89459773043272,3.1461694445480997,1.3649371493328388,A,506.4807999997356,Correct
10,510,116,B,66.6125396872251,46.96183883813841,3.3306269843612544,0.7376748394648173,B,645.5625000007785,Correct
10,510,117,B,69.6276448825758,50.21585094009245,3.4813822441287896,0.7887887420357726,B,519.2000000006374,Correct
10,510,118,A,44.99566733091027,51.88165948637311,2.2497833665455134,0.8149552014921847,B,954.7963999993954,Incorrect
10,510,119,A,29.072656525796294,56.369301475373035,1.4536328262898146,0.885446917015101,A,437.60589999965305,Correct
10,510,120,B,75.58644163122769,53.916689943595145,3.779322081561384,0.8469213851633859,B,1024.646799999573,Correct
10,510,121,B,85.33882290979179,66.37488377551207,4.266941145489589,1.0426142362601252,B,611.9975000001432,Correct
10,510,122,B,70.18243759917372,53.91896104394319,3.5091218799586863,0.8469570595242308,B,473.8110999996934,Correct
10,510,123,A,36.62054830059314,65.40412228462337,1.8310274150296573,1.0273655504193064,A,597.1291000005294,Correct
10,510,124,B,52.18881918188042,27.22050326816681,2.6094409590940213,0.42757866547144896,B,445.7206999995833,Correct
10,510,125,A,29.752229654920036,47.56187287149214,1.4876114827460016,0.7471001520202569,A,511.6610999994009,Correct
10,510,126,B,68.25518364042622,52.49290890485561,3.4127591820213117,0.8245566849052631,B,718.821299999945,Correct
10,510,127,B,51.85674666878097,30.207073122820773,2.592837333439048,0.47449159504551713,B,558.5736000002726,Correct
10,510,128,B,44.26491991168328,26.330450818735528,2.213245995584164,0.41359775428923445,B,432.79619999975694,Correct
10,510,129,A,41.70106926167463,63.16708896114001,2.0850534630837316,0.9922263131448519,A,610.4838999999629,Correct
10,510,130,B,67.58582479986164,52.33857662468949,3.379291239993082,0.8221324391173549,B,553.936799999974,Correct
10,510,131,B,74.38166698412749,53.07113493040849,3.7190833492063744,0.8336394380752198,B,444.1848000005848,Correct
10,510,132,A,40.373041213208715,62.6901449965818,2.0186520606604357,0.9847344948687016,A,450.4960000003848,Correct
10,510,133,B,76.11801061937427,43.484046748369614,3.8059005309687137,0.6830458090651655,B,513.1493999997474,Correct
10,510,134,A,31.370986123641472,52.055503985797195,1.5685493061820737,0.8176859445034733,A,772.7481000001717,Correct
10,510,135,B,81.43786655695448,63.24478068928332,4.071893327847723,0.9934466919567504,B,586.0212999996293,Correct
10,510,136,A,68.48799005498185,86.34239764988537,3.4243995027490928,1.3562632107510424,A,548.2267999996111,Correct
10,510,137,B,74.07559293616609,50.282446930602454,3.7037796468083046,0.7898348294084967,B,582.4744000001374,Correct
10,510,138,A,61.07950780097866,74.88258718164133,3.053975390048933,1.176252928858208,A,493.36830000083864,Correct
10,510,139,A,58.77187019504689,69.5202614447382,2.938593509752344,1.0920217131521563,A,1110.2182999993602,Correct
10,510,140,A,33.44752938111405,64.32177125057956,1.6723764690557028,1.0103640201335193,A,582.7904999996463,Correct
10,510,141,A,29.8570112257201,60.94376163423964,1.492850561286005,0.9573023691612738,A,544.1855999997642,Correct
10,510,142,B,62.37614238705829,54.14022251320907,3.1188071193529145,0.8504326265560717,B,681.8618999996033,Correct
10,510,143,A,27.943576743108615,60.65818400659871,1.3971788371554308,0.9528165262761419,A,503.9440000000468,Correct
10,510,144,A,45.2324429482205,64.33277663162484,2.261622147411025,1.0105368922547286,A,976.2505999997302,Correct
10,510,145,B,74.97388148167859,45.88713260814131,3.748694074083929,0.720793393480187,B,646.9071999999869,Correct
10,510,146,A,61.43051217538173,85.85949239695285,3.0715256087690865,1.348677752776079,A,569.4006000003355,Correct
10,510,147,A,59.47176091508078,83.75902966837336,2.973588045754039,1.3156837613898562,A,545.6739000001107,Correct
10,510,148,A,49.81755079396252,70.48141419066275,2.490877539698126,1.1071194651800276,A,601.1648000003333,Correct
10,510,149,A,34.70749773094851,59.16141655875249,1.7353748865474257,0.9293053581847118,A,473.9779000001363,Correct
10,510,150,A,33.18732858597935,47.021049254637305,1.6593664292989674,0.7386049145122618,A,558.1304999996064,Correct
10,510,151,A,29.986452400792107,54.84412457522614,1.4993226200396055,0.8614894942904695,A,523.6716999997952,Correct
10,510,152,A,29.098578487966222,40.22029926917112,1.454928924398311,0.6317789835460546,A,759.2790999997305,Correct
10,510,153,A,14.896351796484858,33.03855476369011,0.7448175898242428,0.5189684046541645,A,498.5988999997062,Correct
10,510,154,A,17.895495345949218,38.908637062635236,0.8947747672974609,0.611175441785832,A,560.9779999995226,Correct
10,510,155,A,38.849514689638205,60.385920815232986,1.9424757344819101,0.9485398260669544,A,728.1606999995347,Correct
10,510,156,A,21.071857046606123,50.93236024348026,1.0535928523303062,0.8000436438545322,A,689.2809999999372,Correct
10,510,157,A,17.268927712654854,35.9992112954849,0.8634463856327428,0.5654742887046103,A,559.9217999997563,Correct
10,510,158,A,57.39519095987264,65.98677030305606,2.869759547993632,1.0365177640909902,A,1082.1648999999525,Correct
10,510,159,B,32.05809956373895,14.86363053837902,1.6029049781869475,0.23347736252522214,B,485.6995000000097,Correct
10,510,160,B,57.850862989576804,30.145217118930454,2.8925431494788403,0.473519963208506,B,550.3094999994573,Correct
10,510,161,A,38.78062916892062,49.86785076614249,1.939031458446031,0.783322368086127,A,577.3789000004399,Correct
10,510,162,B,56.204780532747684,45.383497908186925,2.810239026637384,0.712882318112839,B,461.2864000000627,Correct
10,510,163,A,53.09194134313612,61.575919823132836,2.654597067156806,0.9672322867719411,A,736.5592999994988,Correct
10,510,164,B,64.44608726379194,34.41186258964414,3.222304363189597,0.5405402735398374,B,563.6521999995239,Correct
10,510,165,B,71.03690714367306,45.794796739235856,3.551845357183653,0.719342985043106,B,577.1638999995048,Correct
10,510,166,B,83.02918065461579,67.00504212872809,4.15145903273079,1.0525127405254338,B,654.1563000000679,Correct
10,510,167,B,36.19329217793263,24.909255763613302,1.8096646088966315,0.3912736745667838,B,558.73370000063,Correct
10,510,168,B,50.901271548099885,22.569648084746923,2.5450635774049943,0.3545232030857394,B,625.238000000536,Correct
10,510,169,A,26.74693872828645,56.51748904981699,1.3373469364143227,0.8877746419912332,B,1417.5135999994382,Incorrect
10,510,170,B,44.20961886743821,26.609710284773588,2.210480943371911,0.4179843517239874,B,653.1070000000909,Correct
10,510,171,A,64.35205894889538,84.80318509435114,3.2176029474447687,1.3320853164671447,A,528.7054000000353,Correct
10,510,172,B,70.28322811353442,38.29904842780016,3.5141614056767208,0.6016000459012835,B,520.2196999998705,Correct
10,510,173,B,49.36171335169415,34.13845685398921,2.468085667584708,0.5362456262869231,B,458.4137000001647,Correct
10,510,174,A,40.84785521573978,67.91029072002752,2.042392760786989,1.0667323521459278,A,620.9224999993239,Correct
10,510,175,A,46.103642388431986,62.718988484733046,2.305182119421599,0.9851875673211009,A,639.6690999999919,Correct
10,510,176,B,39.64883105070494,16.653720334535993,1.982441552535247,0.2615960272895862,B,669.4859999997789,Correct
10,510,177,A,63.7726783109825,80.50742059337466,3.188633915549125,1.2646076054780473,A,568.5532999996212,Correct
10,510,178,A,63.51059625860856,86.41380832917469,3.1755298129304275,1.3573849270782583,A,465.93359999951645,Correct
10,510,179,A,44.360957188801486,74.16845606915133,2.218047859440074,1.1650353835747158,A,615.1976999999533,Correct
10,510,180,A,45.683603323314735,52.37698942722971,2.284180166165737,0.8227358260086757,B,1539.0832000002774,Incorrect
10,510,181,B,55.62482573661982,37.80672248874786,2.781241286830991,0.5938666081347914,B,407.25689999999304,Correct
10,510,182,B,39.69994414296991,27.76175535909097,1.9849972071484956,0.43608063343438636,B,527.7858999997989,Correct
10,510,183,A,35.350600918221346,66.16151784619882,1.7675300459110672,1.039262692079841,A,899.9495999996725,Correct
10,510,184,B,66.75802300657985,53.145153872125704,3.3379011503289924,0.8348021248928462,A,1234.3332000000373,Incorrect
10,510,185,A,27.39758237498125,59.88298327513299,1.3698791187490624,0.9406397016609912,A,599.8484000001554,Correct
10,510,186,B,37.043034242148174,11.530239600200112,1.8521517121074087,0.18111658011059392,B,504.1754000003493,Correct
10,510,187,B,57.316864053802774,32.24774923007378,2.8658432026901384,0.5065464603800285,B,765.1462999992873,Correct
10,510,188,A,25.521651653748403,43.7257895680122,1.2760825826874203,0.6868430963964017,A,493.42819999947096,Correct
10,510,189,A,32.052527909212884,57.6141306458329,1.6026263954606441,0.9050006478995559,A,909.4616000002134,Correct
10,510,190,B,46.81163080931154,35.122214297066854,2.340581540465577,0.5516984520673581,B,2235.5476000002454,Correct
10,510,191,B,61.3454685012105,38.405871387663545,3.0672734250605247,0.6032780170309912,B,717.7715999996508,Correct
10,510,192,A,19.522844658115606,48.43086626564848,0.9761422329057803,0.7607502683357551,A,518.8835000008112,Correct
10,510,193,A,51.88061807734933,78.81703695836148,2.5940309038674667,1.2380551214305182,A,1131.5998999998556,Correct
10,510,194,A,64.93270985627362,81.18174542442118,3.246635492813681,1.275199875154792,A,1056.8502999994962,Correct
10,510,195,A,62.758463039065646,76.38815668334857,3.137923151953282,1.1999023592883695,A,566.7115999995076,Correct
10,510,196,A,37.740252407647155,60.44556501626752,1.8870126203823576,0.9494767149859513,A,1053.0252999997174,Correct
10,510,197,B,64.73423483962165,49.644321806564335,3.2367117419810825,0.7798111833997503,B,1051.1068999994677,Correct
10,510,198,A,48.375411084483844,63.94527568756284,2.418770554224192,1.0044500416591073,A,836.2470000001849,Correct
10,510,199,B,66.6513605302337,57.15086270634093,3.3325680265116855,0.8977236521227978,B,1272.955099999308,Correct
10,510,200,A,61.55935332551482,84.9771377252708,3.0779676662757414,1.334817758003994,A,637.6743999999235,Correct
10,510,201,B,38.57465305214163,24.401878036693322,1.9287326526070814,0.3833038038693493,B,825.2639000002091,Correct
10,510,202,A,32.78119351832554,51.64535713661368,1.639059675916277,0.8112433728620336,A,972.3178000003827,Correct
10,510,203,B,63.85837462827525,46.987257068226214,3.1929187314137626,0.7380741080893728,B,582.8194999994594,Correct
10,510,204,B,58.273294990995154,38.56951475268428,2.913664749549758,0.6058485209977803,B,379.7822999995333,Correct
10,510,205,B,73.42856010434107,59.4215619989983,3.6714280052170536,0.9333917132044173,B,603.5434000004898,Correct
10,510,206,B,44.75414283943149,24.19716806088722,2.2377071419715744,0.38008822708880435,B,538.4349000005386,Correct
10,510,207,B,50.48066016368427,27.42029359968732,2.5240330081842135,0.43071696466026455,B,394.7526000001744,Correct
10,510,208,B,60.55572583420747,49.03102750756919,3.027786291710374,0.7701775790786922,B,406.92529999978433,Correct
10,510,209,A,54.033256167959166,77.44160057721587,2.701662808397958,1.2164498172780822,A,585.4167999996207,Correct
10,510,210,B,67.7517745153464,56.298599955769944,3.3875887257673196,0.8843363401421876,A,696.8522999995912,Incorrect
10,510,211,A,43.36062234640239,74.94900646246558,2.1680311173201194,1.177296240481679,A,491.07139999978244,Correct
10,510,212,B,62.004623800667424,40.64755482135134,3.100231190033371,0.6384902980657288,B,481.73080000015034,Correct
10,510,213,A,21.03587954154927,41.39018164775855,1.0517939770774634,0.6501554529767267,A,498.84710000060295,Correct
10,510,214,A,53.3081019836651,72.9543885932816,2.6654050991832547,1.1459648562589424,A,427.4249999998574,Correct
10,510,215,B,72.63972750221106,56.27431105153218,3.631986375110553,0.8839548109266019,B,472.4011000007522,Correct
10,510,216,A,65.64350976932894,88.62003392012261,3.2821754884664474,1.3920402376216774,A,565.6633999997212,Correct
10,510,217,A,44.708605820789074,76.6950272811967,2.235430291039454,1.2047226713673815,A,377.25609999961307,Correct
10,510,218,A,64.12283339467436,80.58048724447659,3.2061416697337175,1.2657553337496685,A,513.8394000005064,Correct
10,510,219,B,60.85166708828831,34.761669069755044,3.0425833544144156,0.54603502088031,B,633.8611000001038,Correct
10,510,220,B,68.25462286140964,52.955684104166856,3.412731143070482,0.8318259407373618,A,477.1787999998196,Incorrect
10,510,221,A,43.0412303909279,59.930167575152915,2.152061519546395,0.941380870912528,A,701.7430000005334,Correct
10,510,222,B,51.92207494601686,25.66560163928923,2.5961037473008433,0.4031543277997659,B,445.1884999998583,Correct
10,510,223,A,45.15105736226478,53.781867351271835,2.257552868113239,0.8448035968354816,B,566.6033000006792,Incorrect
10,510,224,B,70.61462766033797,61.46746077566327,3.530731383016899,0.9655286160382125,B,547.3283000001175,Correct
10,510,225,B,85.25372338822133,63.434443160246325,4.262686169411066,0.9964259030839457,B,621.791900000062,Correct
10,510,226,A,61.553214929980214,79.12174188923956,3.0776607464990104,1.242841415292314,A,463.4946000005584,Correct
10,510,227,A,37.13547927577225,68.21159976487536,1.8567739637886123,1.0714653035546984,A,470.1275999996142,Correct
10,510,228,B,42.98280001636793,27.296480668992686,2.149140000818397,0.4287721156928161,B,429.0379000003668,Correct
10,510,229,A,51.21697805791916,60.84783427457834,2.5608489028959576,0.9557955457193226,A,400.9271000004446,Correct
10,510,230,A,42.417148678506656,61.79280209853052,2.120857433925333,0.9706390655873572,A,485.9059000000343,Correct
10,510,231,B,41.600072544109636,20.295170767909458,2.080003627205482,0.3187957969390734,B,499.9941999994917,Correct
10,510,232,B,79.3601617222761,55.78192666224224,3.9680080861138047,0.8762204550259242,B,643.1774000002406,Correct
10,510,233,B,73.78131473952199,48.49087201854803,3.689065736976099,0.7616928364981667,B,663.3296999998493,Correct
10,510,234,A,62.7677247003551,85.34031330233182,3.1383862350177547,1.3405225066282849,A,634.092000000237,Correct
10,510,235,B,32.54717317563977,15.417627657845244,1.6273586587819886,0.24217952892834715,B,521.5545999999449,Correct
10,510,236,B,63.951505703843,40.32173807534308,3.19757528519215,0.6333723805873483,B,393.04340000035154,Correct
10,510,237,A,51.060469689426306,75.92048068150535,2.553023484471315,1.1925561218301153,A,940.907199999856,Correct
10,510,238,B,78.35088997096355,62.53227149423249,3.9175444985481773,0.9822546236928161,A,596.3683999998466,Incorrect
10,510,239,B,53.67985257925982,37.05593319296707,2.683992628962991,0.5820732374546975,B,625.1019000001179,Correct
10,510,240,A,45.494686470691995,60.77434977568723,2.2747343235345996,0.9546412539099774,A,996.9376999997621,Correct
10,510,241,B,81.67617161669182,67.41577014902018,4.0838085808345905,1.0589644411812993,A,1431.4649999996618,Incorrect
10,510,242,B,80.07219469674175,59.47580502561821,4.003609734837087,0.9342437606741053,A,674.5111000000179,Incorrect
10,510,243,A,31.338521390400338,41.94765559516037,1.566926069520017,0.658912233265353,A,638.9564000000973,Correct
10,510,244,B,56.673716952224666,30.413385670572197,2.833685847611233,0.4777323449673135,B,664.6331000001737,Correct
10,510,245,A,50.5033734061075,64.4764936638883,2.525168670305375,1.0127943941185018,A,785.1918000005753,Correct
10,510,246,B,70.56575833366065,42.83879166234995,3.5282879166830328,0.6729101658755113,B,680.9553000002779,Correct
10,510,247,B,46.06331733725062,18.666804494149332,2.303165866862531,0.2932174793240824,B,620.2610000000277,Correct
10,510,248,B,49.860155764918844,21.721503685750214,2.493007788245942,0.34120058202038245,B,585.255099999813,Correct
10,510,249,A,46.75396275276073,64.78334274637072,2.3376981376380366,1.0176143682349392,A,471.335000000181,Correct
10,510,250,A,16.154243094596072,41.75537917918582,0.8077121547298036,0.655891962385932,A,551.0732000002463,Correct
10,510,251,A,12.827701682364047,32.70522914741039,0.6413850841182024,0.5137325381173764,A,514.1394000002038,Correct
10,510,252,A,23.917782023399695,46.58878102124075,1.1958891011699848,0.7318148609801677,A,472.7618999995684,Correct
10,510,253,A,26.612386262286492,44.737115163656775,1.3306193131143247,0.7027289617047233,A,636.3556999995126,Correct
10,510,254,A,45.95789973770402,65.11590200109384,2.297894986885201,1.0228381967925466,A,690.7461000000694,Correct
10,510,255,B,33.31040429242967,17.000993828531435,1.6655202146214836,0.26705098657719883,B,452.1300999995219,Correct
10,510,256,A,29.74090689277994,45.12122635476051,1.487045344638997,0.7087625661853889,A,649.1028999998889,Correct
10,510,257,A,17.913104791911234,34.62027203463482,0.8956552395955617,0.5438139614464446,A,738.2376000005024,Correct
10,510,258,A,17.063387523599474,40.460024571772564,0.8531693761799737,0.635544579793716,A,443.9057999998113,Correct
10,510,259,B,49.10996310165276,23.192761987685095,2.4554981550826382,0.3643110533848405,B,547.6443000006839,Correct
10,510,260,B,67.86768514324592,57.26314924713849,3.393384257162296,0.8994874449811309,B,584.6191000000545,Correct
10,510,261,A,52.86324654041414,76.40763221994463,2.6431623270207067,1.2002082803018441,A,450.58549999976094,Correct
10,510,262,B,71.34764088484361,54.5885535091294,3.5673820442421804,0.8574749933718713,B,439.8286999994525,Correct
10,510,263,B,87.10989885448183,62.59868046664246,4.355494942724091,0.9832977733920943,B,601.7916999999215,Correct
10,510,264,B,61.22280142539883,51.15185853403429,3.061140071269941,0.8034915149399324,B,641.5526000000682,Correct
10,510,265,B,81.47592160715271,54.97202524490096,4.073796080357636,0.8634985533116675,B,587.4715999998443,Correct
10,510,266,A,35.90781049940804,62.64230148411976,1.795390524970402,0.9839829707323381,B,1071.623200000431,Incorrect
10,510,267,A,30.146304447993245,41.71719103016243,1.5073152223996624,0.6552921043438016,A,569.015699999909,Correct
10,510,268,B,72.8704656310571,61.26679266475888,3.643523281552855,0.9623765287230776,B,601.5835000007428,Correct
10,510,269,A,24.947308418324656,42.48319406051229,1.2473654209162328,0.6673244518076746,A,658.7263000001258,Correct
10,510,270,A,31.07107757215162,62.57409642660976,1.553553878607581,0.9829116081942828,A,483.5642000007283,Correct
10,510,271,A,40.68600444482318,51.43650679265862,2.0343002222411593,0.807962759330689,A,503.99670000024344,Correct
10,510,272,B,43.43096702508641,14.772434437760928,2.1715483512543203,0.232044857526533,B,467.33769999991637,Correct
10,510,273,A,17.322304838783204,36.22023131361467,0.8661152419391601,0.5689460630308741,A,471.74600000016653,Correct
10,510,274,A,23.861923297803056,34.6338409189203,1.1930961648901528,0.5440271009823879,B,485.2746999995361,Incorrect
10,510,275,B,40.806799033999084,24.282811832526924,2.0403399516999543,0.3814335163078495,B,512.6151000004029,Correct
10,510,276,A,38.482242950540915,63.991898912148955,1.9241121475270457,1.0051823975583392,A,763.6432999997851,Correct
10,510,277,B,89.80526603554931,67.43032169501569,4.490263301777466,1.0591930163312888,B,1431.5481999992699,Correct
10,510,278,B,68.18661794353696,43.15174475916627,3.4093308971768477,0.677826021624893,B,716.8152999993254,Correct
10,510,279,A,67.59889171519463,79.92386734215559,3.379944585759731,1.255441172443006,A,778.0603999999585,Correct
10,510,280,B,60.350177383956925,49.56577695755482,3.0175088691978464,0.7785774037966222,B,1370.8956999998918,Correct
10,510,281,A,19.177929352307835,50.57897829205949,0.9588964676153918,0.7944927331420585,A,604.3074999997771,Correct
10,510,282,B,66.82407623493013,37.42046494191306,3.3412038117465066,0.5877992887771424,B,899.2176000001564,Correct
10,510,283,A,35.32318493733903,61.24246563599363,1.7661592468669514,0.9619944006488148,A,660.0676999996722,Correct
10,510,284,A,41.982778030504825,58.7953374946603,2.099138901525241,0.9235550016927865,A,927.9544999999416,Correct
10,510,285,A,21.834080190186725,49.4449567417776,1.0917040095093362,0.7766795642851683,A,644.3754000001718,Correct
10,510,286,A,54.35690104730074,78.42880468444862,2.7178450523650373,1.2319567831324627,A,511.1402000002272,Correct
10,510,287,B,72.2608826269734,62.50990254694825,3.61304413134867,0.9819032530905326,B,606.3556999997672,Correct
10,510,288,B,79.9434648406796,51.15726584964402,3.99717324203398,0.8035764528549082,B,703.4680999995544,Correct
10,510,289,A,35.30571590297181,56.71317951824219,1.7652857951485907,0.8908485406811439,A,883.3502000006774,Correct
10,510,290,B,41.29092393082777,15.211059830637463,2.0645461965413885,0.2389347690862273,B,563.3856000004016,Correct
10,510,291,B,48.418587751065935,22.267069366706384,2.4209293875532967,0.3497703076970955,B,632.8962999996293,Correct
10,510,292,A,40.83161727944144,51.750461792341866,2.041580863972072,0.8128943529335024,A,641.7566000000079,Correct
10,510,293,B,72.99926189329506,59.34323514909472,3.649963094664753,0.9321613579232377,A,578.852900000129,Incorrect
10,510,294,B,53.25625864256386,40.184947612572195,2.6628129321281926,0.6312236810227374,B,452.53450000018347,Correct
10,510,295,A,28.057349454144887,52.2449708604297,1.4028674727072445,0.8206620832106939,A,527.5287999993452,Correct
10,510,296,A,30.59217422567749,40.91135322843452,1.5296087112838745,0.6426340337543348,A,598.2314999992013,Correct
10,510,297,B,87.03200414531398,60.705847321597815,4.351600207265699,0.9535652198773765,B,669.4350999996459,Correct
10,510,298,B,54.42891721377338,34.94369871164035,2.721445860688669,0.5488943358087223,B,580.3372000000309,Correct
10,510,299,A,36.3474798315863,58.00321211582522,1.817373991579315,0.9111123253384349,A,795.220099999824,Correct
10,510,300,B,65.53621266712896,40.70218619879528,3.276810633356448,0.6393484457358957,B,621.7516999995496,Correct
10,510,301,A,36.260538625562006,61.726149370040815,1.8130269312781002,0.9695920869765323,A,538.4609000002456,Correct
10,510,302,A,14.863305000730993,43.971888401149926,0.7431652500365495,0.6907088078276141,A,625.3530000003593,Correct
10,510,303,B,51.48357979617306,39.84960095693651,2.5741789898086527,0.6259560680739827,B,498.4821000007287,Correct
10,510,304,A,24.324139483215994,46.15973020859222,1.2162069741607997,0.7250753465750008,A,730.5026000003636,Correct
10,510,305,A,34.69696123618166,50.42162329295455,1.734848061809083,0.79202100659609,A,759.7509999995964,Correct
10,510,306,A,32.548765991735976,64.22704105227521,1.6274382995867989,1.0088760016581892,A,838.1295999997747,Correct
10,510,307,A,29.291536151472446,60.6562659906667,1.4645768075736223,0.9527863981523346,A,2056.0609999993176,Correct
10,510,308,B,60.14265996088703,28.4630558998561,3.0071329980443515,0.4470966365685177,B,500.76549999994313,Correct
10,510,309,B,79.50749697840182,50.55920932638878,3.975374848920091,0.7941822029554577,B,735.5382000005193,Correct
10,510,310,A,52.30538638101064,60.33274477383264,2.6152693190505323,0.9477045387619029,A,778.8859000002049,Correct
10,510,311,A,35.85299254740002,49.70179428158169,1.792649627370001,0.7807139589262412,B,1168.143200000486,Incorrect
10,510,312,A,53.52276838374445,81.1238342279764,2.6761384191872226,1.2742902082082344,A,902.7756999994381,Correct
10,510,313,A,30.27311226352932,52.98402217063704,1.513655613176466,0.83227107404456,A,548.3217000000877,Correct
10,510,314,A,17.144018306582883,36.97708675759972,0.8572009153291441,0.5808347205441386,A,764.908000000105,Correct
10,510,315,A,40.17706463045309,58.63452908196265,2.0088532315226546,0.9210290290529546,A,726.835100000244,Correct
10,510,316,A,39.542907209913515,57.39606964599512,1.977145360495676,0.9015753537239318,A,2403.797800000575,Correct
10,510,317,A,26.9251269307372,42.108095954734665,1.34625634653686,0.6614324245402425,A,525.2024999999776,Correct
10,510,318,A,19.91230012635614,32.58832654998669,0.9956150063178071,0.511896236411117,A,690.1871000000028,Correct
10,510,319,A,58.59344413092642,83.30725887865809,2.929672206546321,1.3085873624194766,A,621.8091000000641,Correct
10,510,320,A,25.630782247153185,46.37325543327284,1.2815391123576592,0.7284293929610646,A,541.8332999997801,Correct
10,510,321,B,42.68591909657272,25.511464352769778,2.134295954828636,0.40073314496489704,B,613.5767999994641,Correct
10,510,322,A,38.78688773072668,47.181536471804954,1.939344386536334,0.7411258418245067,A,742.4139999993713,Correct
10,510,323,B,37.614797286451065,13.046534586212228,1.880739864322553,0.20493448605424744,B,452.796199999284,Correct
10,510,324,B,69.42641814648421,52.60249430599203,3.4713209073242104,0.8262780483610174,B,595.1732000003176,Correct
10,510,325,B,68.99862177931274,59.383955576047526,3.4499310889656374,0.9328009928940678,A,660.5231000003187,Incorrect
10,510,326,B,44.6759457088883,26.940626554754413,2.233797285444415,0.4231823723376128,B,557.3734999998123,Correct
10,510,327,B,71.59220836241042,61.54104932846618,3.579610418120521,0.9666845423225822,A,617.3034000003099,Incorrect
10,510,328,A,22.520666494309825,45.62784049298097,1.1260333247154912,0.7167204424595797,A,541.1422999995921,Correct
10,510,329,A,39.60642666246168,69.73774696739659,1.9803213331230838,1.095437967753385,A,888.7424000004103,Correct
10,510,330,A,54.85102935898446,73.86606453819667,2.742551467949223,1.1602854285139408,A,594.7089000001142,Correct
10,510,331,B,34.94462429869845,23.063315152827457,1.7472312149349225,0.3622777072577445,B,775.1203999996505,Correct
10,510,332,A,64.91005611593616,79.4414550983698,3.245502805796808,1.2478634586376098,A,580.9310000004189,Correct
10,510,333,B,36.38600787013709,13.44581729667576,1.8193003935068546,0.21120640420373568,B,715.8249000003707,Correct
10,510,334,A,62.437490026581344,74.62240574036387,3.1218745013290676,1.1721660083356198,A,469.5377999996708,Correct
10,510,335,A,41.28892171465081,55.624720861418396,2.064446085732541,0.8737510720810748,A,628.1362999998237,Correct
10,510,336,B,80.28238105649201,54.95331276407347,4.014119052824601,0.8632046183501773,B,628.1915999998091,Correct
10,510,337,A,59.7813849638823,75.34052172386096,2.9890692481941152,1.183446147826519,A,793.7221000001955,Correct
10,510,338,A,47.72432781453546,75.90226586862926,2.386216390726773,1.1922700042185248,A,575.533400000495,Correct
10,510,339,B,51.89605578274516,35.30728527116784,2.594802789137258,0.5546055401305,B,658.294200000455,Correct
10,510,340,B,84.52773606628956,63.13683513224315,4.226386803314478,0.9917510871118251,B,644.2465000000084,Correct
10,510,341,A,51.810084751293594,82.08712906666736,2.5905042375646796,1.2894216081505967,A,809.2268999998851,Correct
10,510,342,A,22.533200488332998,34.07720491325125,1.1266600244166498,0.5352834830517207,A,563.7446999999156,Correct
10,510,343,A,36.437320666973825,69.54600264994941,1.8218660333486911,1.0924260550580869,A,839.8996000005354,Correct
10,510,344,B,68.25993810034277,44.732599612205746,3.4129969050171383,0.7026580315883959,B,746.675000000323,Correct
10,510,345,A,14.23730327643354,31.534558140359923,0.711865163821677,0.49534368093977466,A,553.2922000002145,Correct
10,510,346,A,59.5325111054248,73.95513198179826,2.9766255552712404,1.1616844966464048,A,568.1918000000223,Correct
10,510,347,B,64.88958066294782,54.22306167714903,3.244479033147391,0.8517338611003882,B,771.2620000002062,Correct
10,510,348,B,54.368808583756454,43.36195065559851,2.718440429187823,0.681127928124757,B,729.3368999999075,Correct
10,510,349,B,45.267482433774646,22.81377439538693,2.2633741216887326,0.3583579302060125,B,420.125999999982,Correct
10,510,350,B,70.97067777152415,48.8787948968424,3.5485338885762077,0.7677863148212117,B,619.0524000003279,Correct
10,510,351,B,80.65098166246528,53.75927457537563,4.032549083123264,0.844448710341583,B,510.63150000027235,Correct
10,510,352,B,49.765396535452616,38.83749238258768,2.488269826772631,0.6100579037649351,B,531.6462000000683,Correct
10,510,353,A,16.418876472777658,35.08709329900279,0.8209438236388829,0.5511467727198341,A,634.245700000065,Correct
10,510,354,A,46.65611490493762,77.18197393155219,2.332805745246881,1.2123716114646166,A,601.7437000000427,Correct
10,510,355,B,70.1897823231129,47.73042533113951,3.509489116155645,0.7497477678651202,B,633.7537999997949,Correct
10,510,356,B,57.09923223463507,33.90824626502425,2.854961611731753,0.5326294868115687,B,781.0777999993661,Correct
10,510,357,B,69.71688602776516,39.543774377764805,3.4858443013882576,0.621152155401991,B,859.4274999995832,Correct
10,510,358,B,74.86085844529882,59.834149566447735,3.7430429222649413,0.9398726235587254,A,733.1309000001056,Incorrect
10,510,359,A,65.38426602525873,81.29686474097656,3.2692133012629365,1.2770081651506753,A,954.3922000002567,Correct
10,510,360,B,38.41890679682855,24.726754215979863,1.9209453398414273,0.3884069469602139,B,508.6012000001574,Correct
10,510,361,A,34.887058743364534,48.864991824187484,1.744352937168227,0.7675694966629635,A,830.8371000002808,Correct
10,510,362,B,59.28416224206064,42.43551501726526,2.964208112103032,0.6665755111476993,B,800.7768999996188,Correct
10,510,363,A,20.663826022164407,40.76746351927671,1.0331913011082206,0.6403738194882481,A,648.7726000004841,Correct
10,510,364,A,14.345111455576383,40.97845694792821,0.7172555727788192,0.6436880965152845,A,665.1032999998279,Correct
10,510,365,B,62.73562686716613,35.7105897534212,3.1367813433583067,0.560940632123535,B,443.5684999998557,Correct
10,510,366,B,51.795078842289,33.34969805004696,2.58975394211445,0.5238558319673269,B,808.5197000000335,Correct
10,510,367,A,28.86079294202309,59.70773281323613,1.4430396471011546,0.9378868738428243,A,790.1252000001477,Correct
10,510,368,A,47.17009515048326,74.01001213243862,2.3585047575241633,1.1625465520368032,A,669.2740999997113,Correct
10,510,369,B,35.377399076845016,10.589770888735124,1.768869953842251,0.1663437321362466,B,774.1218000001027,Correct
10,510,370,B,46.62894648140228,27.82645982861193,2.331447324070114,0.4370970088648936,B,594.0164000003278,Correct
10,510,371,B,54.00301312597823,33.28464924420029,2.700150656298911,0.5228340477144634,B,420.7785000007789,Correct
10,510,372,A,42.08935123886329,60.27040303408794,2.1044675619431645,0.9467252770039333,A,536.6744000002655,Correct
10,510,373,A,10.55147818766483,33.51610737827721,0.5275739093832414,0.5264697835826118,B,358.4796000004644,Incorrect
10,510,374,B,40.25269039521021,13.144524306000164,2.0126345197605104,0.20647370497331297,B,417.52120000001014,Correct
10,510,375,A,36.116665287562604,47.01253291197373,1.80583326437813,0.7384711401145252,A,943.5815000006187,Correct
10,510,376,B,53.417879006136964,46.077619394958,2.6708939503068483,0.723785552930533,B,1080.7421999998041,Correct
10,510,377,B,73.27403200714667,55.237376303261605,3.6637016003573337,0.867666677989508,B,770.4128000004857,Correct
10,510,378,A,56.5659622203855,67.51441974706228,2.828298111019275,1.0605140254437426,A,885.1903000004313,Correct
10,510,379,B,80.56319657962648,62.46474549420101,4.028159828981324,0.9811939277646899,B,743.4207999995124,Correct
10,510,380,B,75.69548332134032,62.36523738167807,3.7847741660670158,0.979630857988317,B,5439.126299999771,Correct
10,510,381,B,52.98525614985439,45.726950053952926,2.64926280749272,0.7182772518028296,B,1103.490100000272,Correct
10,510,382,B,82.36519670663915,67.20393676965335,4.1182598353319575,1.0556369702392796,B,2117.8376999996544,Correct
10,510,383,B,61.71850032589271,52.21803213016777,3.085925016294636,0.8202389306252542,B,2633.4666999991896,Correct
10,510,384,A,40.41913194827765,53.392211869905786,2.020956597413883,0.8386829028470288,B,1088.3699000005436,Incorrect
10,510,385,A,32.40774758597126,48.735663832294904,1.620387379298563,0.7655380173167973,B,696.1122000002433,Incorrect
10,510,386,A,27.669990899653534,50.25084202818725,1.3834995449826766,0.7893383807622715,A,480.3987999994206,Correct
10,510,387,B,68.07986547658028,50.82439741042286,3.403993273829014,0.7983477676385627,B,799.3663000006563,Correct
10,510,388,A,61.56163115015812,79.95579804770632,3.078081557507906,1.2559427387929167,A,617.8056999997352,Correct
10,510,389,A,50.87278624467774,78.60928551338444,2.543639312233887,1.2347917693639554,A,540.0550000003932,Correct
10,510,390,A,26.80238381306075,42.360104357872004,1.3401191906530374,0.6653909632799383,A,711.391700000604,Correct
10,510,391,A,38.23882043983035,64.28664995590816,1.9119410219915176,1.0098123361268985,A,1114.4335999997566,Correct
10,510,392,B,32.775686029419255,14.869570601544403,1.6387843014709629,0.23357066881923327,B,598.314400000163,Correct
10,510,393,A,39.2952706135041,64.5522815200241,1.9647635306752051,1.0139848669788394,A,931.2776999995549,Correct
10,510,394,B,37.360329542533776,11.778234209330893,1.8680164771266887,0.18501207032146957,B,1465.9175999995568,Correct
10,510,395,B,56.93990343438814,27.954336233739184,2.8469951717194073,0.4391056867394699,B,656.8360000001121,Correct
10,510,396,B,79.32047103791642,63.097536083251896,3.9660235518958213,0.9911337790938052,B,771.8968999997742,Correct
10,510,397,A,45.54040681941149,73.62640186459515,2.2770203409705743,1.15652081604031,A,858.2514999998239,Correct
10,510,398,A,66.37299605235245,79.2345784080137,3.3186498026176223,1.2446138471845014,A,814.7245000000112,Correct
10,510,399,B,62.3293529362829,36.013166068624855,3.1164676468141455,0.5656934897685052,B,728.3881000003021,Correct
10,510,400,B,56.241188187004624,23.82235298140541,2.8120594093502316,0.3742006455880307,B,496.92679999952816,Correct
10,510,401,B,50.72910860556013,41.792778375059875,2.5364554302780062,0.6564794275809724,B,731.7133999995349,Correct
10,510,402,B,83.18098374218961,61.7030100128732,4.15904918710948,0.9692286148040995,B,564.8188000004666,Correct
10,510,403,B,71.27090230157313,60.853832712846035,3.5635451150786563,0.9558897689672967,B,854.496900000413,Correct
10,510,404,B,42.12188573361099,14.366340311907528,2.106094286680549,0.22566594591429792,B,520.4615000002377,Correct
10,510,405,B,38.9597371877672,13.626047825236267,1.94798685938836,0.21403745872612717,B,552.9838000002201,Correct
10,510,406,B,60.43889824801237,39.94762377594264,3.0219449124006186,0.6274958069143517,B,604.8822000002474,Correct
10,510,407,B,51.91956350962645,36.0469552938324,2.5959781754813225,0.5662242496769179,B,497.07000000034895,Correct
10,510,408,B,76.99668866754007,46.31792603833104,3.8498344333770036,0.7275602808576808,B,1083.5443999994823,Correct
10,510,409,A,11.81342377121453,32.323813392088546,0.5906711885607265,0.5077412734429637,A,523.6032000002524,Correct
10,510,410,A,59.81215593734409,70.97873128717268,2.990607796867204,1.1149313038645283,A,1519.4550999995045,Correct
10,510,411,A,33.44687937595641,64.03323724266765,1.6723439687978203,1.0058317385356852,A,1018.7729999997828,Correct
10,510,412,A,63.671816740670224,88.68363734950425,3.1835908370335115,1.3930393179541198,A,547.9176999997435,Correct
10,510,413,A,36.629116425194354,46.73330918843169,1.8314558212597176,0.7340851041215869,A,840.8857999993415,Correct
10,510,414,A,53.2185072077059,72.76109326879596,2.6609253603852947,1.1429285804020557,A,801.4706000003571,Correct
10,510,415,A,61.385956111819894,71.86858866515017,3.0692978055909945,1.1289091508715121,A,767.8240999994159,Correct
10,510,416,B,81.99708577370144,67.87852466081557,4.099854288685072,1.066233372054659,B,1046.1918000000878,Correct
10,510,417,A,20.000840902392195,48.59485737833016,1.0000420451196097,0.7633262347100289,A,730.9113000001162,Correct
10,510,418,A,10.642060679181618,31.579962518534053,0.5321030339590809,0.49605689124433805,A,432.41440000019793,Correct
10,510,419,A,40.01669798280726,56.43439274195412,2.0008348991403633,0.8864693682396211,A,503.0746000002182,Correct
10,510,420,B,83.07665075490644,64.7456433738409,4.153832537745322,1.0170221878760162,B,1014.243699999497,Correct
10,510,421,A,30.028334754231203,58.046698503432644,1.5014167377115601,0.9117954079176283,A,586.3902999999482,Correct
10,510,422,B,61.10944804540036,39.171730380704446,3.055472402270018,0.615308101962106,B,458.97249999961787,Correct
10,510,423,B,43.51994723683617,26.336304842484157,2.1759973618418083,0.41368970907924757,B,497.31710000014573,Correct
10,510,424,A,55.89090296203778,80.8608884105756,2.794545148101889,1.2701598649670418,A,495.7159999994474,Correct
10,510,425,B,61.10474219788918,33.42779407448847,3.0552371098944593,0.5250825614506269,B,579.5966000005137,Correct
10,510,426,B,42.53314258315663,22.242137543511713,2.126657129157832,0.3493786795341507,B,646.3612999996258,Correct
10,510,427,A,35.99161807023027,60.27581382822028,1.7995809035115133,0.9468102695594145,A,1127.4974000007205,Correct
10,510,428,B,87.42804750753815,69.18740409874813,4.371402375376908,1.0867932021878774,A,965.8492000007755,Incorrect
10,510,429,B,65.62879881545099,40.8893907611479,3.2814399407725494,0.642289048124923,A,1006.407599999875,Incorrect
10,510,430,A,46.64930534398712,53.65745198742944,2.332465267199356,0.842849284870277,A,1642.5466999999117,Correct
10,510,431,B,46.6592668751653,27.545200828819677,2.3329633437582653,0.4326790028273769,B,451.7104000005929,Correct
10,510,432,B,64.81878539453712,54.61724988394158,3.240939269726856,0.8579257549733442,B,1340.8078000002206,Correct
10,510,433,B,56.423486434176255,40.308041628958954,2.8211743217088125,0.633157237310645,B,626.1050000002797,Correct
10,510,434,B,63.573484964299766,39.9150474310133,3.1786742482149886,0.6269840988847976,B,575.614599999426,Correct
10,510,435,A,67.33917089048686,89.66186889575755,3.366958544524343,1.4084053431502155,A,505.0087999998141,Correct
10,510,436,A,29.997812868983303,60.05736612657318,1.4998906434491652,0.9433789010859739,A,586.6818999993484,Correct
10,510,437,A,59.19096672444891,82.24928660159836,2.9595483362224457,1.291968772752914,A,442.453800000294,Correct
10,510,438,A,53.77918957509395,81.77817655946316,2.6889594787546973,1.2845685935158926,A,496.24060000041936,Correct
10,510,439,A,32.628667238205175,47.60798763261554,1.6314333619102586,0.7478245209940936,A,793.0705999997372,Correct
10,510,440,A,58.11790802804305,68.84927369934263,2.9058954014021525,1.0814818622942388,A,526.0275000000547,Correct
10,510,441,A,35.953034352787185,46.27094053974392,1.7976517176393594,0.7268222343717483,A,934.8956000003454,Correct
10,510,442,A,31.941045195276622,40.62354943123202,1.597052259763831,0.6381132222795016,A,518.355999999585,Correct
10,510,443,A,20.068829976081556,32.99843289451455,1.0034414988040778,0.5183381718069134,A,483.64779999974417,Correct
10,510,444,A,31.81289328642598,56.975419647983145,1.590644664321299,0.8949677990064971,A,909.0188999998645,Correct
10,510,445,B,59.19933654245882,43.69504931280758,2.959966827122941,0.6863602295968002,A,701.876899999661,Incorrect
10,510,446,A,17.518813388873635,46.49480601081536,0.8759406694436818,0.7303387049683004,A,415.2693999994881,Correct
10,510,447,B,47.49708815124103,19.03031059739857,2.3748544075620517,0.2989274198415967,B,602.5798999999097,Correct
10,510,448,A,30.362852020281345,43.32848174127007,1.518142601014067,0.6806021996478676,A,549.0720999996483,Correct
10,510,449,B,74.11277538942352,43.41792439467996,3.705638769471176,0.6820071615622182,B,1044.554799999787,Correct
10,510,450,B,58.82472565719947,40.01990512477937,2.9412362828599736,0.6286311996868369,B,451.7408000001524,Correct
10,510,451,A,25.163298142271756,53.78445374964058,1.2581649071135879,0.8448442238860543,A,428.8693999997122,Correct
10,510,452,B,42.17846909590257,19.508078084165223,2.1089234547951285,0.3064321739743476,B,750.5317999994077,Correct
10,510,453,A,20.915065697539045,51.0297148303183,1.0457532848769524,0.8015728861285504,A,1671.948500000326,Correct
10,510,454,A,38.04340704580512,66.15493409328853,1.9021703522902558,1.039159274730961,A,713.6195000002772,Correct
10,510,455,A,41.1646398561023,62.93249696550444,2.0582319928051147,0.9885413506944535,A,895.4264000003604,Correct
10,510,456,A,63.383682673807854,84.71417866787772,3.169184133690393,1.330687206789489,A,984.8301000001811,Correct
10,510,457,B,77.21107009078268,65.68325964692691,3.8605535045391344,1.0317502298530825,A,1193.9748000004329,Incorrect
10,510,458,B,65.2380247059365,56.123535856664695,3.2619012352968246,0.8815864397039058,B,1061.8411000004926,Correct
10,510,459,A,51.17103335876053,63.97536210445388,2.5585516679380267,1.0049226379904956,A,763.091799999529,Correct
10,510,460,B,41.50916199982467,16.177044120041423,2.0754580999912333,0.25410841482160046,B,441.46679999994376,Correct
10,510,461,A,63.51582178866471,84.34208636364136,3.1757910894332353,1.3248423945422578,A,477.8791999997338,Correct
10,510,462,A,20.327091955894495,37.3529364975319,1.0163545977947248,0.5867385544532614,A,623.0514999997467,Correct
10,510,463,A,53.63396114463723,69.14919416394173,2.681698057231862,1.0861930019354678,A,458.3480999999665,Correct
10,510,464,B,61.5045030266619,42.63305195042308,3.075225151333095,0.6696784140378058,B,644.299300000057,Correct
10,510,465,B,58.42924569281494,35.21762388440592,2.921462284640747,0.5531971423606903,B,1133.3969999996043,Correct
10,510,466,A,29.37852628957304,54.56587222618549,1.468926314478652,0.8571187166125184,A,619.4839999998294,Correct
10,510,467,B,57.19524547714681,37.207608993129234,2.8597622738573407,0.5844557553522817,B,822.5491000002876,Correct
10,510,468,B,84.42584586270442,54.78438870017285,4.221292293135221,0.8605511653593535,B,688.2218000000648,Correct
10,510,469,A,23.784001714497986,39.42809877104321,1.1892000857248994,0.6193351272206105,A,800.809900000786,Correct
10,510,470,A,41.413068472812135,54.687036999229925,2.0706534236406067,0.8590219684168697,A,1271.4335000000574,Correct
10,510,471,B,81.13868806902418,66.97397079166974,4.056934403451209,1.052024673104235,B,1261.7740000005142,Correct
10,510,472,B,72.02603773982517,52.37108113973237,3.601301886991258,0.8226430188456908,B,758.93300000007,Correct
10,510,473,B,36.87242620841887,13.538253535026094,1.8436213104209436,0.21265838924037012,A,769.9777000007089,Incorrect
10,510,474,B,60.95795401135038,29.436586012228005,3.047897700567519,0.4623888118138978,B,663.2165000000896,Correct
10,510,475,B,56.41682756609696,44.76410967650601,2.820841378304848,0.7031529905209953,B,659.9464999999327,Correct
10,510,476,B,55.707104856780184,30.26824578550751,2.7853552428390094,0.47545249298400305,B,621.6078999996171,Correct
10,510,477,A,56.26973394704893,77.74687857606628,2.8134866973524466,1.2212451128705375,A,629.8847999996724,Correct
10,510,478,A,17.222590697145602,45.287479137321895,0.8611295348572802,0.7113740587870574,A,526.7297000000326,Correct
10,510,479,A,45.50609570067443,61.044310928336664,2.2753047850337214,0.9588817937795681,A,747.7168000004895,Correct
10,510,480,A,40.31433736924658,49.11204870924898,2.015716868462329,0.7714502571386034,B,1002.0883999995931,Incorrect
10,510,481,A,16.042387097056483,40.5085031291147,0.8021193548528243,0.6363060791917294,A,481.2585999998191,Correct
10,510,482,B,64.75535965613813,35.07776907023091,3.2377679828069064,0.5510003080767835,B,1101.6990000007354,Correct
10,510,483,A,40.84144611791916,49.16653831126109,2.042072305895958,0.7723061778054949,B,1365.7152000005226,Incorrect
10,510,484,A,52.9740226582166,67.10738209889993,2.64870113291083,1.054120293017736,A,522.129799999675,Correct
10,510,485,A,40.23959204344133,60.441060948852964,2.011979602172066,0.9494059652604471,A,582.0352999999159,Correct
10,510,486,B,72.70386454882335,45.01839554145081,3.6351932274411674,0.7071473035471069,B,631.4240000001519,Correct
10,510,487,B,51.01690247137911,35.05496251282105,2.5508451235689558,0.550642063510721,B,492.13529999997263,Correct
10,510,488,B,63.00883888073936,51.69133656427404,3.150441944036968,0.8119656160228039,B,621.2560000003577,Correct
10,510,489,B,31.507399724392958,14.032194573345524,1.5753699862196477,0.2204171969268243,B,505.13449999925797,Correct
10,510,490,A,37.328832049942136,58.98827841888027,1.8664416024971069,0.926585710643318,A,497.7646999996068,Correct
10,510,491,A,39.325044136164074,55.437254870964665,1.9662522068082038,0.8708063631890378,A,698.0409999996482,Correct
10,510,492,B,45.13970320166574,33.39180274600951,2.256985160083287,0.5245172109849148,B,464.904899999965,Correct
10,510,493,A,52.849990504900646,82.01599815110585,2.6424995252450323,1.2883042863417409,A,561.2087999998039,Correct
10,510,494,B,83.72856487709845,63.9830806390796,4.186428243854922,1.0050438804488793,B,776.6671999997925,Correct
10,510,495,B,51.07054075207509,43.771719996513625,2.5535270376037547,0.6875645698801831,B,496.69209999956365,Correct
10,510,496,A,45.410498676671985,72.16156576848623,2.2705249338335993,1.133511224449065,A,473.80229999998846,Correct
10,510,497,A,52.07724004911586,76.79779363972713,2.603862002455793,1.2063369215523585,A,478.518100000656,Correct
10,510,498,A,37.48492689146424,67.67482479042987,1.8742463445732118,1.0630336619729543,A,622.8243000005023,Correct
10,510,499,B,57.387137584782785,27.218044495668863,2.869356879239139,0.42754004316336697,B,531.517100000201,Correct
10,510,500,A,60.870311182925064,86.08128757574009,3.0435155591462535,1.352161703297477,A,458.15159999983734,Correct
10,510,501,B,51.30524489709214,22.890079444061726,2.565262244854607,0.3595565271077553,B,386.4709999998013,Correct
10,510,502,B,55.204447749037804,45.980841493906034,2.7602223874518903,0.7222653692156596,B,579.8536000002059,Correct
10,510,503,B,37.22190968727975,16.536664983145673,1.8610954843639873,0.2597573261296301,B,472.00429999975313,Correct
10,510,504,A,44.67773541149795,54.20922771450529,2.2338867705748977,0.8515165577233301,B,572.6950999996916,Incorrect
10,510,505,A,17.61123277294739,42.39301075743866,0.8805616386473695,0.6659078557956118,A,464.849700000741,Correct
10,510,506,A,27.352259233683288,44.96694626782242,1.3676129616841644,0.7063391402467893,A,1186.2301000001025,Correct
10,510,507,A,36.63747016348555,59.177766925461356,1.8318735081742776,0.9295621891443921,A,616.0389999995459,Correct
10,510,508,A,13.585116489176023,35.8871597599982,0.6792558244588011,0.5637141873010679,A,505.184200000258,Correct
10,510,509,B,78.55680460867679,56.42035758635646,3.927840230433839,0.8862489045310329,B,669.0613000000667,Correct
10,510,510,A,38.2523279752882,67.64149957603301,1.9126163987644103,1.062510190729312,A,531.4175999992585,Correct
10,510,511,A,44.727888573972926,54.35206597268073,2.2363944286986466,0.8537602558360077,A,699.1719999996349,Correct
10,510,512,B,65.34249765272965,53.114157400549374,3.2671248826364825,0.8343152334558894,B,612.5787999999375,Correct
10,510,513,A,28.6322598531306,53.20695018573067,1.4316129926565297,0.8357728191170478,A,607.6334000008501,Correct
10,510,514,A,47.998606781231786,76.83281048654848,2.3999303390615894,1.2068869648959877,A,674.9405999998999,Correct
10,510,515,A,26.950454651981154,38.05381571923332,1.3475227325990575,0.5977479395230161,A,692.0787999997629,Correct
10,510,516,B,57.19695554472011,30.354347336579835,2.859847777236006,0.47680497298556057,B,531.2637999995786,Correct
10,510,517,A,62.12952118010163,79.89842621355601,3.1064760590050815,1.2550415441294684,A,595.2823999996326,Correct
10,510,518,A,17.629237648947473,32.458999576765166,0.8814618824473738,0.5098647730661982,A,552.8220999995028,Correct
10,510,519,B,51.10978120977906,37.804580545438114,2.5554890604889526,0.5938329625679599,B,550.3146999999444,Correct
10,510,520,A,51.15800368239715,79.80212306135721,2.5579001841198576,1.2535288177521422,A,419.34220000075584,Correct
10,510,521,A,25.068238809660556,51.719401338336986,1.2534119404830277,0.8124064564629079,A,485.58090000005905,Correct
10,510,522,B,32.8378975181387,13.638524618236982,1.6418948759069352,0.21423344373228417,B,480.8828999994148,Correct
10,510,523,B,69.3597841964903,46.230041728846174,3.467989209824515,0.7261797973524636,B,431.5121999998155,Correct
10,510,524,B,46.5677333567476,36.82916456272441,2.32838666783738,0.5785111641405227,B,672.0875000000888,Correct
10,510,525,A,49.04186851849278,67.17252606841949,2.4520934259246387,1.0551435720980775,A,578.8437999999587,Correct
10,510,526,A,36.82890633937202,51.900202039167425,1.841445316968601,0.8152464672303719,B,718.4647000003679,Incorrect
10,510,527,B,81.13422922534421,59.72970043881297,4.05671146126721,0.9382319404984693,B,847.5742000000537,Correct
10,510,528,B,33.033529244584926,14.566257244089183,1.6516764622292464,0.2288062337416484,B,628.2791000003272,Correct
10,510,529,A,31.149682414594764,57.55765542554028,1.5574841207297383,0.9041135372136503,A,523.4746000005543,Correct
10,510,530,B,43.552002640896305,25.872540107816093,2.1776001320448155,0.40640490966211157,B,407.3255000002973,Correct
10,510,531,A,21.774679427440827,39.05311342406796,1.0887339713720414,0.6134448711643041,A,492.6186000002417,Correct
10,510,532,B,41.5803396013759,32.78039757916977,2.0790169800687948,0.5149132810823619,B,743.6641000003874,Correct
10,510,533,A,62.793789602432454,81.32612938619955,3.139689480121623,1.2774678531228876,A,412.938700000268,Correct
10,510,534,B,32.509084357278866,13.466176500727226,1.6254542178639435,0.2115262058331408,B,456.7744000005405,Correct
10,510,535,B,63.411998909207476,39.82321099118012,3.1705999454603737,0.6255415354612388,B,650.4810999995243,Correct
10,510,536,A,61.24545785303383,70.06887338461169,3.0622728926516913,1.1006392893520474,B,3075.024499999927,Incorrect
10,510,537,B,86.74015798149586,59.21964293988145,4.337007899074792,0.9302199760407113,B,669.0263999998933,Correct
10,510,538,B,39.23590589500255,21.496487637287366,1.9617952947501278,0.337666038196429,B,526.3961000000563,Correct
10,510,539,B,70.61477333841432,50.152952128710126,3.5307386669207164,0.7878007298169817,B,502.14689999938855,Correct
10,510,540,A,31.209297345850736,43.40614273619437,1.5604648672925368,0.681822095703491,A,910.4396000002453,Correct
10,510,541,B,51.04588370535719,34.29504716930021,2.5522941852678596,0.5387053412079449,B,883.6977999999363,Correct
10,510,542,A,63.30225782179576,88.4650841027624,3.1651128910897883,1.3896062915822078,A,587.4656999994841,Correct
10,510,543,A,59.58589160387473,67.97332393543239,2.9792945801937365,1.0677224755781682,A,772.53329999985,Correct
10,510,544,B,71.51121977734134,54.32668534504257,3.575560988867067,0.8533615778693502,B,1020.8319999992455,Correct
10,510,545,B,86.93819540662321,68.32249214104382,4.346909770331161,1.0732071969262482,A,695.5911000004562,Incorrect
10,510,546,B,42.492821133348585,30.7271223340736,2.124641056667429,0.4826605089534023,B,483.81289999997534,Correct
10,510,547,A,38.46234494248697,67.99729093273876,1.9231172471243485,1.0680989482914998,A,517.7382000001671,Correct
10,510,548,A,59.01362760824837,69.89537796856068,2.950681380412419,1.0979140297295606,A,537.0468999999503,Correct
10,510,549,B,61.86337634195038,40.308176673119604,3.093168817097519,0.6331593585793601,B,633.0571000007694,Correct
