subject,day,trial,cat,x,y,xt,yt,resp,rt,fb
11,211,0,B,65.28188224687165,47.680543157156336,3.2640941123435825,0.748964220508467,B,552.6418000008562,Correct
11,211,1,B,56.39513510642223,47.742318530824214,2.8197567553211114,0.749934585808906,B,437.11309999707737,Correct
11,211,2,B,78.60990017953017,65.97363121222594,3.930495008976509,1.0363113757348565,B,527.8566999986651,Correct
11,211,3,A,18.3278539287879,34.2514504601987,0.916392696439395,0.5380205257027748,A,1085.144799999398,Correct
11,211,4,A,42.84129232868222,64.37888548758389,2.142064616434111,1.0112611684704604,A,2014.5306999984314,Correct
11,211,5,A,50.80249492907525,75.70789145550619,2.5401247464537624,1.1892167780769585,A,823.6379000009038,Correct
11,211,6,A,34.84614372805035,64.59442033183647,1.7423071864025175,1.0146467818869431,A,764.369300002727,Correct
11,211,7,A,31.961068448121644,57.45247254520451,1.598053422406082,0.9024613283929188,A,1487.6860000003944,Correct
11,211,8,B,69.85134882686393,43.72388282713648,3.4925674413431964,0.6868131453807643,B,506.4773000012792,Correct
11,211,9,A,16.39023516823689,36.070896364608245,0.8195117584118446,0.5666003151372602,A,557.2142000019085,Correct
11,211,10,A,24.512089345943437,46.31664114812472,1.2256044672971718,0.7275400978495166,A,1299.0444999995816,Correct
11,211,11,B,39.16296855532253,12.618584372596345,1.9581484277661263,0.19821225981825824,B,633.167299998604,Correct
11,211,12,A,51.8610130922867,63.98865774175534,2.593050654614335,1.0051314853728512,B,1378.5384999973758,Incorrect
11,211,13,A,57.85919569955678,78.64262468910226,2.892959784977839,1.2353154599115148,A,851.9197999994503,Correct
11,211,14,B,50.62478462188035,27.48238823475274,2.5312392310940175,0.43169234490700886,B,597.5710999991861,Correct
11,211,15,A,35.832494440085256,47.02278786349614,1.791624722004263,0.7386322245163538,B,1912.6939999987371,Incorrect
11,211,16,B,68.19688636793003,42.945489704195076,3.4098443183965013,0.6745861747975768,B,470.478400002321,Correct
11,211,17,B,69.74677625933761,38.077166914904424,3.4873388129668803,0.5981147392468803,B,604.0370999980951,Correct
11,211,18,B,67.44978805916622,51.38399105204416,3.372489402958311,0.807137844006128,B,870.7901999987371,Correct
11,211,19,A,33.06586639752171,58.57912305564196,1.6532933198760855,0.9201587132266861,A,666.4085000011255,Correct
11,211,20,B,64.00142576300895,51.485114786247316,3.200071288150448,0.808726291908509,B,511.3831999988179,Correct
11,211,21,B,33.993258446527804,15.082780739397936,1.6996629223263904,0.2369197658329909,B,646.0245999987819,Correct
11,211,22,A,13.494033758649845,32.01104955776606,0.6747016879324923,0.5028283906218831,A,552.247499999794,Correct
11,211,23,B,56.31207887510264,40.02146295726856,2.815603943755132,0.6286556700623548,B,669.2526000006183,Correct
11,211,24,B,57.93420359585833,47.38301791829734,2.8967101797929167,0.7442907049851825,B,962.2229999986303,Correct
11,211,25,B,63.319308542974255,36.656280382752065,3.1659654271487123,0.5757955057919076,B,475.36350000154926,Correct
11,211,26,A,48.83702303198355,60.60858669826479,2.4418511515991774,0.9520374535786436,B,1712.8656000022602,Incorrect
11,211,27,B,82.6317002019946,56.090388817299896,4.13158501009973,0.8810657672271223,B,515.9802999987733,Correct
11,211,28,B,45.89108865985757,26.723050578410387,2.2945544329928786,0.4197646968932128,B,734.7139999983483,Correct
11,211,29,B,79.45505767553922,57.268046785682664,3.9727528837769612,0.899564375336686,B,577.2273000002315,Correct
11,211,30,A,41.051464008980204,73.2708654332428,2.05257320044901,1.1509360628362095,A,650.8709000008821,Correct
11,211,31,B,61.93473605938329,44.641025154833656,3.096736802969165,0.7012195833757129,B,693.9376000009361,Correct
11,211,32,A,21.38987721947653,43.62083460710136,1.0694938609738265,0.6851944677256253,A,638.523300000088,Correct
11,211,33,A,38.53462732921644,59.595519656515286,1.926731366460822,0.9361242336988725,A,861.1388999997871,Correct
11,211,34,A,57.270445800805525,82.21140506832968,2.863522290040276,1.2913737310197961,A,853.4614999989572,Correct
11,211,35,B,56.851910803384015,28.86806464721808,2.842595540169201,0.45345849909527775,B,641.0327999983565,Correct
11,211,36,B,34.073885663855904,10.27883449684791,1.703694283192795,0.16145955471381365,B,612.0948999996472,Correct
11,211,37,B,84.33307979968183,65.21535274863518,4.216653989984092,1.024400365481896,B,578.4599999969942,Correct
11,211,38,B,67.41138113364887,42.81317650206538,3.3705690566824438,0.6725078038786587,B,752.5827999998,Correct
11,211,39,A,26.325465251723138,39.67573327480132,1.3162732625861568,0.6232249609095196,A,1268.9709000005678,Correct
11,211,40,B,35.101860627103335,13.622042643417988,1.755093031355167,0.21397454547724418,B,637.312999999267,Correct
11,211,41,B,79.01790352088688,66.5886507344947,3.9508951760443436,1.0459720797997258,B,489.1599000002316,Correct
11,211,42,A,36.25397938562727,60.00985318430858,1.8126989692813635,0.9426325695341295,A,614.1500999983691,Correct
11,211,43,B,34.53901883383822,11.890068475251482,1.7269509416919109,0.1867687588626482,B,648.6452999997709,Correct
11,211,44,B,84.47209044996751,61.828722313227836,4.223604522498375,0.9712032990003995,B,733.5915999974532,Correct
11,211,45,B,40.64049611257542,24.094530561742552,2.032024805628771,0.37847600102232576,B,678.7441999986186,Correct
11,211,46,A,24.997778021410035,53.379911213943714,1.2498889010705017,0.838489684595005,A,751.8627000026754,Correct
11,211,47,B,86.26952374401206,64.95681338106331,4.313476187200603,1.0203392385927583,B,557.4159999996482,Correct
11,211,48,A,41.42809974413555,62.31895030887612,2.0714049872067775,0.978903782348963,A,890.9170999977505,Correct
11,211,49,B,67.15424249977615,54.641660822496846,3.3577121249888076,0.8583092010995065,B,1346.9382999974187,Correct
11,211,50,B,43.856547844607974,31.869892069941542,2.1928273922303987,0.5006110939881397,B,637.1996999987459,Correct
11,211,51,A,25.532478563453708,49.09464327675235,1.2766239281726854,0.7711768532442836,A,1123.794999999518,Correct
11,211,52,A,39.96078391679378,55.504873865972115,1.998039195839689,0.8718685198788304,A,838.8789999989967,Correct
11,211,53,A,37.13172708935628,56.89239395454028,1.856586354467814,0.8936636344636004,A,588.9452999981586,Correct
11,211,54,A,37.95652745751445,46.188523819589136,1.8978263728757225,0.725527635558892,A,731.3286000025983,Correct
11,211,55,A,65.33429126047025,89.20504560945363,3.2667145630235126,1.40122957974901,B,455.1850999996532,Incorrect
11,211,56,A,28.895007324727935,48.750920948066394,1.4447503662363967,0.7657776755309107,A,1342.9742000007536,Correct
11,211,57,A,32.94850477793667,42.0068763667983,1.6474252388968336,0.6598424709709412,A,1006.933199998457,Correct
11,211,58,A,18.43389010342301,38.76758510148096,0.9216945051711505,0.6089598027611486,A,598.140300000523,Correct
11,211,59,B,37.953148138108546,27.346677311756846,1.897657406905427,0.42956060271352986,B,2742.208700001356,Correct
11,211,60,A,33.76707193557216,64.09707199715481,1.6883535967786083,1.006834452514388,A,740.8275999987382,Correct
11,211,61,A,43.2207259339173,66.06935194656566,2.161036296695865,1.037814953513846,A,1862.473900000623,Correct
11,211,62,B,66.04885852398941,33.045415121532905,3.30244292619947,0.5190761669031642,B,737.0057999978599,Correct
11,211,63,B,54.68480740485751,43.60030501108725,2.7342403702428753,0.6848719895855298,B,809.8342000012053,Correct
11,211,64,B,83.92596893182738,59.389574380398685,4.196298446591369,0.9328892528664255,B,808.2039999972039,Correct
11,211,65,A,38.913180237195036,52.292367762953646,1.9456590118597519,0.8214065920145545,A,1186.4286000018183,Correct
11,211,66,A,40.18501513233455,70.07123811775676,2.0092507566167273,1.1006764344934286,A,655.4460999977891,Correct
11,211,67,B,82.78604280611566,56.278923954263554,4.139302140305784,0.8840272702332652,B,563.5928000010608,Correct
11,211,68,B,54.14941643497593,47.34308019459717,2.707470821748797,0.7436633646882945,B,717.7759000005608,Correct
11,211,69,B,60.71787890157214,50.11377852692043,3.035893945078607,0.7871853923189956,B,638.3739000011701,Correct
11,211,70,A,51.046412975670314,62.58451415563586,2.5523206487835157,0.9830752494991601,B,820.1814000021841,Incorrect
11,211,71,A,34.60761148158006,56.579567314906235,1.7303805740790028,0.888749765098993,A,825.1497999990534,Correct
11,211,72,B,43.8595905973456,34.297809543129524,2.19297952986728,0.5387487324745881,B,839.7855999974126,Correct
11,211,73,B,63.134942243773175,43.92482846284409,3.1567471121886586,0.6899695920453142,B,611.6813000007824,Correct
11,211,74,A,48.80309954334847,66.76655514630198,2.4401549771674236,1.0487665957656005,A,626.3223999994807,Correct
11,211,75,B,80.02702075850021,61.827901277561566,4.00135103792501,0.971190402202312,B,830.1982999983011,Correct
11,211,76,B,71.47489079245018,55.16521090178788,3.5737445396225094,0.8665331065139419,B,656.6738999972586,Correct
11,211,77,A,54.53141862772012,66.2103975729288,2.726570931386006,1.040030493031863,A,677.6841000028071,Correct
11,211,78,B,34.196762816979984,10.319428539896837,1.709838140848999,0.16209720445092374,B,669.4060000008903,Correct
11,211,79,A,56.68409818141956,76.52147999698809,2.834204909070978,1.2019965970017805,A,691.226099999767,Correct
11,211,80,A,45.32937307443464,77.29473040106156,2.266468653721732,1.214142785945893,A,559.3952000017453,Correct
11,211,81,B,48.70661614635043,39.337917589949186,2.4353308073175213,0.6179185645405253,B,794.9786999997741,Correct
11,211,82,B,66.35200269988762,39.63486609547297,3.317600134994381,0.6225830207577653,B,650.9904000013194,Correct
11,211,83,B,69.61404314381676,47.83835062409146,3.4807021571908376,0.7514430544024923,B,531.0199999985343,Correct
11,211,84,A,63.68310754002688,79.311846289534,3.184155377001344,1.2458275682292146,A,876.6695999984222,Correct
11,211,85,A,42.829645271760164,63.6085940886147,2.141482263588008,0.9991614594698354,A,787.3521000001347,Correct
11,211,86,A,49.79750998450077,59.33437363455237,2.4898754992250387,0.9320221615783083,A,2471.2254000005487,Correct
11,211,87,A,49.92059963331537,66.19298928984767,2.4960299816657683,1.0397570443606665,A,694.977299997845,Correct
11,211,88,B,33.47709952368551,11.303781215658493,1.6738549761842756,0.17755938012449513,B,540.5065999984799,Correct
11,211,89,A,54.36790176718759,73.9511748187918,2.71839508835938,1.1616223376752541,A,851.1017999990145,Correct
11,211,90,B,58.77369731872507,27.20949967338538,2.938684865936253,0.42740582140880695,B,1022.1845999985817,Correct
11,211,91,B,66.48251504731257,56.93660822863684,3.324125752365629,0.8943581506570283,B,1271.5923999967345,Correct
11,211,92,B,79.43085750103549,65.28519823264286,3.971542875051774,1.0254974957791207,B,853.9999999993597,Correct
11,211,93,B,67.78118787756392,59.10638248603988,3.3890593938781963,0.9284408849920566,B,1804.3051999993622,Correct
11,211,94,A,26.73875318820363,57.261799441036366,1.3369376594101816,0.8994662422764599,A,604.8573000007309,Correct
11,211,95,B,56.130564721163374,35.412284045509416,2.8065282360581687,0.556254857021037,B,738.1191999993462,Correct
11,211,96,A,16.90448816390997,36.68876556567871,0.8452244081954986,0.576305781852072,A,546.7237999982899,Correct
11,211,97,B,72.60868154871832,47.01668946100839,3.630434077435916,0.7385364310340832,B,536.5298000033363,Correct
11,211,98,B,61.32557726845946,47.690498139420455,3.066278863422973,0.7491205930042051,B,823.964999999589,Correct
11,211,99,A,68.00150670413844,86.91657412825474,3.4000753352069215,1.3652823537825887,A,680.8262999984436,Correct
11,211,100,A,10.949193741022569,34.46465259812061,0.5474596870511285,0.5413694970539005,A,501.5601000013703,Correct
11,211,101,B,50.957907877403656,42.29920617282517,2.547895393870183,0.664434376826138,B,803.3011000006809,Correct
11,211,102,A,58.22668454539554,67.97049474751866,2.911334227269777,1.0676780347983412,A,1117.5867000019934,Correct
11,211,103,A,57.37345799665839,67.66710261881599,2.8686728998329194,1.0629123623848948,A,1900.2192000007199,Correct
11,211,104,A,27.363133593632334,48.70637514025842,1.3681566796816167,0.765077951618122,A,753.4713999993983,Correct
11,211,105,A,37.64092584495721,66.70442779480355,1.8820462922478607,1.047790701610328,A,711.8335999984993,Correct
11,211,106,A,51.13700398818277,63.016561394777185,2.5568501994091384,0.9898618316616108,A,3117.3684999994293,Correct
11,211,107,B,37.96833144396834,23.57277540332672,1.898416572198417,0.370280290159067,B,566.7556000007608,Correct
11,211,108,A,29.169647299052695,62.433604780716244,1.4584823649526348,0.9807047705811338,A,778.1202000005578,Correct
11,211,109,B,72.13840563005333,58.06203466944453,3.6069202815026666,0.912036307850014,B,749.6939999982715,Correct
11,211,110,A,66.37906392520395,89.78672590008364,3.3189531962601975,1.410366592387916,A,654.834100001608,Correct
11,211,111,B,38.873784227317216,23.19364675357951,1.943689211365861,0.3643249512550107,B,520.4859000004944,Correct
11,211,112,B,48.88670771574115,39.29297378944738,2.4443353857870576,0.6172125889731209,B,614.0230000019073,Correct
11,211,113,B,39.908914909529344,26.087950495828622,1.9954457454764674,0.409788568124547,B,458.71559999795863,Correct
11,211,114,B,84.67662556895813,66.53692689642975,4.233831278447906,1.045159603651324,B,538.4639000003517,Correct
11,211,115,B,86.82100617474481,60.907656360475855,4.34105030873724,0.9567352288472128,B,465.1287000015145,Correct
11,211,116,B,75.09028929981186,49.61537988516669,3.7545144649905926,0.7793565647615324,B,464.5352000006824,Correct
11,211,117,A,15.4638776254086,35.93722042795892,0.77319388127043,0.5645005384345639,A,521.4502999988326,Correct
11,211,118,A,57.80275764061457,68.14780449713066,2.8901378820307286,1.070463209832296,B,4411.931399998139,Incorrect
11,211,119,B,74.69229083159892,58.012243697243036,3.7346145415799463,0.9112541930875976,B,590.4450000016368,Correct
11,211,120,A,50.63260640290038,60.77214492440888,2.5316303201450188,0.9546066201870858,A,665.763800003333,Correct
11,211,121,B,77.82257607725964,54.075504848915195,3.891128803862982,0.849416043862556,B,688.095899997279,Correct
11,211,122,A,38.52615574347838,71.15485093383052,1.9263077871739187,1.1176977848049938,A,849.0007000000332,Correct
11,211,123,B,47.15900989699749,21.466245419105455,2.357950494849874,0.3371909945440862,B,668.0252000005567,Correct
11,211,124,B,82.26870864199321,68.51727347771643,4.113435432099661,1.0762668150079835,B,469.9908000002324,Correct
11,211,125,B,55.0945195525213,47.26246984642287,2.7547259776260646,0.7423971403001559,B,836.0511000028055,Correct
11,211,126,B,39.20792725685532,12.52132804385188,1.960396362842766,0.1966845609787646,B,526.8663999995624,Correct
11,211,127,B,40.08261477221991,28.73241738133253,2.004130738610996,0.4513277568253498,B,542.8516000029049,Correct
11,211,128,A,52.738617703178484,66.44735284309935,2.6369308851589244,1.0437525777118488,A,2673.324799998227,Correct
11,211,129,A,65.054327412665,78.61843036346312,3.25271637063325,1.2349354163330823,A,721.1266999984218,Correct
11,211,130,A,40.55828299630479,50.59405795316522,2.0279141498152398,0.7947296039048004,A,1817.6758000008704,Correct
11,211,131,B,69.78516110866701,36.717981026399116,3.4892580554333508,0.5767646972359244,B,554.4947999987926,Correct
11,211,132,B,58.879466844076475,40.246794066144965,2.943973342203824,0.6321951628437115,A,2125.315799999953,Incorrect
11,211,133,B,64.35654175327224,53.049694214277906,3.217827087663612,0.8333026480938022,B,675.4131999987294,Correct
11,211,134,A,44.69898781635723,56.04463134633579,2.2349493908178615,0.8803470105539838,A,952.117000000726,Correct
11,211,135,A,62.04002900509255,71.85556517051147,3.1020014502546274,1.1287045782961072,A,762.3294000004535,Correct
11,211,136,B,40.68268997141715,29.562834915037804,2.0341344985708574,0.46437192494185303,B,512.9548000004434,Correct
11,211,137,A,43.00493103756935,61.16386167849191,2.1502465518784675,0.9607596925716624,A,737.5461000010546,Correct
11,211,138,B,61.221556592931535,49.093108911319504,3.0610778296465764,0.7711527514884248,B,1368.4613000004902,Correct
11,211,139,B,46.46891426534792,28.585033017912163,2.323445713267396,0.4490126486584727,B,983.3814999983588,Correct
11,211,140,A,55.75215209201842,70.54671650162786,2.7876076046009213,1.1081452314819795,A,2391.396499999246,Correct
11,211,141,A,53.2067248457764,74.87405819211443,2.6603362422888197,1.1761189558040068,A,551.6902999988815,Correct
11,211,142,B,38.975891211826124,18.467558437043923,1.9487945605913064,0.29008772957778695,B,540.9255999984453,Correct
11,211,143,B,53.1179467201607,44.72346623047174,2.655897336008035,0.7025145647636062,B,1180.0984000001336,Correct
11,211,144,A,16.459963618900098,34.27884857895093,0.822998180945005,0.5384508943457458,A,544.035700000677,Correct
11,211,145,B,66.83699166947903,52.4317418361815,3.341849583473952,0.8235958748373221,B,1469.562299997051,Correct
11,211,146,B,51.46877234022017,27.753340448896793,2.573438617011009,0.4359484523341531,B,573.8464999994903,Correct
11,211,147,A,47.79599314861833,58.29303193938441,2.3897996574309164,0.9156648044812262,A,1213.9274999972258,Correct
11,211,148,A,60.83455492844359,73.13360609644874,3.041727746422179,1.1487799982156655,A,556.4931999979308,Correct
11,211,149,B,38.12312045214542,26.261892460824434,1.9061560226072711,0.41252084212145607,B,561.2067000001844,Correct
11,211,150,B,70.11194073535374,50.32029795704866,3.5055970367676874,0.7904293919415677,B,563.4329000022262,Correct
11,211,151,A,38.925568958353274,52.30824652226499,1.9462784479176636,0.8216560149825576,A,1176.149799997802,Correct
11,211,152,A,23.36181572833612,50.18914126116606,1.168090786416806,0.7883691873802984,A,467.2121999974479,Correct
11,211,153,B,58.94025954594008,37.318882108771746,2.947012977297004,0.5862036293655044,B,723.7998999989941,Correct
11,211,154,A,30.34477756238587,51.95489627897991,1.5172388781192936,0.8161056023403148,A,826.1404000004404,Correct
11,211,155,B,62.296391537902586,41.565301860997344,3.1148195768951292,0.6529062348537572,B,544.1544000022986,Correct
11,211,156,B,42.2623204003236,23.32311936050729,2.11311602001618,0.36635870220883787,B,500.08119999984046,Correct
11,211,157,B,71.9073097374677,47.400731879530284,3.595365486873385,0.7445689552375593,B,497.6174000003084,Correct
11,211,158,A,42.64365352019228,70.03795752876327,2.1321826760096143,1.1001536642239833,A,622.0252000020992,Correct
11,211,159,A,27.008186254907237,52.796931187909756,1.3504093127453618,0.8293322557601156,A,719.4572000007611,Correct
11,211,160,A,30.379190460791392,50.16388371500044,1.5189595230395696,0.7879724427728902,A,544.307199998002,Correct
11,211,161,B,87.2324000340963,59.14085145396869,4.361620001704815,0.9289823222741664,B,539.9042999997619,Correct
11,211,162,A,39.50441784562811,70.31026334226519,1.9752208922814054,1.1044310339401202,A,767.4650000008114,Correct
11,211,163,A,33.04659452364365,53.904753505920546,1.6523297261821823,0.8467338880388431,A,657.7268000000913,Correct
11,211,164,A,43.6003324365948,75.3049111902783,2.18001662182974,1.1828867788730508,A,586.2863999973342,Correct
11,211,165,A,57.328673340577964,83.28109480909545,2.866433667028898,1.3081763781758464,A,605.6304999983695,Correct
11,211,166,B,55.412484611043624,25.607405027369232,2.770624230552181,0.40224017755740754,B,709.0936000022339,Correct
11,211,167,A,26.907591922249466,51.55951838228162,1.3453795961124735,0.809895020862019,A,3485.358999998425,Correct
11,211,168,B,69.29412058110779,56.528246939182125,3.4647060290553897,0.8879436265222215,B,789.4194000000425,Correct
11,211,169,B,47.065787999993866,35.59640528083255,2.353289399999693,0.5591470266223423,B,628.5516000025382,Correct
11,211,170,A,26.163254118776727,46.21506225205406,1.3081627059388365,0.72594450028124,A,1070.8301000013307,Correct
11,211,171,A,58.50992574820442,77.49931871323284,2.925496287410221,1.2173564516385313,A,825.8268000026874,Correct
11,211,172,B,82.79413425014462,53.54575655318311,4.139706712507231,0.8410947770919378,B,512.2002999996766,Correct
11,211,173,A,23.868149446379626,55.31513498494462,1.1934074723189811,0.8688881085051489,A,509.7322000001441,Correct
11,211,174,A,65.3733844813666,76.3402698543153,3.26866922406833,1.1991501547368963,A,794.4473000025027,Correct
11,211,175,B,79.65692523816048,58.31801227925482,3.9828462619080245,0.9160571947423313,B,649.1300000016054,Correct
11,211,176,B,50.04235560928191,28.85077872804949,2.5021177804640957,0.4531869725119248,B,749.8092000023462,Correct
11,211,177,A,41.956726737598956,65.65772668177891,2.097836336879948,1.031349158974416,A,726.9185000004654,Correct
11,211,178,A,60.98832027366514,83.15156132942072,3.0494160136832567,1.3061416710351463,A,598.6415000006673,Correct
11,211,179,B,60.098963562393216,28.09888013530359,3.0049481781196605,0.44137617703584964,B,571.943499999179,Correct
11,211,180,B,64.47112001825327,36.21179754700227,3.2235560009126636,0.5688135857347161,B,645.86749999944,Correct
11,211,181,A,31.746468500502388,46.41085196744803,1.5873234250251194,0.7290199579388906,B,1778.6007000031532,Incorrect
11,211,182,B,72.65644197156742,52.0339341588059,3.632822098578371,0.817347126453398,B,737.4935000007099,Correct
11,211,183,B,55.816730512780424,24.69564547221501,2.790836525639021,0.38791829195584354,B,898.6484999986715,Correct
11,211,184,A,58.03427051130819,69.38164875632602,2.90171352556541,1.0898443901341062,A,2173.425299999508,Correct
11,211,185,B,68.78310959302169,50.192360860080775,3.439155479651084,0.7884197607217882,B,622.5244000015664,Correct
11,211,186,A,61.2349966930686,80.26147115528227,3.06174983465343,1.2607442407387193,A,481.04679999960354,Correct
11,211,187,B,41.12219257680762,30.985091985723074,2.056109628840381,0.4867126867657579,B,562.4325000026147,Correct
11,211,188,A,24.675497161962856,48.91673140230878,1.2337748580981427,0.768382220055592,A,1843.8157000018691,Correct
11,211,189,B,87.8863871285471,63.42487129814009,4.394319356427355,0.9962755486255751,B,528.515599999082,Correct
11,211,190,A,57.25335472120401,79.69471387729575,2.862667736060201,1.2518416382342645,A,541.267999997217,Correct
11,211,191,B,68.31621772974556,57.789106517727404,3.4158108864872783,0.9077491624680523,B,590.3897999996843,Correct
11,211,192,B,54.04597447028715,43.93783171128672,2.7022987235143576,0.690173846594215,B,1095.1998999989883,Correct
11,211,193,A,56.99926610361538,67.28305964045975,2.849963305180769,1.0568798293875614,A,1421.5700999993715,Correct
11,211,194,A,46.27299956058812,71.26004424036518,2.3136499780294058,1.1193501574000744,A,584.3730999986292,Correct
11,211,195,B,72.93281698435094,58.1827651827345,3.646640849217547,0.9139327383180935,B,778.563399999257,Correct
11,211,196,B,44.63428290722688,27.95581738252249,2.231714145361344,0.43912895257015244,B,647.0207999991544,Correct
11,211,197,B,33.22606018192161,21.387636503815138,1.6613030090960805,0.33595620859017267,B,577.4994999992487,Correct
11,211,198,A,15.625933887769172,44.64485511579139,0.7812966943884586,0.7012797442617545,A,668.7874999988708,Correct
11,211,199,A,42.58000245398584,74.95643711240224,2.129000122699292,1.1774129608579411,A,658.3441000002495,Correct
11,211,200,A,38.648014530472395,48.30016015742641,1.9324007265236196,0.7586971415889061,B,2365.947499998583,Incorrect
11,211,201,A,58.41929761067178,80.520311223763,2.920964880533589,1.264810091026688,A,833.5841999978584,Correct
11,211,202,A,30.205276347563718,60.29247053662997,1.5102638173781857,0.9470719125232788,A,567.3662000008335,Correct
11,211,203,A,33.80049613586868,44.561041925029194,1.690024806793434,0.6999632097398925,A,1612.3769999976503,Correct
11,211,204,B,31.567821263827717,14.77211693819963,1.5783910631913858,0.23203987025508654,B,588.1172999979754,Correct
11,211,205,A,17.338327898015297,34.06964743859963,0.8669163949007648,0.5351647705174946,A,913.9528999985487,Correct
11,211,206,A,19.026103157820657,40.934959789672256,0.9513051578910329,0.6430048447511397,A,589.8106999993615,Correct
11,211,207,B,67.05006453914423,56.31857337631216,3.3525032269572113,0.8846500818983999,B,943.448800000624,Correct
11,211,208,A,32.65561559595211,49.621258753068005,1.6327807797976055,0.7794489098025833,A,1168.568300003244,Correct
11,211,209,A,45.30196836683585,70.31209621254425,2.265098418341793,1.1044598245991386,A,658.5673000008683,Correct
11,211,210,B,65.90741968454722,33.91238987910535,3.295370984227361,0.532694574549351,B,711.5207999995619,Correct
11,211,211,B,85.93067071073574,64.35547483587112,4.296533535536787,1.0108934348132776,B,460.7761999977811,Correct
11,211,212,B,79.33067977495635,50.385289416489265,3.966533988747818,0.7914502753991911,B,515.7070999994176,Correct
11,211,213,A,23.51010674367862,39.07746812865598,1.175505337183931,0.6138274339693746,A,893.9315999996325,Correct
11,211,214,B,83.97797537096079,67.93902743848842,4.198898768548039,1.067183747463953,B,468.0152000000817,Correct
11,211,215,A,18.060027696595565,49.03629441900458,0.9030013848297783,0.7702603115300548,A,516.2834999973711,Correct
11,211,216,B,42.43721516517079,21.061302074064322,2.1218607582585394,0.33083015935457977,B,1496.1736000004748,Correct
11,211,217,A,47.56475680361786,77.72332245822817,2.378237840180893,1.2208750942368007,A,603.7741999971331,Correct
11,211,218,B,54.43585024978792,29.187104384660152,2.7217925124893956,0.45846996357203385,B,1044.375299999956,Correct
11,211,219,A,38.65473558971564,50.15235424004077,1.9327367794857822,0.7877913382037249,A,782.6028999988921,Correct
11,211,220,B,60.679339268126334,40.35405491727136,3.0339669634063164,0.6338800123532939,B,795.2640000003157,Correct
11,211,221,A,30.179584844277613,59.55912797882184,1.5089792422138806,0.935552594562405,A,600.0021999971068,Correct
11,211,222,A,20.1276814330356,34.602015826252256,1.00638407165178,0.5435271935957593,A,730.7596999999078,Correct
11,211,223,B,40.94642443839432,19.945729631418132,2.047321221919716,0.3133067884027573,B,902.629899999738,Correct
11,211,224,A,63.07078402880442,86.88941063600119,3.153539201440221,1.3648556706440411,A,736.3108999998076,Correct
11,211,225,A,51.27310694038164,75.17024316286742,2.5636553470190817,1.1807714184451132,A,789.8730000015348,Correct
11,211,226,A,19.78065268654543,48.909434899655764,0.9890326343272716,0.768267606859934,A,591.8063999997685,Correct
11,211,227,B,79.36881841681124,63.58452306404019,3.9684409208405618,0.9987833526999972,B,706.2794999983453,Correct
11,211,228,B,69.45798439850276,58.02199062928484,3.4728992199251376,0.9114072975380855,B,1215.298700000858,Correct
11,211,229,B,83.72311807409297,64.64890572470397,4.186155903704648,1.0155026364367454,B,508.81719999961206,Correct
11,211,230,A,49.53025230008289,57.530258555541074,2.476512615004145,0.9036831881860459,B,1339.7377000001143,Incorrect
11,211,231,B,43.26504120821879,21.67699711774241,2.1632520604109398,0.3405014744849334,B,471.6675000017858,Correct
11,211,232,B,45.65552112697056,24.6867464249606,2.282776056348528,0.3877785060484516,B,539.7981999994954,Correct
11,211,233,A,40.949099673334736,56.018767157176086,2.0474549836667366,0.8799407368207081,A,579.2394999989483,Correct
11,211,234,B,54.24726005468092,22.03529614254656,2.7123630027340457,0.3461296224054989,B,634.9653999968723,Correct
11,211,235,B,63.046782110601896,31.160355107294606,3.152339105530095,0.4894657134416296,B,557.760399999097,Correct
11,211,236,A,39.73449383635035,63.48262240336899,1.9867246918175174,0.9971827008651942,A,957.784599999286,Correct
11,211,237,A,54.338880363355806,82.19158461235386,2.71694401816779,1.291062392025374,A,663.446099999419,Correct
11,211,238,A,44.22737612995088,55.672358727101326,2.211368806497544,0.8744993659253856,A,1138.826299997163,Correct
11,211,239,A,31.721114549541298,64.1517653294214,1.586055727477065,1.0076935733686332,A,603.9156999977422,Correct
11,211,240,A,19.21489153132159,32.99861464351687,0.9607445765660796,0.518341026713566,A,622.6597000022593,Correct
11,211,241,B,53.532216457840065,41.452142196668206,2.676610822892003,0.6511287270030616,A,3245.838900002127,Incorrect
11,211,242,A,61.61179856267482,74.70968701649373,3.080589928133741,1.173537019415047,A,1458.874799998739,Correct
11,211,243,A,55.535553916819026,62.97044168911499,2.776777695840951,0.9891373850191404,A,789.1012999971281,Correct
11,211,244,B,37.168034307366526,27.174580256841395,1.8584017153683263,0.4268573084963958,B,705.7935999982874,Correct
11,211,245,B,38.91679336766377,15.028672738490716,1.9458396683831887,0.23606983934223816,B,494.76209999920684,Correct
11,211,246,B,50.978807147543776,19.866070841987014,2.5489403573771887,0.312055511064404,B,493.1327999984205,Correct
11,211,247,B,46.65254859426678,24.765272111146153,2.332627429713339,0.3890119846426447,B,451.17670000036014,Correct
11,211,248,A,39.028342357374925,59.43202482718479,1.9514171178687463,0.9335560629252495,A,2006.8515000020852,Correct
11,211,249,B,65.65238976847527,33.08361495874133,3.2826194884237636,0.5196762085428758,B,706.6978000002564,Correct
11,211,250,A,68.9356457370632,83.25270779701751,3.4467822868531597,1.3077304760328394,A,1086.5947000020242,Correct
11,211,251,A,61.901845020497205,81.38781722209691,3.09509225102486,1.2784368433832427,A,665.3471999998146,Correct
11,211,252,B,54.01069757366813,30.076684529832264,2.7005348786834067,0.4724434558162941,B,565.7959999989544,Correct
11,211,253,A,31.61066064547866,41.087711246646776,1.580533032273933,0.6454042590264212,A,2293.002099999285,Correct
11,211,254,A,46.521955593867,65.61757867165124,2.32609777969335,1.0307185155060492,A,799.2339999982505,Correct
11,211,255,A,30.360902132980186,61.99620539957475,1.5180451066490093,0.9738341171687394,A,1060.4864999986603,Correct
11,211,256,B,35.27034653736349,12.01510892893463,1.7635173268681743,0.18873288971611082,B,598.151099999086,Correct
11,211,257,B,34.635784228298775,18.78125346399781,1.7317892114149387,0.2950152395385169,B,506.0210999981791,Correct
11,211,258,A,48.38442745533211,79.68472081183097,2.4192213727666054,1.2516846675290094,A,786.0491999999795,Correct
11,211,259,A,17.990101286923625,33.852291386693516,0.8995050643461812,0.5317505496380869,A,598.4667999982776,Correct
11,211,260,B,69.9443698475534,46.80023338698816,3.49721849237767,0.7351363469742489,B,712.4340000009397,Correct
11,211,261,B,80.00334279953209,57.61364419721619,4.000167139976605,0.904993006782553,B,788.0101000009745,Correct
11,211,262,A,54.58613216736926,77.19470398336682,2.729306608368463,1.2125715746509198,A,652.3071000010532,Correct
11,211,263,A,55.07696194392681,81.85526002890518,2.753848097196341,1.2857794178224535,A,504.70810000115307,Correct
11,211,264,A,18.79471705676813,43.738734932685446,0.9397358528384063,0.6870464417091792,A,565.1666000012483,Correct
11,211,265,A,40.139771165098296,52.47209242582202,2.006988558254915,0.8242297004172354,A,517.4850000003062,Correct
11,211,266,A,53.70639708213239,64.11213194705611,2.6853198541066194,1.0070710136542547,A,543.407400000433,Correct
11,211,267,A,52.42519917120311,68.75234399169162,2.6212599585601555,1.0799592940068836,A,510.0416999994195,Correct
11,211,268,B,54.17658108757575,24.139180984940754,2.7088290543787874,0.37917736822982157,B,852.6797000013175,Correct
11,211,269,A,38.34777283679684,50.969934442769166,1.9173886418398423,0.8006338579967849,A,2163.8638000003994,Correct
11,211,270,A,36.255473743991175,67.0372112004045,1.8127736871995586,1.0530180511216907,A,627.3660000006203,Correct
11,211,271,A,64.14859965497521,77.0749409435191,3.207429982748761,1.2106903412201337,A,648.8988000019162,Correct
11,211,272,A,50.3648838071691,74.35794300358256,2.518244190358455,1.1680118373805177,A,497.45400000028894,Correct
11,211,273,A,21.773679837820854,50.05928391123872,1.0886839918910427,0.7863293928975665,A,461.0455000001821,Correct
11,211,274,B,50.20039482916179,24.00710756481859,2.5100197414580894,0.37710276379787017,B,598.9819999995234,Correct
11,211,275,A,28.29005048451811,61.13038974286533,1.4145025242259055,0.9602339166363328,A,692.8231999991112,Correct
11,211,276,B,39.22589498125651,25.130095314042194,1.9612947490628256,0.39474261411303113,B,594.0451000024041,Correct
11,211,277,A,48.62028821685852,70.85511039449364,2.4310144108429257,1.1129894714231752,A,647.6032999999006,Correct
11,211,278,B,86.63031789180451,61.944591040202646,4.3315158945902255,0.9730233607076237,B,522.9298000012932,Correct
11,211,279,A,35.905968879508485,49.86323414688346,1.7952984439754243,0.783249850400384,A,2205.6972999998834,Correct
11,211,280,A,23.49922140050962,35.741013348010824,1.174961070025481,0.5614185248298276,A,1601.6029999991588,Correct
11,211,281,A,69.55556267086732,87.82082886264641,3.4777781335433655,1.3794863539352822,A,1036.6271999992023,Correct
11,211,282,B,58.558160055116765,50.048583117526796,2.927908002755838,0.7861613052230018,B,620.1067000001785,Correct
11,211,283,A,59.56704694528655,74.55953696392083,2.9783523472643276,1.1711784679045516,A,1643.3130000004894,Correct
11,211,284,B,43.00747583040487,34.942474083145,2.1503737915202437,0.5488750993893005,A,1907.8912000004493,Incorrect
11,211,285,B,74.09646282600589,49.69267680073787,3.7048231413002948,0.7805707418720502,B,954.7784000023967,Correct
11,211,286,A,15.322269872475825,43.705601929418506,0.7661134936237913,0.6865259897109053,A,542.9603000011411,Correct
11,211,287,B,74.66749794959166,47.77513760741046,3.7333748974795835,0.7504501066584107,B,737.4172000018007,Correct
11,211,288,B,61.65288621323347,34.57911152043909,3.082644310661674,0.5431674136013681,B,570.8311000016693,Correct
11,211,289,A,21.59939768499777,42.1521472372223,1.0799698842498884,0.6621243804674645,A,677.633600000263,Correct
11,211,290,B,42.367327818324995,32.7763763766736,2.11836639091625,0.5148501161812592,A,649.7925000003306,Incorrect
11,211,291,A,34.73490609792301,56.99506338583295,1.7367453048961505,0.895276362119087,A,642.9167000023881,Correct
11,211,292,A,45.38390096411401,61.19388013404923,2.2691950482057006,0.9612312213689174,A,1146.103300001414,Correct
11,211,293,B,46.77821558838346,29.954378738881562,2.338910779419173,0.47052228094458304,B,583.3214000012958,Correct
11,211,294,A,19.806887762701667,49.63586971291579,0.9903443881350833,0.779678418223182,A,505.847199998243,Correct
11,211,295,B,53.618223968439594,25.278198582935367,2.6809111984219793,0.39706901482066836,B,702.8452000013203,Correct
11,211,296,B,64.92426850780168,51.98002673164183,3.246213425390084,0.8165003505676351,B,1520.1988000007987,Correct
11,211,297,B,72.80060218863281,52.539243055487425,3.6400301094316405,0.8252845000414393,B,1347.0180000003893,Correct
11,211,298,B,33.62747496044864,14.151339782784387,1.6813737480224318,0.22228872550024203,B,752.825200001098,Correct
11,211,299,B,70.4294734631651,53.44995119011289,3.5214736731582548,0.8395898699679584,B,520.5710000009276,Correct
11,211,300,A,55.03093220875568,79.81845828267056,2.7515466104377837,1.2537854108085063,A,560.574800001632,Correct
11,211,301,B,51.28924927305455,39.54120844531407,2.5644624636527276,0.6211118498293068,B,614.1399000007368,Correct
11,211,302,B,63.9153412503676,37.82174418392131,3.19576706251838,0.5941025683707983,B,614.7281000012299,Correct
11,211,303,B,58.012697012169816,29.2205953381132,2.900634850608491,0.4589960382386829,B,443.1494999989809,Correct
11,211,304,A,34.941221193464855,68.16319033748857,1.7470610596732428,1.0707048900474843,A,629.0674000010767,Correct
11,211,305,A,39.17012529207137,52.77346484581207,1.9585062646035682,0.8289636473204121,A,595.7090999982029,Correct
11,211,306,B,50.50384205702905,28.770806649697086,2.5251921028514523,0.4519307740427036,B,756.8539999992936,Correct
11,211,307,B,47.953636962102834,23.507640521227867,2.397681848105142,0.3692571538235961,B,533.121200001915,Correct
11,211,308,A,12.13881032788068,33.51118329961096,0.606940516394034,0.5263924363357938,A,599.3466999971133,Correct
11,211,309,B,60.95733881847391,49.75856908674382,3.0478669409236954,0.7816057754802728,B,2447.5816000012856,Correct
11,211,310,B,40.973216612828026,17.225864998090355,2.0486608306414014,0.2705832546486511,B,586.1495999997715,Correct
11,211,311,A,36.35975149037386,55.782554848182855,1.817987574518693,0.8762303225476048,A,1188.0959999980405,Correct
11,211,312,B,48.39665641770054,31.024708322207864,2.419832820885027,0.4873349787240718,B,623.4163000008266,Correct
11,211,313,B,48.142973355275615,29.266190529580193,2.4071486677637806,0.45971224583144155,B,446.61940000150935,Correct
11,211,314,A,25.95853397223945,51.72460325631015,1.2979266986119726,0.8124881679993532,A,661.2506999990728,Correct
11,211,315,A,58.939869986203774,72.5915763628458,2.946993499310189,1.1402658150700942,A,1190.0691000009829,Correct
11,211,316,A,57.81040037955645,68.27895508720329,2.8905200189778224,1.0725233184837264,A,537.4197999990429,Correct
11,211,317,A,63.06767088648681,75.49893728822899,3.15338354432434,1.1859345336926834,A,483.8935000007041,Correct
11,211,318,B,69.52938882596138,38.39355605515298,3.476469441298069,0.6030845682402826,B,488.60140000033425,Correct
11,211,319,A,27.788501731876572,58.28497722546191,1.3894250865938287,0.9155382813307977,A,833.4826999998768,Correct
11,211,320,A,34.5656955892229,59.29751798992159,1.7282847794611451,0.9314432344662312,A,521.4753000000201,Correct
11,211,321,B,65.00324524719463,44.88816708239956,3.2501622623597313,0.7051016796958882,B,829.0965999985929,Correct
11,211,322,B,41.942774225087966,26.244425022759707,2.097138711254398,0.41224646424595013,B,593.2358999998542,Correct
11,211,323,B,65.70951056661366,51.44398334206393,3.2854755283306827,0.8080802006941187,B,800.1562999997986,Correct
11,211,324,B,82.10180391442896,57.14016380273698,4.105090195721448,0.8975555941379796,B,540.8380000008037,Correct
11,211,325,A,43.480664561173064,54.75152208284426,2.174033228058653,0.8600348977416143,B,706.9262999975763,Incorrect
11,211,326,A,40.42069229022787,49.29476722285314,2.0210346145113935,0.7743203928386717,A,692.6359999997658,Correct
11,211,327,B,53.48383676532481,42.40152913017436,2.6741918382662404,0.666041662081647,B,775.6826000004367,Correct
11,211,328,A,36.58335811162733,49.09281880841919,1.8291679055813663,0.7711481945627228,A,854.3231000003289,Correct
11,211,329,A,45.21827441133906,62.39918263604622,2.2609137205669527,0.9801640687970529,A,588.6695000008331,Correct
11,211,330,A,43.859906230394785,72.36911571070343,2.192995311519739,1.136771411317678,A,523.8580000004731,Correct
11,211,331,A,41.22998870046682,67.19216644163527,2.0614994350233413,1.0554520823591198,A,587.028800000553,Correct
11,211,332,B,53.219903318957684,37.532914890235396,2.6609951659478845,0.5895656484348724,B,577.4061999982223,Correct
11,211,333,B,78.9720265647902,61.0104858380291,3.9486013282395103,0.9583504705034815,B,565.3161000009277,Correct
11,211,334,A,15.364566807616104,32.65446231098356,0.7682283403808051,0.5129350945155536,A,541.0351999998966,Correct
11,211,335,B,69.59453656238287,53.258579923778676,3.4797268281191434,0.8365838171458397,B,640.0537000008626,Correct
11,211,336,A,64.44730736228209,76.18677432437312,3.222365368114105,1.1967390525907702,A,685.6078000018897,Correct
11,211,337,A,57.07431742168443,76.12428450056709,2.8537158710842214,1.1957574647338045,A,1017.2044999999343,Correct
11,211,338,B,60.41974489716319,30.128404857074877,3.02098724485816,0.4732558768168274,B,665.4845000011846,Correct
11,211,339,B,57.594321243815514,39.19986475697797,2.8797160621907754,0.6157500357111771,B,1127.307099999598,Correct
11,211,340,A,17.075932435717714,44.29462310980659,0.8537966217858858,0.6957783127764852,A,1028.8438999996288,Correct
11,211,341,A,28.510897779928413,57.228484727316626,1.4255448889964208,0.8989429359770679,A,1006.4958999973896,Correct
11,211,342,B,83.64781811037491,57.5007882008823,4.182390905518746,0.9032202689375725,B,1101.1814999983471,Correct
11,211,343,B,45.69301334425643,32.14088042576161,2.2846506672128215,0.5048677691274032,B,609.3418000018573,Correct
11,211,344,B,76.1353453704933,46.56748831259885,3.8067672685246645,0.7314803958949453,B,554.9788999996963,Correct
11,211,345,A,62.9663007887019,78.38645375049649,3.1483150394350954,1.2312915362175791,A,745.0563999991573,Correct
11,211,346,A,58.2311790708345,76.63825250999415,2.911558953541725,1.2038308553467856,A,631.7000000017288,Correct
11,211,347,A,38.16862545155506,51.407177219606055,1.9084312725777528,0.8075020514745148,A,849.1208999985247,Correct
11,211,348,A,28.97170594872386,53.0463899037034,1.448585297436193,0.833250744104672,A,765.5419999973674,Correct
11,211,349,A,39.31037472959144,57.544472729730664,1.9655187364795719,0.9039064639121002,A,947.8947999996308,Correct
11,211,350,B,82.93708479153796,62.45133705196683,4.146854239576897,0.9809833084465952,B,617.7154000033624,Correct
11,211,351,A,38.7656021564408,52.77079524668203,1.93828010782204,0.828921713355337,A,2469.343500000832,Correct
11,211,352,A,58.47931406419,73.2699537898165,2.9239657032095,1.1509217427747556,B,1431.836600000679,Incorrect
11,211,353,B,51.60101474947651,26.72584066335769,2.5800507374738255,0.41980852344507946,B,688.6488999989524,Correct
11,211,354,A,39.75476589042689,54.78697648329973,1.9877382945213444,0.8605918141616561,A,667.1680999970704,Correct
11,211,355,B,59.67096802267379,40.604198075316894,2.9835484011336892,0.6378092518916019,B,1302.2109999983513,Correct
11,211,356,A,22.999468304792988,55.22655257820986,1.1499734152396492,0.8674966593139727,A,883.7776000000304,Correct
11,211,357,A,58.73729095449683,77.9063209528327,2.9368645477248414,1.223749627868139,A,609.8429000012402,Correct
11,211,358,A,64.14911720415776,88.0491645737126,3.207455860207888,1.383073042897471,A,490.6643000031181,Correct
11,211,359,A,25.75169557735605,44.39598847013828,1.2875847788678023,0.6973705561332179,A,544.7988999985682,Correct
11,211,360,A,21.97389034252427,41.01635562530165,1.0986945171262135,0.6442834075473702,A,504.5137999986764,Correct
11,211,361,A,17.558011859974595,46.71820048949793,0.8779005929987298,0.7338477772337088,A,568.8178999989759,Correct
11,211,362,A,68.59731571889351,84.01647136122834,3.429865785944676,1.319727646044861,A,772.422900001402,Correct
11,211,363,B,62.23956036760998,46.20838087454305,3.1119780183804995,0.7258395494487178,B,782.3879000025045,Correct
11,211,364,B,48.49264627827965,37.01280584480431,2.4246323139139827,0.5813957946539128,B,717.2946999999112,Correct
11,211,365,B,71.452996751665,57.498116266078455,3.57264983758325,0.9031782982838191,B,1884.1595000012603,Correct
11,211,366,B,71.1582842511461,50.003002710581555,3.557914212557305,0.7854453298649676,B,571.0823999979766,Correct
11,211,367,B,82.24249877903127,67.8941012622288,4.112124938951563,1.0664780487374976,B,1836.7933000008634,Correct
11,211,368,A,45.663282230829026,53.612393808039116,2.2831641115414514,0.842141512643493,B,1537.767800000438,Incorrect
11,211,369,A,28.49016764506515,40.9545985985628,1.4245083822532576,0.6433133304398185,A,688.6680999996315,Correct
11,211,370,A,55.33212078633254,67.69058418511797,2.766606039316627,1.0632812099658402,A,667.9938999986916,Correct
11,211,371,B,65.64314097291106,44.069979617161096,3.2821570486455527,0.6922496210456262,B,1415.0786000027438,Correct
11,211,372,A,54.408721488820106,81.14385780879658,2.720436074441005,1.2746047378802505,A,623.612300001696,Correct
11,211,373,A,63.731613974818245,88.98814449215504,3.186580698740912,1.3978225049657065,A,680.443600002036,Correct
11,211,374,A,19.796628500047788,41.30987152932703,0.9898314250023894,0.6488939445863598,A,585.3494000002684,Correct
11,211,375,B,54.24564067081195,23.582878826846088,2.7122820335405975,0.3704389943645897,B,647.388299999875,Correct
11,211,376,B,77.58080573119813,60.999209576010514,3.879040286559906,0.9581733433938939,B,1282.9921000011382,Correct
11,211,377,B,31.653143692746376,15.888525346280119,1.5826571846373187,0.24957637252124426,B,873.3852000004845,Correct
11,211,378,A,36.80425499878045,54.632494555455395,1.8402127499390224,0.8581652177135153,A,1085.8351999995648,Correct
11,211,379,B,74.36292259694852,55.16908158794958,3.718146129847426,0.8665939071099915,B,855.4699999986042,Correct
11,211,380,A,39.55480806803233,49.77264200354923,1.9777404034016166,0.7818268323405251,A,848.34039999987,Correct
11,211,381,B,80.61463133809168,56.25992555158088,4.030731566904584,0.8837288440217759,B,989.8853999984567,Correct
11,211,382,B,84.72035924909969,58.463567469331196,4.2360179624549845,0.9183435703215106,B,1542.7022999974724,Correct
11,211,383,A,38.88384854102148,70.58121069607832,1.944192427051074,1.1086870650213647,A,660.787499997241,Correct
11,211,384,B,79.57711564503562,48.63367664221455,3.978855782251781,0.7639360062812137,B,1172.266599998693,Correct
11,211,385,A,66.7930623047893,80.3107790267582,3.3396531152394653,1.261518766972684,A,1111.0521000009612,Correct
11,211,386,A,42.486942521544904,72.49173605560291,2.1243471260772453,1.1386975271912623,A,1006.2369999977818,Correct
11,211,387,B,85.93054788541033,68.94983356874283,4.296527394270516,1.083061453029007,B,704.2039999978442,Correct
11,211,388,B,79.33933109648858,67.30797858024302,3.9669665548244293,1.0572712551783532,B,815.349000000424,Correct
11,211,389,B,40.89784053113057,15.595168671469512,2.0448920265565285,0.24496833664891157,B,1004.3755999977293,Correct
11,211,390,A,24.776322070182054,48.5083125097394,1.2388161035091028,0.7619667910931758,A,2029.2184999998426,Correct
11,211,391,B,61.02139377599955,30.485975542923896,3.0510696887999775,0.47887258401583915,B,1137.893700000859,Correct
11,211,392,B,37.770841292314415,14.81995522668748,1.8885420646157207,0.23279131233345524,B,877.2146999981487,Correct
11,211,393,A,34.85102865555638,51.71461805455656,1.7425514327778189,0.8123313208169849,A,1776.8544999998994,Correct
11,211,394,A,55.64735659298088,81.6572139750815,2.7823678296490435,1.2826685176836292,A,586.2397999990208,Correct
11,211,395,B,44.09427327483483,18.32238747825679,2.204713663741742,0.2878073894895857,B,597.878500000661,Correct
11,211,396,B,44.32506086185404,23.075759801580766,2.216253043092702,0.36247318734324396,B,743.5075999965193,Correct
11,211,397,A,50.58299266613929,71.19547089789718,2.5291496333069645,1.1183358417084983,A,669.8822000034852,Correct
11,211,398,B,73.49045527682193,48.55632910569113,3.6745227638410967,0.7627210340186376,B,751.813899998524,Correct
11,211,399,B,66.11562272419832,41.061177324672876,3.305781136209916,0.6449874651547004,B,537.2005999997782,Correct
11,211,400,A,65.99864453785298,89.12375506652421,3.299932226892649,1.3999526708866428,A,641.5752000029897,Correct
11,211,401,B,59.18018662090001,37.936217584402876,2.9590093310450003,0.5959007123407201,B,700.859099997615,Correct
11,211,402,B,48.37785163612676,27.621638788877313,2.4188925818063383,0.4338796874962392,B,521.3156999998318,Correct
11,211,403,A,35.8772288980291,48.31115769415039,1.7938614449014552,0.7588698904918044,A,2287.928199999442,Correct
11,211,404,A,56.30685492433737,71.29474920599081,2.8153427462168685,1.1198953017253372,A,637.4627000004693,Correct
11,211,405,B,83.17539123873175,56.17409381559339,4.158769561936587,0.8823806022656603,B,896.5109999990091,Correct
11,211,406,A,38.85895552001755,69.84592984351424,1.9429477760008778,1.097137300397662,A,662.293999997928,Correct
11,211,407,A,19.528364126326853,46.54425101308952,0.9764182063163426,0.7311153852478066,A,537.909499998932,Correct
11,211,408,B,48.289993399662315,21.70168609714007,2.414499669983116,0.3408892880664349,B,748.4464999979537,Correct
11,211,409,A,34.6161264068059,48.88409452402158,1.730806320340295,0.7678695611702762,A,651.0705000000598,Correct
11,211,410,B,84.81749111216119,67.43753438855087,4.24087455560806,1.0593063130564024,B,625.381699999707,Correct
11,211,411,A,14.506252592178928,35.64561299851954,0.7253126296089464,0.5599199796442692,A,534.6972000006645,Correct
11,211,412,A,41.8673168374436,69.11195660411438,2.0933658418721803,1.0856080757135116,A,573.5964999985299,Correct
11,211,413,A,28.632192245662132,58.57953355629843,1.4316096122831068,0.9201651613559194,A,745.7792999994126,Correct
11,211,414,B,62.37730650958605,54.991974987730664,3.1188653254793026,0.8638119231392415,B,563.6737000022549,Correct
11,211,415,A,39.385919726808815,70.47466762020879,1.969295986340441,1.1070134902991522,A,725.1031999985571,Correct
11,211,416,A,38.06955015729167,61.303052565351024,1.9034775078645836,0.9629460979096784,A,689.5240000012564,Correct
11,211,417,B,79.08899130729746,66.46360464016125,3.9544495653648735,1.0440078603431353,B,626.1233000004722,Correct
11,211,418,B,56.26133765970257,45.99024615800571,2.813066882985128,0.7224130973338846,B,672.7128999991692,Correct
11,211,419,B,83.56329494400887,69.06459757304009,4.1781647472004435,1.084864161792991,B,528.7223999985144,Correct
11,211,420,A,15.781857257067532,41.31239065643618,0.7890928628533765,0.6489335149424575,A,519.3713000007847,Correct
11,211,421,B,67.54712772042447,36.22800429675624,3.3773563860212232,0.5690681607645444,B,601.8715999998676,Correct
11,211,422,A,27.382949960314427,42.94995098383665,1.3691474980157212,0.6746562524143146,A,1369.8770000009972,Correct
11,211,423,B,60.39914181528173,28.983958431414173,3.0199570907640867,0.45527895440041355,B,808.5253999997803,Correct
11,211,424,B,72.31379428330992,61.361917315110546,3.615689714165496,0.963870743236678,B,958.6036000000604,Correct
11,211,425,A,18.64375921860561,42.220097590372404,0.9321879609302804,0.6631917421187903,A,638.6332999973092,Correct
11,211,426,B,36.1090513769858,14.226868703813366,1.8054525688492902,0.2234751310174331,B,1060.4444999989937,Correct
11,211,427,A,10.135785883880349,32.91746768764598,0.5067892941940174,0.5170663733114401,A,611.3962999988871,Correct
11,211,428,B,49.80388891222135,41.82576807075742,2.4901944456110674,0.6569976285092103,B,1549.2991999999504,Correct
11,211,429,A,43.729189996102996,54.16355191167801,2.18645949980515,0.8507990838902851,A,4059.959300000628,Correct
11,211,430,B,70.41867075782649,43.58117976392075,3.5209335378913242,0.684571570905548,B,1069.1052000001946,Correct
11,211,431,B,63.35775523059743,45.834863919566075,3.167887761529871,0.7199723588399831,B,480.104800000845,Correct
11,211,432,B,87.95407320531523,64.19762880741709,4.397703660265761,1.00841399519633,B,494.5012999996834,Correct
11,211,433,B,80.43758368108001,51.50697765285525,4.021879184054001,0.8090697130141185,B,834.1102999984287,Correct
11,211,434,A,53.02865887804753,72.40579287033253,2.6514329439023765,1.1373475347939044,A,1425.2826999982062,Correct
11,211,435,A,23.723906694434195,53.91122670983229,1.1861953347217098,0.8468355688881146,A,524.9123000030522,Correct
11,211,436,B,42.92720639795128,17.070039846510156,2.146360319897564,0.2681355588914067,B,555.5443000012019,Correct
11,211,437,A,56.587071100403776,72.53898438385575,2.8293535550201887,1.1394397021959297,A,957.2119000004022,Correct
11,211,438,A,19.924363676520578,37.03830973125564,0.996218183826029,0.5817964087654803,A,622.8750999980548,Correct
11,211,439,A,64.72118908325106,89.58583872278028,3.236059454162553,1.4072110639858328,A,763.6125000026368,Correct
11,211,440,A,21.348292892539977,45.35728778622544,1.0674146446269988,0.7124706104798194,A,770.5081999993126,Correct
11,211,441,A,19.093707154225896,49.787265930006704,0.9546853577112948,0.7820565444401523,A,495.7758000018657,Correct
11,211,442,A,66.7675538426492,78.47639876652426,3.33837769213246,1.2327043892254785,A,3396.465399997396,Correct
11,211,443,B,60.015875756506915,50.19695826867758,3.000793787825346,0.7884919766471543,B,1978.8410999972257,Correct
11,211,444,A,32.178839407827574,64.84564967842515,1.6089419703913788,1.018593083234989,A,1710.1981999985583,Correct
11,211,445,B,38.79518197885707,12.454914752683404,1.9397590989428537,0.19564134344058662,B,624.9688999996579,Correct
11,211,446,B,76.26941562877597,64.55793585276768,3.8134707814387987,1.0140736850298804,B,1027.1752000007837,Correct
11,211,447,B,42.05939540026442,32.79573661975719,2.102969770013221,0.5151542261684747,B,1516.8326999992132,Correct
11,211,448,B,65.85069896055072,49.41564312534314,3.292534948027536,0.7762191070749648,B,1399.895700000343,Correct
11,211,449,A,50.39215250205182,59.20522739578998,2.519607625102591,0.9299935372036349,A,1970.4411000020627,Correct
11,211,450,B,83.58030556400638,55.43926462463969,4.179015278200319,0.8708379323259426,B,684.6575000017765,Correct
11,211,451,B,53.94172302499529,44.13234349120241,2.697086151249765,0.6932292304883141,B,947.8698000020813,Correct
11,211,452,B,46.92044073543633,25.186470566212762,2.3460220367718163,0.3956281545033478,B,571.282799999608,Correct
11,211,453,B,80.91439994575451,50.296986912457115,4.045719997287725,0.7900632229093861,B,569.3879999998899,Correct
11,211,454,B,79.45794146741835,62.87606154362296,3.9728970733709175,0.9876548651605279,B,1396.170500000153,Correct
11,211,455,B,71.90903445180783,44.229884579493145,3.5954517225903913,0.6947614023203007,B,533.0262999996194,Correct
11,211,456,A,43.80331976299017,74.83266853772878,2.1901659881495084,1.1754688086332439,A,639.2207000026247,Correct
11,211,457,A,47.112737992961144,55.934239190576584,2.355636899648057,0.8786129746262484,B,1222.123700001248,Incorrect
11,211,458,A,54.443594010462355,67.3745633222254,2.722179700523118,1.058317165859618,A,657.4916999998095,Correct
11,211,459,B,66.88832423332664,45.12703909754032,3.3444162116663323,0.7088538725354602,B,689.7817999997642,Correct
11,211,460,B,65.88455606284437,47.862210422313375,3.2942278031422183,0.7518178432365427,B,450.8982000006654,Correct
11,211,461,A,26.46399864617438,54.19145768720013,1.3231999323087191,0.8512374267871503,A,659.7478000003321,Correct
11,211,462,A,39.499766316050746,54.64351864389188,1.9749883158025372,0.8583383836897381,A,620.0209000016912,Correct
11,211,463,A,27.932451162681147,51.624127807776475,1.3966225581340574,0.8109099033444556,A,506.63900000290596,Correct
11,211,464,B,53.85037740566573,44.653509781279645,2.6925188702832865,0.7014156914293405,B,733.7236000021221,Correct
11,211,465,B,41.523825498678335,26.778149906984403,2.0761912749339166,0.42063019512254207,B,719.3692000000738,Correct
11,211,466,A,11.791557617780494,31.437077676915482,0.5895778808890247,0.49381246140064683,A,592.2497999999905,Correct
11,211,467,B,78.40238591495863,66.4347912106198,3.9201192957479316,1.0435552600502747,B,500.38000000131433,Correct
11,211,468,B,89.74104152921349,67.73608472188509,4.4870520764606745,1.0639959307260503,B,522.4443000006431,Correct
11,211,469,A,38.32634914181523,49.649624896584406,1.9163174570907615,0.7798944841429922,A,3075.0496000000567,Correct
11,211,470,B,51.862512139929464,45.23265389456959,2.5931256069964728,0.7105128658877479,B,3924.1610999997647,Correct
11,211,471,A,57.51125658279764,82.7771268739421,2.875562829139882,1.3002600683622334,A,596.2110000000393,Correct
11,211,472,B,40.946830192504976,17.69885049087459,2.047341509625249,0.27801289339557855,B,563.3885000024748,Correct
11,211,473,A,37.46618633576463,56.21711093592213,1.8733093167882315,0.8830563136116769,A,814.719399997557,Correct
11,211,474,B,76.5440388743337,45.52495301493639,3.827201943716685,0.7151042897337234,B,505.48999999955413,Correct
11,211,475,B,79.34583969963143,66.74920591751645,3.9672919849815713,1.04849407471711,B,460.232299999916,Correct
11,211,476,B,48.22408395355056,36.692742311302695,2.4112041976775282,0.5763682484262594,B,581.0999000023003,Correct
11,211,477,A,17.44068517472652,41.192165786133856,0.8720342587363261,0.6470450270958547,A,500.01909999991767,Correct
11,211,478,A,12.334428899492863,32.544329800400206,0.6167214449746432,0.5112051370847033,A,482.0982000019285,Correct
11,211,479,B,70.75546202763203,57.95539529305141,3.5377731013816014,0.910361220442714,B,565.4399000013655,Correct
11,211,480,A,44.292479731922164,60.383829006696274,2.214623986596108,0.9485069680152964,A,1071.6702999998233,Correct
11,211,481,A,19.86361903651933,40.58153969834083,0.9931809518259667,0.6374533349383507,A,652.3536000022432,Correct
11,211,482,A,31.61019968026462,62.30554246285661,1.580509984013231,0.978693172396186,A,659.8320999983116,Correct
11,211,483,B,65.82853934618743,51.81718012270828,3.2914269673093712,0.8139423620161969,B,726.3261999978567,Correct
11,211,484,B,35.776890628362985,19.838786424457368,1.7888445314181494,0.31162692843606093,B,651.8735000026936,Correct
11,211,485,A,38.72793620065617,65.68655277616719,1.9363968100328082,1.0318019582062254,A,678.375600000436,Correct
11,211,486,B,77.50996097215139,48.738486893389606,3.8754980486075694,0.765582361856776,B,663.2299999982934,Correct
11,211,487,A,53.264809539182195,77.04855655670929,2.6632404769591096,1.210275896241278,A,989.0045000029204,Correct
11,211,488,A,40.836186971235044,72.63931945697357,2.041809348561752,1.1410157618389514,A,2720.336899998074,Correct
11,211,489,B,61.43113762547344,40.98204377739313,3.0715568812736715,0.6437444383007678,B,649.4769000019005,Correct
11,211,490,B,62.37482783114034,53.37787224645392,3.118741391557017,0.8384576565685707,B,2777.8342999990855,Correct
11,211,491,B,70.3203004721714,37.503100985394944,3.51601502360857,0.5890973327127644,B,4795.158900000388,Correct
11,211,492,B,88.45529333716449,65.98653618562209,4.422764666858225,1.036514086582937,B,520.2016000002914,Correct
11,211,493,A,57.5658046309765,81.46421158554482,2.8782902315488252,1.2796368432381604,A,643.2414000009885,Correct
11,211,494,A,35.66653938313668,67.12259478085862,1.783326969156834,1.0543592532671502,A,703.389900001639,Correct
11,211,495,B,65.92727483503594,50.68970336841602,3.2963637417517977,0.7962319985743077,B,585.3250000000116,Correct
11,211,496,A,45.086758965044375,65.97598141957002,2.2543379482522186,1.0363482927054894,A,829.4734000010067,Correct
11,211,497,A,23.870881760405055,51.626648088344965,1.1935440880202528,0.8109494918190503,A,556.6893999966851,Correct
11,211,498,A,62.05554267932719,76.61271413822064,3.1027771339663595,1.203429699541044,A,523.8650999999663,Correct
11,211,499,A,12.564512172658798,40.45513003518339,0.6282256086329399,0.6354676965927596,A,488.8238999992609,Correct
11,211,500,B,52.12320249875127,32.67063160465788,2.6061601249375634,0.5131890811866585,B,490.7965999991575,Correct
11,211,501,A,27.360693126754065,39.06637506611479,1.368034656337703,0.6136531845504485,B,708.7302999971143,Incorrect
11,211,502,A,48.89714043146923,68.34323504430219,2.4448570215734615,1.0735330256887012,A,700.2065999986371,Correct
11,211,503,B,57.221663101378,29.937536861147937,2.8610831550688998,0.47025772934778004,B,676.2091999989934,Correct
11,211,504,B,69.31250699379473,57.323943119906716,3.4656253496897365,0.9004423929014905,B,645.3101000006427,Correct
11,211,505,B,40.66609469741783,25.626389676600738,2.0333047348708915,0.402538387730191,B,528.1183000006422,Correct
11,211,506,B,47.187424235692426,33.37887099464598,2.3593712117846213,0.5243140795095061,B,433.2461999983934,Correct
11,211,507,A,41.95566737978228,63.605503260414125,2.097783368989114,0.9991129088539932,A,642.9055999979028,Correct
11,211,508,A,31.857918503346976,57.54804630288088,1.5928959251673487,0.903962597467879,A,1651.4585000004445,Correct
11,211,509,A,20.494972876150634,43.16652385654607,1.0247486438075315,0.6780581711436684,A,600.1733000011882,Correct
11,211,510,A,63.827203780849125,82.55528158486561,3.1913601890424563,1.2967753307102525,A,830.0060000001395,Correct
11,211,511,B,66.42199222803372,52.03770752878747,3.321099611401686,0.817406398410465,A,597.464399997989,Incorrect
11,211,512,B,67.35050980757168,53.07389092235662,3.3675254903785845,0.8336827290955079,B,490.7069999972009,Correct
11,211,513,B,33.18732147920432,15.670170437532306,1.659366073960216,0.24614646163525725,B,614.0696000002208,Correct
11,211,514,B,45.30523103033521,36.728059855520485,2.2652615515167605,0.5769230151135468,B,517.8052999981446,Correct
11,211,515,B,81.33127096516569,58.6505131640282,4.0665635482582845,0.9212801064269122,B,513.9648000003945,Correct
11,211,516,A,27.151675254559176,54.71066094666154,1.3575837627279588,0.8593930525153695,A,523.8868000014918,Correct
11,211,517,B,54.10905866553742,46.53816900769858,2.705452933276871,0.7310198493305301,B,1465.1565999993181,Correct
11,211,518,B,37.227473697270156,20.3570664943999,1.8613736848635078,0.31976805273722825,B,730.2597999987483,Correct
11,211,519,B,38.347298050799225,16.885897410599878,1.9173649025399613,0.2652430562720574,B,989.5930999991833,Correct
11,211,520,B,85.4164883612429,61.869618995600646,4.270824418062145,0.9718457025848927,B,587.6943000002939,Correct
11,211,521,B,49.07720856332894,33.95638716908166,2.453860428166447,0.5333856823641883,B,510.46430000133114,Correct
11,211,522,B,58.87997567472958,40.669835892824054,2.943998783736479,0.6388402883179928,B,479.5540000013716,Correct
11,211,523,A,40.93562369084787,65.4056907700257,2.0467811845423936,1.0273901881303924,A,682.6027999995858,Correct
11,211,524,B,43.74326911122614,30.406456852120904,2.187163455561307,0.47762350734159037,B,488.4550999995554,Correct
11,211,525,A,54.47939240196411,76.53703002869439,2.723969620098206,1.2022408563286382,A,516.3036999983888,Correct
11,211,526,B,45.04098920334087,25.170426246914566,2.2520494601670435,0.39537613092515256,B,462.5285000001895,Correct
11,211,527,B,45.51873094906736,17.06383139120659,2.275936547453368,0.26803803670354764,B,463.67989999998827,Correct
11,211,528,B,54.19555472151081,36.55885592980544,2.709777736075541,0.574265166063622,B,461.73389999967185,Correct
11,211,529,A,59.10986309004252,79.69360963480095,2.955493154502126,1.251824292833717,A,748.6519000012777,Correct
11,211,530,B,84.31664491034618,60.48128827527836,4.215832245517309,0.9500378546263049,B,640.7990000006976,Correct
11,211,531,A,18.008352065432888,33.631515816060215,0.9004176032716444,0.5282826150841186,A,519.9966000000131,Correct
11,211,532,A,33.31681393024881,58.00852389864313,1.6658406965124408,0.9111957626278261,A,534.9201999997604,Correct
11,211,533,A,41.12530404534861,55.77801684806585,2.05626520226743,0.8761590398084571,A,1838.3892000019841,Correct
11,211,534,A,34.0696089939988,53.100490684958416,1.7034804496999398,0.834100557189393,A,542.1210000022256,Correct
11,211,535,A,45.257581604281256,68.39835431976299,2.262879080214063,1.0743988372429953,A,649.967999997898,Correct
11,211,536,A,52.65148094841121,69.42319731849742,2.6325740474205603,1.0904970334225306,A,577.4516999990738,Correct
11,211,537,A,52.475500187879504,67.98581993256235,2.623775009393975,1.067918762242082,A,565.0826000019151,Correct
11,211,538,B,57.739945614041844,49.3680380712574,2.8869972807020923,0.7754713286340174,B,2530.873199997586,Correct
11,211,539,A,40.57206484766163,68.41335557614907,2.0286032423830815,1.0746344764272813,A,1144.664899999043,Correct
11,211,540,B,50.8995694787762,43.49208741992326,2.54497847393881,0.6831721116385799,B,1825.5666999975801,Correct
11,211,541,B,41.398875234100856,24.407585432218653,2.0699437617050425,0.38339345542861686,B,451.2238999996043,Correct
11,211,542,A,32.86018786857471,48.990801186179624,1.6430093934287355,0.7695457054999001,A,1887.1146000019507,Correct
11,211,543,A,23.68638202472808,49.443214143998496,1.1843191012364038,0.776652191623263,A,500.3833999980998,Correct
11,211,544,A,17.486448539440502,41.95655225808413,0.8743224269720251,0.6590519817197668,A,553.0718999980309,Correct
11,211,545,B,85.21895840999585,63.53814287535828,4.260947920499792,0.9980548143998212,B,603.5631000013382,Correct
11,211,546,B,68.00529356451001,36.14816763196728,3.4002646782255006,0.5678140893666038,B,456.02320000034524,Correct
11,211,547,B,47.66106542689606,33.85168377381106,2.383053271344803,0.5317410052772482,B,725.2707000006922,Correct
11,211,548,B,51.994166056357244,42.15960479069768,2.599708302817862,0.6622415234435243,B,437.5615999997535,Correct
11,211,549,B,35.599158628515184,15.871278313004911,1.779957931425759,0.24930545675607618,B,595.9186000000045,Correct
