subject,day,trial,cat,x,y,xt,yt,resp,rt,fb
4,104,0,A,48.90225374703267,56.93463072120493,2.4451126873516333,0.8943270880429258,B,889.4408000014664,Incorrect
4,104,1,B,86.59758841756309,59.869556051696,4.329879420878155,0.9404287873284525,B,1126.1211000019102,Correct
4,104,2,A,16.655329597960197,37.43514872434708,0.8327664798980098,0.5880299410922505,A,482.552499997837,Correct
4,104,3,A,41.834627394360645,49.39149596273575,2.091731369718032,0.7758398043317029,B,932.4842999994871,Incorrect
4,104,4,A,39.03989474732747,50.571529320100524,1.9519947373663737,0.7943757249641431,A,1093.036199999915,Correct
4,104,5,B,68.40024681364861,53.46667823319224,3.4200123406824305,0.8398526177462303,B,669.9308000024757,Correct
4,104,6,A,38.797991968482286,52.71854131006721,1.9398995984241143,0.8281009104383859,A,445.1002999994671,Correct
4,104,7,B,57.25797849566571,40.718270223276505,2.862898924783286,0.6396010930016476,A,1270.2253999996174,Incorrect
4,104,8,A,33.502071950154864,61.5098362705939,1.675103597507743,0.966194248756044,A,1163.5019000023021,Correct
4,104,9,A,38.417997388371624,48.09572779385927,1.920899869418581,0.7554859255312136,B,371.7901999989408,Incorrect
4,104,10,A,32.454883630988164,58.185890372046096,1.6227441815494081,0.9139818286770054,A,910.0195999999414,Correct
4,104,11,A,44.74776912137094,72.704756352543,2.237388456068547,1.1420436421909248,B,1435.8296999998856,Incorrect
4,104,12,B,30.570149721048278,14.010153763454067,1.528507486052414,0.22007098069465342,A,846.6004000001703,Incorrect
4,104,13,B,57.86910725390675,38.78167619987578,2.893455362695337,0.6091811452171394,A,758.6358000007749,Incorrect
4,104,14,A,62.07911536276984,78.58450385303513,3.103955768138492,1.2344024999534697,B,623.7543999995978,Incorrect
4,104,15,B,88.60525928804398,64.8431161325681,4.430262964402199,1.0185532863897286,B,664.3336999986786,Correct
4,104,16,A,36.13881663319796,47.14804672013868,1.806940831659898,0.74059978603548,A,533.5620999976527,Correct
4,104,17,B,50.04491391380273,20.65989226936995,2.5022456956901364,0.324524828887046,A,528.0931999986933,Incorrect
4,104,18,A,57.890196798786086,85.15187910234457,2.8945098399393046,1.3375625891364595,B,2228.513699999894,Incorrect
4,104,19,A,47.28179704311295,68.65177748567044,2.3640898521556477,1.078379599024317,A,1319.8230999987572,Correct
4,104,20,B,30.58348713708139,15.81083439456215,1.5291743568540697,0.24835600590540635,A,547.985700002755,Incorrect
4,104,21,B,52.217535095115046,32.283270717384674,2.6108767547557523,0.507104430597931,A,2055.066500000976,Incorrect
4,104,22,A,35.47781229875631,43.3998150806583,1.7738906149378155,0.6817227011227581,A,672.7413999979035,Correct
4,104,23,B,36.03688266629281,14.87284164812522,1.8018441333146404,0.23362205029877253,B,888.2105000011506,Correct
4,104,24,B,76.70887002629527,62.31795383653865,3.835443501314763,0.9788881297980884,B,945.600099999865,Correct
4,104,25,A,35.284186258384764,65.42072966558936,1.764209312919238,1.0276264185494968,A,582.8460999982781,Correct
4,104,26,B,83.35075901297509,61.16505055558916,4.167537950648755,0.9607783674094359,B,553.0741999973543,Correct
4,104,27,A,56.91329085949613,72.26787620665809,2.845664542974806,1.1351811449068683,A,1103.7174000011873,Correct
4,104,28,B,44.3532917036012,23.032246567320716,2.21766458518006,0.3617896830578175,B,939.5997999999963,Correct
4,104,29,B,84.88393213505518,56.60581975482539,4.244196606752759,0.8891621374609372,B,863.7524999976449,Correct
4,104,30,A,49.770670238845206,68.20888511773605,2.4885335119422605,1.0714226619771487,A,704.352500000823,Correct
4,104,31,A,16.324217113576537,44.79149527457666,0.8162108556788269,0.7035831624895599,A,904.6476999974402,Correct
4,104,32,B,55.93714925267345,40.26949932123493,2.796857462633673,0.6325518161566541,A,1172.2201999982644,Incorrect
4,104,33,B,79.24071212264172,53.10533373501641,3.9620356061320865,0.834176631641809,B,984.3961000005947,Correct
4,104,34,B,68.15392693021988,55.497179026871315,3.407696346510994,0.8717476496288823,B,741.0922000017308,Correct
4,104,35,A,41.59280039939787,73.81775443205504,2.0796400199698937,1.1595265751411976,A,467.20819999973173,Correct
4,104,36,B,50.361488903013296,36.2278207393912,2.518074445150665,0.5690652774521966,A,1423.6001999997825,Incorrect
4,104,37,A,59.19714726243157,74.40661987355926,2.959857363121579,1.1687764518661106,B,1114.9758999999904,Incorrect
4,104,38,B,62.93402600902527,32.005543794883025,3.146701300451263,0.5027419063007544,A,1013.1652000018221,Incorrect
4,104,39,B,58.63817545743156,39.92120978842877,2.931908772871578,0.6270808969687238,B,1011.837199999718,Correct
4,104,40,A,52.13149920555587,69.3936552965053,2.6065749602777935,1.0900329884262174,A,1205.4716999991797,Correct
4,104,41,A,44.16492973820969,53.35085778656795,2.2082464869104848,0.8380333144249783,A,484.68449999927543,Correct
4,104,42,B,38.863668463476046,19.25438237891531,1.9431834231738023,0.3024471311550455,B,813.7964999987162,Correct
4,104,43,B,76.43670812927581,48.35441925221794,3.8218354064637907,0.7595494414568437,A,1084.444899999653,Incorrect
4,104,44,B,69.37431204783377,55.927995118454135,3.4687156023916885,0.8785148929707066,B,694.6568999992451,Correct
4,104,45,A,33.864863008829936,46.35485064483882,1.6932431504414966,0.7281402912203885,A,603.9130999997724,Correct
4,104,46,A,34.26304144448782,53.27006788172917,1.713152072224391,0.8367642695673497,A,544.3441000024904,Correct
4,104,47,B,76.04842802141886,44.6793473031144,3.802421401070943,0.7018215462732555,A,933.8704000001599,Incorrect
4,104,48,B,44.810435113006264,27.960831983482393,2.240521755650313,0.439207721737834,A,801.4700999992783,Incorrect
4,104,49,A,41.719807330072825,53.29706034230485,2.0859903665036414,0.837188266146584,B,943.5864000006404,Incorrect
4,104,50,B,36.527620358664585,26.015325735701772,1.8263810179332294,0.4086477810601309,B,934.4703999995545,Correct
4,104,51,A,47.40193945841748,56.81672278286811,2.370096972920874,0.8924749944785314,A,498.64679999882355,Correct
4,104,52,A,31.835888400044837,42.40501995903875,1.5917944200022418,0.6660964958932235,A,1085.4169000012917,Correct
4,104,53,A,61.65862369826098,72.8695949226328,3.0829311849130487,1.1446329203950365,B,825.0268000010692,Incorrect
4,104,54,B,76.5487367931733,55.167135868442934,3.8274368396586653,0.8665633438194514,B,513.0348999991838,Correct
4,104,55,A,18.088406245464586,36.112544996463384,0.9044203122732293,0.5672545303166011,A,519.9422000005143,Correct
4,104,56,B,79.49343305275383,58.38009950402808,3.9746716526376917,0.9170324585884788,A,1249.8728999999003,Incorrect
4,104,57,B,70.26895090863336,49.35005267810355,3.513447545431668,0.775188814738997,B,758.0809999999474,Correct
4,104,58,B,61.709813588020005,29.603104356740225,3.0854906794010004,0.46500447585293553,B,1620.4437999986112,Correct
4,104,59,A,34.53986645351132,50.46371117241708,1.726993322675566,0.7926821214607134,A,559.1984999991837,Correct
4,104,60,A,51.40751623890317,58.66391746362764,2.5703758119451585,0.921490660672653,A,1253.2888999994611,Correct
4,104,61,A,36.10961056256435,69.24826097797623,1.8054805281282174,1.0877491398113943,A,539.3471000024874,Correct
4,104,62,B,37.373264510064146,22.97708533885362,1.8686632255032072,0.36092321250724135,B,760.882099999435,Correct
4,104,63,B,77.36668248790531,55.90772929147079,3.8683341243952656,0.8781965581048575,B,702.1463999990374,Correct
4,104,64,B,72.27243327396164,56.38567551342891,3.6136216636980816,0.8857041198034308,B,429.6308000011777,Correct
4,104,65,A,47.85292907164058,69.14469013324111,2.392646453582029,1.0861222527866647,A,681.7876999994041,Correct
4,104,66,B,75.55170096808664,56.55442831361468,3.7775850484043314,0.8883548825901124,B,475.74429999804124,Correct
4,104,67,B,35.5131714805985,16.828076825519737,1.7756585740299249,0.26433481264548725,A,432.99819999811007,Incorrect
4,104,68,A,35.70435329347414,66.79782309381923,1.785217664673707,1.0492577515366657,A,704.4448999986344,Correct
4,104,69,B,73.16738271421403,58.6870950771745,3.6583691357107013,0.9218547337748856,B,560.2001000006567,Correct
4,104,70,A,21.437827306125662,35.04773268293701,1.071891365306283,0.550528497608469,A,552.7766999985033,Correct
4,104,71,A,43.58335154152942,73.75626554697755,2.179167577076471,1.1585607099930129,A,601.6137000005983,Correct
4,104,72,B,74.61002168655828,60.5576535435373,3.7305010843279143,0.9512373974550635,B,783.9740000017628,Correct
4,104,73,A,59.638663849132286,85.52400250618263,2.9819331924566144,1.343407889895092,B,650.7358999988355,Incorrect
4,104,74,B,61.300028199483144,36.15247500573265,3.065001409974157,0.5678817494354914,B,469.51330000229063,Correct
4,104,75,A,34.38820793414687,59.79295915963814,1.7194103967073433,0.9392256061615686,A,490.52020000090124,Correct
4,104,76,A,30.400138207976376,60.2927217343642,1.5200069103988187,0.9470758583280612,A,536.8649999982154,Correct
4,104,77,A,29.48709187695004,47.65518474393541,1.474354593847502,0.7485658914850594,A,349.85450000021956,Correct
4,104,78,B,58.93183252178674,33.18980640129369,2.946591626089337,0.5213442598218587,A,1235.632899999473,Incorrect
4,104,79,A,25.42442700639983,57.79141383143318,1.2712213503199916,0.9077854056669903,A,550.4421000005095,Correct
4,104,80,A,28.642013195082576,60.27954165143,1.4321006597541288,0.9468688260694621,A,412.2217999974964,Correct
4,104,81,B,69.73899483077047,49.37176100440904,3.4869497415385236,0.7755298083312123,B,566.2159999992582,Correct
4,104,82,B,42.61236522772646,33.68247851977912,2.130618261386323,0.5290831353621704,A,561.8059000007634,Incorrect
4,104,83,B,89.18379470439282,68.66347457223216,4.459189735219641,1.0785633364303704,A,470.4810999974143,Incorrect
4,104,84,B,68.64073986135837,48.49058217589017,3.4320369930679187,0.7616882836603436,B,413.6913000002096,Correct
4,104,85,B,61.23826896939139,51.34066932027907,3.0619134484695696,0.8064573478348579,B,434.1248999990057,Correct
4,104,86,A,19.685578418851744,33.89168300270096,0.9842789209425873,0.5323693116953969,A,430.8381000009831,Correct
4,104,87,A,66.83671082501324,88.05693956956155,3.341835541250662,1.3831951722466747,A,2236.0655999982555,Correct
4,104,88,B,57.164271776820875,43.16078748337924,2.8582135888410436,0.6779680644046725,B,733.4981999993033,Correct
4,104,89,A,16.392290534859026,45.00731931631153,0.8196145267429513,0.7069733186094715,A,487.1529999982158,Correct
4,104,90,B,53.28918324708623,30.800332728957045,2.6644591623543112,0.4838104951470636,A,1808.2527999977174,Incorrect
4,104,91,A,40.5822529196826,49.789732318877455,2.02911264598413,0.7820952863859386,A,1055.462799999077,Correct
4,104,92,A,17.413085351023,39.01233059286826,0.8706542675511499,0.6128042559498563,A,633.7050999973144,Correct
4,104,93,B,66.01226439459928,33.08830262693599,3.3006132197299642,0.5197498422626897,B,1004.7797999977774,Correct
4,104,94,B,89.20679886179296,66.0824311427733,4.4603399430896475,1.0380204010474499,B,588.8089000000036,Correct
4,104,95,A,35.53590509201664,58.64446347694624,1.7767952546008319,0.9211850781644463,A,541.3279999993392,Correct
4,104,96,B,60.843740272993294,51.18895838668418,3.0421870136496647,0.8040742780626031,B,856.4003999999841,Correct
4,104,97,B,38.510852875249796,18.075389895588568,1.9255426437624896,0.2839275605337611,A,1851.4772999988054,Incorrect
4,104,98,B,67.39343049920141,40.765681677764974,3.369671524960071,0.6403458303872323,B,497.25760000001173,Correct
4,104,99,B,66.08112764581739,44.69739693663617,3.3040563822908693,0.7021050692536155,B,441.80689999848255,Correct
4,104,100,B,88.09754334292491,68.23918072878317,4.404877167146245,1.071898544322657,B,455.641900000046,Correct
4,104,101,A,43.560963752722635,67.49443367314481,2.178048187636132,1.0602000849287765,A,531.2535999983083,Correct
4,104,102,A,15.307791792839236,40.10816591697446,0.7653895896419618,0.6300175969686374,A,476.0802999990119,Correct
4,104,103,B,60.378597379512016,30.747577852398205,3.018929868975601,0.4829818234838722,B,639.6886000002269,Correct
4,104,104,A,51.074968075124104,75.63495619396545,2.553748403756205,1.1880711136677382,B,567.4308999987261,Incorrect
4,104,105,B,68.00916323043477,59.405459666527236,3.400458161521738,0.9331387783574336,B,567.1641000008094,Correct
4,104,106,B,61.829475638041686,48.015434024132155,3.091473781902084,0.7542246739456948,B,434.97779999961494,Correct
4,104,107,B,71.49396349627784,44.087000678661624,3.574698174813892,0.6925169872544579,B,505.9590000018943,Correct
4,104,108,A,25.862809764165405,53.60631014476764,1.2931404882082702,0.84204595068429,A,549.2811999974947,Correct
4,104,109,A,45.98044473100349,77.1293167208994,2.2990222365501745,1.2115444739338899,A,662.9413999980898,Correct
4,104,110,B,78.28668439836477,52.03115890432135,3.914334219918238,0.8173035328578956,B,519.2542000004323,Correct
4,104,111,A,25.635836132377452,48.20557845448674,1.2817918066188727,0.7572114556733098,A,651.6886999997951,Correct
4,104,112,B,50.98487889559567,24.069091125488907,2.5492439447797834,0.37807639929209613,B,784.9173000031442,Correct
4,104,113,A,36.410833936913264,62.392592949691085,1.8205416968456631,0.9800605582458392,A,591.5698000026168,Correct
4,104,114,B,69.73067644105585,38.13178212204256,3.486533822052792,0.5989726329144776,B,576.1452999977337,Correct
4,104,115,B,49.71393768977859,25.6930132920945,2.4856968844889296,0.40358490903514493,B,947.7436000015587,Correct
4,104,116,B,55.69989611379959,42.03412988621735,2.78499480568998,0.6602705682528979,A,563.7377999992168,Incorrect
4,104,117,A,54.98539770173016,81.79680401662745,2.7492698850865076,1.2848611929288043,B,428.3307000005152,Incorrect
4,104,118,B,55.41689873386863,24.840732650026375,2.7708449366934316,0.39019731601555485,B,558.5544999994454,Correct
4,104,119,A,65.3385526893205,86.44560229561904,3.266927634466025,1.3578843455353087,A,363.2402000002912,Correct
4,104,120,A,47.29495391610717,63.99412124800847,2.3647476958053586,1.0052173059283893,A,2322.4665999987337,Correct
4,104,121,B,60.955896593114794,44.174873033920306,3.0477948296557393,0.6938972829831295,B,728.8219000001845,Correct
4,104,122,B,72.84077992350737,62.62980609376281,3.6420389961753687,0.9837866935995924,B,595.047800001339,Correct
4,104,123,A,39.2333128099439,70.38493458214506,1.9616656404971948,1.1056039670333255,A,631.215000001248,Correct
4,104,124,A,41.334921896668526,55.15269419051786,2.066746094833426,0.8663364944730768,A,1817.144200002076,Correct
4,104,125,A,41.92534196081654,52.25277070255759,2.0962670980408267,0.8207846028443343,A,504.3385999997554,Correct
4,104,126,B,65.76210183844996,42.78091860978877,3.288105091922498,0.6720010980916764,B,614.1432000003988,Correct
4,104,127,B,38.36430426508353,27.68810390469251,1.9182152132541768,0.4349237190940643,A,1029.6261000003142,Incorrect
4,104,128,B,47.903382661675465,30.369363034061273,2.3951691330837734,0.47704083901004163,B,709.8858999997901,Correct
4,104,129,A,54.2920152470889,72.56573445262202,2.714600762354445,1.1398598912935254,A,1080.13370000117,Correct
4,104,130,B,76.55180321770399,54.249290361915925,3.8275901608851997,0.8521458603172732,B,514.6033999990323,Correct
4,104,131,B,89.51506325510586,67.59016569515484,4.475753162755293,1.0617038400140764,B,499.2078000032052,Correct
4,104,132,A,54.283167557886316,68.8165340763081,2.7141583778943157,1.0809675894982058,A,607.8847999997379,Correct
4,104,133,B,31.73748271591316,11.080368307095782,1.586874135795658,0.1740500183632064,A,610.6870000003255,Incorrect
4,104,134,B,81.03970999288128,56.91410904770822,4.051985499644064,0.8940047343494426,B,734.3027999995684,Correct
4,104,135,A,25.915790565284066,50.219404532130056,1.2957895282642033,0.7888445617289689,A,738.4358000017528,Correct
4,104,136,B,85.64314689470505,59.97358535801765,4.282157344735253,0.9420628758509431,B,655.4164000008313,Correct
4,104,137,B,40.64778849865367,23.611770506035985,2.032389424932683,0.370892823800054,A,561.3613000023179,Incorrect
4,104,138,A,23.786707272830576,49.96797640940565,1.1893353636415287,0.7848951380126844,A,625.1267000006919,Correct
4,104,139,B,43.76735429332156,21.967486922698644,2.188367714666078,0.3450644776708996,B,740.157200001704,Correct
4,104,140,B,68.98316871018864,36.24084646849802,3.449158435509432,0.5692698851265449,B,731.3530999999784,Correct
4,104,141,B,81.26517366705784,64.26388218835481,4.063258683352892,1.009454700870477,B,653.0187000025762,Correct
4,104,142,B,86.64892902970922,60.41125849609031,4.3324464514854615,0.9489378294271565,B,509.0262999983679,Correct
4,104,143,B,76.82866733445886,58.88550362834804,3.8414333667229426,0.9249713280087666,B,741.5986999985762,Correct
4,104,144,B,67.96477144303687,58.615841470730174,3.3982385721518433,0.9207354847421493,B,448.0575999987195,Correct
4,104,145,B,60.55564245953444,40.670490889363485,3.0277821229767223,0.6388505769795746,B,461.628600001859,Correct
4,104,146,A,32.32890778952058,55.317751404737166,1.616445389476029,0.8689292071311436,A,436.2775999979931,Correct
4,104,147,A,20.703915229605403,35.35790480973972,1.03519576148027,0.5554006699830276,A,335.6093000002147,Correct
4,104,148,B,50.72735535095715,41.82928831303083,2.536367767547857,0.6570529243455352,A,1222.2578000000794,Incorrect
4,104,149,B,72.50484101596955,61.7093327779426,3.625242050798477,0.9693279325655616,B,434.12930000340566,Correct
4,104,150,B,81.32571852070946,53.43139649703801,4.066285926035473,0.83929841353069,B,524.347200000193,Correct
4,104,151,B,88.70973487722921,66.1846286666598,4.4354867438614605,1.0396257159987345,B,561.8686999987403,Correct
4,104,152,B,51.472829432927,39.63666171169247,2.5736414716463503,0.6226112262313843,A,596.0945000006177,Incorrect
4,104,153,B,77.74222096793892,55.764271211743875,3.887111048396946,0.8759431238580168,B,998.3330999966711,Correct
4,104,154,A,21.080751855119015,49.57812364468512,1.0540375927559509,0.778771345104546,A,1340.129899999738,Correct
4,104,155,B,64.56284090907606,42.6341010289904,3.2281420454538026,0.6696948929254064,B,1065.428099998826,Correct
4,104,156,A,35.2188848950381,55.67567078204365,1.7609442447519053,0.8745513915627612,A,474.5089999996708,Correct
4,104,157,B,34.481563606472704,17.602702004627954,1.7240781803236354,0.2765025965053475,B,3003.082600000198,Correct
4,104,158,B,75.81201174098815,61.127359268971404,3.7906005870494077,0.9601863140637226,B,562.5662999991619,Correct
4,104,159,B,66.16683556849911,35.79164721345275,3.308341778424955,0.5622138797283038,B,442.56229999882635,Correct
4,104,160,A,43.40109774520016,75.1226477687347,2.170054887260008,1.180023791742353,B,858.3185000024969,Incorrect
4,104,161,A,28.711349687405328,49.21434121692681,1.4355674843702664,0.7730570640917932,A,585.7914999978675,Correct
4,104,162,B,60.28008561266034,37.17710266595045,3.014004280633017,0.5839765630855173,B,651.7468999991252,Correct
4,104,163,B,73.11370513022247,62.679871724195664,3.6556852565111235,0.9845731226834183,B,509.3961999991734,Correct
4,104,164,A,30.137346766466877,60.04296110497511,1.5068673383233437,0.9431526275358376,A,493.6612999990757,Correct
4,104,165,A,58.4160712285089,78.2953321918083,2.9208035614254446,1.2298602021207867,B,515.4743999992206,Incorrect
4,104,166,A,67.75703395114856,89.27328841625743,3.387851697557428,1.4023015352515857,B,634.7026000003098,Incorrect
4,104,167,A,22.39777017970803,48.591648394818534,1.1198885089854016,0.7632758281149009,A,633.8818000003812,Correct
4,104,168,B,86.46534293912252,68.89410812281368,4.323267146956126,1.0821861197712617,B,675.528600000689,Correct
4,104,169,A,58.386307557510214,86.25863266372005,2.9193153778755105,1.3549474334252174,B,626.493700001447,Incorrect
4,104,170,B,44.07666645439607,32.83500093060737,2.2038333227198037,0.5157709885210506,B,560.2954999994836,Correct
4,104,171,A,31.544309164140337,55.29961746431182,1.577215458207017,0.8686443598610393,A,821.5383999995538,Correct
4,104,172,A,57.91591585768298,69.29243665052951,2.895795792884149,1.088443049653198,A,655.7716999996046,Correct
4,104,173,A,61.33534116904842,82.46918337096508,3.066767058452421,1.295422903128867,A,875.0717000002624,Correct
4,104,174,A,55.5051736766799,81.19323963943219,2.7752586838339948,1.2753804258619788,A,502.9582000024675,Correct
4,104,175,B,31.647878838295487,14.449119818047006,1.5823939419147743,0.22696624335607582,B,693.3132000012847,Correct
4,104,176,A,69.23832436603522,86.96071365257234,3.4619162183017607,1.3659756958092344,A,1232.4115000010352,Correct
4,104,177,A,20.030237296427927,41.21913656319003,1.0015118648213963,0.6474686830711611,A,900.2436000009766,Correct
4,104,178,A,12.42619245412769,32.657978049594874,0.6213096227063845,0.5129903196085199,A,696.4050999995379,Correct
4,104,179,A,19.549013038604027,43.37923326660717,0.9774506519302014,0.6813994027436553,A,889.2582999978913,Correct
4,104,180,A,56.242798760943884,68.01476871698708,2.812139938047194,1.0683734886844773,A,893.9520999992965,Correct
4,104,181,A,52.22096300592865,59.79478252011468,2.6110481502964324,0.9392542474409582,A,435.49699999857694,Correct
4,104,182,A,46.94292455868682,57.27900050117069,2.347146227934341,0.8997364358972196,A,420.6150999998499,Correct
4,104,183,A,62.16436957210627,80.18932431828424,3.108218478605313,1.2596109608732553,A,438.57850000131293,Correct
4,104,184,B,81.05388183285652,49.657275089368326,4.052694091642826,0.780014653090235,A,382.0272000011755,Incorrect
4,104,185,A,63.02317009922557,80.51907783817344,3.1511585049612787,1.264790717051152,A,412.9465000005439,Correct
4,104,186,A,25.374780914950946,45.216515861655346,1.2687390457475474,0.7102593702595139,A,531.2821999978041,Correct
4,104,187,A,51.163592384536486,69.67944444031204,2.5581796192268245,1.0945221537995122,A,397.81180000136374,Correct
4,104,188,B,54.995268435501856,26.698484211573998,2.7497634217750933,0.41937880930531973,B,772.9758000023139,Correct
4,104,189,B,54.66637777432713,33.12229029918559,2.7333188887163566,0.5202837193699497,B,713.1355000019539,Correct
4,104,190,A,18.93551877159317,49.83333415697066,0.9467759385796585,0.7827801824571216,B,530.2642000024207,Incorrect
4,104,191,B,55.14348819792961,28.726630520030657,2.7571744098964803,0.45123685702058325,A,618.291800001316,Incorrect
4,104,192,A,46.433040684571424,59.15770327494707,2.3216520342285714,0.9292470300590927,A,459.1333999997005,Correct
4,104,193,B,47.663018190527765,24.590538178783003,2.383150909526388,0.38626727045142,B,565.3586000007635,Correct
4,104,194,B,65.11031470910257,46.34380154142603,3.2555157354551283,0.7279667323098368,B,541.6457999999693,Correct
4,104,195,A,23.74187002988194,42.16568864156743,1.187093501494097,0.6623370883495141,A,440.42389999958687,Correct
4,104,196,A,11.31420610862386,35.119017471300836,0.565710305431193,0.5516482364456515,A,379.71380000089994,Correct
4,104,197,B,65.35004887708837,52.896925448572254,3.267502443854419,0.8309029619336079,B,1495.3488999999536,Correct
4,104,198,A,18.10030077023295,36.84703980809085,0.9050150385116474,0.5787919478381444,A,422.5237999999081,Correct
4,104,199,B,58.72285372654252,46.52093199550144,2.936142686327126,0.7307490909760883,A,1544.211800002813,Incorrect
4,104,200,B,79.12694581659169,63.143904474890164,3.956347290829584,0.991862132086453,B,585.600099999283,Correct
4,104,201,B,71.33979670144907,52.05926809863442,3.566989835072454,0.8177450710496569,B,435.0044999991951,Correct
4,104,202,A,54.845745728570805,66.13473603007108,2.7422872864285406,1.0388420042958575,B,872.8167000008398,Incorrect
4,104,203,B,80.11925225604058,67.54851623856933,4.005962612802029,1.0610496118799013,B,478.03320000093663,Correct
4,104,204,A,52.69342577797098,67.9216927221815,2.634671288898549,1.0669114543769436,A,550.9329000014986,Correct
4,104,205,B,59.12016991408058,45.00232937036172,2.9560084957040287,0.7068949367217828,A,382.0850000010978,Incorrect
4,104,206,B,49.85786437564096,28.319952491108985,2.492893218782048,0.4448487734803998,B,514.2625000007683,Correct
4,104,207,B,75.40831203600115,52.665890424956594,3.770415601800057,0.8272738722690433,B,657.4508999983664,Correct
4,104,208,B,82.40949708708263,63.409230868259286,4.120474854354131,0.9960298693275127,B,415.2723999977752,Correct
4,104,209,A,44.82719481169879,51.9690888465984,2.2413597405849397,0.816328538671144,A,572.5044999999227,Correct
4,104,210,B,39.41158858017039,20.887906432241994,1.9705794290085195,0.3281064669820121,A,492.27460000111023,Incorrect
4,104,211,B,45.04754050488624,27.510286210660333,2.252377025244312,0.43213056528781546,B,438.47899999673245,Correct
4,104,212,B,50.76175565471082,20.365329401694925,2.538087782735541,0.31989784618150496,B,487.6040999988618,Correct
4,104,213,A,22.649469048737675,45.03908310728714,1.1324734524368838,0.7074722630713672,A,361.2944999986212,Correct
4,104,214,A,19.867686258328078,42.51453937660738,0.9933843129164039,0.6678168228815186,A,359.64289999901666,Correct
4,104,215,B,88.27014937915885,63.3032921183121,4.413507468957943,0.9943657873346896,B,445.15429999955813,Correct
4,104,216,B,83.4098021079702,60.89775903987611,4.17049010539851,0.956579762098781,B,660.6136999980663,Correct
4,104,217,B,51.01859512531249,41.952735226970184,2.5509297562656243,0.6589920239352361,A,656.5037000000302,Incorrect
4,104,218,A,46.46187525556544,77.88158355148795,2.323093762778272,1.223361053676471,A,531.0218000013265,Correct
4,104,219,A,17.5943636061877,41.020510553195706,0.879718180309385,0.6443486730021111,B,394.44000000003143,Incorrect
4,104,220,A,40.80839791975491,59.208249819394226,2.0404198959877453,0.9300410133225905,A,867.3232999972242,Correct
4,104,221,B,82.7314212328593,65.32989304618843,4.136571061642965,1.0261995602685623,B,649.4165000003704,Correct
4,104,222,B,47.67712674660583,24.65208373237587,2.3838563373302915,0.3872340257465624,A,520.291000000725,Incorrect
4,104,223,A,59.893833196955285,85.76419570806232,2.994691659847764,1.3471808358874293,B,1731.3451000009081,Incorrect
4,104,224,A,33.570887033450965,58.89020581657278,1.6785443516725482,0.9250451898086798,A,621.2924999999814,Correct
4,104,225,A,40.965309174360144,66.29049567295448,2.048265458718007,1.041288671044899,A,457.46820000204025,Correct
4,104,226,B,46.525541178169135,30.903648032935187,2.326277058908457,0.48543336814696925,B,648.355299999821,Correct
4,104,227,B,43.904528939726276,33.811209010223706,2.1952264469863136,0.5311052291775391,B,735.5803000027663,Correct
4,104,228,B,54.43117430361602,36.739931074093434,2.7215587151808007,0.5771094877788364,B,622.485299998516,Correct
4,104,229,B,57.459200834436395,39.958092209350994,2.8729600417218197,0.6276602446818031,B,458.1136000015249,Correct
4,104,230,B,77.90945781624944,60.73064157419084,3.895472890812472,0.9539546870863641,B,634.3615000005229,Correct
4,104,231,A,28.034296676424862,53.037897534265085,1.401714833821243,0.8331173462774769,A,451.72249999814085,Correct
4,104,232,B,64.38621318302305,40.75951004960464,3.2193106591511524,0.6402488866787864,B,430.01019999792334,Correct
4,104,233,A,48.732787671144536,76.98280757467559,2.436639383557227,1.2092431136465875,A,575.4295000006096,Correct
4,104,234,A,51.13999439292134,66.0738646060054,2.5569997196460665,1.0378858382025662,A,626.1750000012398,Correct
4,104,235,B,73.01993362639794,44.10170355124651,3.650996681319897,0.6927479394369546,B,826.7440999989049,Correct
4,104,236,A,57.90712560352294,69.62110087185613,2.895356280176147,1.0936056951692856,B,598.0792000009387,Incorrect
4,104,237,B,77.4781342119588,59.372850081168124,3.8739067105979403,0.9326265481884296,B,565.2563999974518,Correct
4,104,238,B,79.47462083116034,51.18654559875638,3.973731041558017,0.8040363780784601,B,686.6264999989653,Correct
4,104,239,A,32.28491997489779,54.110145745473325,1.6142459987448894,0.84996018179326,A,620.7246999983909,Correct
4,104,240,A,68.2783804612124,86.80431509975304,3.41391902306062,1.3635189930863885,B,1184.9079999992682,Incorrect
4,104,241,A,52.48101705127386,74.72464088161394,2.624050852563693,1.1737719141790695,A,852.7951000032772,Correct
4,104,242,B,86.11152786469523,68.12749044680126,4.3055763932347615,1.0701441174758983,B,685.3555999987293,Correct
4,104,243,B,70.18862713114699,57.68101521415545,3.509431356557349,0.9060512682419593,A,1400.421099999221,Incorrect
4,104,244,A,23.020393556647306,49.88250426699356,1.1510196778323654,0.7835525447392424,A,573.6668999998074,Correct
4,104,245,B,34.823392740454935,11.880779497193586,1.741169637022747,0.18662284793651804,B,930.9190999993007,Correct
4,104,246,A,57.74524462248968,69.13520917914616,2.8872622311244838,1.085973326307996,A,1136.4546000004339,Correct
4,104,247,B,83.41470236875249,64.43820453677064,4.170735118437625,1.0121929499161755,B,531.78310000294,Correct
4,104,248,A,18.364059310175296,39.944384032017695,0.9182029655087648,0.6274449171357812,A,479.0861000001314,Correct
4,104,249,A,20.984350491181583,43.34293529325586,1.0492175245590791,0.680829235511552,A,489.2792999999074,Correct
4,104,250,A,15.24085489256574,39.893695474251004,0.7620427446282869,0.6266487031322766,A,632.5119000030099,Correct
4,104,251,B,63.81206872377916,43.06797589755042,3.1906034361889577,0.6765101834236333,A,1280.245300000388,Incorrect
4,104,252,A,51.00669578494576,74.86704344146608,2.550334789247288,1.1760087683584888,A,1486.648400001286,Correct
4,104,253,A,38.355637169558705,60.38091905551801,1.9177818584779351,0.9484612586090765,A,598.6144000016793,Correct
4,104,254,A,47.38758183467777,69.86856260032812,2.3693790917338884,1.097492814910347,A,594.2529999992985,Correct
4,104,255,B,35.64641530753167,11.012042662923921,1.7823207653765833,0.17297676165429587,B,645.2648000013141,Correct
4,104,256,B,72.37710349191593,49.654618146143505,3.6188551745957964,0.7799729179236544,B,827.3626000009244,Correct
4,104,257,B,45.824941957495135,26.73269769662801,2.2912470978747566,0.4199162334718167,A,685.6071000001975,Incorrect
4,104,258,B,40.171938156612384,23.923023432461182,2.0085969078306194,0.3757819733353826,B,582.4439999996684,Correct
4,104,259,A,30.06220854477298,61.2236253620671,1.5031104272386488,0.9616984583180187,A,422.2086000008858,Correct
4,104,260,B,76.56072949831562,62.34294119916987,3.828036474915781,0.9792806303724627,B,640.4385999994702,Correct
4,104,261,A,58.08521806149815,81.90026208288283,2.9042609030749076,1.286486308433317,B,469.9676999989606,Incorrect
4,104,262,A,17.20533683448535,46.01886587183896,0.8602668417242676,0.7228626547475167,A,516.0581999989517,Correct
4,104,263,A,43.42170013602941,66.49869861844425,2.1710850068014707,1.044559115264931,A,1348.0583999989904,Correct
4,104,264,B,67.03056660286882,38.06960623152035,3.3515283301434406,0.5979959763100028,B,640.741800001706,Correct
4,104,265,B,40.49695964310949,24.77435675611811,2.0248479821554746,0.38915468591216656,B,768.5057999988203,Correct
4,104,266,A,53.58021816494831,69.53939055748323,2.679010908247416,1.0923221925525037,A,956.3679999992019,Correct
4,104,267,A,24.998157189665626,35.54172882355261,1.2499078594832813,0.5582881708397673,A,934.0566999999282,Correct
4,104,268,B,63.80697531714958,37.833361732178,3.190348765857479,0.594285056392078,B,675.87149999963,Correct
4,104,269,A,24.387630446991714,41.824793215845034,1.2193815223495859,0.6569823155240548,A,424.03659999763477,Correct
4,104,270,A,51.5979401877182,70.46670064065869,2.57989700938591,1.1068883452770224,A,626.7917000004672,Correct
4,104,271,B,65.32714060766234,43.62146562870955,3.266357030383117,0.6852043797898679,B,689.1413000012108,Correct
4,104,272,B,71.5883419871879,59.66428145804211,3.5794170993593952,0.9372043415514941,B,528.0883999985235,Correct
4,104,273,B,50.82965122513722,39.32680800334487,2.541482561256861,0.6177440555622227,B,1059.3990000015765,Correct
4,104,274,B,66.23137566360728,39.477360224492195,3.3115687831803644,0.6201089243219129,B,1164.8101000027964,Correct
4,104,275,A,24.554686551817,56.49622659538378,1.2277343275908499,0.8874406521380099,A,446.46130000182893,Correct
4,104,276,B,84.33453511026218,60.69845195344816,4.216726755513109,0.953449053706129,B,637.9118000004382,Correct
4,104,277,A,42.383593449921996,49.87905084599949,2.1191796724960996,0.7834982985291188,A,644.0192999980354,Correct
4,104,278,A,60.825154369200355,80.97040927465187,3.041257718460018,1.2718802146770258,B,898.9428000022599,Incorrect
4,104,279,B,39.1738002615281,14.902744106778599,1.9586900130764051,0.23409175702092114,B,679.9304000014672,Correct
4,104,280,B,81.19233395188763,64.99420202578759,4.0596166975943815,1.0209265380507258,B,1014.5548000000417,Correct
4,104,281,B,33.30418214281235,18.161892094967737,1.6652091071406177,0.2852863339042059,B,780.0683999994362,Correct
4,104,282,B,76.24684358198748,51.8526807416637,3.812342179099374,0.8145000044347381,B,886.8703000007372,Correct
4,104,283,A,61.01034025422007,70.82682121791143,3.0505170127110035,1.112545106076541,A,680.814499999542,Correct
4,104,284,B,57.11184669521984,33.671879995904604,2.8555923347609915,0.528916654138455,B,756.14029999997,Correct
4,104,285,A,59.892312099200275,75.95216436538284,2.9946156049600137,1.1930538079726563,A,714.7868000029121,Correct
4,104,286,B,35.65844996327913,13.418422162801491,1.7829224981639566,0.21077608244711815,B,723.0896000000939,Correct
4,104,287,A,51.0549621182363,76.52755401696268,2.5527481059118147,1.2020920074844301,A,770.2842000035162,Correct
4,104,288,A,34.27169380477983,62.50794267533481,1.7135846902389915,0.9818724674992189,A,656.0838000004878,Correct
4,104,289,B,53.10958618390025,33.27489713590112,2.6554793091950124,0.522680861955515,B,599.0018000011332,Correct
4,104,290,A,57.552378493161065,73.43864123677714,2.8776189246580532,1.1535714789953775,A,682.3107999989588,Correct
4,104,291,B,78.93599627816346,50.59432620232596,3.946799813908173,0.794733817552764,B,598.7368999994942,Correct
4,104,292,B,77.13401605520139,47.0401346521977,3.8567008027600695,0.7389047072360948,B,910.7641999980842,Correct
4,104,293,B,80.26356939765414,66.81488631952793,4.013178469882707,1.0495257800593305,B,728.7227999986499,Correct
4,104,294,B,43.93018645637988,23.48442385312312,2.196509322818994,0.3688924672538025,B,751.0927000002994,Correct
4,104,295,A,55.00409533343152,73.2798619377358,2.750204766671576,1.1510773795983256,A,855.9113000010257,Correct
4,104,296,A,64.01653590896132,87.1652412117329,3.200826795448066,1.3691884071958118,A,635.8067000001029,Correct
4,104,297,A,47.10851461726103,61.56327060901829,2.3554257308630513,0.9670335933812614,A,1519.9459999967075,Correct
4,104,298,A,52.292148692094464,68.62127858416689,2.6146074346047232,1.0779005233997865,A,495.9662000001117,Correct
4,104,299,B,54.11620297642636,44.79880174127197,2.705810148821318,0.7036979322000283,A,852.6997000008123,Incorrect
4,104,300,A,54.722776166162326,82.58535730852614,2.7361388083081164,1.2972477590727691,A,462.8556999996363,Correct
4,104,301,A,23.557720309023317,46.68341779494939,1.177886015451166,0.7333014119453802,A,563.3382000014535,Correct
4,104,302,B,50.27292726339071,21.7039441387408,2.513646363169536,0.34092475730095667,B,632.8702999999223,Correct
4,104,303,A,19.102018509516625,48.43347976930656,0.9551009254758313,0.7607913211552169,A,472.33090000008815,Correct
4,104,304,B,60.15356211239077,28.682874540011774,3.0076781056195387,0.45054953969369355,B,990.9834999998566,Correct
4,104,305,B,74.60421652409002,48.734011611538364,3.730210826204501,0.765512064293843,B,513.2147999975132,Correct
4,104,306,B,62.26588621565264,38.989869978432885,3.1132943107826323,0.6124514454433299,B,470.40800000104355,Correct
4,104,307,B,65.00871408680821,42.00418108579934,3.2504357043404104,0.6598001335960128,B,612.782000000152,Correct
4,104,308,B,33.31806690861066,13.036237497819691,1.665903345430533,0.20477273976801066,A,518.773499999952,Incorrect
4,104,309,B,43.97535721723179,24.116352559040607,2.1987678608615893,0.3788187801543168,B,665.0112999996054,Correct
4,104,310,A,44.82429115760134,68.83606203552038,2.241214557880067,1.0812743339642106,A,607.9021000005014,Correct
4,104,311,A,25.72659805725019,42.50232433302291,1.2863299028625095,0.6676249494255775,A,809.5652999982121,Correct
4,104,312,A,61.06704501612701,75.45059085257543,3.05335225080635,1.1851751096573009,B,864.808999998786,Incorrect
4,104,313,A,14.144608708148692,36.0711717177859,0.7072304354074346,0.5666046403748606,A,853.7023999997473,Correct
4,104,314,B,49.17183385358193,22.272018242055232,2.4585916926790965,0.34984804444929285,B,738.1673999989289,Correct
4,104,315,A,51.3725102028534,79.82664030786177,2.5686255101426703,1.253913933759667,A,1497.3748000011255,Correct
4,104,316,A,43.59089950995527,67.81578916831471,2.179544975497764,1.0652479252428588,A,694.3490999983624,Correct
4,104,317,B,48.20873124712667,22.75995523670029,2.4104365623563337,0.35751254083825085,B,571.6007000009995,Correct
4,104,318,A,35.12224846400898,63.42674825748845,1.756112423200449,0.9963050318340747,A,594.4743000000017,Correct
4,104,319,B,88.507956603685,62.763096344152714,4.42539783018425,0.985880411956693,B,618.8201000004483,Correct
4,104,320,B,60.95196975946546,43.196919174712015,3.047598487973273,0.6785356196849368,B,544.3199000001187,Correct
4,104,321,B,81.12177112335726,51.88103114426351,4.056088556167863,0.8149453315174074,B,514.0181999995548,Correct
4,104,322,B,57.54012721073032,41.18509123578508,2.877006360536516,0.6469339003188389,A,583.5335000010673,Incorrect
4,104,323,A,39.73476480985198,66.67132079277907,1.986738240492599,1.0472706580386157,A,510.2478000007977,Correct
4,104,324,A,51.52960807513998,66.84418760130916,2.576480403756999,1.049986043517254,A,426.0672999989765,Correct
4,104,325,A,48.98758321918857,73.65379412924739,2.4493791609594284,1.1569510927272932,A,556.6189000019222,Correct
4,104,326,A,16.811671680759396,36.04004507055774,0.8405835840379697,0.5661157041435462,A,696.9784000029904,Correct
4,104,327,A,60.76368587220904,73.37247389834877,3.038184293610452,1.1525321248738067,B,525.7043999990856,Incorrect
4,104,328,A,61.754986056651845,72.39245530259379,3.087749302832592,1.1371380287697805,B,477.4461000015435,Incorrect
4,104,329,B,61.03773208840306,42.30151346433278,3.051886604420153,0.664470619676388,B,733.1451999998535,Correct
4,104,330,A,28.5245401388728,41.08093106547456,1.42622700694364,0.6452977561896179,A,536.2377000019478,Correct
4,104,331,B,76.31870897938909,62.33743380694759,3.8159354489694546,0.9791941204577327,B,529.6170000001439,Correct
4,104,332,B,35.93506768007515,22.17052182017557,1.7967533840037575,0.3482537423825789,A,486.3026000020909,Incorrect
4,104,333,A,33.811332714498974,54.9282758905503,1.6905666357249487,0.8628113400605308,A,540.9825000024284,Correct
4,104,334,A,38.173507741575655,58.42724627755098,1.908675387078783,0.9177730383751788,A,574.0659999974014,Correct
4,104,335,B,82.78342404886911,57.475893226589506,4.139171202443455,0.9028292195958247,B,604.5785000023898,Correct
4,104,336,A,28.99997699401034,42.125869230535834,1.4499988497005172,0.6617116065036784,A,585.4037999997672,Correct
4,104,337,A,66.38312384632539,84.59844211474439,3.319156192316269,1.3288692212641118,B,1314.8246000018844,Incorrect
4,104,338,A,21.922048237605285,46.05171829788982,1.0961024118802642,0.7233786994491866,A,440.90240000150516,Correct
4,104,339,A,55.782595075348,79.3309556164294,2.7891297537674,1.2461277368341628,A,797.5695999994059,Correct
4,104,340,A,35.61534792921567,66.44985365849477,1.7807673964607835,1.0437918604282201,A,744.1381999997247,Correct
4,104,341,B,53.22917279731449,35.28690120602577,2.6614586398657245,0.5542853479839968,B,1181.3995000011346,Correct
4,104,342,B,86.25749117365989,59.615629933894546,4.312874558682995,0.9364401251972543,B,629.4505000005302,Correct
4,104,343,A,30.48705272949131,46.23987329984759,1.5243526364745656,0.72633423130862,A,535.6093000009423,Correct
4,104,344,B,46.75154135414556,34.885863227270185,2.337577067707278,0.5479858581446516,A,603.49209999913,Incorrect
4,104,345,B,85.49328586127034,60.600877941302485,4.274664293063517,0.9519163647074382,B,1005.4490000002261,Correct
4,104,346,B,54.29807987694048,29.416381053083683,2.7149039938470243,0.46207143305782833,B,772.6459000004979,Correct
4,104,347,A,61.000848971819366,84.4953922865028,3.0500424485909683,1.3272505183473244,A,792.2379000010551,Correct
4,104,348,B,69.53628522393748,40.58758118581004,3.4768142611968744,0.6375482344016006,B,811.5505999994639,Correct
4,104,349,A,13.007086756304883,34.5863265857524,0.6503543378152442,0.5432807475822855,A,588.7093999990611,Correct
4,104,350,B,61.65242870411275,40.38497471857509,3.082621435205638,0.6343656994564251,A,1148.4392000020307,Incorrect
4,104,351,B,46.68917002760527,26.310850089979123,2.3344585013802632,0.41328986676190377,B,795.0660000024072,Correct
4,104,352,A,13.757476550120892,31.413301570685384,0.6878738275060445,0.49343898719732954,A,482.51130000062403,Correct
4,104,353,B,32.628046424576056,10.931841392181276,1.6314023212288027,0.17171696303942757,B,565.0349999996251,Correct
4,104,354,B,78.31143222468229,66.08790439413633,3.9155716112341143,1.0381063746788166,B,787.6573000030476,Correct
4,104,355,A,56.719123661835255,67.10166223641987,2.835956183091763,1.0540304456280014,B,477.63530000156607,Incorrect
4,104,356,B,49.95014402969575,43.02709519025863,2.4975072014847877,0.6758680307751261,A,741.3531999991392,Incorrect
4,104,357,A,46.82320630006062,55.42174385840091,2.341160315003031,0.8705627167734376,A,575.048999999126,Correct
4,104,358,A,16.5125044654837,33.1036902377355,0.8256252232741851,0.51999155028791,A,1412.5672000009217,Correct
4,104,359,A,42.449210087767,50.940288925754494,2.12246050438835,0.800168187304459,A,1045.1278000000457,Correct
4,104,360,B,45.08866791819741,18.435948943858,2.2544333959098704,0.2895912088199041,B,778.4081999998307,Correct
4,104,361,A,58.61678265994598,73.48507943524574,2.9308391329972996,1.1543009285111518,B,729.8678000006475,Incorrect
4,104,362,B,54.566623212759254,27.184823847629026,2.7283311606379628,0.42701821444421983,B,950.2954999989015,Correct
4,104,363,A,31.801403590324085,44.46795794107411,1.5900701795162042,0.6985010499390917,A,592.8096999996342,Correct
4,104,364,B,51.10971355835358,31.629961427575246,2.555485677917679,0.49684227227099453,B,495.84279999908176,Correct
4,104,365,B,65.38418706806547,45.92943855215302,3.2692093534032733,0.7214579336947389,B,469.4984999987355,Correct
4,104,366,B,66.03078897532447,49.38509017729274,3.3015394487662233,0.7757391824892615,B,414.0886000022874,Correct
4,104,367,A,26.994435852415542,40.99746253526809,1.349721792620777,0.643986635583105,A,526.6681000030076,Correct
4,104,368,B,71.84155924085532,46.42847942519285,3.5920779620427656,0.7292968493976534,B,513.9834000001429,Correct
4,104,369,B,61.140923851208946,40.952212023410766,3.0570461925604473,0.6432758422049942,B,470.16660000008414,Correct
4,104,370,B,40.13785234129104,18.729549685375545,2.0068926170645516,0.2942030784831041,B,779.6597000015026,Correct
4,104,371,A,62.18079597661932,82.32905820375522,3.109039798830966,1.2932218221494194,B,488.63649999839254,Incorrect
4,104,372,A,18.062030934115665,37.58802439032267,0.9031015467057832,0.5904313064379584,A,465.2090000017779,Correct
4,104,373,A,39.69908239820042,49.570343787022864,1.9849541199100207,0.7786491393861573,A,694.1607999979169,Correct
4,104,374,A,55.52927624781956,75.26212717656769,2.776463812390978,1.182214729157229,A,820.8233000004839,Correct
4,104,375,B,61.46286959439012,39.18039964014352,3.0731434797195063,0.6154442783709353,B,1458.905200001027,Correct
4,104,376,B,37.07517080032394,12.858116648034084,1.853758540016197,0.2019748240023225,B,632.7099000009184,Correct
4,104,377,A,52.04570293553114,81.69260726042185,2.6022851467765573,1.2832244741096874,B,1024.8083000005863,Incorrect
4,104,378,B,77.86941094412765,59.26263047296641,3.8934705472063826,0.9308952226313895,B,653.4565000001749,Correct
4,104,379,B,62.36217739402659,48.89928674569677,3.1181088697013295,0.7681082000303084,B,1888.214099999459,Correct
4,104,380,A,42.25865077366581,64.58432112980292,2.1129325386832907,1.0144881439923643,A,766.8819999998959,Correct
4,104,381,B,51.00126994955332,23.92597284620062,2.550063497477666,0.37582830261806366,B,1025.3822000013315,Correct
4,104,382,B,39.36123478492317,12.900316238938881,1.9680617392461586,0.2026376936261775,B,754.2314000020269,Correct
4,104,383,A,32.11358532883561,63.00046227084507,1.6056792664417805,0.989608947214239,A,590.0911999997334,Correct
4,104,384,B,82.57265890197709,66.78350822063501,4.128632945098855,1.0490328940345024,B,578.8055000011809,Correct
4,104,385,B,67.139575979255,35.592681414702575,3.3569787989627504,0.5590885322699579,B,467.8944000006595,Correct
4,104,386,B,48.87836273657176,35.75003078687488,2.443918136828588,0.5615601704282753,B,871.5131999997539,Correct
4,104,387,A,57.36478074469441,66.44985320724884,2.86823903723472,1.0437918533400654,B,614.4231000034779,Incorrect
4,104,388,B,38.247169971369715,20.058177708002546,1.9123584985684858,0.3150731186592967,A,643.4527999990678,Incorrect
4,104,389,B,80.74721840095353,53.53159202557662,4.037360920047677,0.8408722812125873,B,501.6524999991816,Correct
4,104,390,B,41.17195133472124,31.217356106523916,2.0585975667360623,0.49036108304376,A,1056.4364999991085,Incorrect
4,104,391,A,21.181579312165717,32.932218063457185,1.059078965608286,0.5172980716728708,A,551.6260999975202,Correct
4,104,392,B,49.910597251439256,28.983633037538148,2.4955298625719626,0.45527384312536134,A,1111.3592000001518,Incorrect
4,104,393,A,24.29831816467612,35.95863620300088,1.2149159082338061,0.5648369366422777,A,555.2349999998114,Correct
4,104,394,A,35.84958505869468,46.32333118012638,1.792479252934734,0.7276451846264602,B,969.0522000018973,Incorrect
4,104,395,A,17.628319476090898,44.33465466973924,0.8814159738045448,0.6964071270494661,A,388.0785000001197,Correct
4,104,396,A,27.521965262435415,59.1394899443828,1.3760982631217706,0.9289609357316023,A,742.6085000006424,Correct
4,104,397,B,41.98654710871922,27.301806946734512,2.099327355435961,0.42885578066793956,B,577.3501000003307,Correct
4,104,398,B,72.86156458188938,57.9513681696073,3.643078229094469,0.9102979625355783,B,534.3485000012151,Correct
4,104,399,A,50.837689534169826,68.67214103009175,2.5418844767084914,1.0786994688320923,B,521.9901999989816,Incorrect
4,104,400,B,55.932112853031164,30.7514200455328,2.796605642651558,0.4830421765124987,B,544.046500002878,Correct
4,104,401,A,45.65649600204634,75.52464735167925,2.282824800102317,1.186338386424977,A,682.2547999981907,Correct
4,104,402,B,61.38329418231659,45.91897972335397,3.06916470911583,0.7212936467961375,A,463.5216999995464,Incorrect
4,104,403,A,28.997148684092032,56.94612851993181,1.4498574342046016,0.8945076950429898,A,490.29540000265115,Correct
4,104,404,B,35.69069829891255,25.21005391165244,1.7845349149456273,0.3959986008272496,B,924.780199999077,Correct
4,104,405,A,50.20098056187922,69.0479711635015,2.510049028093961,1.084602994762681,A,658.5752000028151,Correct
4,104,406,A,62.81194824857852,73.67193383451823,3.1405974124289258,1.157236030551379,A,1314.6121999998286,Correct
4,104,407,A,57.18642849169311,82.84209946325522,2.8593214245846554,1.3012806554085878,A,615.8890999977302,Correct
4,104,408,B,71.66311115800873,48.58937403738701,3.5831555579004366,0.7632401025919081,A,826.8886000005296,Incorrect
4,104,409,B,51.68081647101277,42.56441382203961,2.5840408235506387,0.6686002488383775,B,461.11649999875226,Correct
4,104,410,B,86.42805408016662,62.43609215461559,4.321402704008331,0.9807438421589783,B,586.1432999990939,Correct
4,104,411,B,75.66745649749467,46.7312556772878,3.7833728248747334,0.7340528476439682,B,570.4277000004367,Correct
4,104,412,B,69.32111232982945,53.98629248826338,3.4660556164914724,0.8480146993783902,B,515.7985000005283,Correct
4,104,413,B,76.20380418801368,55.33097766259085,3.810190209400684,0.8691369647036816,B,467.28520000033313,Correct
4,104,414,B,56.01311907836221,38.13777905011524,2.80065595391811,0.5990668324403637,A,609.3715000024531,Incorrect
4,104,415,B,52.177849586471176,23.27677566015737,2.608892479323559,0.3656307370660405,B,516.3945000022068,Correct
4,104,416,B,35.705345354420416,25.59612161427848,1.7852672677210208,0.402062938119041,B,944.5765999989817,Correct
4,104,417,A,64.03776889504329,74.22331775915212,3.2018884447521647,1.1658971489860657,A,677.8083000026527,Correct
4,104,418,B,67.20688707669909,34.05022601340008,3.3603443538349547,0.5348596994838488,B,584.0463999993517,Correct
4,104,419,B,61.87565199151446,51.65246986476514,3.0937825995757233,0.8113550993345716,A,577.7120999991894,Incorrect
4,104,420,A,26.069925053473135,39.00299050423583,1.3034962526736567,0.6126575421806988,A,494.977000002109,Correct
4,104,421,A,32.49709386151649,45.385380607189354,1.6248546930758243,0.7129118914796138,A,543.2736000002478,Correct
4,104,422,A,61.48431105680329,76.52860012312024,3.0742155528401645,1.2021084396815276,B,563.7075000013283,Incorrect
4,104,423,A,60.18332914692104,76.5316701470894,3.009166457346052,1.2021566635052667,B,598.7489999970421,Incorrect
4,104,424,B,42.559971666263905,32.349508783101285,2.127998583313195,0.5081448957011474,B,688.9713000018673,Correct
4,104,425,B,61.080397759781555,33.66648214200038,3.0540198879890776,0.5288318648476018,B,1489.8420999998052,Correct
4,104,426,A,27.696874964270368,58.625409212506945,1.3848437482135185,0.920885774478536,A,590.8028999983799,Correct
4,104,427,B,81.01428492780131,66.9743915718444,4.050714246390066,1.0520312827037626,A,1495.1209999999264,Incorrect
4,104,428,B,71.46222462555316,40.651574714460445,3.5731112312776583,0.6385534423990276,B,1169.0438999976323,Correct
4,104,429,A,43.67894266829683,66.29257511784957,2.1839471334148413,1.0413213348889285,A,525.7437000000209,Correct
4,104,430,B,76.80309748340115,45.57805564118305,3.8401548741700573,0.7159384238362375,B,645.502999999735,Correct
4,104,431,A,16.581854901748873,43.51803426872695,0.8290927450874436,0.6835796837865072,A,523.0372000005445,Correct
4,104,432,B,61.48173125735456,36.43432205963859,3.074086562867728,0.5723089926054257,B,1220.176700000593,Correct
4,104,433,A,49.94899249408508,62.67845956674603,2.497449624704254,0.984550940566071,A,527.7756999967096,Correct
4,104,434,A,37.69134679026214,57.75476131436348,1.884567339513107,0.9072096692751815,A,459.90420000089216,Correct
4,104,435,A,34.14207413332237,47.92218482819612,1.7071037066661183,0.7527599190011658,A,434.5513000007486,Correct
4,104,436,A,49.5162487076519,74.53411102329798,2.4758124353825948,1.1707790781631948,A,483.1104000004416,Correct
4,104,437,A,60.39776762037073,76.07801579000215,3.019888381018536,1.1950306775277952,A,520.9437000012258,Correct
4,104,438,A,64.35325589869275,75.59363252701493,3.2176627949346375,1.1874220030251825,A,315.74239999827114,Correct
4,104,439,B,67.97579990892987,46.02589325608337,3.3987899954464935,0.7229730406410975,B,791.5935999990324,Correct
4,104,440,A,27.863998935317493,46.64219578606737,1.3931999467658747,0.7326538981440304,A,1097.2537999987253,Correct
4,104,441,B,81.7597777097552,67.46645031372984,4.08798888548776,1.0597605233469722,B,1274.3663000001106,Correct
4,104,442,A,27.693665736753402,53.92083178474347,1.3846832868376702,0.8469864450520054,A,560.4595999975572,Correct
4,104,443,A,53.75474127341422,67.38642638226887,2.687737063670711,1.0585035103710265,A,738.4215999991284,Correct
4,104,444,B,58.94968135413729,51.348466871519854,2.9474840677068648,0.8065798314833281,A,695.6707999997889,Incorrect
4,104,445,B,70.14791505607977,39.90726172730958,3.5073957528039887,0.6268618013370044,B,511.6794999994454,Correct
4,104,446,B,68.47936149880114,40.671285884824655,3.423968074940057,0.6388630647390771,B,584.2439000007289,Correct
4,104,447,A,57.89926121661659,68.76808665612633,2.894963060830829,1.0802065792015638,B,447.1670999992057,Incorrect
4,104,448,A,24.766736887242857,44.1997747915405,1.2383368443621428,0.6942884388771348,A,623.1866999987687,Correct
4,104,449,B,63.86750096733723,54.970172555831,3.1933750483668617,0.8634694513398096,B,612.7114000009897,Correct
4,104,450,A,29.3213971579748,56.66571850961666,1.46606985789874,0.8901030249009942,A,517.5592000014149,Correct
4,104,451,B,51.90516098320051,23.82689010611464,2.5952580491600252,0.3742719145763053,B,608.5640999990574,Correct
4,104,452,A,43.907426197005435,52.91259713407479,2.195371309850272,0.8311491321938284,A,510.69319999805884,Correct
4,104,453,A,61.24899110816182,76.84895225095418,3.062449555408091,1.2071405191383524,B,489.45300000195857,Incorrect
4,104,454,B,48.17712464153506,34.76184658901723,2.4088562320767526,0.5460378093463596,B,723.3962999998766,Correct
4,104,455,B,71.33346454255405,53.36738167355312,3.5666732271277026,0.8382928710347852,A,613.6609999994107,Incorrect
4,104,456,A,44.57743926194002,66.09491034626825,2.228871963097001,1.0382164239175617,A,860.8110999994096,Correct
4,104,457,A,46.00849835899214,56.0590681957745,2.300424917949607,0.880573784054672,B,2054.2006000032416,Incorrect
4,104,458,A,68.22525474049827,88.50524426295031,3.4112627370249133,1.3902371259032746,B,1073.0027999998129,Incorrect
4,104,459,A,59.39799839204303,79.6698767965849,2.9698999196021516,1.2514514982827754,B,579.7720000009576,Incorrect
4,104,460,A,53.36614707879016,61.51218685195996,2.6683073539395084,0.9662311716018004,A,413.6988999998721,Correct
4,104,461,B,46.95274499172503,39.50287422174334,2.347637249586251,0.6205096972535524,B,966.8418999972346,Correct
4,104,462,A,44.3137543649618,61.18018831271535,2.21568771824809,0.9610161507423334,A,954.1800000006333,Correct
4,104,463,B,48.69894716596434,40.13889132340895,2.434947358298217,0.6305002305243032,B,756.9672999998147,Correct
4,104,464,A,16.81224904961099,41.2731668242975,0.8406124524805495,0.6483173884279949,A,515.8564999983355,Correct
4,104,465,A,27.36311944070365,52.497935250332574,1.3681559720351826,0.8246356385553872,A,1311.7536999998265,Correct
4,104,466,A,16.52293579899015,41.17956596815425,0.8261467899495075,0.6468471096178482,A,529.4003000017256,Correct
4,104,467,B,55.849735696894015,42.19249690514959,2.7924867848447006,0.6627581915691402,B,663.7406000008923,Correct
4,104,468,A,41.05001154765147,58.52565012054497,2.0525005773825735,0.9193187623263532,A,546.3417999999365,Correct
4,104,469,B,35.454345343380346,24.751420471935866,1.7727172671690172,0.38879440360272866,B,729.7465000010561,Correct
4,104,470,A,16.90401197408329,47.17509727395279,0.8452005987041644,0.7410246951411696,A,499.73400000089896,Correct
4,104,471,A,31.355851616124777,51.493721658850845,1.567792580806239,0.808861488347217,A,592.0943000019179,Correct
4,104,472,A,63.47158541683859,81.16127058139215,3.1735792708419295,1.2748782570725747,B,520.9733000010601,Incorrect
4,104,473,A,40.4569067320048,56.526548245748316,2.02284533660024,0.8879169435081598,A,413.65940000105184,Correct
4,104,474,B,65.45038214496161,37.23852644250378,3.2725191072480806,0.5849414055113957,B,519.6047999997973,Correct
4,104,475,A,30.094247013608552,45.165480088837064,1.5047123506804274,0.7094577022147329,A,564.8755000001984,Correct
4,104,476,B,71.06195585756033,40.467968465121515,3.5530977928780167,0.6356693621786458,B,728.7470000010217,Correct
4,104,477,B,45.52146368112099,38.21123933095864,2.2760731840560497,0.6002207438335052,A,545.8895000010671,Incorrect
4,104,478,B,59.66680623179647,33.960951626696726,2.983340311589824,0.5334573806967438,B,495.94450000222423,Correct
4,104,479,B,54.22789222717317,36.09860718214797,2.7113946113586587,0.567035595641299,B,497.3519999985001,Correct
4,104,480,B,33.192334880413625,10.087490031440641,1.6596167440206813,0.15845392287967094,B,587.0303000010608,Correct
4,104,481,A,51.270400626117656,59.73661087181433,2.563520031305883,0.9383404893262204,A,576.2719999984256,Correct
4,104,482,B,59.32392514821852,31.079209135214747,2.966196257410926,0.4881910754928571,B,620.6988000012643,Correct
4,104,483,A,22.178446704188417,50.52999345193916,1.1089223352094209,0.793723281072762,A,484.73010000088834,Correct
4,104,484,A,29.651986889066045,46.15043090894078,1.4825993444533023,0.7249292735176583,A,495.2283999991778,Correct
4,104,485,B,53.020702403165714,27.333793206312425,2.651035120158286,0.42935821965846854,B,784.6262999992177,Correct
4,104,486,B,38.19226879883544,11.959453422676813,1.9096134399417721,0.1878586550681539,B,521.7250999994576,Correct
4,104,487,B,50.61870935938411,43.2167340827215,2.530935467969206,0.6788468715321075,B,379.9568999966141,Correct
4,104,488,B,60.56771864742709,34.196217248578115,3.0283859323713544,0.5371529244434678,B,526.443399998243,Correct
4,104,489,A,44.65422966335576,63.285830547547526,2.2327114831677877,0.9940915016225192,A,493.38039999929606,Correct
4,104,490,B,78.1013069837947,61.43051491929472,3.905065349189735,0.9649482718834723,A,435.4568000017025,Incorrect
4,104,491,A,46.35381715025523,60.94342605669962,2.3176908575127615,0.9572970979216014,A,572.8609000034339,Correct
4,104,492,A,49.51655539192849,62.31861191479284,2.4758277695964246,0.9788984668671327,A,535.0634000024002,Correct
4,104,493,A,22.776566941749298,54.6293373829115,1.138828347087465,0.8581156249631652,A,624.7471999995469,Correct
4,104,494,A,43.41883726042206,65.72338545663663,2.170941863021103,1.0323805245980995,A,368.21839999902295,Correct
4,104,495,A,11.27913383023731,37.26762819304486,0.5639566915118656,0.5853985347399279,A,518.8395000004675,Correct
4,104,496,B,69.50875207948084,53.76323044610233,3.475437603974042,0.8445108490136507,B,738.9798999975028,Correct
4,104,497,A,23.81663889146085,47.36190975745279,1.1908319445730426,0.7439591387699821,A,589.2242000008991,Correct
4,104,498,A,33.58026083139893,42.39180511580385,1.6790130415699465,0.6658889176210978,A,634.775599999557,Correct
4,104,499,A,19.838031224527466,33.59277600463632,0.9919015612263733,0.5276740915492648,A,1465.0918999977876,Correct
4,104,500,B,86.33051810267803,66.49644952432261,4.3165259051339016,1.044523786577082,B,697.0743000019866,Correct
4,104,501,A,28.72948630773087,43.42500604234516,1.4364743153865436,0.6821183998236197,A,707.3724000001675,Correct
4,104,502,B,74.40837941955664,57.37079417572042,3.720418970977832,0.9011783275652768,B,611.630299998069,Correct
4,104,503,A,39.44981989672306,47.10207925899471,1.972490994836153,0.7398777308443099,A,739.6693999980926,Correct
4,104,504,B,34.620944179364585,16.30295310223679,1.7310472089682292,0.2560861884890301,B,678.993099998479,Correct
4,104,505,A,49.89383825847406,66.70253779664166,2.4946919129237033,1.0477610135886248,A,1472.1145000003162,Correct
4,104,506,B,56.385932590687965,40.28167061904423,2.8192966295343984,0.6327430024555659,B,1155.7256999985839,Correct
4,104,507,B,43.875310425344935,23.727961437289313,2.1937655212672467,0.37271794668025005,B,657.534999998461,Correct
4,104,508,B,67.90220236602569,35.60385131792775,3.395110118301284,0.5592639886995254,B,901.6983999972581,Correct
4,104,509,B,66.9860763373202,44.71429422118988,3.34930381686601,0.7023704911787133,A,852.8761000015948,Incorrect
4,104,510,A,21.159537397259058,51.49626985479932,1.0579768698629528,0.8089015153155755,A,560.2104999998119,Correct
4,104,511,B,77.16138768290057,55.53704585624946,3.858069384145028,0.8723738763203639,B,650.1573999994434,Correct
4,104,512,A,32.033868999772615,46.22423597404188,1.6016934499886306,0.726088600769255,A,470.88300000177696,Correct
4,104,513,A,25.415887957100782,37.96316945981705,1.2707943978550391,0.5963240714097282,A,437.78050000037183,Correct
4,104,514,B,52.486830696057126,36.186169880614905,2.6243415348028565,0.5684110272924602,B,586.7469000004348,Correct
4,104,515,A,54.07741849887336,82.17714343525952,2.703870924943668,1.29083555054603,B,1020.4369000020961,Incorrect
4,104,516,A,22.427192971594838,40.190329585189545,1.121359648579742,0.6313082208509199,A,523.0682000001252,Correct
4,104,517,A,52.70702991082187,74.99852028369098,2.6353514955410935,1.1780740017667435,B,670.1462000019092,Incorrect
4,104,518,A,34.6989934970151,57.4242195259165,1.7349496748507551,0.9020175310037342,A,986.2362999992911,Correct
4,104,519,B,82.99038149916714,65.25096155958312,4.1495190749583575,1.0249597073762815,B,962.8431999990426,Correct
4,104,520,B,70.04375188237049,52.39555853456718,3.5021875941185243,0.823027508864651,B,1548.787399999128,Correct
4,104,521,A,24.917880860942198,44.44508565861242,1.24589404304711,0.6981417729663293,A,493.6430999987351,Correct
4,104,522,A,51.92475757552079,65.25164809807589,2.5962378787760394,1.024970491497708,A,751.8545000020822,Correct
4,104,523,A,51.63084442124516,66.79746044647204,2.581542221062258,1.0492520550854567,A,571.1850999978196,Correct
4,104,524,A,47.2316122864525,59.053081020806296,2.3615806143226252,0.9276036275340396,A,459.77570000104606,Correct
4,104,525,B,70.61123783085898,43.79116132791036,3.530561891542949,0.6878699535996431,B,635.5280999996467,Correct
4,104,526,B,63.14844455087928,42.99456569806959,3.1574222275439645,0.6753570587066958,B,1629.7182999987854,Correct
4,104,527,A,53.36727166014045,74.1581978926844,2.668363583007023,1.164874248515577,A,2227.520500000537,Correct
4,104,528,B,68.46692163444855,38.89711234859335,3.423346081722428,0.6109944120009885,B,1247.6816999987932,Correct
4,104,529,A,39.62248484248839,65.03394174720461,1.9811242421244197,1.0215507681350227,A,478.03879999992205,Correct
4,104,530,A,26.564613616314617,37.84997623604766,1.3282306808157307,0.5945460364085778,A,849.399299997458,Correct
4,104,531,B,36.275272974343615,26.210130090476078,1.8137636487171807,0.41170776070936216,A,606.3763000020117,Incorrect
4,104,532,B,35.306524759027134,15.640540132093008,1.7653262379513566,0.24568102988579865,B,772.4458000011509,Correct
4,104,533,A,57.59055725456605,80.57425767846767,2.879527862728303,1.265657479955625,B,1197.8553000008105,Incorrect
4,104,534,A,64.09686782183853,84.81092560843328,3.2048433910919267,1.3322069041780222,B,646.6943999985233,Incorrect
4,104,535,A,46.10625426789315,61.777024087188245,2.3053127133946574,0.9703912251647515,A,529.2191999978968,Correct
4,104,536,A,28.72111770922424,61.21786611780697,1.436055885461212,0.9616079923207295,A,613.3644000001368,Correct
4,104,537,A,50.386590356153164,61.27198993770702,2.519329517807658,0.9624581672956405,A,1615.8379000007699,Correct
4,104,538,B,58.138582059073954,27.25518188427709,2.9069291029536974,0.42812339589949255,B,602.3461000004318,Correct
4,104,539,A,44.05146405771334,65.71912688475248,2.202573202885667,1.0323136311073695,A,463.6179000008269,Correct
4,104,540,A,48.28701066848176,78.34379007217943,2.4143505334240882,1.2306213767256993,A,529.8203999991529,Correct
4,104,541,A,53.755154083512146,64.60613990045931,2.6877577041756076,1.014830872440387,A,403.496200000518,Correct
4,104,542,B,56.96229476563732,50.217485206866996,2.848114738281866,0.7888144130382374,A,729.3155000006664,Incorrect
4,104,543,A,33.79579985286687,65.35310746204475,1.6897899926433437,1.0265642114601201,A,1562.1443999989424,Correct
4,104,544,A,42.279591367800634,68.02487979485824,2.1139795683900315,1.068532313124277,A,503.14150000122027,Correct
4,104,545,B,62.10134211898344,48.17010592965393,3.105067105949172,0.7566542545562146,A,864.7995999999694,Incorrect
4,104,546,B,71.82566027075177,40.62934721588233,3.5912830135375886,0.6382042936678243,A,359.43439999755356,Incorrect
4,104,547,A,35.05771707408223,55.10463385170779,1.7528858537041114,0.865581564436403,A,569.9338000013086,Correct
4,104,548,A,38.7301271657216,57.25772865546154,1.93650635828608,0.8994022985261788,A,419.614400001592,Correct
4,104,549,A,45.192667481214016,77.06294085477656,2.2596333740607006,1.210501844266954,A,507.8904000001785,Correct
