subject,day,trial,cat,x,y,xt,yt,resp,rt,fb
19,119,0,A,41.53299073155601,60.7735069180364,2.0766495365778006,0.9546280143329581,A,2798.1528999998773,Correct
19,119,1,A,52.99664993126705,79.7819520130972,2.6498324965633526,1.2532119716669978,A,1772.2903000003498,Correct
19,119,2,A,23.40702334370657,36.14995179669171,1.1703511671853284,0.567842114960559,A,1437.3803000007683,Correct
19,119,3,B,62.060839005097435,39.992269806484536,3.1030419502548714,0.6281971051221636,A,661.6788000001179,Incorrect
19,119,4,A,45.10433154363299,68.76435505546795,2.2552165771816495,1.0801479633554913,B,1198.5225999997056,Incorrect
19,119,5,B,45.53956802551974,24.66379549096939,2.2769784012759873,0.38741799362035245,A,899.2528999997376,Incorrect
19,119,6,A,59.14959094143353,81.95164780935342,2.9574795470716766,1.2872934735372137,A,1426.4280999996117,Correct
19,119,7,B,83.63422547550212,55.51522745271463,4.1817112737751065,0.8720311536390734,A,1168.2533000002877,Incorrect
19,119,8,A,48.986888582952595,60.7075430747297,2.44934442914763,0.9535918567052838,A,1686.304700000619,Correct
19,119,9,B,76.91483543196298,55.26086786186825,3.845741771598149,0.8680356825292078,B,1056.01359999946,Correct
19,119,10,A,55.17584398181776,67.38628860978682,2.7587921990908884,1.0585013462459392,A,1723.8996999994924,Correct
19,119,11,A,45.87834584757842,68.5596272819312,2.293917292378921,1.0769321070088471,A,1602.810600000339,Correct
19,119,12,B,62.964556116154505,41.602616234802326,3.1482278058077253,0.6534923676668523,B,1475.3786000001128,Correct
19,119,13,B,75.58169623011453,47.15299103924883,3.7790848115057263,0.7406774512184474,B,1087.5380999996196,Correct
19,119,14,B,45.44257044686964,29.81684480554209,2.2721285223434817,0.4683619029715901,A,837.9159999994954,Incorrect
19,119,15,A,52.51360036553217,63.98620384819894,2.6256800182766087,1.0050929397030037,B,3148.846500000218,Incorrect
19,119,16,A,55.22782829107414,83.12696468334423,2.761391414553707,1.305755307822062,A,1269.3733000005523,Correct
19,119,17,B,59.15841516755471,49.87090851210006,2.9579207583777354,0.7833703990473111,B,2029.1369999995368,Correct
19,119,18,A,62.218497341528085,85.073004504341,3.1109248670764043,1.3363236298482453,A,1444.060000000718,Correct
19,119,19,A,61.3528506648281,78.70646849992609,3.067642533241405,1.2363183161468212,B,1366.8393999996624,Incorrect
19,119,20,A,45.62805657977766,66.87125076858295,2.281402828988883,1.0504111507547051,A,677.7720999998564,Correct
19,119,21,B,60.143955420467655,33.27048389919109,3.007197771023383,0.5226115389953812,B,1671.6829999995753,Correct
19,119,22,B,30.723677355299305,11.956259978779993,1.5361838677649653,0.1878084925687244,A,1859.0379000006578,Incorrect
19,119,23,A,62.08929933340224,78.61197917163653,3.1044649666701116,1.2348340812488359,A,3937.692900000002,Correct
19,119,24,B,57.448924546071844,47.305319042024955,2.872446227303592,0.7430702138907348,B,979.3637999991915,Correct
19,119,25,A,67.22838359497524,87.66676812243244,3.3614191797487623,1.3770663734869681,A,4680.908799999997,Correct
19,119,26,B,48.93435635379085,22.51158876410114,2.4467178176895423,0.3536112094096734,A,1309.613100000206,Incorrect
19,119,27,A,65.35103995021728,87.72524106468205,3.2675519975108642,1.377984864315994,A,4398.739500000374,Correct
19,119,28,A,29.895843685278155,44.42112503106527,1.4947921842639078,0.6977654003089416,B,2308.341900000414,Incorrect
19,119,29,A,43.90772048022598,69.32375608994002,2.1953860240112992,1.0889350142570313,A,681.5765000001193,Correct
19,119,30,B,72.8866303870524,57.08579452178898,3.6443315193526202,0.8967015634699436,B,649.9024999993708,Correct
19,119,31,A,64.24444207176737,78.11327211539016,3.2122221035883682,1.227000409127851,A,929.3460999997478,Correct
19,119,32,A,39.81299169648866,66.81169508891568,1.990649584824433,1.0494756523260937,A,1768.254600000546,Correct
19,119,33,B,59.222784472297796,39.02184807723032,2.9611392236148895,0.6129537562446188,B,775.1960000005056,Correct
19,119,34,A,64.27621866381264,85.73342034019187,3.213810933190632,1.3466974175393627,A,1056.301099999473,Correct
19,119,35,B,44.899195446215224,22.872961183537164,2.2449597723107613,0.3592876341002243,A,974.0814000006139,Incorrect
19,119,36,B,65.7053397549476,49.33545147650025,3.28526698774738,0.7749594596005447,B,1993.1682000005821,Correct
19,119,37,A,41.490233642490594,59.80157754902856,2.0745116821245295,0.9393609835055421,A,1619.9246000005587,Correct
19,119,38,B,52.31964504935275,43.04728030443652,2.6159822524676377,0.6761850978071918,A,656.3710000000356,Incorrect
19,119,39,A,64.40239837431918,77.24271662447703,3.2201199187159593,1.213325755453876,A,4301.350000000639,Correct
19,119,40,A,51.59128229311276,74.74957540527265,2.579564114655638,1.174163584760804,B,3150.4996000003302,Incorrect
19,119,41,B,72.74001604689569,49.97943731700306,3.6370008023447844,0.7850751655282419,A,1095.9356000003027,Incorrect
19,119,42,A,48.67966393812381,60.732134752580194,2.4339831969061905,0.9539781418776566,A,3567.357200000515,Correct
19,119,43,B,57.02769316205266,35.43904230393442,2.8513846581026328,0.5566751747614914,A,3779.8320000001695,Incorrect
19,119,44,B,46.95770225062077,36.302957123784104,2.3478851125310385,0.5702455170183269,B,4276.939000000311,Correct
19,119,45,A,38.961945775321595,49.10010229720067,1.9480972887660797,0.7712626033369646,A,1984.8611000006713,Correct
19,119,46,A,20.89782116783096,35.80988401158055,1.0448910583915478,0.5625003426834202,A,1239.7830999998405,Correct
19,119,47,B,46.077372556939785,18.805980172857318,2.3038686278469895,0.2954036457730193,A,1197.5899999997637,Incorrect
19,119,48,B,77.85279116530393,65.02072651383133,3.8926395582651963,1.021343183734618,A,1725.3254999995988,Incorrect
19,119,49,A,52.58761629358415,80.97617121073907,2.629380814679207,1.2719707229574357,B,1056.6868000005343,Incorrect
19,119,50,A,30.49761776997506,46.97646641748388,1.524880888498753,0.737904608943875,A,808.1326000001354,Correct
19,119,51,B,72.91918455315884,58.90874645930262,3.6459592276579422,0.9253364255436443,A,1146.6003000005003,Incorrect
19,119,52,A,31.206881730375294,54.1247919102312,1.5603440865187648,0.8501902432112931,A,766.5071999999782,Correct
19,119,53,B,33.16892935169991,20.98418550467357,1.6584464675849955,0.32961881511523955,B,2111.6254000007757,Correct
19,119,54,A,66.01273418368301,81.89992817999823,3.3006367091841504,1.2864810634990707,B,1050.1165999994555,Incorrect
19,119,55,B,36.321804568924456,25.55556881158349,1.8160902284462228,0.4014259361838957,A,1634.4325999998546,Incorrect
19,119,56,A,44.32438314101398,54.466976728512016,2.2162191570506993,0.8555652697676979,B,7179.28959999972,Incorrect
19,119,57,A,56.53876652686847,65.6181850956747,2.8269383263434236,1.0307280411923345,A,2336.8552000001728,Correct
19,119,58,B,78.63090854079795,57.324287492808594,3.931545427039897,0.9004478022983837,A,4561.71219999942,Incorrect
19,119,59,A,51.7434383577694,64.39070888976232,2.5871719178884702,1.0114468900375815,B,2857.502900000327,Incorrect
19,119,60,B,54.93359094554577,44.02008219789262,2.7466795472772882,0.6914658342165914,A,1337.7558000001954,Incorrect
19,119,61,A,26.059699020033598,44.129752457846536,1.30298495100168,0.693188530631534,A,1559.277999999722,Correct
19,119,62,B,77.30519094384928,58.10817555541251,3.8652595471924642,0.9127610871919496,B,2092.293300000165,Correct
19,119,63,B,44.72379006915804,34.84777812082376,2.236189503457902,0.5473876186915353,B,1474.9341999995522,Correct
19,119,64,B,77.63861586423656,53.42566088737221,3.881930793211828,0.8392083187847404,B,2241.568799999186,Correct
19,119,65,A,28.849120467737862,50.32445556970622,1.442456023386893,0.7904946995684748,A,1191.6824999998425,Correct
19,119,66,B,50.37295789740027,36.921001680350564,2.5186478948700137,0.5799537382108286,B,1542.311499999414,Correct
19,119,67,A,51.46475252204468,64.81980751453652,2.5732376261022343,1.018187155473862,B,1414.047600000231,Incorrect
19,119,68,A,15.614371056411382,38.282377155145284,0.7807185528205691,0.6013381741627907,A,2987.028399999872,Correct
19,119,69,A,30.527436639948903,60.71615029137136,1.5263718319974453,0.9537270585481303,A,1943.469200000436,Correct
19,119,70,B,46.00100092370403,29.758454001655274,2.300050046185201,0.46744470236894997,A,2667.0873000002757,Incorrect
19,119,71,A,19.147296300324182,32.31083718727331,0.9573648150162092,0.5075374436943686,B,1061.8899000000965,Incorrect
19,119,72,B,50.47777359641726,33.46006032751545,2.5238886798208626,0.5255893985679692,A,4418.840100000125,Incorrect
19,119,73,A,50.16211991352775,80.89494499128078,2.5081059956763876,1.2706948244857905,B,1234.9076999998942,Incorrect
19,119,74,A,57.6962365531037,75.82326012704273,2.884811827655185,1.1910289849317266,A,1119.8657999993884,Correct
19,119,75,A,54.408327788640605,73.55172039599732,2.72041638943203,1.1553477222747786,B,1172.0110000005661,Incorrect
19,119,76,A,40.992586031743315,53.56707160660428,2.049629301587166,0.841429593168132,B,1530.1165999999284,Incorrect
19,119,77,B,71.02493789713522,50.04755628234093,3.5512468948567606,0.7861451757336197,A,767.9574000003413,Incorrect
19,119,78,B,60.303935320756096,50.97813320143378,3.0151967660378047,0.8007626437967313,B,1234.9967000000106,Correct
19,119,79,B,46.31318842914535,22.78048263868834,2.3156594214572674,0.35783498451466556,A,4812.37979999969,Incorrect
19,119,80,B,80.95168043060067,50.67643946528064,4.047584021530033,0.7960236496710676,B,3297.941400000127,Correct
19,119,81,A,42.33906994774522,58.415181572296746,2.1169534973872612,0.9175835264282065,B,2114.7995000001174,Incorrect
19,119,82,B,79.58871242572933,66.79289951851611,3.9794356212864663,1.0491804121966573,B,1796.5210000002116,Correct
19,119,83,A,39.575431166572336,66.79560451341716,1.978771558328617,1.049222902157203,A,2112.6324000006207,Correct
19,119,84,A,59.08003046528287,84.34275139865511,2.9540015232641434,1.3248528408878255,B,2370.324000000437,Incorrect
19,119,85,A,26.79341445056726,41.40175585171198,1.3396707225283628,0.6503372601472831,A,3623.6087999996016,Correct
19,119,86,B,77.13445115757538,63.66785390629954,3.856722557878769,1.0000923105092943,A,3205.3972999992766,Incorrect
19,119,87,A,26.672642029521697,52.12448306074584,1.3336321014760848,0.8187694652790238,A,4948.046600000453,Correct
19,119,88,B,44.26185635258285,21.34425122321557,2.2130928176291427,0.3352747141961449,B,5677.189200000612,Correct
19,119,89,A,31.617317908263878,59.616178513526556,1.580865895413194,0.9364487422659634,A,4274.460200000249,Correct
19,119,90,B,32.7028638508993,17.367099674497474,1.6351431925449649,0.2728017637578148,A,1743.2174000005034,Incorrect
19,119,91,B,56.358979781807385,42.30944201035842,2.8179489890903695,0.6645951609861268,B,2300.4821000004085,Correct
19,119,92,A,15.829800760425048,41.83916304556898,0.7914900380212524,0.6572080362815254,A,2762.571299999763,Correct
19,119,93,B,69.14928572168729,41.71662384165259,3.457464286084365,0.655283194967523,B,2839.853000000403,Correct
19,119,94,B,50.653370435718394,24.596159999780625,2.5326685217859195,0.38635557780914964,A,4378.882400000293,Incorrect
19,119,95,A,61.06232885259159,74.8852444074021,3.0531164426295794,1.176294668462853,B,3750.515699999596,Incorrect
19,119,96,A,46.394018611901835,67.3403428333982,2.3197009305950917,1.0577796316781092,A,2222.5426999993942,Correct
19,119,97,A,15.261526095380393,31.66583306024798,0.7630763047690197,0.49740574255937925,B,2386.134000000311,Incorrect
19,119,98,A,55.90931541279071,78.44232160844071,2.795465770639536,1.232169106478026,A,1814.5926999995936,Correct
19,119,99,A,63.32618314895504,83.2828142093091,3.1663091574477518,1.3082033864512455,A,4108.97709999972,Correct
19,119,100,B,63.433055281101474,34.48510182128995,3.171652764055074,0.5416907127003026,B,3576.0482999994565,Correct
19,119,101,B,78.04514870894701,47.58816274855542,3.9022574354473507,0.7475131124434857,A,2420.998200000213,Incorrect
19,119,102,B,51.2940225793614,42.52573498375063,2.56470112896807,0.6679926830672872,A,4204.187600000296,Incorrect
19,119,103,A,51.717099752644934,74.41012780291787,2.585854987632247,1.1688315542916219,B,1201.4963999999964,Incorrect
19,119,104,B,39.279750037364416,22.740205963945122,1.9639875018682207,0.357202319987244,A,1959.8477999998067,Incorrect
19,119,105,A,55.54413009086,73.78334120689172,2.7772065045430003,1.1589860134644003,B,2183.8611000002857,Incorrect
19,119,106,B,76.63812691848335,55.08943041241572,3.8319063459241676,0.8653427493704567,A,775.6155000006402,Incorrect
19,119,107,B,60.92452730647781,31.884203978773122,3.0462263653238906,0.5008359049263605,A,265.0183999994624,Incorrect
19,119,108,A,32.39586454128832,46.70199455086812,1.619793227064416,0.7335932149449892,A,637.4366000000009,Correct
19,119,109,B,60.67090994535433,43.49889751356873,3.0335454972677165,0.6832790843394141,B,1321.2907000006453,Correct
19,119,110,B,41.80683615245198,13.409316426246065,2.090341807622599,0.2106330498717779,B,4336.2240999995265,Correct
19,119,111,B,50.21183835498133,27.963309547320087,2.5105919177490663,0.43924663921959056,A,3074.7582000003604,Incorrect
19,119,112,A,30.819812378341645,52.253509445087126,1.5409906189170823,0.820796206984853,B,3767.1963000002506,Incorrect
19,119,113,B,46.348754981394876,27.521072977440355,2.317437749069744,0.43230000342417596,B,4202.002299999549,Correct
19,119,114,B,45.244114121408955,19.28909155806515,2.2622057060704477,0.3029923416661918,A,3287.8076999995756,Incorrect
19,119,115,B,58.187973433276,36.13364108715404,2.9093986716638,0.5675859069342672,B,4042.592099999638,Correct
19,119,116,A,57.26841588391491,80.50868964782137,2.8634207941957457,1.264627539738681,A,5987.745700000232,Correct
19,119,117,A,50.92569021999673,65.1653490204747,2.5462845109998367,1.0236149087566906,A,5824.195900000632,Correct
19,119,118,A,68.22873033647508,81.31252743881895,3.411436516823754,1.2772541942330604,B,3846.5783000001466,Incorrect
19,119,119,B,78.4510445149651,61.001294511508675,3.9225522257482557,0.9582060934841151,A,3985.9094000003097,Incorrect
19,119,120,A,42.600402922424976,54.267693842227246,2.1300201461212485,0.8524349415100059,A,2638.112900000124,Correct
19,119,121,A,24.40677869741205,37.94907025664913,1.2203389348706026,0.5961026016442591,B,2127.199699999437,Incorrect
19,119,122,A,49.90209456316027,66.81116951009506,2.4951047281580134,1.049467396553285,A,3018.551899999693,Correct
19,119,123,B,79.34749676791543,51.978430531856226,3.967374838395772,0.8164752775200346,B,2823.816099999931,Correct
19,119,124,B,67.44491956456588,50.97720505734274,3.3722459782282943,0.8007480645434419,B,2156.0020999995686,Correct
19,119,125,B,64.9224818359343,33.100634393054285,3.2461240917967156,0.5199435491919049,B,2417.260800000804,Correct
19,119,126,A,27.42332296961486,44.89080950010018,1.3711661484807427,0.7051431866960681,B,5723.213700000088,Incorrect
19,119,127,A,58.28565552684465,86.64225854376609,2.9142827763422328,1.3609734146576151,B,1149.7392000001128,Incorrect
19,119,128,B,73.50625374838809,53.27819822664665,3.6753126874194044,0.8368919807266693,B,1932.6439999995273,Correct
19,119,129,B,78.72893114364794,56.30932870727716,3.936446557182397,0.8845048669767738,B,6101.246600000195,Correct
19,119,130,A,14.256852676745947,34.663565756373,0.7128426338372974,0.5444940176372408,A,4067.888900000071,Correct
19,119,131,B,32.78572146533653,20.77897357871474,1.6392860732668266,0.32639535372013323,B,4406.9476000004215,Correct
19,119,132,B,72.86650777311583,63.21444657888618,3.643325388655791,0.9929702048648664,B,4312.645999999404,Correct
19,119,133,B,44.01961535300571,26.524940554498542,2.2009807676502855,0.416652791914593,B,3457.7659999995376,Correct
19,119,134,A,29.451974438520015,51.004214080027,1.4725987219260008,0.8011723212796695,A,1936.1484000000928,Correct
19,119,135,A,33.054334748887975,50.92841108574696,1.6527167374443987,0.7999816106299181,A,2568.699899999956,Correct
19,119,136,A,36.966969434756216,49.45860033394592,1.8483484717378107,0.7768938773297909,B,3555.2310000002763,Incorrect
19,119,137,A,54.64519305331667,71.58792519094254,2.7322596526658334,1.124500499328004,B,1015.6698999999207,Incorrect
19,119,138,A,40.935282411659344,70.14545657706252,2.046764120582967,1.1018422553260072,B,1668.630199999825,Incorrect
19,119,139,B,72.31469562967877,60.247375003172486,3.6157347814839387,0.9463635535401802,A,812.1284999997442,Incorrect
19,119,140,B,39.86027596196474,18.90659007945498,1.9930137980982368,0.29698402249024713,A,1859.346899999764,Incorrect
19,119,141,B,34.28898501647684,18.93989450778342,1.714449250823842,0.2975071672270903,B,1125.2698999996937,Correct
19,119,142,A,66.25271351662398,80.03064813095436,3.3126356758311992,1.2571184811511797,A,2503.7697999996453,Correct
19,119,143,B,63.17783330180588,51.82022994549319,3.158891665090294,0.813990268520476,A,3754.268499999853,Incorrect
19,119,144,A,54.3674162718813,69.40189922504464,2.718370813594065,1.0901624837528971,B,4769.182900000487,Incorrect
19,119,145,A,42.90753209486165,70.71939161996292,2.145376604743083,1.1108576058980755,A,2107.70599999978,Correct
19,119,146,A,54.95329958124603,66.08677059370197,2.7476649790623013,1.0380885649832405,B,3926.219600000877,Incorrect
19,119,147,B,55.804529864341646,39.87798757405209,2.7902264932170824,0.6264019640129356,A,3634.4145000002754,Incorrect
19,119,148,A,62.666769843990295,82.84458789796382,3.133338492199515,1.3013197436495851,B,1525.729500000125,Incorrect
19,119,149,A,55.16599004357755,71.84692987481014,2.7582995021788776,1.128568935388423,A,4832.781299999624,Correct
19,119,150,B,43.66598667929844,28.19576842557018,2.1832993339649223,0.4428980947404516,B,4056.0200999998415,Correct
19,119,151,A,58.05750995206895,74.59661294658488,2.9028754976034477,1.1717608560783614,B,4296.012800000426,Incorrect
19,119,152,B,81.66804734119358,64.678143842676,4.083402367059679,1.015961907719874,B,1420.2089999998861,Correct
19,119,153,A,25.69223088151374,51.82632244442711,1.284611544075687,0.8140859692699401,A,1038.4389000000738,Correct
19,119,154,B,78.47571494243138,62.92540583096233,3.923785747121569,0.9884299634135381,B,1495.0187999993432,Correct
19,119,155,A,62.06027989549122,85.44452337877956,3.103013994774561,1.342159434681276,B,4820.244100000309,Incorrect
19,119,156,A,28.304442017372615,53.781691506966276,1.4152221008686308,0.8448008346795891,A,2128.171000000293,Correct
19,119,157,B,72.70584170899463,53.3827904669834,3.6352920854497315,0.8385349117959914,B,2654.557699999714,Correct
19,119,158,A,33.556406370371896,64.96908915851398,1.6778203185185947,1.020532066054039,A,4176.1876999999,Correct
19,119,159,A,56.50844964263324,70.68732011800888,2.8254224821316622,1.1103538279234337,B,2070.5949000002875,Incorrect
19,119,160,B,36.79646207077337,23.38479382251298,1.8398231035386687,0.36732748239259383,A,2167.4479000002975,Incorrect
19,119,161,B,77.50420751723271,62.61644417564244,3.8752103758616356,0.9835768050805684,B,1045.2503999995315,Correct
19,119,162,B,46.32579933616184,32.13026649329644,2.316289966808092,0.5047010458661119,A,3210.53959999972,Incorrect
19,119,163,B,85.18285609935702,68.6138869644373,4.259142804967851,1.0777844161085832,B,833.7353999995685,Correct
19,119,164,B,31.620894853403648,15.548194895840439,1.5810447426701826,0.24423047430677325,A,2757.044599999972,Incorrect
19,119,165,B,72.32262781448267,40.12794642081233,3.6161313907241333,0.6303283083963442,B,1222.7178000002823,Correct
19,119,166,B,75.7392555407157,48.97453797005291,3.786962777035785,0.7692902434983628,A,1722.5915999997596,Incorrect
19,119,167,B,74.54476122590117,44.783388531193395,3.7272380612950586,0.7034558220622729,B,1088.633800000025,Correct
19,119,168,B,60.60578825284245,51.007152606771925,3.030289412642123,0.8012184795498407,B,1386.1006000006455,Correct
19,119,169,A,13.807934955453359,39.16519014745923,0.690396747772668,0.6152053682185263,A,1084.3426999999792,Correct
19,119,170,B,43.40030714178139,22.446969361303132,2.1700153570890692,0.3525961702041255,A,2896.741900000052,Incorrect
19,119,171,B,72.74418841745701,57.055470275020554,3.6372094208728503,0.896225231315577,B,1282.4448999999731,Correct
19,119,172,B,43.81841502756534,34.25782867548422,2.1909207513782665,0.5381207144741949,A,3059.533900000133,Incorrect
19,119,173,B,78.18842432399647,50.32691150857905,3.9094212161998234,0.7905332773660777,B,444.42909999997937,Correct
19,119,174,B,49.124550662392146,37.722768729227866,2.4562275331196073,0.5925478655640452,A,4399.486500000421,Incorrect
19,119,175,B,57.17099666950724,39.72657296397112,2.8585498334753616,0.6240235488795529,B,1456.0339999998178,Correct
19,119,176,B,53.59995434838023,36.626716616665654,2.6799977174190115,0.5753311192401601,A,7166.699699999299,Incorrect
19,119,177,A,36.42769630499108,66.83803842966341,1.8213848152495542,1.0498894525549143,B,1453.6441000000195,Incorrect
19,119,178,A,46.02769768862674,74.61756004305249,2.301384884431337,1.1720898923002452,A,1200.1437999997506,Correct
19,119,179,B,80.84265419348247,55.05746803392309,4.0421327096741235,0.8648406855031381,B,1338.08450000015,Correct
19,119,180,A,14.23138773797342,37.96966385234869,0.711569386898671,0.5964260850890628,A,904.4682999992801,Correct
19,119,181,A,32.22069377102286,42.202044158847784,1.611034688551143,0.6629081594795412,B,2861.9472000000314,Incorrect
19,119,182,B,47.802571422126675,19.971973221685264,2.3901285711063336,0.31371902175469246,A,2449.311499999567,Incorrect
19,119,183,A,53.57255564702824,75.54381696012271,2.678627782351412,1.1866395019302678,B,1255.6782000001476,Incorrect
19,119,184,A,33.33110926575179,42.905489331927654,1.6665554632875896,0.6739578504192958,A,1278.0576999994082,Correct
19,119,185,B,53.896673604300915,45.80984732166465,2.694833680215046,0.7195793990390585,A,1746.194800000012,Incorrect
19,119,186,B,69.92478972584185,51.51516445780517,3.496239486292092,0.8091983110455536,B,1732.9626000000644,Correct
19,119,187,B,87.92813237431716,65.52416061510584,4.396406618715858,1.0292511081052707,B,2121.161299999585,Correct
19,119,188,B,72.48987553663194,40.938523516892445,3.624493776831597,0.6430608236474115,B,2429.885800000193,Correct
19,119,189,B,84.19637349096962,58.671013469338305,4.209818674548481,0.9216021244697049,B,2020.5331999995906,Correct
19,119,190,B,54.67703655182847,46.22112136877076,2.733851827591424,0.7260396766640622,B,2814.4388000000617,Correct
19,119,191,A,55.61362657815934,78.1529623553191,2.7806813289079675,1.2276238619587507,A,1637.6682000000073,Correct
19,119,192,B,85.02704971551216,58.68716156914254,4.251352485775608,0.9218557782282772,B,1205.1199999996243,Correct
19,119,193,A,39.520790036467424,50.383164193650714,1.9760395018233712,0.791416892476907,A,4467.484400000103,Correct
19,119,194,B,61.77026346163518,34.17058628829587,3.088513173081759,0.5367503142608322,B,2674.3946999995387,Correct
19,119,195,B,79.65898069761462,63.73214670901481,3.9829490348807313,1.0011022194927395,B,1499.0120000002207,Correct
19,119,196,A,13.016673446895016,30.967050072586016,0.6508336723447508,0.48642928505691746,A,977.3835999994844,Correct
19,119,197,B,34.81937558392731,16.611069246039616,1.7409687791963655,0.260926065558147,A,966.0501999996995,Incorrect
19,119,198,B,43.856571526583835,15.753011053865759,2.1928285763291915,0.24744771899371737,B,1287.7358999994613,Correct
19,119,199,A,41.634859631833216,61.1156010791737,2.081742981591661,0.9600016168502827,B,1362.7901999998357,Incorrect
19,119,200,B,64.22823302082026,46.01378698658765,3.2114116510410127,0.7227828758045469,B,4159.808000000339,Correct
19,119,201,B,54.64007383184407,24.2119409544256,2.7320036915922037,0.38032027915786654,A,6110.974100000021,Incorrect
19,119,202,B,68.9911231755131,58.136298839310115,3.449556158775655,0.9132028467023874,B,1348.8382000005004,Correct
19,119,203,A,66.99866847944705,81.87320414483514,3.349933423972352,1.2860612833363572,A,1716.0239000004367,Correct
19,119,204,A,51.361016559082756,81.53965033202932,2.568050827954138,1.2808218322969191,A,1277.9786000000968,Correct
19,119,205,A,34.955134727860674,64.84985168503272,1.7477567363930335,1.0186590882004323,A,2397.427500000049,Correct
19,119,206,A,36.68348306431192,68.47601441097083,1.8341741532155962,1.075618719103074,B,1802.9909999995652,Incorrect
19,119,207,A,61.58331663390542,83.27147238459995,3.079165831695271,1.3080252294853227,B,3081.048799999735,Incorrect
19,119,208,A,57.626927668121425,75.53706207395045,2.881346383406071,1.1865333964263944,A,1348.6654999996972,Correct
19,119,209,B,85.02383012801135,66.21583193393589,4.251191506400568,1.040115855774947,B,3678.081199999724,Correct
19,119,210,A,41.85272135512984,54.2685568243776,2.0926360677564917,0.8524484972019244,A,3368.0411000004824,Correct
19,119,211,B,74.08187644424146,44.36955546501886,3.704093822212073,0.6969553474597406,B,4408.633000000009,Correct
19,119,212,B,49.948962943471344,38.010604973814,2.497448147173567,0.5970691867211886,A,1761.4763999999923,Incorrect
19,119,213,B,58.025067163873196,30.046813673986378,2.90125335819366,0.47197424550988476,B,4328.132800000276,Correct
19,119,214,B,48.238549057881045,25.346943941010025,2.4119274528940524,0.3981488643801471,B,3245.9498999996867,Correct
19,119,215,A,14.49831232544435,42.503805816117506,0.7249156162722175,0.6676482205076094,A,875.2046999998129,Correct
19,119,216,B,72.38529986903396,46.855560490261226,3.6192649934516976,0.7360054230801842,B,1441.049000000021,Correct
19,119,217,A,25.847435841672763,58.430134622247415,1.2923717920836382,0.9178184083875753,A,2359.419800000069,Correct
19,119,218,A,54.73378973607868,84.05677577040626,2.7366894868039338,1.320360746223764,B,860.4121999997005,Incorrect
19,119,219,B,67.20548610388639,55.17750481453677,3.3602743051943196,0.8667262188438207,A,1308.3929999993416,Incorrect
19,119,220,A,14.7918802260372,39.37807195527159,0.73959401130186,0.6185493078360574,A,545.9350000000995,Correct
19,119,221,B,38.122311981008224,15.055505590242898,1.9061155990504113,0.23649132879193577,B,820.7184000002599,Correct
19,119,222,B,69.48603633316935,59.6503087897668,3.4743018166584676,0.9369848593914702,B,2861.5571000000273,Correct
19,119,223,A,37.53493716144697,53.11111016127134,1.8767468580723485,0.8342673675332415,B,2236.7848000003505,Incorrect
19,119,224,B,68.61310739776104,48.512389085630176,3.430655369888052,0.762030825797527,B,796.5144999998302,Correct
19,119,225,A,39.88585710063553,68.5158903079622,1.9942928550317764,1.0762450882282908,A,3516.505500000676,Correct
19,119,226,A,65.1473396964746,87.73577798558776,3.2573669848237303,1.378150377882538,B,1580.5498999998235,Incorrect
19,119,227,A,50.230741848522364,80.28056446805513,2.5115370924261184,1.261044157794419,A,1287.3598000005586,Correct
19,119,228,B,85.37122091540732,69.80176450401763,4.268561045770366,1.0964435528671328,B,1745.534900000166,Correct
19,119,229,B,78.94330077364671,48.51530751966745,3.947165038682335,0.7620766684521846,B,1030.2606000004744,Correct
19,119,230,B,44.86312038591646,22.31353921223005,2.243156019295823,0.3505002543236485,A,1786.9678999995813,Incorrect
19,119,231,A,33.06129734412209,65.79566447280274,1.6530648672061046,1.0335158807290803,A,959.4373999998425,Correct
19,119,232,B,74.92449692759988,63.61091834483783,3.746224846379994,0.9991979688012135,B,2155.0207000000228,Correct
19,119,233,B,46.291333562294994,36.3972456925998,2.31456667811475,0.5717265983938715,B,1327.4687000002814,Correct
19,119,234,B,36.0885908984626,11.155106596163662,1.80442954492313,0.17522400466259402,B,4966.663000000153,Correct
19,119,235,A,16.436729143339825,45.017041220139006,0.8218364571669912,0.707126029917688,A,3288.3357999999134,Correct
19,119,236,A,14.248491833918635,39.63700713851779,0.7124245916959318,0.6226166521832683,A,1808.9254000005894,Correct
19,119,237,B,79.03860105918005,49.80306662892157,3.9519300529590025,0.7823047412383151,B,1431.8525999997291,Correct
19,119,238,B,73.13729206839261,52.22036953003759,3.656864603419631,0.8202756464165517,B,3995.1873999998497,Correct
19,119,239,A,44.441715524822754,52.39519471438851,2.222085776241138,0.8230217939906485,B,3079.8690000001443,Incorrect
19,119,240,A,25.189668077748287,37.26426522876808,1.2594834038874143,0.5853457094205969,A,815.3385999994498,Correct
19,119,241,A,43.7975145012858,54.09980559109876,2.1898757250642897,0.8497977590281593,B,973.1999999994514,Incorrect
19,119,242,B,44.3123992155586,32.39628174163425,2.21561996077793,0.5088796036157165,A,1401.3196999994761,Incorrect
19,119,243,A,43.84569985315893,68.59315334129177,2.1922849926579464,1.077458733117802,B,841.369400000076,Incorrect
19,119,244,A,54.029648967847926,75.69263822221747,2.701482448392396,1.188977180848742,B,728.0197999998563,Incorrect
19,119,245,A,61.99934327071488,83.48865107694564,3.099967163535744,1.31143666440727,B,608.8193000005049,Incorrect
19,119,246,A,20.228903663158086,32.833180885696855,1.0114451831579043,0.5157423993224504,A,913.4166000003461,Correct
19,119,247,B,35.60845170601516,15.942490447718132,1.780422585300758,0.2504240543523837,B,1882.8077999996822,Correct
19,119,248,A,64.76062859496531,83.0863535947349,3.2380314297482653,1.3051173903339153,B,975.2726999995502,Incorrect
19,119,249,B,71.63965698324438,47.56083023438499,3.5819828491622188,0.747083774314876,A,2186.8438000001333,Incorrect
19,119,250,B,64.47900349575725,56.04847401846154,3.2239501747878627,0.8804073711065857,B,1376.3640999995914,Correct
19,119,251,B,41.00025067349703,24.42314323645322,2.050012533674851,0.3836378368460634,A,915.7162999999855,Incorrect
19,119,252,A,24.134490660946796,43.335517680384996,1.2067245330473397,0.6807127199210404,B,3313.259699999435,Incorrect
19,119,253,A,55.38482287335973,67.11397216370406,2.769241143667987,1.054223809513613,B,1499.2652999999336,Incorrect
19,119,254,B,42.66096307974175,30.673175983171475,2.1330481539870876,0.48181312165499196,B,951.936399999795,Correct
19,119,255,A,47.03164220703458,63.59916119375023,2.3515821103517287,0.999013287903794,A,1112.19919999985,Correct
19,119,256,A,54.31879823597908,61.633796310772645,2.7159399117989538,0.9681414085138652,A,1073.336499999641,Correct
19,119,257,B,55.62423144440584,28.62496052568474,2.781211572220292,0.44963982848394507,B,1560.8001000000513,Correct
19,119,258,A,64.35029790537341,83.1817972956479,3.2175148952686703,1.3066166164820139,B,1372.974100000647,Incorrect
19,119,259,A,45.82798202080717,70.55339982564148,2.2913991010403585,1.1082502128900933,A,2164.1381999997975,Correct
19,119,260,A,44.187728118654114,60.88501322071118,2.209386405932706,0.9563795512395183,B,4145.664200000283,Incorrect
19,119,261,A,24.80742855483069,36.54330137206327,1.2403714277415345,0.5740208356419588,A,1487.2648999999,Correct
19,119,262,A,56.927285243510624,78.05132386731034,2.846364262175531,1.2260273283224994,A,1423.5642999992706,Correct
19,119,263,A,41.88729284762693,53.801996658339874,2.0943646423813465,0.8451197872515158,A,1221.8939000003957,Correct
19,119,264,B,40.864830195592035,20.408281537913776,2.0432415097796017,0.32057253675951064,A,1040.9505999996327,Incorrect
19,119,265,A,29.303546682187104,61.44794222684082,1.4651773341093552,0.9652220193902659,B,1594.9131999996098,Incorrect
19,119,266,B,66.1017640626332,56.44138636896582,3.30508820313166,0.8865792238758305,A,1079.3770999998742,Incorrect
19,119,267,B,35.32243288483293,25.18051763696245,1.7661216442416463,0.3955346461093473,B,2510.797299999467,Correct
19,119,268,B,83.87093259459971,54.55199891862362,4.193546629729985,0.8569007952069315,B,3171.8156000006275,Correct
19,119,269,B,37.722717023596765,23.76564462748317,1.8861358511798383,0.3733098728476342,A,2561.598299999787,Incorrect
19,119,270,B,75.38210219502535,58.582317885657865,3.769105109751268,0.9202088974992234,B,1193.1108999997377,Correct
19,119,271,A,38.187679880613544,60.69469055974554,1.9093839940306772,0.9533899698720116,A,694.6317000001727,Correct
19,119,272,A,20.14542412801145,46.48360079341199,1.0072712064005724,0.7301626938249188,A,3284.1892999995252,Correct
19,119,273,B,63.34241083171932,34.23298939288598,3.1671205415859665,0.5377305399355397,B,1624.0682000006927,Correct
19,119,274,A,47.0033049183046,76.49472206276216,2.35016524591523,1.2015762843538333,A,826.5627000000677,Correct
19,119,275,A,35.78953095505397,53.607438159236764,1.7894765477526986,0.8420636694941367,A,872.0810000004349,Correct
19,119,276,B,84.02765220773375,63.89119590071549,4.201382610386688,1.0036005583537704,B,2451.389500000005,Correct
19,119,277,B,66.6235847757602,34.56801035728952,3.33117923878801,0.5429930369383833,B,1960.43759999975,Correct
19,119,278,A,31.907763261592486,64.9730576838223,1.5953881630796243,1.0205944035038101,A,873.5323999999309,Correct
19,119,279,A,35.320436288744695,57.17257884553312,1.7660218144372348,0.8980647684395502,B,1149.4045000008555,Incorrect
19,119,280,A,57.168157760817444,84.7604872521226,2.858407888040872,1.3314146203297985,A,2143.9288999999917,Correct
19,119,281,A,43.916396486346116,66.64280232701356,2.1958198243173057,1.0468226910259129,B,1138.1466999991972,Incorrect
19,119,282,A,16.664991020569246,42.61798907536177,0.8332495510284623,0.6694418069496331,A,838.036899999679,Correct
19,119,283,B,61.62612889377355,33.09589506978893,3.081306444688677,0.5198691040761378,B,1168.8294000005044,Correct
19,119,284,A,38.52800209159857,49.56610699737858,1.9264001045799288,0.7785825880500509,A,1209.37689999937,Correct
19,119,285,A,34.79098137614793,45.34656865334046,1.7395490688073965,0.7123022347341978,B,1115.3189000006023,Incorrect
19,119,286,A,51.23662488451693,76.41220604116799,2.5618312442258464,1.2002801257176148,A,985.1512999994156,Correct
19,119,287,A,39.40130903610063,48.476125890270595,1.9700654518050313,0.7614612048568403,A,1218.8192000003255,Correct
19,119,288,A,31.074808381227534,45.0447476493579,1.5537404190613768,0.7075612414901444,A,883.1021999994846,Correct
19,119,289,A,29.604392534509234,44.1551754582068,1.4802196267254617,0.693587874187354,A,747.1388000003572,Correct
19,119,290,A,60.23370833543115,85.1843441980318,3.0116854167715577,1.338072549667005,B,562.8523000004861,Incorrect
19,119,291,A,48.72295755824515,65.26498367086486,2.4361478779122576,1.0251799661852343,A,1295.30319999958,Correct
19,119,292,A,64.13819224006261,87.37851815953114,3.2069096120031304,1.3725385536577266,B,1195.7439999996495,Incorrect
19,119,293,A,48.18197216461451,79.6827352742736,2.4090986082307255,1.251653478777991,A,1199.0742999996655,Correct
19,119,294,B,47.12655297480273,26.762256813966424,2.3563276487401366,0.4203805470012015,A,1007.0871000007173,Incorrect
19,119,295,A,44.92915452041801,75.62437245203519,2.2464577260209007,1.1879048646382604,B,1145.5804999995962,Incorrect
19,119,296,A,54.22062879006492,64.87797149719107,2.711031439503246,1.0191007931769174,B,729.0628000000652,Incorrect
19,119,297,A,61.353935799948275,79.98210390207244,3.0676967899974135,1.2563559501870318,B,1515.579699999762,Incorrect
19,119,298,A,28.791982042849035,38.29915128617894,1.439599102142452,0.6016016615969191,A,655.4436000005808,Correct
19,119,299,A,11.886597363837254,37.73115242222121,0.5943298681918627,0.5926795563056344,A,1099.3287000001146,Correct
19,119,300,B,72.88506566890645,52.40849185882462,3.6442532834453227,0.8232306650470196,A,2858.208200000263,Incorrect
19,119,301,B,68.27159756294674,56.933406577784844,3.413579878147337,0.8943078592430485,B,670.3951999998026,Correct
19,119,302,B,51.62100929119899,35.72596256104076,2.5810504645599495,0.5611821076209482,B,836.2323999999717,Correct
19,119,303,B,68.88747403190371,52.77404773819934,3.444373701595185,0.8289728033726205,B,715.6415999997989,Correct
19,119,304,A,24.46623810105858,45.74338616143851,1.2233119050529289,0.7185354295754812,A,465.7618999999613,Correct
19,119,305,A,64.57649010283998,89.20402903942798,3.2288245051419993,1.4012136115043874,B,867.1168999999281,Incorrect
19,119,306,B,44.73485925452307,23.337252063135168,2.236742962726154,0.3665806981825935,B,597.6688999999169,Correct
19,119,307,B,53.762073484988846,24.95840651947648,2.688103674249442,0.3920457328344746,B,749.3836000003284,Correct
19,119,308,B,62.207409727530575,38.492155427140275,3.110370486376529,0.6046333635537019,B,780.5708000005325,Correct
19,119,309,B,46.779318661374276,36.27420848055985,2.338965933068714,0.569793934386557,A,1130.6659000001673,Incorrect
19,119,310,A,60.02828177895168,87.108670015987,3.001414088947584,1.3682997889310113,A,2020.8722999996098,Correct
19,119,311,B,68.94507410968353,52.64407731670788,3.4472537054841768,0.8269312327659127,B,1008.7890000004336,Correct
19,119,312,B,72.53109309172545,53.15289397986644,3.6265546545862724,0.8349237062209277,B,1858.4282000001622,Correct
19,119,313,A,11.579428088523077,31.039889970151915,0.5789714044261538,0.4875734514923238,A,740.9428000000844,Correct
19,119,314,B,55.73128398839291,28.360053007238918,2.7865641994196455,0.44547867091479443,B,865.3879999992569,Correct
19,119,315,A,45.27442427617386,58.94413438833869,2.2637212138086933,0.9258922978330716,B,895.1796999999715,Incorrect
19,119,316,B,57.250926659138834,29.193911130128882,2.862546332956942,0.45857688367983096,B,766.114899999593,Correct
19,119,317,A,50.45236022818031,73.50433212992473,2.5226180114090155,1.1546033491319787,A,941.8746999999712,Correct
19,119,318,B,62.31536542636256,40.36541891126905,3.115768271318128,0.6340585175535869,B,785.4710000001432,Correct
19,119,319,A,48.07250489239722,62.619764453324365,2.4036252446198607,0.9836289598804354,A,1559.8346999995556,Correct
19,119,320,A,19.573126077997642,40.19929612486546,0.9786563038998821,0.6314490669267898,A,741.6238999994675,Correct
19,119,321,A,46.105086501902356,72.40927386850893,2.3052543250951176,1.1374022141853952,B,738.040500000352,Incorrect
19,119,322,A,45.7480555032041,61.961424085235635,2.287402775160205,0.9732877735606897,A,650.0796999998784,Correct
19,119,323,A,46.106247095859494,58.99910873734486,2.305312354792975,0.92675583288794,A,699.7446000004857,Correct
19,119,324,A,48.732789959233614,72.74231961192136,2.436639497961681,1.1426336844894642,B,1418.0771999999706,Incorrect
19,119,325,B,33.12120535639784,19.395651994553116,1.656060267819892,0.3046661890883614,A,650.1299999999901,Incorrect
19,119,326,B,75.76635861114515,54.60975290771103,3.7883179305572576,0.857807992746094,B,729.8725999999078,Correct
19,119,327,B,53.93077960939682,38.89981880531689,2.696538980469841,0.6110369249237881,B,871.9600999993418,Correct
19,119,328,B,65.01670898304843,45.84982399425664,3.2508354491524214,0.7202073511437084,B,437.81289999969886,Correct
19,119,329,B,68.0251357695181,55.52090505462839,3.401256788475905,0.8721203372013849,B,345.35979999964184,Correct
19,119,330,B,86.23881194123769,65.44443021575233,4.311940597061884,1.027998705920887,B,510.89780000074825,Correct
19,119,331,B,38.21049818055593,24.32033565885246,1.9105249090277965,0.38202293919344393,A,627.6089000002685,Incorrect
19,119,332,B,40.80165758509631,20.18398260226395,2.0400828792548156,0.3170492573172831,B,939.3297000005987,Correct
19,119,333,A,19.911185278462767,50.677942225882326,0.9955592639231383,0.7960472549793992,B,342.9869999999937,Incorrect
19,119,334,A,26.06242910789978,51.98297874606187,1.3031214553949892,0.8165467207017116,A,715.6535999993139,Correct
19,119,335,B,52.26586553991926,24.59610659959673,2.613293276995963,0.3863547390010226,A,4922.02879999968,Incorrect
19,119,336,A,53.624657504520414,74.73486496520134,2.681232875226021,1.1739325137085086,B,429.6409999997195,Incorrect
19,119,337,A,60.38810018539965,73.16616820829725,3.0194050092699825,1.1492914826725087,A,365.36660000001575,Correct
19,119,338,B,59.736466479935004,43.72849597197439,2.9868233239967505,0.686885608490428,B,531.9956000003003,Correct
19,119,339,A,45.80786553197319,62.866991047898786,2.2903932765986594,0.9875123861468705,A,880.7310000001962,Correct
19,119,340,B,61.242803123905574,28.68003362873545,3.0621401561952784,0.45050491476371746,B,587.1985000003406,Correct
19,119,341,B,54.872108863170524,29.242829050544458,2.7436054431585264,0.4593452845768633,A,311.3930999998047,Incorrect
19,119,342,A,65.00137854155895,83.39859812674405,3.2500689270779475,1.310022115973333,B,2895.391600000039,Incorrect
19,119,343,B,67.21931324764661,49.179498277540915,3.3609656623823305,0.7725097524797722,B,535.1179999997839,Correct
19,119,344,B,56.88432212368562,29.619137144777863,2.844216106184281,0.4652563182985135,A,1607.133900000008,Incorrect
19,119,345,B,43.50649115940449,15.382860676887699,2.1753245579702245,0.24163341046852851,A,2416.5093999999954,Incorrect
19,119,346,A,66.93865202544674,86.58967051392403,3.346932601272337,1.3601473638165222,B,2941.5446999992128,Incorrect
19,119,347,B,37.5849639680705,20.93112465878125,1.8792481984035247,0.3287853372969967,B,2249.1626000000906,Correct
19,119,348,A,62.85379220738935,80.69135527345665,3.1426896103694673,1.2674968446764772,A,1927.79260000043,Correct
19,119,349,A,58.07540909558704,73.54195854132631,2.903770454779352,1.1551943834201794,A,1278.727899999467,Correct
19,119,350,A,25.278643260139102,49.629928305204444,1.263932163006955,0.779585090809092,A,1296.3559999998324,Correct
19,119,351,B,47.79128214047771,36.54764051540236,2.3895641070238853,0.5740889947461437,B,1846.444099999644,Correct
19,119,352,B,51.58842083720736,43.319879213795225,2.5794210418603676,0.6804670714622814,B,1767.3247000002448,Correct
19,119,353,B,30.05369887863516,13.496676080353872,1.5026849439317578,0.21200529210960406,A,896.7197000001761,Incorrect
19,119,354,A,55.38662186212537,63.05327156008287,2.7693310931062682,0.9904384735897929,A,862.2697000000699,Correct
19,119,355,B,55.56406706751316,33.73125367486478,2.7782033533756576,0.5298492937066445,B,917.4399000003177,Correct
19,119,356,B,68.01420275417308,35.74300008445344,3.4007101377086544,0.5614497324128914,B,877.9813000001013,Correct
19,119,357,B,34.284002035354895,17.014813536176383,1.7142001017677446,0.2672680660372595,A,753.905599999598,Incorrect
19,119,358,A,20.043342381198855,36.610841563363394,1.0021671190599428,0.5750817544860115,B,1682.6821999993626,Incorrect
19,119,359,A,53.28966519258459,62.839756678062784,2.66448325962923,0.987084589665861,A,707.3017000002437,Correct
19,119,360,A,33.77270442533026,48.00896108191337,1.688635221266513,0.7541229972070866,B,835.0864999993064,Incorrect
19,119,361,B,74.7981305520765,43.829272564701796,3.739906527603825,0.6884686035072591,A,409.7097000003487,Incorrect
19,119,362,A,34.05775214495307,65.04095490969995,1.7028876072476535,1.0216609306338917,B,3500.4767999998876,Incorrect
19,119,363,B,30.933689475299335,16.338483743742284,1.5466844737649668,0.2566443025006851,A,2429.8743999997896,Incorrect
19,119,364,B,80.85127731042125,66.50756207471701,4.042563865521063,1.0446983421104905,B,1014.7411999996621,Correct
19,119,365,A,37.25875020228202,56.15916685294812,1.862937510114101,0.8821461300847261,B,6968.702000000121,Incorrect
19,119,366,B,82.77610538211232,61.53917731469822,4.138805269105616,0.9666551367990779,B,2330.669800000578,Correct
19,119,367,B,77.47095558028266,58.323063266341805,3.873547779014133,0.9161365354619606,A,836.613500000567,Incorrect
19,119,368,A,19.370079325320322,47.01709321967007,0.9685039662660161,0.73854277326031,B,1006.8489999994199,Incorrect
19,119,369,A,59.97662569595913,82.49840668376946,2.9988312847979564,1.2958819418529661,A,2510.0194000006013,Correct
19,119,370,B,55.44445407299134,41.4940532502903,2.7722227036495672,0.6517870642938784,B,1927.4326999993718,Correct
19,119,371,A,66.44066125641666,77.7901462191412,3.322033062820833,1.2219247594186493,A,765.5787999992754,Correct
19,119,372,A,24.760838703410577,54.959345697094996,1.2380419351705287,0.8632993834404773,A,7563.810699999522,Correct
19,119,373,A,29.787438844109946,49.53028240133167,1.4893719422054974,0.7780198566112568,B,2585.47980000003,Incorrect
19,119,374,A,32.55226788221297,62.41768944508825,1.6276133941106485,0.980454773073692,A,635.0953999999547,Correct
19,119,375,B,81.52835568864148,56.82560891296665,4.076417784432074,0.8926145774837135,B,5440.087300000414,Correct
19,119,376,B,47.977954281427444,37.630087412035785,2.3988977140713725,0.5910920308379669,A,3267.4355999997715,Incorrect
19,119,377,B,45.44088420843916,23.88619194365449,2.2720442104219583,0.37520342566210324,A,989.9706999995033,Incorrect
19,119,378,A,50.57092345012663,60.56151810179804,2.5285461725063314,0.9512981017942701,B,499.4959999994535,Incorrect
19,119,379,B,78.73901554881422,59.934043124142065,3.9369507774407113,0.9414417478936927,A,991.3544999999431,Incorrect
19,119,380,A,47.73246885635062,60.47762861097833,2.3866234428175312,0.9499803687539069,B,1664.4870000000083,Incorrect
19,119,381,A,29.677944629512144,44.39513806338658,1.4838972314756071,0.6973571979751993,A,3513.631100000566,Correct
19,119,382,A,40.6306115842867,72.53661337937623,2.0315305792143348,1.1394024585446574,B,857.9251000001022,Incorrect
19,119,383,B,74.02658526151885,50.760349216485366,3.7013292630759422,0.7973417009608141,A,779.3195000003834,Incorrect
19,119,384,B,82.08163854663427,63.10901192724264,4.1040819273317135,0.9913140412296806,A,1475.089399999888,Incorrect
19,119,385,B,39.888011620265466,29.914704214681144,1.9944005810132734,0.4698990749757695,B,466.53580000020156,Correct
19,119,386,A,50.116931360482575,59.04608398142082,2.5058465680241286,0.927493718296388,B,7212.754799999857,Incorrect
19,119,387,A,51.285376020030405,65.86153916659232,2.56426880100152,1.0345506379994143,A,693.0628999998589,Correct
19,119,388,B,65.47575356100627,54.90899465556925,3.2737876780503137,0.862508471129688,B,931.9666000001234,Correct
19,119,389,B,72.13382167217453,55.261888603016885,3.6066910836087267,0.8680517162936768,B,1347.7339999999458,Correct
19,119,390,A,36.49991311289518,46.081598071646816,1.8249956556447589,0.7238480498378161,A,784.1936000004353,Correct
19,119,391,B,85.48683341833609,59.085753699266604,4.2743416709168045,0.9281168487671595,B,1498.959300000024,Correct
19,119,392,B,55.78414666510129,28.678675476958908,2.789207333255064,0.45048358096549934,A,3132.343199999923,Incorrect
19,119,393,B,77.81954026169234,66.09313067358038,3.890977013084617,1.0381884688843517,B,532.6309000001856,Correct
19,119,394,B,51.65375820918254,35.17682260877626,2.582687910459127,0.5525562374218143,A,962.9743000004964,Incorrect
19,119,395,A,33.582784405414124,51.87323835956398,1.679139220270706,0.8148229227415922,B,428.1305999993492,Incorrect
19,119,396,B,79.41812472920039,49.95361591061313,3.970906236460019,0.784669563825142,A,475.87709999970684,Incorrect
19,119,397,A,46.66360122833124,53.38643735793291,2.3331800614165616,0.8385921970250686,B,846.6086000007635,Incorrect
19,119,398,A,58.45898970487795,66.76488303906946,2.922949485243897,1.0487403303666119,A,2563.5873999999603,Correct
19,119,399,A,67.8686769911472,82.29530114856178,3.39343384955736,1.2926915675664068,B,2471.5132000001176,Incorrect
19,119,400,B,64.40209475052697,32.007904955449746,3.220104737526349,0.5027789953242062,A,763.9531999993778,Incorrect
19,119,401,B,54.789658151504064,45.55030230863173,2.739482907575203,0.7155024755079582,B,259.711800000332,Correct
19,119,402,B,55.21002103560599,36.5750750296112,2.7605010517802997,0.5745199350876101,A,694.981500000722,Incorrect
19,119,403,A,34.551202304292026,54.74858454674755,1.7275601152146012,0.8599887550325088,B,395.73919999929785,Incorrect
19,119,404,A,56.66799975106038,69.41884112283878,2.833399987553019,1.0904286064611368,A,405.9658000005584,Correct
19,119,405,B,58.88428182991517,40.26248701479624,2.944214091495758,0.6324416671046915,B,776.9876000002114,Correct
19,119,406,B,47.216935398945445,29.462296866046874,2.360846769947272,0.46279267696127224,B,913.7996999997995,Correct
19,119,407,A,59.59735253576741,84.11227318896037,2.9798676267883706,1.3212324976358782,B,841.8763999998191,Incorrect
19,119,408,A,28.25780367232077,59.202271126254935,1.4128901836160384,0.9299471002303681,B,6802.682100000311,Incorrect
19,119,409,A,25.18071043847904,48.40574397018387,1.259035521923952,0.7603556482413905,A,788.9849000002869,Correct
19,119,410,A,32.19228088977211,59.21566085701976,1.6096140444886056,0.9301574256293897,B,1615.745699999934,Incorrect
19,119,411,A,21.191216178830974,48.776187725497195,1.0595608089415487,0.7661745651426931,A,685.2709000004324,Correct
19,119,412,B,83.1194827625945,61.92670878503218,4.155974138129725,0.9727424669002581,A,718.9533000000665,Incorrect
19,119,413,B,84.03257077647615,58.421660907569446,4.201628538823808,0.917685303588671,B,471.2226000001465,Correct
19,119,414,B,51.118077762751405,29.99657794914544,2.55590388813757,0.4711851445893445,B,308.19640000026993,Correct
19,119,415,A,27.116560480633932,54.83405991075804,1.3558280240316967,0.8613313989107002,A,758.4814000001643,Correct
19,119,416,A,30.9481240205728,46.38769102188894,1.54740620102864,0.7286561466567975,A,630.429699999695,Correct
19,119,417,A,43.80959406151715,56.350208989384555,2.1904797030758574,0.8851470129465001,B,890.06370000061,Incorrect
19,119,418,B,40.035065165479594,17.908431590684177,2.0017532582739794,0.2813049856130439,A,1109.6608999996533,Incorrect
19,119,419,B,32.98756959965513,10.130569671273847,1.6493784799827567,0.1591306162797674,B,709.938100000727,Correct
19,119,420,B,62.64146700195267,50.960411001725646,3.1320733500976337,0.8004842641346888,A,1045.4230999994252,Incorrect
19,119,421,A,31.50741198955953,51.760303920146484,1.5753705994779765,0.8130489527155357,A,868.3401999996931,Correct
19,119,422,A,66.34878563031172,88.30315976106377,3.317439281515586,1.3870627899706187,B,756.598899999517,Incorrect
19,119,423,B,73.460241830535,43.34866658078556,3.6730120915267497,0.6809192623655465,B,779.2875000004642,Correct
19,119,424,A,38.649299615507786,63.08683466449259,1.9324649807753895,0.9909656816010192,A,566.0288999997647,Correct
19,119,425,B,66.74105614635859,38.245371960673836,3.3370528073179293,0.6007568979273099,B,2390.8583999991606,Correct
19,119,426,B,56.676605888093356,32.400857847169256,2.8338302944046676,0.5089514849133706,A,855.473599999641,Incorrect
19,119,427,A,29.840854468405517,56.15511251902092,1.492042723420276,0.8820824447563216,A,801.1801000002379,Correct
19,119,428,B,45.51662084407013,25.432613705419946,2.2758310422035066,0.399494561892672,A,615.7625000005282,Incorrect
19,119,429,A,18.16823364729802,41.8072030038753,0.9084116823649011,0.656706009120559,B,259.9327000007179,Incorrect
19,119,430,B,62.40207104118402,32.81575466469473,3.1201035520592013,0.5154686688830498,A,249.71540000024106,Incorrect
19,119,431,B,42.40522055758698,25.734784088802897,2.120261027879349,0.40424104317551335,B,1575.534300000072,Correct
19,119,432,A,30.25338617501566,59.91863687976729,1.512669308750783,0.9411997471729568,A,851.4291000001322,Correct
19,119,433,A,58.14048270433011,77.77929342842786,2.9070241352165054,1.2217542841807691,B,1044.0037000007578,Incorrect
19,119,434,B,31.450695757767196,15.336697170381267,1.57253478788836,0.24090827580400578,A,701.3629000002766,Incorrect
19,119,435,A,52.03138483484343,76.10751262807888,2.601569241742171,1.1954940127768252,A,958.5126000001765,Correct
19,119,436,A,40.00226180014202,60.51809021288222,2.000113090007101,0.9506159381103757,B,1180.0177000004624,Incorrect
19,119,437,B,58.46708346453017,48.33034848031909,2.9233541732265085,0.7591713386560254,A,1072.73879999957,Incorrect
19,119,438,A,15.264940289564837,36.94336961308795,0.7632470144782418,0.5803050928766476,A,661.4565999998376,Correct
19,119,439,B,45.37546115541762,17.661191828398184,2.268773057770881,0.2774213525086791,B,786.4392000001317,Correct
19,119,440,B,72.20515642668371,48.658769473490565,3.610257821334186,0.7643301635531864,B,777.3403000001053,Correct
19,119,441,B,43.09140084208026,22.173246241235635,2.154570042104013,0.34829653748851686,A,708.3980999996129,Incorrect
19,119,442,B,60.294688157570754,33.95211389725286,3.0147344078785374,0.5333185579672675,B,379.03800000003685,Correct
19,119,443,A,61.32517050487997,74.53137915486357,3.066258525243999,1.1707361660741742,B,567.4398999999539,Incorrect
19,119,444,B,33.71681190293387,11.432020267622047,1.6858405951466935,0.1795737544422552,A,627.8885000001537,Incorrect
19,119,445,B,62.9486167173922,35.13409638973552,3.14743083586961,0.5518850955425438,B,534.1397999991386,Correct
19,119,446,B,73.34575062224863,48.29486965307802,3.6672875311124313,0.7586140385409327,B,908.4874000000127,Correct
19,119,447,B,54.41674854290443,32.98702809532866,2.7208374271452214,0.5181590256402232,B,769.4424000001163,Correct
19,119,448,B,50.116489498892506,21.46517142476338,2.5058244749446255,0.33717412428041094,A,908.2810999998401,Incorrect
19,119,449,B,47.49649584451198,25.113904328122523,2.374824792225599,0.3944882867009331,A,1291.703900000357,Incorrect
19,119,450,B,37.488603264922354,26.173462068620488,1.8744301632461176,0.41113178076894613,B,1685.4226000004928,Correct
19,119,451,B,76.14758889608257,46.3991284266818,3.8073794448041283,0.7288358049911644,A,993.7927999999374,Incorrect
19,119,452,B,34.60305891048357,20.05677384523795,1.7301529455241786,0.31505106683455725,A,700.5775999996331,Incorrect
19,119,453,A,30.95380938893304,46.24241624174413,1.547690469446652,0.7263741757465235,A,661.9854000000487,Correct
19,119,454,A,47.82697625056633,74.02084724589487,2.3913488125283164,1.162716749600978,B,1009.308400000009,Incorrect
19,119,455,B,79.6133901005991,54.33530647693221,3.980669505029955,0.8534969982924007,B,1028.9136999999755,Correct
19,119,456,B,45.474131858032024,27.863205843177006,2.2737065929016014,0.43767421391192535,A,1105.0455999993574,Incorrect
19,119,457,A,37.64320767864474,63.17176049070554,1.882160383932237,0.9922996933596722,A,678.0662999999549,Correct
19,119,458,B,68.94590116860402,40.125762381966624,3.447295058430201,0.6302940015943802,B,842.1834000000672,Correct
19,119,459,B,38.59407492635697,27.654944425655227,1.9297037463178484,0.4344028512153623,B,763.0410000001575,Correct
19,119,460,A,30.27462567032653,51.72372392700132,1.5137312835163266,0.8124743555268699,A,1054.9401999996917,Correct
19,119,461,A,37.21178364158797,70.32556170424957,1.8605891820793985,1.1046713400482306,B,921.1391999997431,Incorrect
19,119,462,A,20.320524794146916,44.173943746240624,1.0160262397073458,0.6938826857663916,A,675.9545000004437,Correct
19,119,463,A,59.44488514784773,84.6569451395197,2.9722442573923864,1.3297881846283464,B,692.4965999996857,Incorrect
19,119,464,B,67.97597867305919,37.83608867784313,3.3987989336529596,0.5943278911544196,B,2071.6056999999637,Correct
19,119,465,A,25.7602360700252,41.7393514492605,1.28801180350126,0.6556401993929963,A,581.6385999996783,Correct
19,119,466,B,64.3543795931416,52.46782957723124,3.2177189796570804,0.8241627397481547,B,566.7776000000231,Correct
19,119,467,B,40.717819302678016,21.741844461490324,2.0358909651339006,0.3415200941785497,B,492.02319999949395,Correct
19,119,468,B,41.00876969581102,31.52736637135056,2.050438484790551,0.495230712896344,B,391.106299999592,Correct
19,119,469,B,50.816334870306285,40.63120071461255,2.540816743515314,0.6382334083577956,B,353.0103000002782,Correct
19,119,470,A,44.0908052467267,66.56081189178043,2.204540262336335,1.0455347882809478,B,303.12190000040573,Incorrect
19,119,471,B,64.3513954238645,33.462854947702795,3.2175697711932254,0.5256332963592197,B,386.73279999966326,Correct
19,119,472,A,19.354781893053,33.99634638677615,0.9677390946526501,0.5340133602879493,A,558.0420000005688,Correct
19,119,473,A,47.65411250843456,77.69169911063318,2.382705625421728,1.2203783558543695,B,527.7046000001064,Incorrect
19,119,474,A,31.72434236392678,56.53941233272905,1.586217118196339,0.8881190121139286,A,1759.7157000000152,Correct
19,119,475,A,10.412262998604302,31.812260415526016,0.5206131499302151,0.4997058180775096,A,544.0161999995325,Correct
19,119,476,B,73.99908716444786,55.67358228308275,3.699954358222393,0.874518585497798,B,583.753799999613,Correct
19,119,477,A,46.06200318009591,61.306886757541434,2.3031001590047953,0.9630063252597678,B,670.1266999998552,Incorrect
19,119,478,A,52.88617562631428,64.95010575731378,2.6443087813157136,1.0202338754852853,A,205.86050000019895,Correct
19,119,479,A,50.017449717403835,62.699445400267145,2.500872485870192,0.984880585268168,B,296.622999999272,Incorrect
19,119,480,B,32.237606417251214,13.606644014272511,1.6118803208625607,0.21373266437625027,A,329.2031000000861,Incorrect
19,119,481,A,64.81516000050094,79.78633927242808,3.240758000025047,1.2532808865754141,B,634.0516999998727,Incorrect
19,119,482,A,43.96335490967238,57.57560152448016,2.198167745483619,0.9043954338766009,A,394.8786000000837,Correct
19,119,483,B,87.65051978641323,66.42339175509784,4.382525989320661,1.0433761978216611,B,488.1602000004932,Correct
19,119,484,A,14.895051678131548,39.72620404624426,0.7447525839065774,0.6240177539334504,A,510.5058999997709,Correct
19,119,485,A,48.6951690447257,59.091806959910535,2.4347584522362853,0.9282119331630057,B,249.02149999979883,Incorrect
19,119,486,A,58.05696941829886,73.74525174244042,2.902848470914943,1.1583877055559035,A,505.5872000002637,Correct
19,119,487,A,35.314127977324894,60.617497090394195,1.7657063988662447,0.9521774176909154,A,501.1867000002894,Correct
19,119,488,B,76.16064329776657,57.810012547879104,3.8080321648883286,0.9080775536217539,B,537.327600000026,Correct
19,119,489,A,53.70937698411441,83.79166305583415,2.6854688492057206,1.3161963654413993,A,303.9630999992369,Correct
19,119,490,B,59.3802714117936,38.07287348754884,2.9690135705896803,0.5980472982476852,B,318.04399999964517,Correct
19,119,491,A,29.227711042038095,54.53890542970912,1.4613855521019048,0.8566951231640132,A,622.6331000007121,Correct
19,119,492,B,63.001769238671294,53.40542479594805,3.150088461933565,0.8388904510039628,B,742.6199999999881,Correct
19,119,493,A,47.844351670164066,66.45862220478679,2.392217583508203,1.0439295964312885,A,378.25450000036653,Correct
19,119,494,B,52.52363045199635,37.546261648722265,2.6261815225998175,0.5897752988269302,B,221.80609999941225,Correct
19,119,495,A,36.92543462318097,45.67704200757908,1.8462717311590484,0.7174932980436141,A,216.04800000022806,Correct
19,119,496,B,69.88272131680185,50.24336267004821,3.4941360658400926,0.7892208952793556,B,242.86099999972066,Correct
19,119,497,A,56.3878190144474,79.24147923958965,2.8193909507223704,1.244722245193415,B,568.6247000003277,Incorrect
19,119,498,A,12.110881139695834,36.17428546216378,0.6055440569847917,0.5682243472839689,A,581.6004999996949,Correct
19,119,499,A,67.1116819692575,81.80414622505438,3.3555840984628755,1.2849765240690803,A,363.95680000077846,Correct
19,119,500,A,38.20283739516083,62.9279198971474,1.9101418697580415,0.9884694542728263,A,236.82689999986906,Correct
19,119,501,B,34.07112767429554,18.91387926717375,1.7035563837147771,0.29709852078318677,B,572.2610000002533,Correct
19,119,502,A,51.96493421623107,74.18930813782673,2.5982467108115537,1.1653629271035297,A,1263.3485999995173,Correct
19,119,503,A,24.070968235691787,36.01611954814885,1.2035484117845894,0.5657398829163809,A,728.4729000002699,Correct
19,119,504,B,52.81733554492688,31.40772248264915,2.640866777246344,0.49335135108738776,B,690.692800000761,Correct
19,119,505,B,62.487835487399195,43.3325772173462,3.12439177436996,0.6806665312356363,B,498.66639999982,Correct
19,119,506,B,49.7057088069511,19.528473103934022,2.485285440347555,0.30675253819572496,B,667.2365000003992,Correct
19,119,507,A,31.769825325664993,59.27339747007618,1.5884912662832498,0.9310643502264958,A,515.0026000001162,Correct
19,119,508,A,69.2685334560178,86.36389143925496,3.4634266728008902,1.356600834404949,B,300.94020000069577,Incorrect
19,119,509,A,22.343316438006287,38.87533146286421,1.1171658219003142,0.6106522786480119,A,626.7563000001246,Correct
19,119,510,B,77.14299868984678,55.80965403628202,3.857149934492339,0.8766559955988578,A,342.3617999997077,Incorrect
19,119,511,B,52.83433176924768,40.53966942837938,2.6417165884623843,0.636795638275777,B,506.779500000448,Correct
19,119,512,B,48.20691377680516,34.948105157463246,2.4103456888402577,0.5489635520978504,A,394.2518999992899,Incorrect
19,119,513,A,42.253196699749154,61.01202449528098,2.1126598349874577,0.9583746396750763,A,277.8611000003366,Correct
19,119,514,B,75.19573054597468,57.446253475403,3.7597865272987345,0.9023636394729159,B,541.0487999997713,Correct
19,119,515,A,14.588498691509336,42.421456530166296,0.7294249345754668,0.666354680948746,A,581.0641999996733,Correct
19,119,516,A,17.523939549210294,34.43322587442479,0.8761969774605147,0.5408758472324545,B,351.8493999999919,Incorrect
19,119,517,B,57.25775289476206,49.961577965430045,2.862887644738103,0.7847946314897436,B,474.89649999988615,Correct
19,119,518,B,31.022380561580835,11.037370628376454,1.551119028079042,0.17337461240527613,A,492.8399000000354,Incorrect
19,119,519,B,55.70753385478793,31.150282130279592,2.785376692739397,0.48930748748867886,B,470.21349999977247,Correct
19,119,520,A,25.7065581577176,58.39024078977466,1.28532790788588,0.9171917575324757,A,564.0190000003713,Correct
19,119,521,B,84.16909032781004,54.817883885724754,4.2084545163905025,0.861077306503656,B,381.7231000002721,Correct
19,119,522,B,39.75208689306957,17.248705856284843,1.9876043446534783,0.2709420380101785,B,500.5855999997948,Correct
19,119,523,A,56.76406611357226,77.67811828761202,2.838203305678613,1.2201650287852044,B,515.5311999997139,Incorrect
19,119,524,A,49.83519736732876,60.897316091912764,2.491759868366438,0.9565728042884432,A,395.2536999995573,Correct
19,119,525,B,74.13563751605994,48.58062086921838,3.706781875802997,0.7631026081478373,B,471.12379999998666,Correct
19,119,526,B,50.90450881272032,35.005175130210326,2.5452254406360164,0.5498600051334644,B,823.6974000001283,Correct
19,119,527,B,75.80988049748203,64.61819294241093,3.7904940248741013,1.01502020118063,B,1699.311299999863,Correct
19,119,528,A,21.461411432707923,34.33690646549685,1.073070571635396,0.539362865495024,A,1036.9842999998582,Correct
19,119,529,A,41.54717093833272,66.87725857031155,2.0773585469166362,1.050505521083579,B,2182.9437000005782,Incorrect
19,119,530,B,87.74789787620455,61.72014510917906,4.387394893810227,0.9694977722674646,B,403.1073000005563,Correct
19,119,531,A,46.6863193065274,67.29839904556188,2.33431596532637,1.0571207801994578,A,247.21319999935076,Correct
19,119,532,B,53.6897947423474,36.30523135151173,2.6844897371173704,0.5702812405039355,B,282.0418000001155,Correct
19,119,533,B,42.94407084072096,34.60432621094588,2.1472035420360482,0.5435634850336615,A,312.3721000001751,Incorrect
19,119,534,B,64.75567941005639,37.17327088043992,3.2377839705028193,0.5839163735394671,B,282.0655999994415,Correct
19,119,535,B,69.06694655868044,53.325358261570265,3.453347327934022,0.8376327688229647,B,550.7689999994909,Correct
19,119,536,A,65.03863719954916,87.568453015072,3.251931859977458,1.3755220433918658,B,467.99360000022716,Incorrect
19,119,537,B,61.76475399107613,53.89171792442768,3.0882376995538063,0.8465291256035767,B,636.560200000531,Correct
19,119,538,B,35.86415898545697,13.003870976818813,1.7932079492728485,0.20426432764501756,A,1020.5967000001692,Incorrect
19,119,539,A,30.334640927055432,48.67841009290757,1.5167320463527716,0.7646386776815484,B,520.7501000004413,Incorrect
19,119,540,A,55.40871112421565,69.83185961391682,2.7704355562107827,1.0969162857479744,B,1023.075200000676,Incorrect
19,119,541,B,69.62946139275434,57.45968007794131,3.481473069637717,0.902574544052401,A,289.08360000059474,Incorrect
19,119,542,B,68.86806339708764,47.880551167757254,3.443403169854382,0.7521059389922817,B,282.4529999998049,Correct
19,119,543,A,40.25996137229907,71.80240397430507,2.0129980686149533,1.1278695241788168,B,372.4216999999044,Incorrect
19,119,544,B,87.65853000720058,68.41534446495066,4.382926500360029,1.0746657178195205,B,1593.667600000117,Correct
19,119,545,A,62.56937880815792,77.7543386039207,3.1284689404078962,1.2213622947140526,A,588.1792999998652,Correct
19,119,546,A,56.7209267907817,70.03142773421143,2.836046339539085,1.1000510944510156,B,329.99070000005304,Incorrect
19,119,547,A,13.87899391906464,42.441718091809115,0.6939496959532321,0.6666729488147826,A,967.1920000000682,Correct
19,119,548,B,44.76984284826427,24.020977047795384,2.238492142413213,0.37732062512701514,B,521.4254000002256,Correct
19,119,549,B,46.84095058330151,18.61184738108529,2.3420475291650757,0.29235421501075987,A,562.8188999999111,Incorrect
