subject,day,trial,cat,x,y,xt,yt,resp,rt,fb
4,204,0,B,33.85052554898438,16.785075433972043,1.692526277449219,0.2636593483665854,A,12308.355799999845,Incorrect
4,204,1,B,65.36253142331081,36.41255633684976,3.2681265711655407,0.5719670974313584,B,682.473700000628,Correct
4,204,2,A,22.0326624903454,41.73643598652984,1.10163312451727,0.6555944034115141,A,761.9606999996904,Correct
4,204,3,A,38.26954678050745,56.577990388858474,1.9134773390253725,0.8887249948025585,A,1085.2709999999206,Correct
4,204,4,A,15.29794899952569,32.6453861809686,0.7648974499762845,0.5127925269986635,A,651.6284999997879,Correct
4,204,5,A,12.384057433081878,33.11715711701461,0.6192028716540939,0.5202030875329601,A,465.17429999948945,Correct
4,204,6,B,69.5055807630234,39.22396483858224,3.4752790381511702,0.6161285989077716,B,2153.2074000006105,Correct
4,204,7,B,61.85078517673992,35.81155797789593,3.0925392588369958,0.562526637284814,B,432.39269999867247,Correct
4,204,8,A,66.10572175640965,82.25741375512811,3.3052860878204826,1.2920964337820324,A,563.1838999997854,Correct
4,204,9,A,32.05485858704153,46.339530330348865,1.6027429293520765,0.7278996402831268,A,892.8577000006044,Correct
4,204,10,A,59.53712884285961,70.03009466715102,2.9768564421429806,1.100030154682597,A,1361.8318999997427,Correct
4,204,11,A,66.0912500357489,83.09840046680536,3.3045625017874447,1.3053066221578917,A,503.0884999996488,Correct
4,204,12,B,75.96747573681672,61.714035449888485,3.798373786840836,0.9694018019637486,B,2417.8916000000754,Correct
4,204,13,B,56.00217951315244,42.363584372166045,2.800108975657622,0.6654456272166411,B,903.675800000201,Correct
4,204,14,A,25.971055429622695,46.17472137590796,1.298552771481135,0.7253108272805401,A,532.6748000006774,Correct
4,204,15,A,39.99346989432592,56.009708861563965,1.999673494716296,0.8797984494459625,A,1000.8193000012398,Correct
4,204,16,A,13.334688967948637,39.732685271119685,0.6667344483974318,0.624119560775725,A,635.8567999996012,Correct
4,204,17,A,69.60884249396827,86.66803977289548,3.4804421246984134,1.3613783852577823,A,705.1414000015939,Correct
4,204,18,B,75.37901466197985,57.72787134587932,3.7689507330989924,0.9067872826379559,B,800.0219000005018,Correct
4,204,19,A,56.640635484326836,75.51299948940257,2.8320317742163414,1.1861554222321848,A,847.5339000015083,Correct
4,204,20,B,89.47521934225041,66.76625699002882,4.47376096711252,1.0487619123378136,B,647.5454999999783,Correct
4,204,21,B,55.144327713330235,32.1003867627534,2.7572163856665117,0.5042316961562856,B,798.1920000001992,Correct
4,204,22,A,19.261517070391655,41.607768889045936,0.9630758535195827,0.6535733053704433,A,527.031600000555,Correct
4,204,23,B,47.1480078545356,33.435127378927625,2.3574003927267797,0.5251977527273899,B,690.5955000001995,Correct
4,204,24,B,70.53195224649008,55.534904822982476,3.5265976123245037,0.8723402450484505,B,1112.977000000683,Correct
4,204,25,A,34.01025249318928,52.27318414400064,1.700512624659464,0.8211052564326942,A,783.1077000009827,Correct
4,204,26,A,20.72257366989872,34.5013575446001,1.036128683494936,0.5419460570049524,A,1844.5781999998871,Correct
4,204,27,A,21.114251285604055,44.6213445055395,1.0557125642802028,0.7009104404595109,A,756.91469999947,Correct
4,204,28,A,58.51296242577068,79.91513087901306,2.925648121288534,1.2553039404008712,A,774.0233000004082,Correct
4,204,29,B,65.88750991363061,39.66776361585536,3.29437549568153,0.6230997737995384,B,578.4619999994902,Correct
4,204,30,A,48.41437405942418,66.09290333808937,2.420718702971209,1.0381848979068093,A,1196.6737000002468,Correct
4,204,31,A,62.576115934069136,75.49831637896784,3.128805796703457,1.1859247804728166,A,862.6385000006849,Correct
4,204,32,B,59.805590684615545,30.58175336801295,2.9902795342307775,0.480377058574222,B,524.179500000173,Correct
4,204,33,B,71.96700053811311,61.785883477330245,3.5983500269056554,0.9705303881396784,B,833.1580000012764,Correct
4,204,34,B,72.82676704754648,47.75739016885231,3.641338352377324,0.750171330545439,B,582.4181000007229,Correct
4,204,35,B,62.456938030510116,31.37490804689371,3.122846901525506,0.4928359031358828,B,549.5958999999857,Correct
4,204,36,B,41.54943950666434,26.47177088449491,2.077471975333217,0.415817604691207,B,1163.9943000009225,Correct
4,204,37,A,44.82209448109265,73.13770380769486,2.2411047240546322,1.1488443649134021,A,1130.8991000005335,Correct
4,204,38,B,61.33500463800456,53.18851001804618,3.0667502319002278,0.8354831616404051,B,927.588000000469,Correct
4,204,39,A,53.67214147630541,75.31080567415145,2.6836070738152706,1.1829793692092136,A,658.9406000002782,Correct
4,204,40,A,27.81868856171532,60.850093565023414,1.3909344280857658,0.9558310345706454,A,740.3013999992254,Correct
4,204,41,A,42.966006723011446,52.8401137383499,2.148300336150572,0.8300105656762456,A,2495.3755000005913,Correct
4,204,42,B,60.869226920384676,53.133966248703075,3.043461346019234,0.834626390115068,B,1407.6925000008487,Correct
4,204,43,A,36.31299712866222,66.88867469089931,1.815649856433111,1.050684845086434,A,760.2436999986821,Correct
4,204,44,B,51.77251395082069,29.583580911375414,2.5886256975410347,0.46469780229028124,B,697.1047000006365,Correct
4,204,45,B,66.29594664693869,33.71835258074926,3.314797332346934,0.5296466437941616,B,649.1332000005059,Correct
4,204,46,A,32.79294808479404,41.492638210346186,1.639647404239702,0.6517648368984135,A,739.3500999987737,Correct
4,204,47,A,32.958914623420775,51.27325932190495,1.6479457311710388,0.8053984740565048,A,729.1268000008131,Correct
4,204,48,A,49.629579057575576,56.89525339084549,2.4814789528787786,0.8937085503840498,A,1973.593400000027,Correct
4,204,49,A,42.39701384894538,68.96204180967594,2.119850692447269,1.0832532196291504,A,707.955400001083,Correct
4,204,50,A,37.597119507121334,64.01347669476236,1.8798559753560666,1.0055213405750343,A,864.932399999816,Correct
4,204,51,B,54.547686445983544,35.93916231080216,2.7273843222991774,0.5645310414589362,B,514.362699999765,Correct
4,204,52,B,33.648822727613435,14.395091908601795,1.6824411363806717,0.22611757493906634,B,575.8638999996037,Correct
4,204,53,B,36.72428798089539,27.04171781178696,1.8362143990447695,0.4247703100897909,B,641.5852999998606,Correct
4,204,54,A,35.71564242713532,51.31850538411565,1.7857821213567662,0.8061091975397299,A,2932.3512999999366,Correct
4,204,55,A,37.01399616763757,53.34335313198857,1.8506998083818786,0.8379154315865068,A,572.9355999992549,Correct
4,204,56,A,28.97949026246819,41.78688914380102,1.4489745131234093,0.6563869197526818,A,866.4201999999932,Correct
4,204,57,B,52.767072139617,32.819910620298934,2.6383536069808495,0.5155339504810238,B,1250.4761000000144,Correct
4,204,58,A,55.592104529815316,80.04072227172111,2.7796052264907654,1.2572767253842998,A,979.5675999994273,Correct
4,204,59,B,46.95553326973272,21.806457955140047,2.347776663486636,0.3425350405634134,B,587.8482000007352,Correct
4,204,60,B,52.37763562508339,43.73569641047068,2.61888178125417,0.6869987127138408,B,1600.8839000005537,Correct
4,204,61,A,67.43590006544851,81.5789616951889,3.371795003272425,1.2814393337454428,A,613.5830999992322,Correct
4,204,62,B,63.74731973481124,39.70872416014654,3.187365986740562,0.6237431805246995,B,1302.9753000009805,Correct
4,204,63,B,79.01999938423462,55.675076640185765,3.950999969211731,0.8745420588042815,B,702.6916000013443,Correct
4,204,64,B,73.46120030347481,58.41606439140973,3.6730600151737405,0.9175973937184055,B,637.8794000011112,Correct
4,204,65,A,16.177441106201833,40.09730342784687,0.8088720553100915,0.6298469693884228,A,555.6921999996121,Correct
4,204,66,B,86.6099894178241,61.034239358784745,4.330499470891205,0.9587235899349958,B,709.3865999995614,Correct
4,204,67,B,60.171485980162295,39.176244953446016,3.008574299008115,0.615379016704901,B,907.2228000004543,Correct
4,204,68,B,64.97546593330588,54.69031298684603,3.248773296665294,0.8590734275100098,B,1219.7859000007156,Correct
4,204,69,B,79.10543847151723,57.94183753848696,3.9552719235758618,0.9101482557320196,B,603.7883999997575,Correct
4,204,70,A,23.471553889784307,51.722596095388525,1.1735776944892153,0.8124566395893237,A,601.5991999993275,Correct
4,204,71,B,62.399938806685554,48.94080585645928,3.1199969403342775,0.7687603806970839,B,608.7845999991259,Correct
4,204,72,B,42.87195988897167,18.55895798491073,2.1435979944485837,0.2915234303183859,B,626.2023999988742,Correct
4,204,73,B,39.25777646449083,15.579379005628436,1.9628888232245416,0.24472031315786671,B,519.4547999999486,Correct
4,204,74,A,66.49883732472193,80.60898702117142,3.3249418662360966,1.2662030071951353,A,881.6760999998223,Correct
4,204,75,A,31.49135745874078,59.95259325453483,1.574567872937039,0.9417331326605181,A,579.6140999991621,Correct
4,204,76,B,60.01575178727447,53.01838157560652,3.000787589363723,0.8328107903157294,B,2459.096299999146,Correct
4,204,77,A,23.978332434962233,38.63687880577433,1.1989166217481115,0.606906673069299,A,626.8416000002617,Correct
4,204,78,A,48.29384612514441,68.3398462207179,2.4146923062572205,1.0734797941723178,A,991.8115000000398,Correct
4,204,79,B,68.48703922827013,59.375010627210756,3.4243519614135067,0.9326604859663061,B,1027.141799999299,Correct
4,204,80,B,32.729331437444245,12.308671150444948,1.6364665718722122,0.19334415430845237,B,1700.2940999991552,Correct
4,204,81,A,11.19169401319208,35.71588870573743,0.559584700659604,0.5610238678718769,A,738.0793000011181,Correct
4,204,82,A,53.57936231864542,81.80874550977265,2.6789681159322707,1.2850487694644936,A,787.4420999996801,Correct
4,204,83,A,60.427109977320725,82.59399210919547,3.021355498866036,1.2973833942045092,A,858.9343000003282,Correct
4,204,84,B,79.97495193006658,48.37717265127471,3.9987475965033292,0.7599068510134483,B,611.2321999989945,Correct
4,204,85,A,50.23598351354477,57.322580941806,2.5117991756772384,0.90042099585792,A,2308.1096000005346,Correct
4,204,86,A,60.31192408979373,84.09841213558607,3.0155962044896865,1.3210147687186196,A,855.1299999999173,Correct
4,204,87,B,62.36120649410977,50.436645437554326,3.1180603247054886,0.792256973891669,B,1779.8751999998785,Correct
4,204,88,B,40.19704691549856,17.188081058588608,2.009852345774928,0.2699897459148392,B,908.4369000011066,Correct
4,204,89,B,79.90955873935987,64.64547908361752,3.995477936967993,1.015448810884427,B,674.8380999997607,Correct
4,204,90,B,38.56242521665587,27.329780366968237,1.9281212608327933,0.42929518612544987,B,762.5513000002684,Correct
4,204,91,B,47.2761434253898,35.980291090741815,2.3638071712694897,0.5651770908234839,B,571.678599999359,Correct
4,204,92,A,26.550077209373068,46.630985774878724,1.3275038604686535,0.7324778117000458,A,751.2391000000207,Correct
4,204,93,B,77.11833721438633,54.90441001836644,3.8559168607193164,0.8624364558169093,B,534.9865999996837,Correct
4,204,94,A,31.672747919874773,53.9333157842078,1.5836373959937387,0.8471825432570282,A,699.9735999997938,Correct
4,204,95,B,38.01739399016236,26.183049356237547,1.900869699508118,0.4112823775306742,B,3105.2658000007796,Correct
4,204,96,A,33.74485783963725,60.81817995073319,1.6872428919818623,0.9553297366896271,A,790.810500000589,Correct
4,204,97,B,64.64635986891255,56.056897655165876,3.2323179934456276,0.88053968928252,B,1089.5495000004303,Correct
4,204,98,A,63.93438615822464,78.4445221765303,3.196719307911232,1.232203672920746,A,818.9375000001746,Correct
4,204,99,B,75.2688337756843,53.106095850273434,3.763441688784215,0.8341886029202722,B,686.8544999997539,Correct
4,204,100,B,35.15984688561726,19.608560602820134,1.7579923442808632,0.30801054968644986,B,1284.6683000007033,Correct
4,204,101,A,28.36390555841862,45.923361139008136,1.4181952779209308,0.7213624699122947,A,757.5078000008943,Correct
4,204,102,A,50.23186679939883,69.8294876142145,2.5115933399699415,1.0968790264637787,A,1369.3569000006391,Correct
4,204,103,B,40.97354538475119,17.307409481902322,2.0486772692375594,0.27186415240507333,B,509.8234000015509,Correct
4,204,104,B,68.548014902463,48.72352676538837,3.42740074512315,0.7653473687156489,B,1423.4796999990067,Correct
4,204,105,B,66.72052011189858,35.393031410911526,3.336026005594929,0.5559524373439622,B,597.3008000000846,Correct
4,204,106,A,48.445289262775134,69.64236934441305,2.422264463138757,1.0939397795549755,A,1022.6951999993616,Correct
4,204,107,A,58.01348743742235,81.08527490584603,2.9006743718711174,1.2736845197925735,A,578.5952999995061,Correct
4,204,108,A,55.610480806352115,70.9953644795103,2.780524040317606,1.1151925774387965,A,668.2495000004565,Correct
4,204,109,A,45.671356585144935,62.7909572632718,2.2835678292572466,0.9863180502508266,B,3077.3401000005833,Incorrect
4,204,110,B,87.77898150874191,60.2654707710321,4.388949075437096,0.9466478011970242,B,586.0825999989174,Correct
4,204,111,A,49.81678298824186,68.72680782191476,2.490839149412093,1.0795581727900248,A,1040.4556000012235,Correct
4,204,112,B,35.41160728747093,16.87070301084389,1.7705803643735465,0.26500438319881187,B,607.3768999995082,Correct
4,204,113,B,67.90528621075782,57.378221463503834,3.395264310537891,0.9012949951289593,B,842.9662999988068,Correct
4,204,114,A,57.591752062934646,74.14378104159496,2.879587603146732,1.1646477891482245,B,1902.8664999987086,Incorrect
4,204,115,B,68.687849699775,42.086031757131124,3.4343924849887504,0.6610858409347493,B,1160.2719000002253,Correct
4,204,116,A,43.79431364305265,74.87820293431176,2.1897156821526322,1.1761840612621974,A,603.8645999997243,Correct
4,204,117,A,13.235868463709238,35.36918600127179,0.6617934231854619,0.555577874525232,A,548.7202999993315,Correct
4,204,118,A,48.24353994981769,78.02550809624228,2.412176997490884,1.2256218151388283,A,819.8824999999488,Correct
4,204,119,B,82.35502986220932,61.62834011889426,4.117751493110466,0.9680557028522565,B,597.0032999994146,Correct
4,204,120,A,28.16569803012886,37.523954852336495,1.408284901506443,0.589424904488677,A,1278.9831999998569,Correct
4,204,121,B,81.83571285655862,66.01228488441373,4.091785642827931,1.0369185461977535,B,1133.2946000002266,Correct
4,204,122,B,50.73529989093964,32.290542660717584,2.5367649945469823,0.5072186580166909,B,1931.434199999785,Correct
4,204,123,B,37.00831303023392,17.19401647997501,1.850415651511696,0.27008297929595665,B,735.0056000013865,Correct
4,204,124,A,30.91949048740551,52.47879444775144,1.5459745243702756,0.8243349755315238,A,733.0999000005249,Correct
4,204,125,A,66.01720001378482,85.76588479066089,3.300860000689241,1.347207367934844,A,715.2002999991964,Correct
4,204,126,A,31.793344880138058,41.09945683439332,1.5896672440069028,0.6455887582873043,A,1572.57860000027,Correct
4,204,127,B,69.53825302699657,56.402568946350506,3.4769126513498287,0.8859694812272326,B,973.7299999997049,Correct
4,204,128,B,82.26308249504027,66.68356020531306,4.113154124752014,1.047462914281121,B,775.6594000002224,Correct
4,204,129,A,61.73875063606849,71.2265717431093,3.0869375318034247,1.1188243726426927,B,582.3008999996091,Incorrect
4,204,130,A,29.107149916593656,47.214752472681724,1.4553574958296827,0.741647597546187,A,1048.7976999993407,Correct
4,204,131,B,78.28130652831624,56.24415726372823,3.9140653264158116,0.8834811563353882,B,620.4320999986521,Correct
4,204,132,B,75.39251921788973,64.02185338732987,3.7696259608944866,1.0056529213541916,B,396.4183999996749,Correct
4,204,133,B,60.67083530278285,29.92476345232168,3.0335417651391423,0.4700570851111307,B,609.6844999992754,Correct
4,204,134,A,42.36619055569868,51.8482950808447,2.118309527784934,0.8144311146356876,A,1019.6784999989177,Correct
4,204,135,B,61.39895903341495,34.69279324130146,3.0699479516707475,0.5449531218969115,B,1421.617399999377,Correct
4,204,136,B,62.24979014065756,30.221416735483466,3.112489507032878,0.4747169039863524,B,591.2544000002526,Correct
4,204,137,A,14.43089080848156,37.530235960785845,0.7215445404240781,0.5895235679094815,A,501.0951999993267,Correct
4,204,138,B,51.66100782087016,25.611346570941038,2.583050391043508,0.40230209117905247,B,508.00320000053034,Correct
4,204,139,B,73.98944560279068,46.86748505625094,3.699472280139534,0.7361927337247369,B,796.8276999999944,Correct
4,204,140,B,83.89916938153559,58.65306919879,4.194958469076779,0.9213202565270621,B,584.1455999998288,Correct
4,204,141,A,32.550959808818774,64.96529502437664,1.627547990440939,1.020472467934376,A,593.5647000005702,Correct
4,204,142,B,37.7631637509825,23.444179836965283,1.888158187549125,0.36826031572624046,B,587.0094999991124,Correct
4,204,143,A,46.609345284208516,64.53983644844044,2.330467264210426,1.0137893802515363,A,1772.8716999990866,Correct
4,204,144,A,32.931527734896626,46.13228314950828,1.6465763867448313,0.7246442091790972,A,481.0641999993095,Correct
4,204,145,A,22.230134738905605,44.89211478438684,1.1115067369452802,0.7051636900536972,A,623.429400000532,Correct
4,204,146,A,53.202253032025,82.15344351761644,2.66011265160125,1.290463273110239,A,895.1547000015125,Correct
4,204,147,B,68.61514651589677,44.669993624166146,3.430757325794838,0.7016746190279163,B,674.2080000003625,Correct
4,204,148,A,55.588404215823346,80.97670006408688,2.779420210791167,1.2719790301663974,A,854.077200001484,Correct
4,204,149,A,28.323442973559274,38.08542779790906,1.4161721486779637,0.598244500893678,A,829.8306000015145,Correct
4,204,150,B,70.05827357663105,51.13591905815483,3.5029136788315527,0.8032411382383076,B,663.2036000009975,Correct
4,204,151,B,69.67821367038562,44.09158907048553,3.483910683519281,0.6925890615446868,B,676.795299999867,Correct
4,204,152,A,45.53044210314707,75.74813041291705,2.2765221051573534,1.1898488501419089,A,686.7011999984243,Correct
4,204,153,A,56.56743659812935,69.47479688189937,2.8283718299064673,1.0913075574690905,A,1634.0440999993007,Correct
4,204,154,B,84.03451429410185,59.06512838774982,4.201725714705093,0.9277928671314639,B,589.9248000005173,Correct
4,204,155,A,57.75864821302716,83.92850275822155,2.887932410651358,1.3183458384600977,A,1487.868800000797,Correct
4,204,156,B,61.48017228836797,42.83738413551064,3.074008614418398,0.6728880564956209,B,491.76530000113416,Correct
4,204,157,B,49.75702843575158,38.71588874201787,2.487851421787579,0.6081477582456156,B,1306.4039000000776,Correct
4,204,158,A,25.14322375661527,56.2494443461125,1.2571611878307636,0.8835642056312747,A,551.3761000001978,Correct
4,204,159,A,17.274757573975354,40.07902630372345,0.8637378786987676,0.6295598729940485,A,506.1559000005218,Correct
4,204,160,A,31.35093967496206,45.498975408044146,1.5675469837481029,0.7146962344388706,A,1014.0503999991779,Correct
4,204,161,A,46.045650724523945,61.41230562232929,2.302282536226197,0.9646622409156043,A,1600.816100000884,Correct
4,204,162,B,50.67947100383439,22.942387727029292,2.5339735501917193,0.3603781836952193,B,434.4944000004034,Correct
4,204,163,B,47.90493136867694,33.97397736109503,2.3952465684338473,0.5336619884542105,B,582.1120999989944,Correct
4,204,164,B,69.13300343395494,51.46922170095535,3.4566501716977474,0.8084766439085284,B,862.6456999991206,Correct
4,204,165,A,60.13690762525674,79.2196008482776,3.006845381262837,1.2443785802263232,A,1121.9633000000613,Correct
4,204,166,A,11.200281812857263,30.848539852768084,0.5600140906428631,0.48456773087714083,A,833.1816999998409,Correct
4,204,167,A,64.41373316943881,81.02337365496652,3.220686658471941,1.2727121772175178,A,883.7029999995138,Correct
4,204,168,A,58.703849566030094,75.84820115711038,2.9351924783015044,1.1914207577158942,A,2190.770100000009,Correct
4,204,169,B,77.65717719586827,64.3539316178857,3.8828588597934135,1.0108691940018482,A,1023.0207000004157,Incorrect
4,204,170,B,75.470685009409,51.99789891575744,3.77353425047045,0.8167810861792412,B,508.85489999927813,Correct
4,204,171,A,26.3435805483832,56.53481254892516,1.3171790274191602,0.8880467588788966,A,551.3338000000658,Correct
4,204,172,B,44.59416553785411,24.408542238759136,2.2297082768927057,0.38340848491060936,B,525.4132999998546,Correct
4,204,173,A,30.72197594103796,44.46280220809911,1.536098797051898,0.6984200638749011,A,1467.8136999991693,Correct
4,204,174,B,82.28929183269568,60.718683031228686,4.114464591634784,0.9537668427327763,B,612.902099999701,Correct
4,204,175,A,35.739907131975244,63.76702243512775,1.7869953565987624,1.0016500461174642,A,1074.9900000009802,Correct
4,204,176,B,41.969093172975,29.00612283255449,2.09845465864875,0.45562711199938166,B,648.8171000000875,Correct
4,204,177,B,45.612837452854805,31.829303780426187,2.2806418726427404,0.49997353462732375,B,462.0742999995855,Correct
4,204,178,A,29.15177626587417,54.816115490583265,1.4575888132937083,0.8610495286177302,A,857.9420999994909,Correct
4,204,179,B,70.23683378744344,61.490127460777956,3.5118416893721722,0.9658846634954001,B,705.4184999997233,Correct
4,204,180,B,45.60684679044487,19.362854474838315,2.2803423395222437,0.30415100685340146,B,616.6111000002275,Correct
4,204,181,A,42.460298446300946,57.62741164822334,2.1230149223150474,0.9052092653972666,A,1593.1897000009485,Correct
4,204,182,B,67.53259975165011,44.845856974631864,3.3766299875825054,0.7044370740772103,B,561.4686000008078,Correct
4,204,183,B,55.06843961771016,35.12383930221545,2.753421980885508,0.5517239775885425,B,803.9764999994077,Correct
4,204,184,A,48.268943233383865,59.24262699971346,2.4134471616691933,0.9305810088083006,A,1339.1556000005949,Correct
4,204,185,A,51.1163570573364,74.21819246337368,2.55581785286682,1.1658166410282407,A,616.1608999991586,Correct
4,204,186,A,29.30167472011504,41.11121810603225,1.465083736005752,0.645773503910193,A,801.3097000002745,Correct
4,204,187,B,63.81568832110877,46.41582897737858,3.1907844160554384,0.7290981366280641,B,1628.0492000005324,Correct
4,204,188,A,66.41303498284054,77.6953164572068,3.3206517491420273,1.2204351770014754,A,673.909499999354,Correct
4,204,189,A,54.12109423577938,68.78293397289985,2.706054711788969,1.0804398003080697,A,1431.44299999949,Correct
4,204,190,A,11.76298858889486,32.56977639506293,0.5881494294447429,0.5116048512589598,A,531.8482999991829,Correct
4,204,191,B,35.31371498402528,17.889902933892813,1.7656857492012643,0.2810139381527607,B,602.4929000013799,Correct
4,204,192,B,61.960293125009336,46.78543078805728,3.0980146562504665,0.7349038282939724,B,660.1513999994495,Correct
4,204,193,A,68.77533573577321,88.89841971271619,3.43876678678866,1.396413111426056,A,650.6528999998409,Correct
4,204,194,B,31.02955346153998,15.848992529552657,1.551477673076999,0.24895539248821072,B,734.408500000427,Correct
4,204,195,A,39.65676557715167,66.77398536150942,1.9828382788575833,1.0488833093131518,A,690.5746999982512,Correct
4,204,196,B,48.06709359666906,27.045805876557623,2.403354679833453,0.4248345252610454,B,683.6765999996715,Correct
4,204,197,B,64.35086116955733,36.27117949905707,3.2175430584778666,0.569746355256372,B,920.9229999996751,Correct
4,204,198,A,51.86121280214983,74.46381677845702,2.5930606401074914,1.1696748987472847,A,1239.8147000003519,Correct
4,204,199,A,50.15076605323138,61.11200982000502,2.507538302661569,0.9599452054831755,A,4826.913499999137,Correct
4,204,200,A,63.500701871508156,78.6232026479882,3.175035093575408,1.2350103792031064,A,828.0358000010892,Correct
4,204,201,A,21.55867286540527,41.94882033338721,1.0779336432702635,0.658930528930637,A,598.5353000014584,Correct
4,204,202,B,41.353656317049264,15.09082573844995,2.067682815852463,0.23704613638259064,B,637.1856000005209,Correct
4,204,203,B,37.08726605792371,24.676123190968124,1.854363302896186,0.3876116366791109,B,642.9792999988422,Correct
4,204,204,A,53.13566512152884,81.79741098357422,2.6567832560764417,1.284870727143309,A,1170.1522999992449,Correct
4,204,205,B,42.760834114880566,21.794214048221328,2.1380417057440284,0.34234271372327796,B,497.3859999990964,Correct
4,204,206,B,47.495359852514085,30.660204372113135,2.374767992625704,0.48160936406496135,B,540.4342999991059,Correct
4,204,207,A,21.34635794819221,45.37571482969042,1.0673178974096105,0.7127600618017043,A,546.2580999992497,Correct
4,204,208,A,42.804138580136524,69.71346069127436,2.140206929006826,1.0950564798201419,A,713.9452000010351,Correct
4,204,209,B,80.51063919124068,54.893412003143176,4.025531959562034,0.8622636993977617,B,641.6934000008041,Correct
4,204,210,A,10.734376412330022,31.917038928988,0.5367188206165011,0.5013516751182406,A,639.4927999990614,Correct
4,204,211,A,44.84356933491096,64.47139553042987,2.242178466745548,1.0127143128254017,A,836.7693000000145,Correct
4,204,212,A,59.92534080099096,84.22283996132224,2.9962670400495477,1.322969276434794,B,583.5458999990806,Incorrect
4,204,213,B,63.076818315354636,34.72366592535796,3.153840915767732,0.545438068884054,B,487.57520000071963,Correct
4,204,214,B,81.28665878249606,53.22222676075809,4.064332939124803,0.8360127829964386,B,596.8037000002369,Correct
4,204,215,B,76.23912338308615,55.27586949399087,3.811956169154308,0.8682713276155494,B,472.1525000004476,Correct
4,204,216,A,43.34162134602592,64.39281559304338,2.167081067301296,1.0114799820553368,A,909.1456999994989,Correct
4,204,217,A,44.04160738480442,68.20993140740492,2.202080369240221,1.0714390970568348,A,723.2494999989285,Correct
4,204,218,A,42.77824828552676,73.40643867914957,2.138912414276338,1.1530656424030297,A,720.485900001222,Correct
4,204,219,A,25.385981334547935,42.02320175100815,1.2692990667273967,0.6600989095064447,A,765.7336000011128,Correct
4,204,220,A,13.445826577227109,39.55819374550356,0.6722913288613555,0.6213786543007783,A,635.8252000009088,Correct
4,204,221,B,51.7581621036761,24.947587556568557,2.5879081051838053,0.3918757889625196,B,744.5146999998542,Correct
4,204,222,A,64.88027647182952,76.24247014183875,3.2440138235914757,1.1976139204456988,A,1002.5159999986499,Correct
4,204,223,A,61.282517286240626,85.88197287249841,3.064125864312031,1.3490308752601945,A,699.6036000000458,Correct
4,204,224,A,63.02939772325495,88.32065748250014,3.1514698861627477,1.3873376435362141,A,533.8761000002705,Correct
4,204,225,A,51.607234236898094,63.60563342491308,2.5803617118449047,0.9991149534731616,A,1420.1908000013646,Correct
4,204,226,B,57.83111731294298,25.510624434630714,2.891555865647149,0.4007199515616206,B,591.4816000004066,Correct
4,204,227,A,17.88942655071579,48.40787894743288,0.8944713275357895,0.7603891843855958,A,500.7666000001336,Correct
4,204,228,A,68.12313811336509,81.49164558518473,3.4061569056682544,1.280067775496797,A,861.6475999988324,Correct
4,204,229,B,51.69379294994503,38.369301563773234,2.5846896474972514,0.6027035795806068,A,1111.3060000006953,Incorrect
4,204,230,B,38.789595523670776,16.618071374978463,1.939479776183539,0.26103605474231584,B,493.9584999992803,Correct
4,204,231,B,52.05035047533824,38.34616189422461,2.6025175237669123,0.6023401025013044,B,550.2495000000636,Correct
4,204,232,A,40.05688756948875,71.72796567106425,2.0028443784744376,1.1267002500457817,A,1132.3005000012927,Correct
4,204,233,B,51.543599060381425,29.491577045700517,2.5771799530190713,0.46325260894775067,B,640.1905000002444,Correct
4,204,234,B,39.8851957656224,30.667964588222823,1.99425978828112,0.48173126125456367,B,506.974199999604,Correct
4,204,235,B,86.32480855631661,59.034317408039215,4.31624042781583,0.9273088893939202,B,657.6272000002064,Correct
4,204,236,A,41.946366954451065,62.25217327277932,2.0973183477225534,0.9778548511188119,A,1557.7845999996498,Correct
4,204,237,B,49.19756802021601,20.437998545104083,2.4598784010108004,0.3210393304168893,B,656.810200000109,Correct
4,204,238,B,56.87643931224604,46.23253504118024,2.8438219656123023,0.7262189622110226,B,1503.1762999988132,Correct
4,204,239,A,23.135817436853056,37.455109602236206,1.156790871842653,0.5883434858289289,A,528.8848000000144,Correct
4,204,240,B,69.93967837847167,53.22964123502951,3.4969839189235836,0.8361292492859452,B,1122.26229999942,Correct
4,204,241,B,68.13829196710041,56.776462663808715,3.406914598355021,0.8918425900071832,B,2107.9611999994086,Correct
4,204,242,A,38.05834549955316,52.30387935823528,1.902917274977658,0.8215874157303941,A,1233.7704000001395,Correct
4,204,243,A,50.314561602489235,78.77319145772246,2.5157280801244615,1.2373663979170155,A,861.1134000002494,Correct
4,204,244,A,61.62061450272144,75.28766960222788,3.081030725136072,1.1826159486412733,A,574.5146999997814,Correct
4,204,245,A,34.00925566575161,58.17899530507125,1.7004627832875803,0.9138735212182344,A,834.0884999997797,Correct
4,204,246,B,71.18753143581357,44.02767284278716,3.5593765717906787,0.691585067787775,B,658.3523999997851,Correct
4,204,247,A,17.05434700596113,37.21616807053121,0.8527173502980565,0.5845902010257193,A,838.554899999508,Correct
4,204,248,B,48.868799439875964,19.945434153852105,2.4434399719937985,0.31330214705200365,B,514.42440000028,Correct
4,204,249,B,63.56860515184226,46.266559277326934,3.178430257592113,0.7267534136626349,B,1335.972099999708,Correct
4,204,250,A,31.542499240925913,59.216267090273995,1.5771249620462955,0.9301669483190793,A,697.3486000006233,Correct
4,204,251,B,52.53159894926068,40.69101510034807,2.6265799474630342,0.6391729705318242,B,880.8072000010725,Correct
4,204,252,A,44.63560673707386,53.287768971674076,2.231780336853693,0.8370423176380071,A,1077.2693999988405,Correct
4,204,253,A,61.64077184090931,82.23563755549387,3.082038592045466,1.2917543740380624,A,436.7304999996122,Correct
4,204,254,A,67.93927446744587,85.90949196984765,3.3969637233722936,1.3494631442305234,A,581.0338999999658,Correct
4,204,255,B,49.303500430587505,29.052511697802927,2.4651750215293755,0.456355786590746,B,557.305099999212,Correct
4,204,256,B,43.25087342401126,26.95944465528921,2.162543671200563,0.42347796636958596,B,476.20310000093014,Correct
4,204,257,A,54.75032170671773,68.4374097921296,2.737516085335886,1.0750123191683425,A,1449.758799999472,Correct
4,204,258,B,42.607269408185445,14.318818537754773,2.1303634704092724,0.22491947563147868,B,531.9502000002103,Correct
4,204,259,A,50.51325811325147,63.770834096549834,2.5256629056625735,1.0017099195550723,A,1083.717899999101,Correct
4,204,260,A,48.60938140810971,58.331516720190244,2.4304690704054854,0.9162693220044992,A,695.8871999995608,Correct
4,204,261,B,72.44580064036558,39.40008460248874,3.6222900320182787,0.6188950816899748,B,756.8635999996332,Correct
4,204,262,B,34.04617777961542,11.78493074175287,1.702308888980771,0.18511725920677666,B,773.1598999998823,Correct
4,204,263,A,19.25919798336754,49.693076645103815,0.962959899168377,0.7805770226126634,A,723.791300000812,Correct
4,204,264,B,82.8380970159837,64.3286340700858,4.141904850799185,1.0104718210502381,B,661.7189000007784,Correct
4,204,265,A,34.317837294002906,55.28470733940976,1.7158918647001453,0.8684101521667571,A,1068.3834999999817,Correct
4,204,266,A,65.31054447796856,83.73774162360647,3.2655272238984283,1.3153493695646117,A,695.4436999985774,Correct
4,204,267,A,27.681462015062493,46.21795318060923,1.3840731007531246,0.7259899108807949,A,693.51049999932,Correct
4,204,268,A,39.44040805804952,61.81612949982407,1.972020402902476,0.9710054915500129,A,922.1873999995296,Correct
4,204,269,A,24.333347524890254,48.93580584604824,1.2166673762445128,0.768681840717208,A,645.2296000006754,Correct
4,204,270,B,60.450626034960955,51.2737172569264,3.0225313017480477,0.8054056672830009,A,2202.5355999994645,Incorrect
4,204,271,B,56.68666227701023,34.76960845027662,2.8343331138505112,0.546159732377913,B,581.2937999999122,Correct
4,204,272,B,87.71967713807462,60.233317853085126,4.3859838569037315,0.9461427443429559,B,517.8626999986591,Correct
4,204,273,A,35.95261670576805,44.24567367269055,1.7976308352884025,0.6950094168162798,A,597.8984000012133,Correct
4,204,274,B,76.65489801755157,62.24635332315119,3.8327449008775782,0.9777634315638318,B,602.920899998935,Correct
4,204,275,B,36.842474146368005,18.737691135719384,1.8421237073184002,0.294330964086053,B,651.1731999999029,Correct
4,204,276,B,68.31828962811252,36.9616301490948,3.4159144814056264,0.5805919287054963,B,606.2365000016143,Correct
4,204,277,B,41.33928604080191,33.23912747441618,2.0669643020400956,0.5221189934268026,B,960.1934000002075,Correct
4,204,278,B,50.60728843903939,24.546329046793517,2.5303644219519694,0.3855728350300213,B,488.46750000120664,Correct
4,204,279,A,47.680222348087405,62.962824800941156,2.3840111174043703,0.9890177392194897,A,909.1649999991205,Correct
4,204,280,B,59.721194381896765,52.522629030879,2.9860597190948384,0.8250235275531576,A,1673.333199998524,Incorrect
4,204,281,B,41.54705405355617,32.00612278155321,2.0773527026778082,0.5027510010021023,B,885.2131999992707,Correct
4,204,282,B,63.54985613470031,36.762743850004505,3.1774928067350157,0.5774678300248874,B,616.555899998275,Correct
4,204,283,A,12.32060091681615,30.31748927083672,0.6160300458408074,0.4762260078427401,A,501.5220999994199,Correct
4,204,284,A,29.723977908057858,38.603302568689664,1.4861988954028929,0.6063792587704973,B,1959.4772000000376,Incorrect
4,204,285,B,69.04877917902827,54.41783041936447,3.4524389589514133,0.8547932813488529,B,979.063300001144,Correct
4,204,286,B,57.59607258938302,49.19436322332558,2.879803629469151,0.7727432505021377,B,644.5106000010128,Correct
4,204,287,B,72.89831169752047,62.9064959752905,3.6449155848760233,0.9881329280952426,B,1020.2007000007143,Correct
4,204,288,B,50.04853513385105,38.2989586771696,2.502426756692552,0.6015986361016754,B,3405.9187000002566,Correct
4,204,289,A,35.97682992898664,56.565080369456886,1.7988414964493318,0.8885222046920098,A,551.9268999996711,Correct
4,204,290,A,62.44434334592087,88.74394075154197,3.1222171672960433,1.3939865615782605,A,1303.875000001426,Correct
4,204,291,B,77.46282053539804,62.713700839641774,3.873141026769902,0.9851045091862332,B,713.0005000017263,Correct
4,204,292,A,50.36556465529693,72.36705078046452,2.5182782327648465,1.1367389754693342,A,1033.851300000606,Correct
4,204,293,B,44.95390933169742,26.105423590589474,2.247695466584871,0.4100630348552278,B,644.8870000003808,Correct
4,204,294,A,12.113280240206333,31.673749935237634,0.6056640120103167,0.4975301005409137,A,508.09730000037234,Correct
4,204,295,B,68.05656452497645,56.45776935109846,3.4028282262488228,0.8868365671573895,B,838.8617000000522,Correct
4,204,296,B,61.88981719215133,43.3463285447481,3.0944908596075664,0.6808825365813509,B,667.8410000004078,Correct
4,204,297,B,69.43384761566683,52.61958258706891,3.4716923807833417,0.8265464704524853,B,646.0275999997975,Correct
4,204,298,B,48.02283116853492,26.90435184647379,2.401141558426746,0.4226125705523852,B,681.4082000000781,Correct
4,204,299,A,40.173745257125844,54.73822840038406,2.0086872628562924,0.8598260810658338,A,1119.2176999993535,Correct
4,204,300,A,15.21860122223941,42.16669018579036,0.7609300611119706,0.662352820569379,A,560.3326000000379,Correct
4,204,301,B,50.8064830242655,20.379654089053993,2.5403241512132753,0.32012285784436606,B,488.87570000078995,Correct
4,204,302,A,14.189655740997718,34.285969090445576,0.709482787049886,0.5385627430787527,A,527.284800000416,Correct
4,204,303,A,34.163859355083304,59.50092370955253,1.7081929677541652,0.9346383240386851,A,654.9594000007346,Correct
4,204,304,B,73.10394910744482,48.206866114021295,3.6551974553722406,0.7572316821819801,B,515.9777000008035,Correct
4,204,305,A,23.851682712295794,38.455079898645465,1.1925841356147897,0.6040509825139655,B,1298.0852000000596,Incorrect
4,204,306,B,79.40968498929381,50.85131250036681,3.97048424946469,0.798770548882756,B,634.9251000010554,Correct
4,204,307,A,14.159274779774908,43.016692740836945,0.7079637389887453,0.6757046294817137,A,554.127100000187,Correct
4,204,308,B,56.98740407818875,25.676993554283314,2.8493702039094377,0.4033332715820447,B,477.17670000020007,Correct
4,204,309,A,50.034490523973396,57.448340217048965,2.50172452619867,0.9023964179340405,A,728.7861999993765,Correct
4,204,310,A,40.60143568811936,71.74177789437802,2.0300717844059677,1.126917211942243,A,632.2072999992088,Correct
4,204,311,A,51.60701155016912,75.747931906563,2.580350577508456,1.189845732011391,A,612.1186000000307,Correct
4,204,312,B,59.36821360743983,52.30213315872515,2.968410680371991,0.8215599864926303,A,1958.328700000493,Incorrect
4,204,313,B,68.53331246777935,41.86202533167898,3.426665623388968,0.6575671562319625,B,601.1206000002858,Correct
4,204,314,B,64.18729102510603,38.51953342693743,3.2093645512553017,0.6050634161688655,B,483.3412000007229,Correct
4,204,315,B,75.73004285567697,62.85270478081392,3.7865021427838483,0.9872879779882654,B,566.6754999983823,Correct
4,204,316,B,35.8192492290736,24.955403062303745,1.7909624614536799,0.3919985546395284,B,750.9401999996044,Correct
4,204,317,B,31.45598973277612,15.44968668078663,1.5727994866388062,0.24268311088311675,B,492.7886999994371,Correct
4,204,318,A,58.84905633713052,82.8287638652304,2.942452816856526,1.3010711803246575,A,624.6487999997044,Correct
4,204,319,A,56.679841430824894,81.78397744893692,2.8339920715412448,1.2846597136746678,A,627.6880000004894,Correct
4,204,320,A,60.68932831276017,82.33815711811239,3.034466415638008,1.2933647475619203,A,529.2269000001397,Correct
4,204,321,B,55.697299116676135,42.14942048296977,2.784864955833807,0.6620815487118249,B,1871.5596000001824,Correct
4,204,322,B,73.10941610547955,48.304808049281675,3.655470805273978,0.7587701505034422,B,851.7394000009517,Correct
4,204,323,A,61.67461900542729,79.77072664982455,3.083730950271365,1.2530356440730417,A,844.2979999999807,Correct
4,204,324,A,60.43477686074875,83.21027509740658,3.0217388430374377,1.307063944745991,A,924.0454999999201,Correct
4,204,325,B,52.0413047827532,44.639515811372874,2.60206523913766,0.7011958746640722,A,1426.4475999989372,Incorrect
4,204,326,B,86.8742447174297,69.79377048117202,4.343712235871485,1.0963179830499108,B,615.4604000003019,Correct
4,204,327,B,70.06969947928805,47.350914315321845,3.5034849739644023,0.7437864227688744,B,479.97620000023744,Correct
4,204,328,A,36.03493990318097,62.71391214717168,1.8017469951590486,0.9851078283971513,A,636.1229999984062,Correct
4,204,329,B,73.24592004081677,55.722133321584145,3.6622960020408386,0.8752812234271988,B,580.7418000003963,Correct
4,204,330,B,44.63810200210798,24.806114015567065,2.231905100105399,0.38965352777708145,B,623.4437000002799,Correct
4,204,331,A,18.846133158504493,45.774322158039226,0.9423066579252247,0.7190213710737426,A,516.2005000001955,Correct
4,204,332,A,35.79451149196857,50.757781963123705,1.7897255745984284,0.7973013746393096,A,1545.1569999986532,Correct
4,204,333,B,52.072460651385605,44.57928496316183,2.6036230325692804,0.7002497707127756,B,1490.539099999296,Correct
4,204,334,B,71.47334727729015,47.427916514146375,3.5736673638645073,0.7449959704795615,B,454.4318000007479,Correct
4,204,335,A,46.41520084134743,69.85425729725353,2.3207600420673713,1.0972681077351143,A,555.7131999994454,Correct
4,204,336,A,14.753559601204586,31.39880807659255,0.7376779800602293,0.4932113239244952,A,633.2588000004762,Correct
4,204,337,B,66.78418424854505,58.48678179699067,3.339209212427252,0.9187082201276755,B,1880.1218999997218,Correct
4,204,338,B,65.53554568082707,32.46986706432018,3.276777284041353,0.5100354791615272,B,630.2262000008341,Correct
4,204,339,A,32.499815013302396,50.18028906175233,1.6249907506651198,0.7882301373570668,A,480.18150000098103,Correct
4,204,340,A,27.691705644561395,38.83428696085922,1.38458528222807,0.610007553118166,A,538.1689999994705,Correct
4,204,341,B,50.439928411716274,39.320615007726786,2.5219964205858134,0.6176467762145352,A,828.3532000004925,Incorrect
4,204,342,A,32.33486353022753,52.271374949253506,1.6167431765113764,0.8210768376680619,A,575.1694000009593,Correct
4,204,343,B,36.95923413475998,22.149157753659008,1.847961706737999,0.34791815641048274,B,367.4339000008331,Correct
4,204,344,B,73.54856456889432,57.02921272909454,3.6774282284447164,0.8958127787486646,B,622.3595999999816,Correct
4,204,345,B,36.76626396003394,14.52441914027246,1.838313198001697,0.22814904234369468,B,513.6456999989605,Correct
4,204,346,B,63.09235384215364,31.440739639988998,3.1546176921076823,0.49386998338209415,B,531.0723999991751,Correct
4,204,347,B,85.24652308397694,60.90803680344521,4.262326154198847,0.9567412048314011,B,487.2175000000425,Correct
4,204,348,B,85.81492224101927,68.36038987006361,4.2907461120509645,1.0738024930616297,B,605.3073999992193,Correct
4,204,349,B,66.29628956575044,34.1259865985189,3.314814478287522,0.5360497439720535,B,402.2841999994853,Correct
4,204,350,A,44.90309710322085,77.09750392431789,2.2451548551610427,1.2110447596937368,A,697.213900000861,Correct
4,204,351,B,52.68777196691266,20.983712971156173,2.6343885983456334,0.32961139257610544,B,848.3947999993688,Correct
4,204,352,A,59.629999366288196,83.75228808538355,2.98149996831441,1.3155778648518848,A,414.7348000005877,Correct
4,204,353,B,84.33028700344146,60.6931419586855,4.216514350172073,0.953365644503444,B,683.7499000012031,Correct
4,204,354,A,17.785281447111974,31.486586089094086,0.8892640723555987,0.49459013772060273,A,754.908400000204,Correct
4,204,355,B,30.962407280732307,15.82382303690283,1.5481203640366152,0.2485600310221943,B,657.0219999994151,Correct
4,204,356,A,48.29702945625779,67.44391203367019,2.41485147281289,1.0594064928716724,A,639.90129999911,Correct
4,204,357,B,69.15374286024272,40.22415198226378,3.4576871430121354,0.6318395018217959,B,587.2550999993109,Correct
4,204,358,B,35.916232907931814,19.91036624391804,1.7958116453965909,0.3127513016108756,B,475.0146999995195,Correct
4,204,359,B,47.376623605285346,40.39056312970452,2.368831180264267,0.6344534820131723,B,787.8130999997666,Correct
4,204,360,B,88.26393177484518,66.15154183581384,4.413196588742259,1.0391059892751533,B,923.3032000011008,Correct
4,204,361,A,64.0145237474806,76.9006466005732,3.20072618737403,1.2079525320833284,A,565.2827000012621,Correct
4,204,362,A,30.09337013863508,46.86860077092403,1.5046685069317538,0.7362102593298393,A,725.8084999994026,Correct
4,204,363,B,75.7779157472948,60.92146114243518,3.7888957873647398,0.9569520738551519,B,663.2169999993494,Correct
4,204,364,B,33.05156147786717,21.064891547433444,1.6525780738933582,0.3308865426704132,B,536.8746000003739,Correct
4,204,365,B,44.60551337959584,35.380316029727986,2.230275668979792,0.5557527046033932,B,441.1853000001429,Correct
4,204,366,B,80.58695903273518,64.50991787455754,4.029347951636759,1.0133194203919542,B,572.8099000007205,Correct
4,204,367,B,46.78561491175165,20.27575280766095,2.3392807455875824,0.31849078033275136,B,613.9213000005839,Correct
4,204,368,A,20.577196644034302,35.398988923744696,1.028859832201715,0.5560460177367139,A,547.1938999999111,Correct
4,204,369,B,68.24157892277964,39.77994602819796,3.412078946138982,0.6248619310119259,B,779.7321999987616,Correct
4,204,370,B,80.21226710945606,51.78518280919739,4.010613355472803,0.8134397493908949,B,491.1900000006426,Correct
4,204,371,B,85.94209414826635,60.414799236826205,4.297104707413317,0.9489934472525772,B,572.5702999989153,Correct
4,204,372,B,84.72886814143087,64.34511278854634,4.236443407071544,1.0107306681545194,B,578.6969000000681,Correct
4,204,373,B,68.86052007177385,36.18961925964231,3.4430260035886926,0.56846521001152,B,741.2022999997134,Correct
4,204,374,A,28.05777779910673,44.77687316883995,1.4028888899553364,0.7033534789897475,A,510.0215999991633,Correct
4,204,375,A,37.740701324744336,67.50188083117965,1.8870350662372168,1.0603170646136384,A,1139.5776999997906,Correct
4,204,376,A,51.82171890778397,66.39255261486616,2.591085945389198,1.0428917777396869,A,803.2994000004692,Correct
4,204,377,A,25.73959123518579,44.882579137428934,1.2869795617592896,0.7050139044615461,A,1094.339499999478,Correct
4,204,378,B,41.8822150024381,33.71617524035909,2.094110750121905,0.529612442211291,B,640.8566999998584,Correct
4,204,379,A,48.142576484741085,63.099005643229304,2.4071288242370543,0.9911568628879505,A,898.8112999995792,Correct
4,204,380,A,50.40840231813239,60.65968518658783,2.5204201159066195,0.9528401067562696,A,1652.7665000012348,Correct
4,204,381,B,68.20311084711717,58.266913362383235,3.4101555423558585,0.9152545348330806,B,511.55020000078366,Correct
4,204,382,B,82.44081862342725,65.80328204719969,4.122040931171362,1.0336355373078983,B,648.0668000003789,Correct
4,204,383,B,36.26050310109754,17.617069735516214,1.8130251550548768,0.2767282842943841,B,591.0291000000143,Correct
4,204,384,A,37.30345257661622,47.205625312009005,1.8651726288308113,0.7415042284415992,A,618.0785999986256,Correct
4,204,385,B,51.95446945685611,38.17301998894862,2.5977234728428056,0.5996203958130865,B,501.9849999989674,Correct
4,204,386,A,22.959217940524415,50.91756096922482,1.1479608970262207,0.7998111773981355,A,587.4729999995907,Correct
4,204,387,B,82.82986483795469,68.615660808471,4.141493241897734,1.077812279585508,A,675.7841999988159,Incorrect
4,204,388,A,44.21057710452492,73.23584095138442,2.2105288552262463,1.1503858995616991,A,1289.055899998857,Correct
4,204,389,A,60.8734845706938,78.13348894630337,3.04367422853469,1.2273179743652298,A,649.5735999997123,Correct
4,204,390,A,46.98980518715602,58.0551339527977,2.3494902593578013,0.9119279116464032,A,985.0532000000385,Correct
4,204,391,B,50.22014335730333,19.516579731896634,2.5110071678651664,0.30656571754462963,B,478.3468999994511,Correct
4,204,392,B,68.68521698361344,49.976241652757516,3.434260849180672,0.7850249681516561,B,612.954100000934,Correct
4,204,393,B,74.62710575837622,57.10520760062613,3.7313552879188108,0.8970065033992353,B,510.6596999994508,Correct
4,204,394,B,42.986398396519164,27.925329544266976,2.1493199198259583,0.4386500507267157,B,665.6600999995135,Correct
4,204,395,A,42.358407091674685,60.84288689493582,2.117920354583734,0.9557178324616253,A,713.7249000006705,Correct
4,204,396,B,82.68949329655774,53.37342856482291,4.134474664827888,0.8383878553807362,B,529.7458000004553,Correct
4,204,397,A,57.650214925495774,72.08703933231767,2.882510746274789,1.1323405659272385,A,634.026100000483,Correct
4,204,398,A,27.34602968427094,45.562758126646784,1.367301484213547,0.715698131039811,A,758.7251000004471,Correct
4,204,399,A,61.42867709249103,81.0538308619024,3.071433854624552,1.273190597905311,A,448.95120000001043,Correct
4,204,400,B,66.5951888630903,38.13430998254658,3.329759443154515,0.5990123404544212,B,512.6800999987609,Correct
4,204,401,B,42.28841267661974,28.835914453478072,2.114420633830987,0.4529534850329522,B,414.50110000005225,Correct
4,204,402,B,43.34613927155404,19.595165054504246,2.1673069635777016,0.3078001329055499,B,519.5984999991197,Correct
4,204,403,A,31.58919895760568,64.3744447064252,1.579459947880284,1.0111914128431385,A,681.5826000001834,Correct
4,204,404,A,24.72684284013682,50.98415054260818,1.2363421420068408,0.8008571639708696,A,520.7566999997653,Correct
4,204,405,A,27.177914787792908,56.8347909533906,1.3588957393896453,0.8927588086374179,A,455.690599999798,Correct
4,204,406,B,69.76207241530206,59.18387842022504,3.4881036207651026,0.9296581882796523,B,632.2354000003543,Correct
4,204,407,B,34.511883938406214,22.702332493609884,1.7255941969203108,0.35660740490638837,B,531.5707999998267,Correct
4,204,408,B,73.52844182029469,43.34526715721659,3.6764220910147345,0.6808658643449929,B,657.9424999999901,Correct
4,204,409,B,43.58427734088462,23.39800416733948,2.179213867044231,0.3675349900038853,B,719.4772999991983,Correct
4,204,410,A,32.818802112202626,42.86776338471615,1.6409401056101314,0.673365252626249,A,930.5212999988726,Correct
4,204,411,B,70.79814671346166,46.198329274061955,3.5399073356730835,0.7256816592775764,B,790.620099998705,Correct
4,204,412,A,37.024121375188656,69.39069959736646,1.8512060687594327,1.0899865604127135,A,886.4534999993339,Correct
4,204,413,A,66.08451421450546,79.73734697734778,3.304225710725273,1.2525113174038807,A,826.5835000001971,Correct
4,204,414,B,77.84269391223951,52.69080576435551,3.8921346956119756,0.8276652415051299,B,496.1368999993283,Correct
4,204,415,B,59.81225682505564,27.362444993261004,2.990612841252782,0.42980828087541795,B,481.8027000001166,Correct
4,204,416,A,29.973772219066685,57.75646727034278,1.4986886109533342,0.9072364663690411,A,560.7003999994049,Correct
4,204,417,B,86.82366844971901,65.19244793694301,4.34118342248595,1.0240405775411763,B,573.9176999995834,Correct
4,204,418,B,43.64168566141234,25.889083887809264,2.182084283070617,0.40666477875055734,B,596.8930999988515,Correct
4,204,419,B,32.84550670634091,17.648951342369262,1.6422753353170458,0.27722907940375496,B,468.06239999932586,Correct
4,204,420,B,60.84661546517045,35.5158611931005,3.0423307732585227,0.5578818430507968,B,647.635999999693,Correct
4,204,421,A,43.53066791748367,63.04388724339875,2.1765333958741833,0.9902910650880238,A,498.14299999889045,Correct
4,204,422,A,40.76179514724095,59.99372473135482,2.0380897573620476,0.9423792243875627,A,2443.2453000008536,Correct
4,204,423,A,48.459239140192985,75.00822657764155,2.4229619570096492,1.1782264678755867,A,571.8520000009448,Correct
4,204,424,B,84.01116626437025,63.99258709312575,4.200558313218512,1.0051932074798444,B,631.4361000004283,Correct
4,204,425,A,25.220107310354912,47.201619441180696,1.2610053655177456,0.7414413043697722,A,515.6363999994937,Correct
4,204,426,B,66.29260971774062,49.33143482560576,3.314630485887031,0.7748963661958338,B,574.3725000011182,Correct
4,204,427,B,64.08708386470018,40.83705715589117,3.204354193235009,0.641466993775871,B,824.0566999993462,Correct
4,204,428,A,38.32895314840494,61.21996334972216,1.916447657420247,0.9616409355626174,A,518.385199999102,Correct
4,204,429,A,41.895299368268994,69.87569781362936,2.0947649684134495,1.0976048945787917,A,651.1134000011225,Correct
4,204,430,A,21.963933637724992,46.194050436560424,1.0981966818862496,0.7256144474552731,A,495.2828999994381,Correct
4,204,431,B,65.02262072775689,34.275677772413395,3.2511310363878443,0.5384010874331244,B,600.9463999998843,Correct
4,204,432,A,35.13817777955531,67.53180815312194,1.7569088889777658,1.060787161887416,A,511.29519999994955,Correct
4,204,433,A,24.19907079979861,43.32475989600303,1.2099535399899304,0.6805437370391241,A,455.0569999992149,Correct
4,204,434,A,36.68939846644208,63.912873249579434,1.8344699233221038,1.0039410653534717,A,668.5545999989699,Correct
4,204,435,B,47.22956107592193,21.878672905936696,2.3614780537960964,0.34366939035792393,B,444.61930000034044,Correct
4,204,436,A,51.303743835074606,62.393717231276455,2.56518719175373,0.9800782184196849,A,561.3171999993938,Correct
4,204,437,B,84.5195660147779,56.770568503624915,4.225978300738895,0.8917500047555207,B,564.6044000004622,Correct
4,204,438,B,51.15184822510888,42.87161540596907,2.557592411255444,0.6734257600345971,B,604.8931000004814,Correct
4,204,439,A,29.883953087821368,53.30824116860719,1.4941976543910684,0.8373638941554465,A,608.7781000005634,Correct
4,204,440,A,41.450467032433856,63.07356005624249,2.072523351621693,0.9907571645422302,A,501.5351999991253,Correct
4,204,441,A,43.932488070104725,72.90218657423002,2.1966244035052362,1.1451448688611674,A,701.2360000007902,Correct
4,204,442,A,47.55050589845546,78.69311274745397,2.377525294922773,1.2361085244775734,A,553.1283999989682,Correct
4,204,443,A,55.73166044120231,81.52160999189039,2.7865830220601153,1.2805384552966754,A,413.2731999998214,Correct
4,204,444,A,15.85396975169268,43.077158414473914,0.7926984875846341,0.676654422062175,A,743.7847000001057,Correct
4,204,445,B,46.922600230681475,25.148614159870036,2.3461300115340737,0.3950335074630598,B,458.2554999997228,Correct
4,204,446,B,51.46775726636128,32.92176469822157,2.5733878633180645,0.5171338705957235,B,453.3247000017582,Correct
4,204,447,B,52.55641922785077,42.37831494037052,2.6278209613925383,0.665677014440913,B,543.5679000001983,Correct
4,204,448,A,57.70981828049665,76.98479620057945,2.885490914024832,1.209274350909239,A,523.9635999987513,Correct
4,204,449,A,68.10982870070573,84.70743932836007,3.405491435035287,1.3305813454918953,A,435.71280000105617,Correct
4,204,450,A,34.09934562364416,66.74342953088322,1.704967281182208,1.0484033394480539,A,560.9674999996059,Correct
4,204,451,A,18.45479005048937,31.785937722840206,0.9227395025244683,0.4992923421876874,A,503.8987999996607,Correct
4,204,452,A,16.14954965361556,45.87541643503413,0.807477482680778,0.7206093562633784,A,428.07059999904595,Correct
4,204,453,A,34.229746837464525,49.437417896866286,1.7114873418732262,0.7765611443862184,A,472.21539999918605,Correct
4,204,454,A,55.98122626425564,64.21717459097901,2.7990613132127815,1.008721019646564,B,2216.2226000000373,Incorrect
4,204,455,B,46.25877949155394,18.495983157656127,2.3129389745776967,0.2905342240450652,B,482.16409999986354,Correct
4,204,456,A,58.06096887026726,66.39242153912784,2.9030484435133634,1.0428897188068038,A,1757.2134000001824,Correct
4,204,457,A,18.994298370916088,43.37277244521297,0.9497149185458044,0.6812979163985144,A,597.7839999995922,Correct
4,204,458,A,55.377737740703374,84.34590072980335,2.768886887035169,1.324902310465821,A,665.6997999998566,Correct
4,204,459,B,39.07313234497375,25.45936757769465,1.9536566172486873,0.39991481073563834,B,615.2325999992172,Correct
4,204,460,A,34.85530082473036,59.916190952759024,1.7427650412365179,0.9411613266413549,A,723.3713000005082,Correct
4,204,461,A,44.10449052817597,51.63243414163413,2.2052245264087986,0.8110403789315828,B,908.4908000004361,Incorrect
4,204,462,A,41.630107844175505,58.79871695589696,2.081505392208775,0.9236080861457575,A,575.2838000007614,Correct
4,204,463,A,48.1409455525627,76.90880408758638,2.407047277628135,1.20808066958969,A,434.5917999999074,Correct
4,204,464,B,59.278537724372946,38.16609352502675,2.9639268862186476,0.5995115951722251,B,1118.1913999989774,Correct
4,204,465,A,67.76104139012587,88.1407129491005,3.3880520695062932,1.3845110814153043,A,466.3749999999709,Correct
4,204,466,A,51.97549020846954,70.15886477566036,2.5987745104234765,1.1020528708170714,A,2303.8723999998183,Correct
4,204,467,B,37.11644583819826,19.404663762756876,1.8558222919099132,0.3048077456122854,B,503.6311999992904,Correct
4,204,468,B,76.2400099294576,48.707441679634506,3.81200049647288,0.7650947047794653,B,795.5290999998397,Correct
4,204,469,A,26.207049584119822,44.78755104342938,1.3103524792059913,0.7035212066515781,A,527.3788000013155,Correct
4,204,470,B,52.16171410854808,43.411407683093095,2.6080857054274045,0.6819047972959839,B,1177.0822999988013,Correct
4,204,471,A,45.525731840340114,63.61585715942094,2.276286592017006,0.9992755475192725,A,1120.2575000006618,Correct
4,204,472,A,32.50583104234898,50.85669704206518,1.625291552117449,0.7988551290659686,A,518.3386000007886,Correct
4,204,473,A,39.18984498769122,59.937511297773526,1.959492249384561,0.9414962258377026,A,564.4484000004013,Correct
4,204,474,B,59.652723350923196,32.095100661227576,2.98263616754616,0.5041486622676873,B,525.2639999998792,Correct
4,204,475,B,84.70400278595918,58.360527926736395,4.235200139297959,0.9167250289712853,B,590.6467000004341,Correct
4,204,476,A,12.415414173042421,38.553860432916814,0.620770708652121,0.6056026235178884,A,476.7408000006981,Correct
4,204,477,B,71.4562379000521,55.55786064848126,3.572811895002605,0.8727008343121708,B,731.9628999994165,Correct
4,204,478,A,23.832132056270815,38.83884514244493,1.1916066028135406,0.6100791528670831,A,510.71699999920384,Correct
4,204,479,B,72.6439673779082,59.06195706317055,3.63219836889541,0.927743052081462,B,1044.2597000001115,Correct
4,204,480,A,29.617223458822725,60.26530718739421,1.4808611729411363,0.9466452316312489,A,601.7795000007027,Correct
4,204,481,A,14.990890029506776,44.60930424019275,0.7495445014753388,0.7007213124137077,A,416.4327000016783,Correct
4,204,482,A,27.666683153229048,59.66576153611477,1.3833341576614524,0.9372275905634931,A,684.3325999998342,Correct
4,204,483,B,80.23531291680575,63.169574721732765,4.0117656458402875,0.9922653593809357,B,522.6493999998638,Correct
4,204,484,B,72.24107271772067,39.18935654742893,3.6120536358860336,0.6155849731415688,B,490.41439999928116,Correct
4,204,485,B,69.52610060514405,59.77949792013844,3.4763050302572025,0.9390141575059662,B,684.0892999989592,Correct
4,204,486,A,24.491616085508713,44.64668608539325,1.2245808042754356,0.7013085050650054,A,558.3126000001357,Correct
4,204,487,B,55.358840420535756,34.93577204057877,2.767942021026788,0.5487698239508498,B,886.3339999988966,Correct
4,204,488,B,59.22282599146653,51.98929968621006,2.961141299573326,0.8166460097973784,B,789.2132999986643,Correct
4,204,489,A,39.98446551440142,55.846953006530605,1.999223275720071,0.8772418864534548,A,1582.3564999991504,Correct
4,204,490,A,58.93351579121537,68.06806118537959,2.9466757895607687,1.0692106048204455,A,532.9770999996981,Correct
4,204,491,B,74.20816217499397,57.68051712256303,3.7104081087496983,0.9060434442375214,B,661.6063999990729,Correct
4,204,492,A,38.02329205975171,47.357531373078004,1.9011646029875857,0.74389036326905,A,932.9792999997153,Correct
4,204,493,A,23.743528521582288,54.38591725658483,1.1871764260791144,0.8542919905601464,A,468.20759999900474,Correct
4,204,494,A,47.916666621359084,56.36027522570301,2.395833331067954,0.885305133016837,A,761.4630999996734,Correct
4,204,495,A,54.565844654322845,62.95705359466723,2.7282922327161425,0.9889270853233272,A,1620.8112000003894,Correct
4,204,496,A,68.15872040334337,87.47802475477631,3.4079360201671682,1.3741015996007568,A,511.8786999992153,Correct
4,204,497,B,46.1914006241546,22.514634681200302,2.30957003120773,0.3536590545635842,B,605.9584999984509,Correct
4,204,498,A,15.107357564193872,41.75388957142407,0.7553678782096936,0.6558685636819266,A,498.658800001067,Correct
4,204,499,A,38.5334322322511,61.72027578751733,1.926671611612555,0.9694998249580021,A,689.2741000010574,Correct
4,204,500,A,59.185147680437325,84.61016290281668,2.9592573840218663,1.3290533309726227,A,629.4684000004054,Correct
4,204,501,B,71.76444717935851,53.945382027825495,3.5882223589679256,0.8473720793685573,B,2564.07770000078,Correct
4,204,502,A,65.63200771344219,79.48045327646767,3.2816003856721094,1.2484760405866882,A,702.6091999996424,Correct
4,204,503,B,68.28770241551685,38.08415778692914,3.414385120775842,0.5982245516078554,B,516.9568999990588,Correct
4,204,504,B,56.95264737807907,49.88999665070473,2.8476323689039535,0.7836702348273668,B,966.3723000012396,Correct
4,204,505,A,62.99697384481351,84.34634663106151,3.1498486922406754,1.3249093146664053,A,384.03419999849575,Correct
4,204,506,B,82.71002142323438,67.49001104031191,4.135501071161719,1.0601306143746898,B,862.6636000008148,Correct
4,204,507,A,31.04928320369061,41.73738910838526,1.5524641601845306,0.6556093750146088,A,618.8296000000264,Correct
4,204,508,B,43.14045840516181,23.217511037398072,2.1570229202580906,0.3646998105486486,B,584.3207000016264,Correct
4,204,509,B,57.92329580451097,45.12210841511024,2.8961647902255487,0.7087764215569625,A,1590.1972999999998,Incorrect
4,204,510,A,29.292186863579847,49.33605199417917,1.4646093431789924,0.7749688925101867,A,532.223400001385,Correct
4,204,511,B,47.247882293398355,17.86939883810217,2.3623941146699177,0.28069186056923884,B,577.2418999986257,Correct
4,204,512,A,50.09452685541681,61.374801261057925,2.5047263427708404,0.9640731237863657,A,5916.011399998752,Correct
4,204,513,B,69.5726826780703,52.06220489249729,3.4786341339035145,0.8177912020997804,B,816.7543999988993,Correct
4,204,514,B,68.37309187064592,35.68053517887481,3.418654593532296,0.5604685359705265,B,594.6798999993916,Correct
4,204,515,A,43.965912347339255,61.89176349168355,2.1982956173669628,0.9721935475159499,A,633.0727000004117,Correct
4,204,516,B,75.37395713215302,46.811950789131785,3.768697856607651,0.7353204034967167,B,514.7452999990492,Correct
4,204,517,A,50.07510881478508,73.96676856983918,2.5037554407392544,1.161867283743916,A,527.9837999987649,Correct
4,204,518,B,52.214584857461645,26.338335896530197,2.6107292428730826,0.41372161280159797,B,468.42759999890404,Correct
4,204,519,B,56.71581302359789,44.76239481585732,2.8357906511798943,0.703126053552916,B,1392.8536999992502,Correct
4,204,520,B,79.44609324211089,49.725030084726555,3.972304662105545,0.7810789460685419,B,830.6670000001759,Correct
4,204,521,B,83.9372283639981,58.05930004405044,4.196861418199905,0.911993352454772,B,502.39630000032776,Correct
4,204,522,B,41.66564580592823,31.787306524144316,2.0832822902964114,0.4993138432682935,B,1197.2963999996864,Correct
4,204,523,A,46.37431391486298,70.92567721548903,2.318715695743149,1.1140979324553066,A,613.871300000028,Correct
4,204,524,B,50.990314318233146,22.18545971122613,2.5495157159116575,0.34848838622650175,B,640.645499999664,Correct
4,204,525,A,31.760361203313536,59.59934139845191,1.588018060165677,0.9361842654808328,A,755.4600999992545,Correct
4,204,526,B,67.99861809655908,55.93794674611344,3.3999309048279542,0.8786712127724352,B,814.4725999991351,Correct
4,204,527,B,63.64291699062303,44.98099116481215,3.1821458495311514,0.7065597569728063,B,589.6261999987473,Correct
4,204,528,B,76.81360338495507,57.937383637375795,3.8406801692477535,0.9100782940169664,B,585.3048999997554,Correct
4,204,529,B,71.13623057980618,51.97397460928977,3.556811528990309,0.8164052840520358,B,590.5198000000382,Correct
4,204,530,A,37.91280240280325,67.28048494739303,1.8956401201401627,1.056839386203443,A,774.8184000010951,Correct
4,204,531,B,62.81711929761237,32.49171148850037,3.1408559648806187,0.5103786105741592,B,506.41320000067935,Correct
4,204,532,A,52.34871477267799,76.30227346496345,2.6174357386338993,1.1985533088486429,A,647.408999999243,Correct
4,204,533,A,55.66736278986568,63.40473832169501,2.7833681394932843,0.9959593005711014,A,1022.3385999997845,Correct
4,204,534,B,78.33915130844785,59.49445189746792,3.916957565422393,0.9345366650521827,B,639.7275999988778,Correct
4,204,535,B,71.91453513932993,57.262677441336336,3.5957267569664966,0.8994800338729211,B,645.5440000008821,Correct
4,204,536,B,55.14670215655248,28.71186755718632,2.7573351078276236,0.45100496094249826,B,560.3009999995265,Correct
4,204,537,A,23.109536911825664,37.1224390511147,1.1554768455912834,0.583117909031584,A,636.7511000007653,Correct
4,204,538,B,41.364553547059536,32.282103509763544,2.0682276773529766,0.5070860961434921,B,1647.7742999995826,Correct
4,204,539,A,35.39698506721759,49.90129931631958,1.7698492533608796,0.7838477766836748,A,928.658799999539,Correct
4,204,540,A,43.62075217351066,56.323305930944166,2.181037608675533,0.8847244206927231,A,849.4973999986541,Correct
4,204,541,A,44.34388464659214,72.50616731877395,2.2171942323296068,1.1389242129430628,A,1548.538600000029,Correct
4,204,542,A,45.79676437953903,57.37829611438422,2.2898382189769513,0.9012961677422463,A,610.3665999999066,Correct
4,204,543,A,43.52842672288109,67.70138544703754,2.1764213361440543,1.0634508757913204,A,538.9420999999857,Correct
4,204,544,B,72.14541091439207,52.13050351903526,3.6072705457196035,0.8188640344166902,B,439.3335999993724,Correct
4,204,545,A,51.798312842709315,65.64395939192914,2.5899156421354657,1.0311329028911564,B,508.3556999998109,Incorrect
4,204,546,B,73.9265984726133,45.28661757965271,3.6963299236306653,0.7113605254708367,B,558.0107000005228,Correct
4,204,547,A,64.33907973810267,83.93982707256485,3.2169539869051333,1.318523720373837,A,696.5443000008236,Correct
4,204,548,A,25.254768401262524,44.60374579432798,1.2627384200631262,0.700634000550237,A,580.6591999989905,Correct
4,204,549,B,42.05973869306212,25.501578828863153,2.102986934653106,0.4005778635184874,B,551.9939999994676,Correct
