subject,day,trial,cat,x,y,xt,yt,resp,rt,fb
15,415,0,B,78.88614111332464,53.494972541241694,3.944307055666232,0.8402970636977631,B,1004.225599999927,Correct
15,415,1,B,60.086044403717686,43.19465642152863,3.004302220185884,0.6785000764410476,B,894.8057000000063,Correct
15,415,2,A,40.082376925827354,53.04356046249212,2.0041188462913677,0.8332062993460562,A,812.6214999999775,Correct
15,415,3,B,34.54483157943875,13.809320630486688,1.7272415789719375,0.21691630121901473,B,636.3797000001341,Correct
15,415,4,B,32.87327115231108,11.93414304555468,1.6436635576155538,0.18746108059402156,B,545.6452000000809,Correct
15,415,5,A,58.18065283061897,75.30664495267717,2.909032641530948,1.1829140127491276,A,507.2996999999759,Correct
15,415,6,A,44.11247086384606,67.88703184368634,2.2056235431923032,1.0663670025707068,A,484.1592000000219,Correct
15,415,7,A,36.252957349641676,48.50463131546606,1.8126478674820838,0.761908967028748,A,388.4378000000197,Correct
15,415,8,A,26.490514476865417,59.35800488666531,1.3245257238432708,0.9323933604184739,A,504.8417000000427,Correct
15,415,9,A,52.08417151259243,67.31488251557292,2.604208575629621,1.0573797019409195,A,604.2159999999512,Correct
15,415,10,B,64.89472217877221,45.53576224986536,3.2447361089386106,0.7152740807989422,B,789.5980000000691,Correct
15,415,11,A,47.87987807393443,74.05003233587655,2.3939939036967215,1.1631751879223822,A,576.6714999999749,Correct
15,415,12,A,65.86677524902835,84.1874297294217,3.293338762451418,1.3224130538127907,A,632.9215999999178,Correct
15,415,13,B,30.4276528273116,13.041973722660405,1.52138264136558,0.20486284417710526,B,927.5519000000259,Correct
15,415,14,B,79.27446006289051,47.88428077844495,3.9637230031445254,0.752164523579968,B,737.0086000000811,Correct
15,415,15,B,85.05683281019392,64.8636033449189,4.252841640509696,1.0188750987687978,B,941.4485999998305,Correct
15,415,16,A,39.77106400279874,69.17376835485288,1.9885532001399369,1.0865790124236396,A,583.3541999998033,Correct
15,415,17,A,27.189622898082547,59.27933614545625,1.3594811449041273,0.9311576347212261,A,666.4338000000498,Correct
15,415,18,B,78.96872801767987,48.28012857748362,3.948436400883993,0.7583824862669658,B,569.0606000000571,Correct
15,415,19,A,38.72980771723776,66.22688497239096,1.936490385861888,1.0402894764969985,A,524.1323000000193,Correct
15,415,20,B,58.30997455015157,37.65423512623207,2.9154987275075785,0.591471342245567,B,774.621100000104,Correct
15,415,21,A,24.185066102663512,40.93007057630232,1.2092533051331755,0.6429280451671155,A,1125.5631999999878,Correct
15,415,22,B,53.387505245961215,37.11434722683412,2.6693752622980607,0.5829908029530139,A,1180.4586999999174,Incorrect
15,415,23,B,61.91022588272137,33.07718920567677,3.0955112941360685,0.5195752730497687,B,793.1756999998925,Correct
15,415,24,B,43.91599581259076,23.224707377060163,2.195799790629538,0.3648128503877244,A,725.6134000001566,Incorrect
15,415,25,A,67.46338329715303,86.40985656526982,3.3731691648576514,1.357322852915997,A,1218.6113000000205,Correct
15,415,26,B,47.77083707134723,27.42190464474431,2.3885418535673613,0.43074227089684275,B,778.6285999998199,Correct
15,415,27,A,38.75952985723185,58.68058636695642,1.9379764928615923,0.9217524951938584,A,599.3281999999454,Correct
15,415,28,A,56.702969677330216,81.3578576440214,2.8351484838665106,1.277966239431309,A,521.5539000000717,Correct
15,415,29,B,45.23459029453225,25.143250767627038,2.2617295147266128,0.39494925949471515,B,620.0526000000082,Correct
15,415,30,B,33.005370066225794,11.080279488599736,1.6502685033112896,0.174048623205533,B,537.3124999998709,Correct
15,415,31,B,68.09075544213559,36.42504434280979,3.4045377721067793,0.5721632585702684,B,653.2090000000608,Correct
15,415,32,A,39.30103309322228,71.13340554243244,1.965051654661114,1.117360921384646,A,913.9024999999492,Correct
15,415,33,A,34.24340191557829,43.10209370650486,1.7121700957789145,0.6770461047134727,A,697.10340000006,Correct
15,415,34,B,63.93582926455066,53.26481860984495,3.196791463227533,0.8366818141974091,B,1886.0783000000083,Correct
15,415,35,B,40.41113482538894,14.46012626740269,2.020556741269447,0.2271391322582654,B,532.7512999999726,Correct
15,415,36,B,59.44660665165067,49.69071018118817,2.9723303325825334,0.7805398502844015,B,573.5707000001184,Correct
15,415,37,B,85.91003980540752,59.08360222934068,4.295501990270376,0.9280830535565908,B,531.0689000000366,Correct
15,415,38,A,52.85297958065594,77.88332778014015,2.642648979032797,1.223388451956071,A,508.4983000001557,Correct
15,415,39,A,62.0932501513136,74.95260238700205,3.10466250756568,1.1773527251322122,A,596.8035999999302,Correct
15,415,40,A,39.61395653662764,62.34496243746626,1.9806978268313822,0.9793123799093779,A,708.5323999999673,Correct
15,415,41,B,79.71506443418167,58.81940356841879,3.9857532217090834,0.9239330306953887,B,801.2708999999631,Correct
15,415,42,A,44.259945251997934,73.07058660350773,2.2129972625998966,1.1477900903353833,A,703.0702000001838,Correct
15,415,43,A,25.406269356836027,56.17739583537788,1.2703134678418013,0.8824324702711449,A,552.7525999998488,Correct
15,415,44,B,72.08917570584165,54.43342074697146,3.6044587852920826,0.8550381736422389,A,1360.7696999999916,Incorrect
15,415,45,B,81.3984862164182,61.62421717973547,4.06992431082091,0.9679909398753943,B,607.121399999869,Correct
15,415,46,A,41.29370334096834,54.04607773280105,2.064685167048417,0.8489538038035535,A,678.5901000000649,Correct
15,415,47,B,41.692318195251104,20.276520807429588,2.0846159097625554,0.31850284404490686,B,819.0130000000408,Correct
15,415,48,B,49.014432400654215,17.99154628740459,2.4507216200327107,0.2826105482161549,B,892.9583999999977,Correct
15,415,49,B,63.17249819857138,32.382245375946525,3.158624909928569,0.5086591208990783,B,535.7239999998455,Correct
15,415,50,B,46.50692569940746,39.240240497338554,2.325346284970373,0.6163842563576775,B,684.9935000000187,Correct
15,415,51,A,31.285237501984582,40.970151883263725,1.564261875099229,0.6435576408645967,A,1579.9327000001995,Correct
15,415,52,B,49.344771681828334,31.335800517641847,2.4672385840914166,0.49222160350289434,B,1236.7942999999286,Correct
15,415,53,A,34.20081349622845,48.39173550629915,1.7100406748114225,0.7601356038052488,A,678.4528000000591,Correct
15,415,54,B,36.20524488740777,24.58011886364022,1.8102622443703889,0.38610360423188006,A,1461.3798000000315,Incorrect
15,415,55,A,31.563307079415985,40.17501943104921,1.5781653539707992,0.631067729512057,A,765.1322000001528,Correct
15,415,56,B,32.824810428015915,14.079629450576782,1.641240521400796,0.2211623022359926,B,672.4330999998074,Correct
15,415,57,B,48.560476999892394,40.17316651557071,2.4280238499946196,0.6310386239837822,B,1534.6036999999342,Correct
15,415,58,B,80.73804034539911,50.74066811920571,4.036902017269956,0.7970325510076722,B,450.96160000002783,Correct
15,415,59,A,24.25992371075737,43.19241005215352,1.2129961855378684,0.6784647905534171,A,594.6976999998697,Correct
15,415,60,B,82.30356539093785,60.6464203558642,4.115178269546892,0.9526317432825072,B,615.9660999999232,Correct
15,415,61,A,65.79354761087535,87.79883796122857,3.2896773805437673,1.3791409216635817,A,722.5052000001142,Correct
15,415,62,A,26.36801809560384,52.27796979085442,1.318400904780192,0.821180429197687,A,617.1110000000226,Correct
15,415,63,B,75.5998116960931,45.69099457810952,3.7799905848046547,0.7177124645089997,B,568.6025999998492,Correct
15,415,64,B,59.91000243278022,32.060924436891646,2.995500121639011,0.5036118233911814,B,547.3502999998345,Correct
15,415,65,B,45.863491745645426,23.0876207789036,2.2931745872822713,0.362659499139353,B,623.5306000000946,Correct
15,415,66,B,67.07962290857634,52.86336116927493,3.3539811454288166,0.8303757354672903,B,652.4844000000485,Correct
15,415,67,A,34.74704382076424,51.783497221887984,1.7373521910382121,0.8134132722473538,A,1120.9210000001804,Correct
15,415,68,B,87.28838749067738,65.51689469227789,4.3644193745338695,1.0291369752563817,B,1143.8611999999466,Correct
15,415,69,B,69.37800713371618,52.508819400389804,3.4689003566858094,0.8248066063846891,A,2017.2580000000835,Incorrect
15,415,70,A,50.13675779225467,81.19752905839239,2.5068378896127337,1.2754478038974466,A,556.3067000000501,Correct
15,415,71,A,20.457861146035764,37.81784604361481,1.0228930573017883,0.5940413365260505,A,626.4062000000195,Correct
15,415,72,A,55.79351849502103,71.36534613026814,2.7896759247510516,1.1210042356187158,A,645.9932000000208,Correct
15,415,73,A,43.08478029477479,65.1731383144425,2.1542390147387396,1.0237372627002201,A,641.0739000000376,Correct
15,415,74,B,52.36286332129666,45.29291062932026,2.6181431660648333,0.711459376463858,B,1220.655299999862,Correct
15,415,75,B,80.00513369380691,53.1028349281234,4.000256684690346,0.8341373804749198,B,582.3095999999168,Correct
15,415,76,A,37.14326756869532,50.34170426224282,1.8571633784347659,0.79076564139726,A,855.447599999934,Correct
15,415,77,A,40.411774243385715,49.873961081612734,2.020588712169286,0.7834183486970889,A,620.1525999999831,Correct
15,415,78,B,48.13980512681265,26.200346688978616,2.4069902563406322,0.4115540833980044,B,1019.0979999999854,Correct
15,415,79,B,61.89626505539522,28.89931277716648,3.0948132527697614,0.4539493435726993,B,593.1737000000794,Correct
15,415,80,B,71.62334032365997,54.84995374675744,3.5811670161829987,0.8615810587027658,B,757.0528999999624,Correct
15,415,81,A,28.08351777129601,37.64652416008167,1.4041758885648006,0.5913502186725161,A,695.2765000000909,Correct
15,415,82,A,38.04695466457713,47.67343825744601,1.9023477332288565,0.7488526170047948,A,658.5989000000154,Correct
15,415,83,A,49.91639664647659,57.54633023928014,2.4958198323238294,0.9039356416038732,A,736.436200000071,Correct
15,415,84,B,74.33459704239341,56.36268798715443,3.7167298521196703,0.8853430325850902,B,770.3851000001123,Correct
15,415,85,A,41.72421261682215,66.72351021716531,2.0862106308411072,1.0480904475998503,A,454.25159999990683,Correct
15,415,86,B,50.492506357882576,41.84571145187557,2.5246253178941287,0.6573108984072529,A,838.8183999998091,Incorrect
15,415,87,A,63.28471868608571,82.39907911869945,3.1642359343042856,1.2943217081093517,A,1005.458200000021,Correct
15,415,88,A,36.48073088136311,68.55938014233288,1.8240365440681554,1.0769282249491148,A,593.3606000000964,Correct
15,415,89,A,40.446738992072696,58.43751813792232,2.022336949603635,0.9179343883805852,A,496.8109999999797,Correct
15,415,90,A,39.61442315115446,72.405080426384,1.980721157557723,1.1373363437505304,A,557.4981000002026,Correct
15,415,91,A,38.45350502648953,57.57206250700276,1.9226752513244765,0.9043398431200611,A,1027.8745000000526,Correct
15,415,92,B,43.50520155068902,21.379479459307742,2.1752600775344515,0.3358280780346754,B,717.7979000000505,Correct
15,415,93,B,73.11523590564488,45.883109697069074,3.655761795282244,0.7207302017408341,B,751.5026999999463,Correct
15,415,94,B,74.77653206548776,43.73332283171225,3.7388266032743878,0.6869614286258899,B,651.9418999998834,Correct
15,415,95,A,37.96450266289086,53.34471505807813,1.8982251331445428,0.8379368246714953,A,516.2457000001268,Correct
15,415,96,A,38.5011228334221,64.60131501465851,1.9250561416711052,1.014755083311456,A,830.4493000000548,Correct
15,415,97,B,56.462203921392124,37.1917417047357,2.823110196069606,0.5842065125690341,B,637.0727999999417,Correct
15,415,98,A,62.95994459848801,80.52562732114444,3.1479972299244,1.2648935960890846,A,645.9409000001415,Correct
15,415,99,A,50.80845313951249,76.18237607320492,2.5404226569756245,1.196669965022977,A,570.9486000000652,Correct
15,415,100,B,57.51861146608052,35.52406111635682,2.875930573304026,0.5580106471441071,B,641.0200999998779,Correct
15,415,101,A,19.550447640953767,37.198332109803474,0.9775223820476883,0.5843100344097595,A,690.9826000000976,Correct
15,415,102,B,38.66297590309908,17.06477689269485,1.9331487951549542,0.26805288860619503,B,600.4907999999887,Correct
15,415,103,B,62.96476608786394,52.015222214652944,3.148238304393197,0.8170531999219715,B,1256.5326000001278,Correct
15,415,104,B,59.28568975647645,26.955946832858544,2.9642844878238224,0.4234230227033272,B,581.4734000000499,Correct
15,415,105,A,42.909403177871205,67.56617880007724,2.1454701588935605,1.0613270547472855,A,530.4725000000872,Correct
15,415,106,B,34.153875130875264,20.647382015477422,1.707693756543763,0.32432831827842945,B,713.3777999999893,Correct
15,415,107,A,52.48786422474257,80.96070169647672,2.6243932112371287,1.2717277283956296,A,601.1693000000378,Correct
15,415,108,A,60.68307088762284,71.62207402453784,3.0341535443811423,1.1250369079517621,A,901.3323000001492,Correct
15,415,109,A,66.81811433973051,79.94466917655834,3.340905716986526,1.25576792689371,A,601.2312000000293,Correct
15,415,110,B,67.61761830042524,46.639205166990806,3.3808809150212618,0.7326069216094271,B,975.009,Correct
15,415,111,B,51.566310726063065,43.79031081077939,2.5783155363031534,0.6878565937077911,B,486.7380000000594,Correct
15,415,112,A,21.121309423533,52.20927618533607,1.05606547117665,0.8201013925654618,A,520.964400000139,Correct
15,415,113,B,62.89332941093033,31.61357572479845,3.1446664705465164,0.49658488625365715,B,525.1233000001321,Correct
15,415,114,A,43.46196962678392,54.83967207235369,2.173098481339196,0.8614195545388985,A,688.45680000004,Correct
15,415,115,B,39.195850569703516,22.179827637507913,1.9597925284851758,0.3483999178194136,B,511.91990000006626,Correct
15,415,116,A,24.088310380705952,48.97873490388915,1.2044155190352976,0.7693561687809005,A,456.49410000009993,Correct
15,415,117,A,44.59657434662663,64.23702861512827,2.2298287173313316,1.0090328859286213,A,514.1777999999704,Correct
15,415,118,B,34.790091768797616,20.548033964530084,1.739504588439881,0.32276776274340635,B,643.5609000000113,Correct
15,415,119,A,44.46610435238742,54.96559621392194,2.223305217619371,0.8633975663292006,B,985.6669999999212,Incorrect
15,415,120,A,18.115201699084167,37.799487738579124,0.9057600849542083,0.5937529649448882,A,619.0500000000156,Correct
15,415,121,A,18.72514558483153,41.794314611004936,0.9362572792415764,0.6565035587187683,A,610.2296999999908,Correct
15,415,122,A,19.63952190737901,44.17500430638104,0.9819760953689505,0.6938993450061207,A,529.4063999999707,Correct
15,415,123,A,58.68230537339332,71.12365447634924,2.934115268669666,1.117207751996788,A,861.5534999998999,Correct
15,415,124,A,36.51343081224892,44.66095972579399,1.825671540612446,0.7015327148841201,A,710.9715999999935,Correct
15,415,125,A,55.07787713671408,81.26334702038832,2.753893856835704,1.27648167002685,A,1298.0294999999842,Correct
15,415,126,A,51.97361839611053,70.33139010953948,2.5986809198055267,1.1047628924244353,A,710.218199999872,Correct
15,415,127,A,15.061820961431085,43.15093573671811,0.7530910480715542,0.6778133135299944,A,661.9611000000987,Correct
15,415,128,B,50.843854753229714,39.51317634203686,2.5421927376614857,0.620671522580705,B,900.8463999998639,Correct
15,415,129,B,82.007678947475,65.04026553367055,4.10038394737375,1.0216501019405442,B,665.289600000051,Correct
15,415,130,A,42.720009540624645,54.199721743310086,2.136000477031232,0.8513672382769697,A,672.1981000000596,Correct
15,415,131,B,41.56626219887157,18.297856105249583,2.0783131099435788,0.28742205158347617,B,593.3158000000276,Correct
15,415,132,A,41.17230294553696,73.4813184591837,2.058615147276848,1.1542418512373178,A,622.282499999983,Correct
15,415,133,B,64.6466753839973,39.91581115378829,3.2323337691998653,0.6269960954140941,B,577.0915000000514,Correct
15,415,134,A,29.4644185012248,42.973148685047306,1.47322092506124,0.6750206410528325,A,1359.1818999998395,Correct
15,415,135,A,52.82128303649493,62.52480413280841,2.6410641518247466,0.9821373266538583,A,669.5067000000563,Correct
15,415,136,B,80.32980997073648,60.083477887342696,4.016490498536824,0.9437890636650029,B,610.2496000000883,Correct
15,415,137,B,42.546537319031735,33.31371431222159,2.1273268659515865,0.5232906007353225,A,1425.7047000000966,Incorrect
15,415,138,B,64.53796690653733,54.9442313001788,3.226898345326867,0.8630619670489005,B,762.2851999999511,Correct
15,415,139,B,74.35574275599546,50.57355390225229,3.7177871377997733,0.7944075270262161,B,634.5876000000317,Correct
15,415,140,B,51.993796729960934,39.668116966544275,2.5996898364980465,0.6231053242191807,A,978.3339999999043,Incorrect
15,415,141,B,40.84237961430529,16.804130259273183,2.0421189807152644,0.2639586608624929,B,719.287199999826,Correct
15,415,142,A,34.580865969935715,60.64549662959254,1.7290432984967856,0.9526172334241625,A,570.3435000000354,Correct
15,415,143,B,80.01484176211662,65.60808607486354,4.000742088105831,1.0305694061443904,B,1036.8854999999257,Correct
15,415,144,A,32.0692508429496,41.683379343834474,1.60346254214748,0.6547609916169347,A,986.947999999984,Correct
15,415,145,B,42.75047696048729,28.148095837279627,2.1375238480243643,0.4421492554746956,B,595.7949999999528,Correct
15,415,146,A,36.54581720897538,54.59145884012308,1.827290860448769,0.8575206302044012,A,622.8696999999102,Correct
15,415,147,B,48.648236694061,40.00050037313601,2.43241183470305,0.6283263905607994,A,1553.069800000003,Incorrect
15,415,148,B,68.2838678720607,44.02578602430682,3.4141933936030346,0.6915554297123925,B,614.3423999999413,Correct
15,415,149,A,53.50303416362801,67.48394748215266,2.6751517081814007,1.0600353682258512,A,1426.2458999999126,Correct
15,415,150,A,57.01612623403736,85.49149257152051,2.850806311701868,1.342897225035576,A,689.1524999998637,Correct
15,415,151,B,81.08016899871733,59.01354713127095,4.054008449935867,0.9269826306493789,B,777.1720000000641,Correct
15,415,152,A,25.91863861001752,46.77689345440618,1.2959319305008759,0.7347697241705747,A,849.738600000137,Correct
15,415,153,B,74.33940298937289,57.92153330642557,3.7169701494686445,0.9098293176006154,B,602.887199999941,Correct
15,415,154,B,41.629351775066596,29.814013431684504,2.0814675887533296,0.46831742785503727,B,2218.8845000000583,Correct
15,415,155,A,63.37160752923332,80.13339343566643,3.1685803764616662,1.2587324006235512,A,1203.718699999854,Correct
15,415,156,B,47.360173571499544,19.39653782995013,2.368008678574977,0.30468010375823923,B,569.2650999999387,Correct
15,415,157,B,82.94231092273026,65.1030290101777,4.147115546136513,1.0226359883240874,B,1229.4431999998778,Correct
15,415,158,B,47.1977369856379,19.02839771421208,2.359886849281895,0.2988973723427675,B,730.6963000000906,Correct
15,415,159,A,15.087468907910942,32.33727815310671,0.7543734453955472,0.5079527774144487,A,620.3605999999127,Correct
15,415,160,B,86.99983884580543,65.05817584882425,4.349991942290271,1.0219314365130958,B,641.338499999847,Correct
15,415,161,B,88.3324505924524,66.8666903838673,4.41662252962262,1.0503395163991038,B,512.799300000097,Correct
15,415,162,A,55.307037506242445,68.2111054799955,2.7653518753121222,1.0714575393459616,A,1476.4098999999078,Correct
15,415,163,B,79.99878017771542,62.24125773932171,3.9999390088857707,0.9776833903202097,B,632.8519999999571,Correct
15,415,164,A,34.584097153913575,42.28261707973223,1.7292048576956787,0.6641737959611854,A,727.2143000000142,Correct
15,415,165,A,60.021505274803594,80.25866701622932,3.00107526374018,1.2607001934254773,A,1351.5251000001172,Correct
15,415,166,A,55.291945538538414,75.29353172165338,2.7645972769269207,1.1827080305978814,A,1088.9117000001534,Correct
15,415,167,A,55.42885703151806,71.99792670701417,2.7714428515759035,1.1309407880822606,A,1340.7982999999604,Correct
15,415,168,A,20.239963836262344,51.99583418367135,1.0119981918131173,0.8167486534434747,A,637.9365000000234,Correct
15,415,169,B,40.333523875696486,19.9801147732837,2.016676193784824,0.31384690894814476,B,644.5338999999422,Correct
15,415,170,B,49.004981743020956,34.13100035980954,2.4502490871510476,0.5361284999502411,B,600.1651999999922,Correct
15,415,171,A,55.88736688383145,74.03626608433301,2.794368344191572,1.1629589481487987,B,555.1992999999129,Incorrect
15,415,172,B,46.15389550730096,36.30993131809775,2.307694775365048,0.5703550674064293,B,633.842100000038,Correct
15,415,173,B,63.0125668721802,41.54845584898785,3.15062834360901,0.6526416183159005,B,575.0923000000512,Correct
15,415,174,A,44.124262654104214,56.05746451509086,2.2062131327052104,0.8805485934973998,B,585.0696000002245,Incorrect
15,415,175,A,23.88857020296208,48.363834944253085,1.194428510148104,0.7596973428014742,A,761.0506000000896,Correct
15,415,176,B,43.07563529183185,26.249044388954566,2.1537817645915927,0.41231902508046026,B,1620.658100000128,Correct
15,415,177,B,62.92180254740232,52.595029226706195,3.146090127370116,0.8261607871698032,B,536.2974999998187,Correct
15,415,178,B,68.72689774908075,53.10435320760747,3.4363448874540374,0.834161229553286,B,567.4702999999681,Correct
15,415,179,A,33.84646989836599,60.52637327878183,1.6923234949182995,0.9507460482052728,A,667.0921999998427,Correct
15,415,180,B,71.2631766554389,46.206992564614524,3.563158832771945,0.725817741927356,B,531.6530000000057,Correct
15,415,181,B,66.72492912439081,49.78748018497024,3.336246456219541,0.7820599099492496,B,664.9102999999741,Correct
15,415,182,B,52.29731370932719,21.572228909656125,2.6148656854663597,0.3388557793206652,B,556.2362999999095,Correct
15,415,183,A,25.17030939804215,48.01284418799411,1.2585154699021075,0.7541839928947685,A,615.5825999999252,Correct
15,415,184,A,47.99815320850758,71.49702326370084,2.399907660425379,1.1230726151939054,A,539.1649999996844,Correct
15,415,185,B,47.6973955295997,37.3510424342739,2.3848697764799853,0.5867088025771774,A,1350.2238999999463,Incorrect
15,415,186,B,62.633362123213566,33.265184456278575,3.1316681061606784,0.5225282955407707,B,524.5788000001994,Correct
15,415,187,B,62.26213779231786,54.73787892449437,3.1131068896158927,0.8598205915113954,B,522.9598000000806,Correct
15,415,188,A,65.67574083946027,83.59403859615489,3.2837870419730137,1.313092087687909,A,580.0649000002522,Correct
15,415,189,B,36.53374836377389,16.368964506697672,1.8266874181886945,0.2571230932055674,B,505.06929999983186,Correct
15,415,190,A,65.59043038729853,76.2905780508265,3.279521519364926,1.1983695977129762,A,1238.8636000000588,Correct
15,415,191,A,19.859366246864738,44.8561197854041,0.9929683123432369,0.7045982819318464,A,854.6056999998655,Correct
15,415,192,A,26.258492685923393,38.4074139923485,1.3129246342961696,0.6033022482087194,A,681.3803999998527,Correct
15,415,193,B,38.095947140360146,27.04614955989127,1.9047973570180075,0.4248399238262261,A,1442.5028999999085,Incorrect
15,415,194,B,73.07118251675027,50.48492804552918,3.6535591258375133,0.7930153953242189,B,847.211100000095,Correct
15,415,195,A,46.73469535392941,56.037784157372094,2.3367347676964703,0.8802394551612533,A,1035.641399999804,Correct
15,415,196,B,74.22795401654999,46.478222345316674,3.711397700827499,0.7300782093597991,B,686.4451999999801,Correct
15,415,197,B,59.033537566699586,33.56962511354345,2.9516768783349794,0.5273104382023577,B,763.1441000003178,Correct
15,415,198,B,73.04775690052365,54.70624877729079,3.652387845026183,0.8593237463209616,B,698.0416000001242,Correct
15,415,199,A,26.070825799385567,57.594701721346304,1.3035412899692784,0.9046954590673849,A,633.2556000002114,Correct
15,415,200,A,33.22538209811703,41.230951771791446,1.6612691049058514,0.6476542759338754,A,559.3272999999499,Correct
15,415,201,A,48.93107338516799,62.239395328866955,2.4465536692583996,0.9776541356451965,A,571.497299999919,Correct
15,415,202,B,57.975437319907364,33.10254011661433,2.898771865995368,0.5199734842275849,B,703.3771000001252,Correct
15,415,203,A,56.034729057367116,66.85124175472848,2.801736452868356,1.0500968499000511,A,1148.6242999999376,Correct
15,415,204,A,36.07173396692758,51.198870805555664,1.803586698346379,0.8042299819741331,A,2231.6805999998905,Correct
15,415,205,B,67.67799958501494,50.86949735079537,3.3838999792507476,0.7990561958453208,B,735.9711999997671,Correct
15,415,206,A,20.462250379151918,52.24267477057906,1.023112518957596,0.82062601631566,A,651.3098999998874,Correct
15,415,207,B,39.235890275958354,22.18836036451378,1.9617945137979178,0.3485339495817972,B,501.7998999996962,Correct
15,415,208,B,48.88012818879067,27.899126623247398,2.4440064094395337,0.4382384562058272,B,523.0842000000848,Correct
15,415,209,A,26.91334704919014,48.64181008776523,1.3456673524595069,0.7640637661451657,A,2438.9571000001524,Correct
15,415,210,B,62.25128396460579,54.952322869321094,3.11256419823029,0.8631890691197677,B,605.3345000000263,Correct
15,415,211,A,59.54139349506309,68.66702724245137,2.9770696747531544,1.078619141643677,B,1118.140599999606,Incorrect
15,415,212,A,39.1864615703275,49.241479155425516,1.959323078516375,0.7734833458328987,A,2101.0927000002084,Correct
15,415,213,B,54.01947366106998,42.25428255900003,2.700973683053499,0.6637287183503091,B,790.4809000001478,Correct
15,415,214,A,36.06196527742315,55.49559089553942,1.8030982638711575,0.8717227033202561,A,1677.4070999999822,Correct
15,415,215,B,72.6116026884159,58.70628480932565,3.630580134420795,0.9221561653826377,B,908.6330999998609,Correct
15,415,216,B,51.874836027470835,23.857073427532605,2.593741801373542,0.3747460330804435,B,572.634300000118,Correct
15,415,217,B,74.77557919807491,52.3790802718105,3.7387789599037458,0.8227686689185497,B,551.1035999998057,Correct
15,415,218,B,73.83130451411596,41.24806235541632,3.691565225705798,0.647923048352948,B,601.0780000001432,Correct
15,415,219,B,74.10291028440416,50.002869461782424,3.705145514220208,0.7854432367977253,B,414.91679999990083,Correct
15,415,220,A,66.31056916762635,85.54746524240032,3.3155284583813174,1.343776441693765,A,788.6895000001459,Correct
15,415,221,B,36.09106648856731,26.330431637671495,1.8045533244283656,0.4135974529937852,A,1797.2922000003564,Incorrect
15,415,222,A,21.82839231940524,37.662749980885685,1.091419615970262,0.5916050932696979,A,904.6289000002616,Correct
15,415,223,A,35.14333029212685,67.54829421596804,1.7571665146063424,1.0610461243570355,B,578.0171000001246,Incorrect
15,415,224,B,56.260284581039194,35.365249128349035,2.81301422905196,0.5555160342699708,B,2979.3930999999247,Correct
15,415,225,B,66.82101978966134,44.611093519793116,3.341050989483067,0.7007494183519464,B,536.9570000002568,Correct
15,415,226,B,32.658619876667984,13.139996166611802,1.6329309938333991,0.2064025771261284,B,459.98180000015054,Correct
15,415,227,B,78.15943528546727,51.57282805388992,3.9079717642733636,0.8101040886947509,B,836.8249999998625,Correct
15,415,228,B,62.148019162821356,54.54585812710463,3.107400958141068,0.8568043358793149,B,1062.7988000001096,Correct
15,415,229,A,65.09851797294522,77.9315052303189,3.2549258986472607,1.2241452215738222,A,753.5744000001614,Correct
15,415,230,A,60.138071784572645,83.37051150170734,3.006903589228632,1.3095809322989356,A,651.8105999998625,Correct
15,415,231,A,56.75418775168768,78.79703174079637,2.8377093875843844,1.237740880207838,A,1439.139399999931,Correct
15,415,232,B,78.07440785509209,54.6519848445708,3.9037203927546047,0.8584713704590218,B,681.3492999999653,Correct
15,415,233,A,32.80262535263958,44.474203801382025,1.640131267631979,0.698599159683385,A,774.0716999996948,Correct
15,415,234,A,34.49810857598479,67.71581599717652,1.7249054287992394,1.0636775503428397,A,641.9206000000486,Correct
15,415,235,A,62.781435250068974,83.27272737046107,3.1390717625034488,1.308044942757131,A,872.8437999998278,Correct
15,415,236,B,54.858228031185845,46.71893435735752,2.742911401559292,0.7338593048030908,B,902.3972999998477,Correct
15,415,237,A,31.153390597476026,53.37930947298636,1.5576695298738015,0.8384802324701499,A,1040.0786000000153,Correct
15,415,238,B,72.57543468700527,51.720879032258594,3.6287717343502637,0.8124296680247498,B,502.15639999987616,Correct
15,415,239,A,21.520385205300414,37.20580454801076,1.0760192602650207,0.5844274111946416,A,825.7603000001836,Correct
15,415,240,B,43.51986617041874,23.618674636420135,2.175993308520937,0.37100127362652535,B,640.6904000000395,Correct
15,415,241,B,41.31664774703178,26.295796442558533,2.065832387351589,0.41305340462117257,B,578.3399000001737,Correct
15,415,242,B,51.2996911579143,20.23776548873956,2.564984557895715,0.3178940769224863,B,1051.4428000001317,Correct
15,415,243,B,76.79142668778312,46.001909663162,3.8395713343891553,0.7225963072444552,B,714.9038000002292,Correct
15,415,244,A,36.415041976124414,69.15367824825951,1.820752098806221,1.0862634377672218,A,1101.719100000082,Correct
15,415,245,B,69.16070914381544,52.36368168532776,3.458035457190772,0.8225267884877006,B,697.3322999997436,Correct
15,415,246,A,45.10221574644055,52.30263458402752,2.2551107873220273,0.8215678628628615,A,662.6003000001219,Correct
15,415,247,B,47.84226510165916,28.09944151543896,2.392113255082958,0.4413849951743954,B,546.1657999999261,Correct
15,415,248,A,49.29244074743288,73.63201228388886,2.464622037371644,1.1566089443004932,A,1966.3352000002305,Correct
15,415,249,A,45.901534752957815,59.79429406705936,2.2950767376478907,0.9392465748383071,A,1473.4167999999954,Correct
15,415,250,B,39.881945393319114,29.177336326605293,1.9940972696659558,0.4583165272749089,B,767.2056000001248,Correct
15,415,251,A,51.35797032117843,78.14230449783986,2.5678985160589214,1.227456448724952,A,597.0084999999017,Correct
15,415,252,A,55.908336268728945,77.45688978007374,2.795416813436447,1.21668997951497,A,1070.149499999843,Correct
15,415,253,A,39.28875196404122,50.039911771607876,1.9644375982020608,0.7860250960398236,A,1171.1512000001676,Correct
15,415,254,A,37.287360279172276,57.32107109899596,1.8643680139586138,0.9003972793025196,A,2834.9105000002055,Correct
15,415,255,B,60.26597073629421,34.92261865174323,3.0132985368147103,0.548563211002172,B,717.117899999721,Correct
15,415,256,B,61.73451029846449,50.60853694982562,3.0867255149232244,0.7949570394524987,B,1859.7684999999728,Correct
15,415,257,B,72.29837766197632,62.44520998159167,3.6149188830988157,0.980887064650202,A,2652.6055000003907,Incorrect
15,415,258,B,57.91386859767181,42.546581979892245,2.8956934298835906,0.6683201469169269,B,772.9184999998324,Correct
15,415,259,A,35.461419110941065,46.45452345912043,1.7730709555470532,0.7297059481259373,A,616.5130000003956,Correct
15,415,260,A,65.18627433123035,84.83644719682623,3.259313716561518,1.3326077963510383,A,900.9492999998656,Correct
15,415,261,B,42.414522314640024,24.437339407697145,2.120726115732001,0.3838608297825085,B,892.142000000149,Correct
15,415,262,B,50.36546214157133,32.83699957109276,2.518273107078566,0.515802383092381,B,956.1493999999584,Correct
15,415,263,A,68.14174687750993,88.77494867961558,3.4070873438754967,1.394473632973456,A,725.5580000000919,Correct
15,415,264,B,70.33874757917187,40.22410803718576,3.5169373789585934,0.6318388115341246,B,705.7034999997995,Correct
15,415,265,B,41.50120985330195,13.778321880039925,2.0750604926650977,0.2164293739856447,B,1336.348899999848,Correct
15,415,266,B,68.5453138703567,46.44618576968148,3.427265693517835,0.7295749800064907,B,893.0653000002167,Correct
15,415,267,B,70.45735521311278,53.05437238152672,3.522867760655639,0.8333761325731078,B,449.2637999996987,Correct
15,415,268,B,37.796277780249675,28.63443741880144,1.8898138890124838,0.4497886911729164,B,1714.3291000002137,Correct
15,415,269,A,49.472321065790084,75.31074591385529,2.473616053289504,1.1829784304966764,A,698.1134999996357,Correct
15,415,270,B,63.44566072334099,48.87437455153623,3.17228303616705,0.7677168801995107,A,1668.3320000001913,Incorrect
15,415,271,A,28.551119250122518,46.22685008832699,1.427555962506126,0.7261296631804238,A,653.4285000002455,Correct
15,415,272,A,48.01385177793409,68.59096050840397,2.4006925888967046,1.0774242881793477,A,511.38189999983297,Correct
15,415,273,B,45.42200551175725,32.93973346608139,2.2711002755878624,0.5174161233412358,B,546.4649999998983,Correct
15,415,274,B,66.1676969295275,48.3607300025995,3.3083848464763745,0.7596485704920304,B,841.8930000002547,Correct
15,415,275,A,23.13879737373001,50.58939406666475,1.1569398686865007,0.7946563437469653,A,575.1742000002196,Correct
15,415,276,A,62.22246045864273,78.57730223235151,3.1111230229321363,1.2342893771603018,A,1284.7128000003067,Correct
15,415,277,B,72.7107691749884,43.130697852086115,3.63553845874942,0.677495417581574,B,1777.1543999997448,Correct
15,415,278,A,46.03306695456274,71.07123366578713,2.301653347728137,1.1163843278300023,A,619.934899999862,Correct
15,415,279,B,71.24565390220444,53.213997151742596,3.5622826951102216,0.8358835126003135,A,1120.6511999998838,Incorrect
15,415,280,A,44.73404888121734,55.95027441755896,2.236702444060867,0.8788648553826808,A,786.0257000002093,Correct
15,415,281,A,24.078941638828496,39.66216538707463,1.2039470819414249,0.6230118370274852,A,458.6124000002201,Correct
15,415,282,A,32.05985688875615,58.47490461570386,1.6029928444378074,0.9185216538002957,A,560.9761000000617,Correct
15,415,283,A,41.31067992635184,67.77529789577049,2.065533996317592,1.0646118898210617,A,799.898000000212,Correct
15,415,284,A,55.199255385783246,79.89498006815312,2.7599627692891624,1.2549874122040638,A,853.9963999996871,Correct
15,415,285,B,64.37917155532983,53.175341836453505,3.2189585777664917,0.8352763163276415,A,1005.7566000000406,Incorrect
15,415,286,B,45.51931553730814,20.913765247837212,2.275965776865407,0.3285126563075345,B,442.1458000001621,Correct
15,415,287,A,54.145342695197144,70.30827185214865,2.7072671347598574,1.1043997516865212,A,655.396600000131,Correct
15,415,288,B,79.54561881163784,54.487996888716296,3.977280940581892,0.8558954536720731,B,1332.1138999999675,Correct
15,415,289,B,54.477034379946936,35.4725462891681,2.723851718997347,0.5572014541308719,B,569.3874000003234,Correct
15,415,290,A,61.38347679856123,81.07266202453282,3.0691738399280615,1.2734863971162023,A,628.1785999999556,Correct
15,415,291,A,48.65104085194355,78.90577504897942,2.4325520425971776,1.2394490160984126,A,965.8453000001828,Correct
15,415,292,A,48.816397854178184,80.05714777588824,2.4408198927089093,1.2575347366004148,A,803.055900000345,Correct
15,415,293,A,57.84412896480616,66.70133991358836,2.892206448240308,1.047742197285624,A,3257.4538999997458,Correct
15,415,294,A,64.64491556572739,81.33304626631106,3.2322457782863694,1.277576503221608,A,1894.433200000094,Correct
15,415,295,A,44.46353704243853,65.78340521998605,2.2231768521219264,1.0333233128361432,A,1008.9512999998078,Correct
15,415,296,B,57.92970834180675,44.70270482302479,2.8964854170903376,0.7021884453380385,A,2662.540000000263,Incorrect
15,415,297,B,34.82151398447276,22.97100827363577,1.7410756992236378,0.3608277541900224,B,1042.6469000003635,Correct
15,415,298,A,42.93798285179975,72.18816864078391,2.1468991425899877,1.1339291013899393,A,1972.5980000002892,Correct
15,415,299,B,83.0280581566874,59.65735708723289,4.1514029078343695,0.9370955737891691,B,3542.004200000065,Correct
15,415,300,B,81.39628059818415,54.84462224757531,4.069814029909208,0.8614973117094497,B,871.1310999997295,Correct
15,415,301,A,16.440678674214496,42.412776722140094,0.8220339337107248,0.6662183388430976,A,1444.4031999996696,Correct
15,415,302,B,63.926153272307694,51.29518715315209,3.1963076636153844,0.8057429156242808,B,5346.512099999927,Correct
15,415,303,B,50.93269902280793,36.72969780296688,2.5466349511403963,0.5769487439318696,B,1163.3772999998655,Correct
15,415,304,A,40.591186072735475,54.68931054590435,2.029559303636774,0.8590576812045195,A,554.2887000001429,Correct
15,415,305,B,35.96475152613586,20.155121426807412,1.7982375763067933,0.31659590703334195,B,627.940899999885,Correct
15,415,306,B,42.58901102158079,33.57648924216527,2.1294505510790396,0.5274182596826157,A,949.9034000000393,Incorrect
15,415,307,A,56.32954841571767,72.10298264547028,2.8164774207858834,1.1325910029046087,A,513.2380000000012,Correct
15,415,308,B,72.69769194251643,53.30988890636182,3.6348845971258212,0.8373897767595715,B,813.6731999998119,Correct
15,415,309,B,80.7169110876506,63.91695494821249,4.03584555438253,1.0040051805256707,B,741.4066999999704,Correct
15,415,310,B,67.7665071740019,55.45883382229275,3.388325358700095,0.8711453245638603,B,461.1577999999099,Correct
15,415,311,B,70.42987046411221,46.69706582968249,3.521493523205611,0.7335157947736474,B,731.5033999998377,Correct
15,415,312,A,51.200234739008955,59.04584905325207,2.5600117369504476,0.9274900280533427,A,2587.510000000293,Correct
15,415,313,B,79.06022506338132,58.005729798456926,3.953011253169066,0.9111518730047341,B,1547.0283999998173,Correct
15,415,314,A,47.55848443589092,61.29371375480844,2.377924221794546,0.9627994042167092,A,775.4486999997425,Correct
15,415,315,A,46.77928120125595,62.973488351970985,2.3389640600627972,0.9891852418873722,A,1105.147599999782,Correct
15,415,316,A,50.689158416995355,58.884962811383055,2.5344579208497677,0.9249628328757459,A,1810.248700000102,Correct
15,415,317,A,65.57806083638744,88.39981247563759,3.2789030418193716,1.3885810072608922,A,481.1760999996295,Correct
15,415,318,A,38.35595810685967,65.0061206527355,1.9177979053429834,1.0211137554050278,A,654.700000000048,Correct
15,415,319,B,80.80727684725214,50.152028008635064,4.0403638423626065,0.7877862137727872,B,826.8613000000187,Correct
15,415,320,A,36.93416346204727,55.905509476768266,1.8467081731023638,0.8781616893370486,A,2174.469600000066,Correct
15,415,321,B,51.65133507264183,42.53319747152744,2.5825667536320913,0.6681099035511727,B,2923.197199999777,Correct
15,415,322,A,40.138846069554155,57.875174343233255,2.006942303477708,0.9091011127096503,A,606.5050000001975,Correct
15,415,323,A,63.178360637420596,74.7569580615894,3.15891803187103,1.1742795512550477,A,986.1158000003343,Correct
15,415,324,B,58.068389472137454,34.506673453643884,2.903419473606873,0.5420295591089478,B,691.5093000002344,Correct
15,415,325,A,66.05631416627784,81.16763957146327,3.3028157083138923,1.274978300934666,A,3476.655599999958,Correct
15,415,326,A,65.94021270737495,83.28432746986128,3.2970106353687476,1.3082271566924142,A,561.9206999999733,Correct
15,415,327,B,75.75106853849029,44.8269209207908,3.7875534269245144,0.7041396272390348,B,688.0105999998705,Correct
15,415,328,A,28.951555659659626,52.175094508581154,1.4475777829829812,0.8195644680425586,A,742.3668999999791,Correct
15,415,329,A,34.42379242043634,51.61944980359119,1.7211896210218172,0.8108364214265458,A,572.1951000000445,Correct
15,415,330,A,68.11371923610292,81.31480377231081,3.4056859618051463,1.2772899507959363,A,525.0353000001269,Correct
15,415,331,B,56.74384150645199,45.69017548210972,2.8371920753225996,0.7176995981791219,A,1663.5497000002033,Incorrect
15,415,332,A,35.544234274533736,49.91880527292341,1.7772117137266867,0.7841227596069781,A,601.7578000000867,Correct
15,415,333,A,13.760903048978236,31.84059618712491,0.6880451524489117,0.500150915336954,A,980.8282000003601,Correct
15,415,334,B,77.21665082206898,46.20556872612043,3.860832541103449,0.7257953763245911,B,820.8002999999735,Correct
15,415,335,A,22.748176553937757,34.52314163435639,1.137408827696888,0.5422882406866699,A,674.3617000001905,Correct
15,415,336,B,40.6109954765878,22.438841778368044,2.03054977382939,0.3524685024299239,B,569.2327000001569,Correct
15,415,337,B,56.3702613124172,46.059329015947874,2.81851306562086,0.7234982483288852,B,960.1987999999437,Correct
15,415,338,B,34.30745568488054,16.362107543352298,1.715372784244027,0.2570153842772086,B,655.1266999999825,Correct
15,415,339,B,71.82686665043045,40.9441324858516,3.5913433325215225,0.6431489291257928,B,2538.9721000001373,Correct
15,415,340,B,38.33505934873655,26.093202481117714,1.9167529674368273,0.40987106611655183,B,554.7615000000405,Correct
15,415,341,A,26.617042520369658,49.61899042079931,1.330852126018483,0.7794132789226271,A,459.04049999990093,Correct
15,415,342,B,37.334038619541445,26.663579416340227,1.8667019309770723,0.41883052606391236,B,805.5451000000176,Correct
15,415,343,B,80.57000025788429,51.26087442665471,4.028500012894215,0.8052039325768366,B,638.1079000002501,Correct
15,415,344,B,44.57528104017227,35.6665462498524,2.228764052008614,0.5602487983872845,B,730.5332000000817,Correct
15,415,345,A,24.896726905763213,53.96120040089438,1.2448363452881608,0.847620553791682,A,1012.5035999999454,Correct
15,415,346,B,82.34886540921953,59.0261518022851,4.117443270460976,0.927180624358674,B,827.1159999999327,Correct
15,415,347,B,81.7686394140881,67.12783946270703,4.088431970704405,1.054441636536977,B,1051.9865999999638,Correct
15,415,348,B,51.61969164237273,34.46757667869477,2.580984582118637,0.5414154284041519,A,878.7729000000581,Incorrect
15,415,349,A,54.41212750479498,70.06852277499902,2.7206063752397487,1.1006337819891303,A,853.3856999997624,Correct
15,415,350,A,21.910255891365967,37.39005789562215,1.0955127945682983,0.5873216560109179,A,566.5347999997721,Correct
15,415,351,A,21.496242230376424,33.522281499265155,1.0748121115188212,0.5265667664483022,A,1244.8710999997274,Correct
15,415,352,A,49.639608304698214,77.09001273373472,2.4819804152349105,1.210927088347223,B,2854.5607000000928,Incorrect
15,415,353,A,29.80722768052629,55.73011004999909,1.4903613840263146,0.8754065215841393,A,1725.778099999843,Correct
15,415,354,B,85.76313738310013,64.06043170673269,4.2881568691550065,1.0062589081783102,B,3507.8542000001107,Correct
15,415,355,B,64.02335248972999,41.968115678378894,3.2011676244864993,0.6592336195010087,B,2644.4477000000006,Correct
15,415,356,B,48.11287325921708,27.85832670556419,2.405643662960854,0.437597572597524,A,694.6729999999661,Incorrect
15,415,357,B,74.94304308858416,51.62306195044226,3.747152154429208,0.8108931608966009,B,510.6812999997601,Correct
15,415,358,B,36.08713219191082,20.491374436303225,1.804356609595541,0.3218777569552395,A,911.2654000000475,Incorrect
15,415,359,A,65.9977445199134,80.03095114439651,3.2998872259956697,1.2571232408751984,A,923.6721000002035,Correct
15,415,360,B,47.702460438624826,33.97208842362089,2.3851230219312414,0.5336323170937513,A,963.1678000000647,Incorrect
15,415,361,B,73.76479707560026,46.94420554613888,3.6882398537800127,0.7373978563617957,B,790.1990000000296,Correct
15,415,362,B,64.71143885162375,37.938873395902526,3.235571942581188,0.5959424297302031,B,5882.921200000055,Correct
15,415,363,A,31.888958583720694,57.92794101540173,1.5944479291860347,0.9099299696578446,A,1313.868100000036,Correct
15,415,364,B,73.33411097348434,51.84053658275142,3.6667055486742175,0.814309244432624,B,2613.7485999997807,Correct
15,415,365,A,27.168677775228467,49.8929712086662,1.3584338887614233,0.7837169590745637,A,597.2449000000779,Correct
15,415,366,A,43.344619580365375,64.8902605476962,2.1672309790182687,1.0192938291308498,A,2133.7994999998955,Correct
15,415,367,A,44.18820500084687,67.51274207953004,2.2094102500423434,1.0604876727037704,A,547.0712000001186,Correct
15,415,368,B,56.067443691407284,45.84283951160538,2.8033721845703643,0.7200976391467768,B,677.8236000000106,Correct
15,415,369,B,59.30267105846634,43.78288820654942,2.965133552923317,0.6877399997131942,A,1442.2729000002619,Incorrect
15,415,370,A,60.53316027060068,69.90218233593652,3.0266580135300343,1.0980209124823619,A,2687.5309000001835,Correct
15,415,371,A,47.189335721381816,59.176458950098734,2.3594667860690905,0.9295416435154407,A,952.9576999998426,Correct
15,415,372,A,19.15608932368207,38.74864959761909,0.9578044661841035,0.6086623645620262,A,597.6769000003515,Correct
15,415,373,A,37.52647512036589,59.85456929663544,1.8763237560182944,0.9401933759304555,A,586.62540000023,Correct
15,415,374,B,59.99240365507774,48.95424980550534,2.999620182753887,0.7689715577548758,B,680.1711999996769,Correct
15,415,375,A,59.00957184745556,73.18287670484486,2.950478592372778,1.149553939122541,A,1010.9443999999712,Correct
15,415,376,B,52.26579484451531,25.549190172322678,2.6132897422257657,0.4013257407526873,B,2724.873899999693,Correct
15,415,377,B,49.47336976626954,27.778180895909944,2.473668488313477,0.4363386451633951,B,506.1522999999397,Correct
15,415,378,B,54.637317970461034,31.35463869314355,2.731865898523052,0.4925175128717102,B,4842.180399999961,Correct
15,415,379,A,43.61586141967032,57.5376524407702,2.180793070983516,0.9037993310636325,A,1904.2657999998482,Correct
15,415,380,B,80.60328292739929,63.20192061082557,4.030164146369964,0.9927734474186747,B,553.1191999998555,Correct
15,415,381,B,73.0479214714426,59.118669059110545,3.65239607357213,0.9286338820305395,B,699.6463999998923,Correct
15,415,382,B,68.19872584618537,54.213838795268465,3.4099362923092684,0.8515889884105836,B,531.3897000000907,Correct
15,415,383,B,68.7881351606164,53.86305098469873,3.4394067580308207,0.8460788263673099,B,525.8795999998256,Correct
15,415,384,A,37.763074013932886,50.86937442855859,1.8881537006966442,0.7990542649873406,A,880.6475999999748,Correct
15,415,385,B,77.99106552863094,59.98666130610992,3.899553276431547,0.94226827236327,B,527.8539999999339,Correct
15,415,386,B,43.57443444090451,32.28892912903657,2.1787217220452253,0.5071933127203139,A,570.3373999999712,Incorrect
15,415,387,B,55.426463595882154,24.856880142446073,2.771323179794108,0.3904509602333529,B,954.6189999996386,Correct
15,415,388,B,35.31338990862768,18.38995860790748,1.7656694954313839,0.2888687943121126,B,606.5484999999171,Correct
15,415,389,B,83.68910081482221,58.9265064063335,4.184455040741111,0.9256153981392461,B,681.5812999998343,Correct
15,415,390,B,57.47397676912499,32.717506113998105,2.8736988384562494,0.5139253842575779,B,651.5279999998711,Correct
15,415,391,A,36.9730785978153,49.10779945111262,1.848653929890765,0.7713835099478814,A,828.3913000000211,Correct
15,415,392,A,14.12989746313028,32.2451541745954,0.7064948731565139,0.5065056973438957,A,988.9413999999306,Correct
15,415,393,B,88.62409910360657,67.80802256676274,4.431204955180329,1.0651259277509637,B,3170.499800000016,Correct
15,415,394,A,34.455995933908355,62.35788018086343,1.7227997966954178,0.9795152913481655,A,9528.359000000364,Correct
15,415,395,A,66.76882235484977,81.32009926341382,3.3384411177424886,1.277373132175668,A,389.053899999908,Correct
15,415,396,A,24.00705220331753,49.238651425300674,1.2003526101658766,0.7734389279519661,A,588.5083000002851,Correct
15,415,397,B,35.10390388774923,24.884558179432204,1.7551951943874615,0.3908857258216601,B,901.6406999999163,Correct
15,415,398,A,35.41244290206075,43.580937010876056,1.7706221451030373,0.6845677577496387,A,1211.4747000000534,Correct
15,415,399,B,49.92641269483514,36.58597640636778,2.4963206347417572,0.5746911735132726,B,514.3954000000122,Correct
15,415,400,A,39.373821943225614,69.16770657527417,1.9686910971612805,1.0864837942126786,B,1161.801700000069,Incorrect
15,415,401,B,55.06477701089301,40.7551980719393,2.7532388505446503,0.6401811542920071,B,488.7728999997307,Correct
15,415,402,A,33.487128229787494,43.50519841922828,1.6743564114893745,0.6833780587340692,A,1168.232900000021,Correct
15,415,403,B,43.97072172338541,19.64752305692712,2.19853608616927,0.30862257048439157,B,548.079400000006,Correct
15,415,404,A,39.95680890196798,63.181436721770694,1.997840445098399,0.9924516872418159,A,518.6239000004207,Correct
15,415,405,A,40.00354423305423,52.83669100948187,2.0001772116527117,0.8299568015769105,A,3004.965699999957,Correct
15,415,406,A,55.32762427301741,68.16003736408977,2.7663812136508703,1.0706553632571514,A,840.0334000002658,Correct
15,415,407,A,57.7226781318862,70.45474320372509,2.88613390659431,1.1067005182968908,A,790.6920999998874,Correct
15,415,408,A,17.25490131423148,43.61096307172758,0.8627450657115738,0.6850394060105757,B,386.82070000004387,Incorrect
15,415,409,B,59.784685258376435,31.030588525798667,2.9892342629188215,0.48742734474608407,B,592.088700000204,Correct
15,415,410,A,46.95211051733123,77.90887552932317,2.347605525866561,1.2237897550618164,A,1551.8352000003688,Correct
15,415,411,B,50.941849021299134,33.09572609520346,2.5470924510649566,0.519866449829556,B,746.3002000004053,Correct
15,415,412,A,38.11935925608486,51.67918080644635,1.9059679628042432,0.8117746738253525,A,515.7564000001003,Correct
15,415,413,A,18.735554132255448,37.682852241550876,0.9367777066127724,0.5919208588418295,A,748.0282000001353,Correct
15,415,414,B,48.2713547823764,18.48382964971268,2.41356773911882,0.2903433171887127,B,2122.669300000325,Correct
15,415,415,A,38.392322689333966,66.40013695802993,1.9196161344666984,1.0430109123235147,A,627.2368999998434,Correct
15,415,416,B,74.81982301367316,49.794565430977514,3.7409911506836577,0.7821712047332761,B,826.1732999999367,Correct
15,415,417,A,33.18590502642299,53.299184260162676,1.6592952513211492,0.8372216285702789,A,645.4714999999851,Correct
15,415,418,B,34.36724741946212,17.7050776479329,1.7183623709731057,0.2781107093499143,A,717.5075999998626,Incorrect
15,415,419,B,55.034947861886224,45.645044093439665,2.7517473930943113,0.7169906759836612,B,583.7209999999686,Correct
15,415,420,A,20.450710043832938,37.677797895572965,1.022535502191647,0.591841465360865,A,683.3283999999367,Correct
15,415,421,B,87.8667245715775,61.73179178470356,4.3933362285788755,0.9696807178187972,B,1632.6213000002099,Correct
15,415,422,A,34.29822148774368,52.386786897033254,1.7149110743871843,0.8228897243044685,A,836.7677999999614,Correct
15,415,423,B,60.15906234665907,37.422634214448266,3.0079531173329537,0.5878333636304436,B,933.5933000002115,Correct
15,415,424,A,55.93701370659194,73.60936302900002,2.7968506853295967,1.156253170636653,A,3720.1044000003094,Correct
15,415,425,A,25.07752137467351,45.247372727704246,1.2538760687336754,0.7107440687779741,A,718.2114000002002,Correct
15,415,426,A,14.086808466458141,33.269451785813914,0.704340423322907,0.522595326596364,A,3079.8600000002807,Correct
15,415,427,A,29.759826258030962,44.41030501583157,1.487991312901548,0.6975954399070919,A,540.0332999997772,Correct
15,415,428,B,41.84451473233656,24.472702569242774,2.092225736616828,0.3844163130251058,A,1211.7843999999423,Incorrect
15,415,429,B,56.83989228327615,40.26000140115742,2.8419946141638075,0.6324026231769546,B,496.22619999991,Correct
15,415,430,B,62.71592259315954,34.845362756269715,3.1357961296579773,0.5473496782338417,B,578.9906999998493,Correct
15,415,431,B,87.01200737676922,63.680678200580516,4.350600368838461,1.0002937540527972,B,544.5345000002817,Correct
15,415,432,B,81.56927414703806,62.043703454037264,4.0784637073519034,0.9745802148635356,B,1112.8367999999682,Correct
15,415,433,A,50.70425812176412,75.42551537512932,2.5352129060882063,1.1847812249786513,A,575.4697000002125,Correct
15,415,434,A,24.487723967523003,45.971961339066915,1.2243861983761501,0.722125880069633,A,505.9737000001405,Correct
15,415,435,B,56.88743072307093,28.881403892533836,2.8443715361535467,0.4536680314707197,B,619.1106999999647,Correct
15,415,436,B,55.28858816223736,45.12528118998394,2.764429408111868,0.7088262593881361,B,1091.4013999999952,Correct
15,415,437,A,29.006637113654598,50.436520920459714,1.4503318556827298,0.7922550179817207,A,917.0647999999346,Correct
15,415,438,A,11.572893678147633,36.872985352545456,0.5786446839073817,0.5791994994974043,A,786.3099000001057,Correct
15,415,439,A,56.198986563584086,75.74920552969219,2.8099493281792043,1.1898657380367217,A,595.4057000003559,Correct
15,415,440,B,54.700249388730505,47.42413785342013,2.735012469436525,0.7449366154156715,B,2692.883299999721,Correct
15,415,441,A,56.18612046697929,65.04475888686846,2.8093060233489644,1.021720683367527,B,557.4227000001883,Incorrect
15,415,442,A,63.10452130656233,79.21891312290079,3.1552260653281166,1.2443677774613657,A,795.2304999998887,Correct
15,415,443,B,48.03129799036347,38.407947076969094,2.4015648995181733,0.6033106218823584,B,2674.1486000000805,Correct
15,415,444,A,48.63931589050363,68.6905355432095,2.4319657945251816,1.0789884091684778,A,1855.9817999998813,Correct
15,415,445,A,30.67469793398383,59.18596536556046,1.5337348966991913,0.9296909699403234,A,5208.853900000122,Correct
15,415,446,B,73.50811350162584,43.86103241117322,3.6754056750812922,0.688967486009028,B,3219.6059000002606,Correct
15,415,447,A,53.9803923276956,70.66678448036471,2.69901961638478,1.110031254881635,A,8069.562799999858,Correct
15,415,448,B,43.23225787325647,26.64916582706285,2.1616128936628236,0.418604117932984,A,595.1737000000321,Incorrect
15,415,449,B,77.05526498373405,54.9256267013746,3.8527632491867023,0.8627697266942691,A,515.9983999997166,Incorrect
15,415,450,A,15.88690353508165,35.557700817546205,0.7943451767540824,0.5585390583347347,A,555.1941000003353,Correct
15,415,451,B,58.30865148474586,27.23220677091045,2.915432574237293,0.4277625036626525,B,457.8377999996519,Correct
15,415,452,B,35.106360527877335,23.513493319859265,1.7553180263938668,0.36934908936951266,B,963.4691999999632,Correct
15,415,453,A,35.55701283991508,60.681590616516075,1.777850641995754,0.9531841964449511,A,809.3090000002121,Correct
15,415,454,B,66.0827059488315,44.747405218990146,3.3041352974415754,0.7028905975159251,B,2521.04989999998,Correct
15,415,455,A,25.424098765699163,38.445964847683804,1.2712049382849582,0.6039078036282743,A,999.4357999999011,Correct
15,415,456,B,55.252050427433986,47.656789182211064,2.762602521371699,0.7485910939425591,B,3415.427400000226,Correct
15,415,457,B,52.78332678323237,42.85804885197314,2.6391663391616187,0.6732126571027564,B,545.4187000000275,Correct
15,415,458,A,36.618715122514665,44.19356707795252,1.8309357561257331,0.694190928340117,B,1510.9454000003097,Incorrect
15,415,459,A,52.474100916058795,80.04988786610261,2.62370504580294,1.2574206982041736,A,684.7272999998495,Correct
15,415,460,A,53.87418227904598,66.5932462219192,2.693709113952299,1.046044265547388,A,439.853000000312,Correct
15,415,461,B,31.865476671870958,13.797289711680065,1.593273833593548,0.21672731998832065,B,564.2650999998295,Correct
15,415,462,B,52.9931736884521,43.50306483341965,2.649658684422605,0.6833445444465582,B,613.9401000000362,Correct
15,415,463,A,43.39624241207561,54.36859970969958,2.16981212060378,0.8540199671697817,A,681.7898999997851,Correct
15,415,464,A,47.29533398399099,77.10005301378987,2.3647666991995497,1.2110848006975294,A,469.6718000000146,Correct
15,415,465,B,73.33925672575512,49.04068893290295,3.666962836287756,0.7703293403929509,B,601.0087999998177,Correct
15,415,466,B,61.63627504706638,51.00848692784526,3.0818137523533187,0.8012394390162483,A,1024.4633000002068,Incorrect
15,415,467,A,40.38091720148131,71.24713830538218,2.0190458600740655,1.1191474314474232,A,3353.879700000107,Correct
15,415,468,B,73.30802887970498,59.737621812678576,3.6654014439852487,0.9383563691481819,B,483.2619000003433,Correct
15,415,469,B,65.91606009255203,53.93122141091165,3.2958030046276012,0.8471496449182231,B,550.3183999999237,Correct
15,415,470,A,33.59448457814589,43.72355952533354,1.6797242289072942,0.6868080669679194,A,492.7032999999028,Correct
15,415,471,B,64.32993142500284,51.127613925694504,3.2164965712501417,0.8031106815226852,B,756.979699999647,Correct
15,415,472,A,32.890081940593106,40.93458457649215,1.6445040970296554,0.642998950916289,A,2245.841599999949,Correct
15,415,473,A,46.863433378066716,61.987752338563034,2.3431716689033357,0.9737013367968658,A,4811.9369999999435,Correct
15,415,474,A,40.96467509134983,69.0225912085799,2.0482337545674913,1.0842043273630302,A,4480.651200000011,Correct
15,415,475,B,71.21973559485433,61.55916794589045,3.5609867797427164,0.9669691488995485,B,886.7640000003121,Correct
15,415,476,B,59.26008721619284,52.316118606940265,2.963004360809642,0.821779669399479,A,925.3929999999855,Incorrect
15,415,477,A,27.85112943362269,55.94572671947479,1.3925564716811345,0.8787934203082212,A,546.4090999998916,Correct
15,415,478,A,15.914288308499906,44.8353723449282,0.7957144154249953,0.704272381898947,A,560.4599000002963,Correct
15,415,479,A,48.4227847581865,62.696690570977545,2.4211392379093253,0.9848373125108776,A,489.05500000000757,Correct
15,415,480,A,46.54805428660221,53.1427844716038,2.327402714330111,0.834764906436481,A,1188.1060000000616,Correct
15,415,481,A,33.9399384558369,66.11292000300865,1.696996922791845,1.0384993189441083,A,567.9939999999988,Correct
15,415,482,B,53.58351210366446,26.738951509124973,2.6791756051832234,0.42001446812880366,B,1173.2452999999623,Correct
15,415,483,B,42.170712172769385,23.251752598112212,2.1085356086384692,0.3652376757265836,B,2555.8914000002915,Correct
15,415,484,B,39.73946455140961,30.356403434472853,1.9869732275704806,0.47683727009573945,B,2886.082299999998,Correct
15,415,485,B,41.33140466833723,16.642577929555024,2.0665702334168614,0.2614210028014285,B,3846.1527999997998,Correct
15,415,486,A,23.56293822455916,45.722888193922465,1.1781469112279581,0.7182134482546717,A,570.8924000000479,Correct
15,415,487,A,52.22356859253658,75.98509706140253,2.611178429626829,1.1935711135520477,A,951.0340999995606,Correct
15,415,488,B,64.53274418769806,44.3346889894555,3.226637209384903,0.6964076661423084,B,643.1448000003002,Correct
15,415,489,A,53.94725724203141,73.12286148725617,2.6973628621015706,1.14861122228914,A,811.2017000003107,Correct
15,415,490,B,46.530169038232714,16.548153523781664,2.3265084519116357,0.2599377877039426,B,5572.046799999953,Correct
15,415,491,A,46.76004085025503,54.16742982634485,2.3380020425127515,0.8508599980314281,B,1140.6464000001506,Incorrect
15,415,492,A,62.460160881388575,75.30245142889258,3.1230080440694286,1.1828481410315559,A,631.41990000031,Correct
15,415,493,A,17.822923004886206,38.49858615986945,0.8911461502443103,0.6047343772671977,A,578.7212999998701,Correct
15,415,494,B,45.95088684753178,29.717215333819354,2.2975443423765887,0.46679692688936414,B,602.4849999998878,Correct
15,415,495,B,54.249323123488566,33.52007567388533,2.7124661561744285,0.5265321174242604,B,1962.7952000000732,Correct
15,415,496,B,35.32793335218578,20.863672095646542,1.7663966676092888,0.32772579491294773,B,10344.318599999951,Correct
15,415,497,B,72.1879133232021,47.90818739874288,3.609395666160105,0.7525400478934686,B,1515.169700000115,Correct
15,415,498,B,64.06053507572605,33.36661826129373,3.2030267537863026,0.5241216140240771,B,498.61379999993005,Correct
15,415,499,A,40.74100777617107,69.53272345576315,2.0370503888085536,1.092217465963581,A,715.4524000002311,Correct
15,415,500,B,39.15365759263712,23.729200991897844,1.9576828796318557,0.37273741755850953,B,5988.027499999589,Correct
15,415,501,B,54.48863656526545,45.05492270907979,2.7244318282632722,0.707721070954505,B,2461.4314000000377,Correct
15,415,502,A,68.34827806180832,82.88959930360154,3.4174139030904156,1.3020267811559814,A,895.4137000000628,Correct
15,415,503,A,35.09144375681946,55.32359668449402,1.7545721878409728,0.8690210245708553,A,561.6546999999628,Correct
15,415,504,A,39.72948947670455,65.43222866863762,1.9864744738352274,1.0278070444669969,A,791.1546000000271,Correct
15,415,505,A,23.412058176723768,42.21525669508506,1.1706029088361884,0.6631157015134328,A,585.9565000000657,Correct
15,415,506,B,50.542348223839795,37.96778011554601,2.5271174111919894,0.59639649542056,B,839.2205000000104,Correct
15,415,507,A,37.59139505565393,59.82507657782489,1.879569752782697,0.9397301053867072,A,570.2579999997397,Correct
15,415,508,A,55.33366884873135,64.72441292454127,2.7666834424365674,1.0166887007582555,A,808.8944999999512,Correct
15,415,509,A,38.40535262957014,50.9618950960905,1.9202676314785068,0.8005075762344581,A,530.5715000004056,Correct
15,415,510,A,41.274372821556135,67.74232054225145,2.063718641077807,1.0640938827633104,A,594.8936999998296,Correct
15,415,511,A,51.046203470369456,67.02748478004736,2.552310173518473,1.0528652688679923,A,689.5241000001988,Correct
15,415,512,A,49.339314852428245,56.72927148822037,2.466965742621412,0.8911013127544701,A,581.3912000003256,Correct
15,415,513,B,50.22601214464939,38.12860628265946,2.5113006072324695,0.5989227469461029,A,846.2434999996731,Incorrect
15,415,514,A,60.83476296602272,76.76964886436333,3.041738148301136,1.2058948244547592,A,1093.1561000002148,Correct
15,415,515,B,58.69812202372613,27.190222836204395,2.9349061011863062,0.42710302155844576,B,650.6782999999814,Correct
15,415,516,B,69.79460311087877,47.681215662645485,3.4897301555439384,0.7489747841999882,B,477.192599999853,Correct
15,415,517,A,42.767838789505774,54.83618786150672,2.138391939475289,0.8613648246828964,A,590.2973000002021,Correct
15,415,518,B,54.404492615099834,27.81297416295191,2.7202246307549918,0.4368851765240622,B,757.5007999998888,Correct
15,415,519,A,13.25121053012801,31.79720037367137,0.6625605265064004,0.499469255493243,A,541.5093999999954,Correct
15,415,520,B,83.26501578754537,62.59216011664241,4.163250789377269,0.9831953519737991,B,574.0606999997908,Correct
15,415,521,A,14.6715660429482,43.817189918131405,0.73357830214741,0.6882788097387518,A,533.2714999999553,Correct
15,415,522,A,50.31211170382568,59.90341520361078,2.5156055851912837,0.9409606456430135,A,895.2397000002748,Correct
15,415,523,A,53.83649837491909,67.77785057077594,2.6918249187459544,1.0646519871462823,A,2529.1713999999956,Correct
15,415,524,B,64.58762112482042,38.39519826132009,3.229381056241021,0.603110363954434,B,566.7404000000715,Correct
15,415,525,B,74.12822295562911,60.14262233549994,3.7064111477814556,0.9447181024841601,B,700.2399000002697,Correct
15,415,526,A,47.913435752536664,62.9806696020762,2.395671787626833,0.989298044700243,A,584.3942000001334,Correct
15,415,527,A,59.06722590713314,76.67774734882909,2.953361295356657,1.2044512388244786,A,562.9134000000704,Correct
15,415,528,B,48.63925646401603,37.44453369834353,2.4319628232008013,0.5881773599190574,B,599.3408999997882,Correct
15,415,529,A,48.27922334954218,75.02305984279229,2.413961167477109,1.1784594682597183,A,525.9965000000193,Correct
15,415,530,B,80.40205203254327,51.90905095585259,4.020102601627164,0.8153854656886237,B,568.1663999998818,Correct
15,415,531,B,77.37205163851068,64.96724840347409,3.8686025819255345,1.020503151541487,B,833.0546000001959,Correct
15,415,532,A,23.291024262297846,46.75423143482116,1.1645512131148923,0.7344137499993557,A,510.01670000005106,Correct
15,415,533,B,41.38451228118111,18.3008212728041,2.0692256140590555,0.2874686283265058,B,813.5116999997081,Correct
15,415,534,A,38.372326520414816,53.60857109247952,1.9186163260207407,0.8420814655678991,B,1219.0277000004244,Incorrect
15,415,535,A,39.82861755447768,65.81101718209801,1.991430877723884,1.0337570405227539,A,792.3040000000583,Correct
15,415,536,A,56.43372799324926,77.7190393459351,2.821686399662463,1.220807815266229,A,630.6355000001531,Correct
15,415,537,A,27.272521956757508,54.773205468787445,1.3636260978378756,0.8603754995715346,A,599.7814999996081,Correct
15,415,538,B,50.6340955993026,32.07001421681621,2.53170477996513,0.5037546053203502,A,1930.5625000001783,Incorrect
15,415,539,B,83.93616209715822,56.86923691763728,4.196808104857911,0.8932998845785336,B,576.0838999999578,Correct
15,415,540,A,41.46387223466097,66.91966652747058,2.0731936117330485,1.0511716637169017,A,648.6738999997215,Correct
15,415,541,B,37.197666606626186,17.066579646695885,1.8598833303313091,0.2680812061998244,B,827.7223999998569,Correct
15,415,542,A,44.481765414084926,75.17159066328038,2.224088270704246,1.1807925849321037,A,722.9296000000431,Correct
15,415,543,B,75.45921223791841,54.23178253553364,3.77296061189592,0.8518708480235587,B,1717.413000000306,Correct
15,415,544,A,28.016806870957364,45.62046997803458,1.400840343547868,0.7166046666815356,A,1663.646499999686,Correct
15,415,545,A,60.01825614772454,84.50638140580186,3.000912807386227,1.327423135029621,A,658.9840000001459,Correct
15,415,546,B,55.24880901013705,41.165297167985415,2.7624404505068525,0.6466229758289185,A,897.8654999996252,Incorrect
15,415,547,A,46.64656558653503,68.90732828326614,2.3323282793267515,1.0823937815660454,A,1609.9160000003394,Correct
15,415,548,B,41.6380760905206,13.56779602771315,2.08190380452603,0.21312244163034202,B,687.4478999998246,Correct
15,415,549,A,37.65816467364971,61.594675191241684,1.8829082336824854,0.9675268954052718,A,388.682400000107,Correct
