subject,day,trial,cat,x,y,xt,yt,resp,rt,fb
15,15,0,A,49.935723722822935,59.650629820170046,2.4967861861411467,0.9369899021252523,A,1436.286599999221,Correct
15,15,1,B,58.63408472221001,45.97587596761612,2.931704236110501,0.7221873709110915,B,741.1363999999594,Correct
15,15,2,B,51.09636803118077,29.133438233635978,2.5548184015590385,0.45762697764301397,B,752.1845000010217,Correct
15,15,3,B,53.84830023255203,44.19293290864515,2.692415011627601,0.694180966831931,A,889.8804999989807,Incorrect
15,15,4,A,17.78342334478756,32.6042523817885,0.8891711672393781,0.5121463987920712,A,601.8786000004184,Correct
15,15,5,A,24.709681979830364,42.84896118196414,1.2354840989915181,0.6730699083160638,A,559.9706000011793,Correct
15,15,6,A,59.85537542412575,69.11173641206828,2.9927687712062876,1.0856046169449396,A,1583.7185000000318,Correct
15,15,7,A,57.57900762321964,73.43351010587263,2.878950381160982,1.1534908793796064,A,950.3609000003053,Correct
15,15,8,B,36.32828276191477,13.806496159802442,1.8164141380957386,0.21687193453725526,B,601.7066000003979,Correct
15,15,9,A,37.58266974286197,61.438121105074174,1.8791334871430985,0.9650677495703052,A,728.0477999993309,Correct
15,15,10,B,62.11585031708158,41.50196186813049,3.105792515854079,0.6519112925724124,B,684.2060000017227,Correct
15,15,11,A,54.22243735340275,63.95897552229418,2.711121867670138,1.004665238159844,A,748.8097000004927,Correct
15,15,12,A,24.07288916979148,50.16025114170932,1.203644458489574,0.7879153824450651,A,517.3549999999523,Correct
15,15,13,B,74.22665279863718,51.05856688636264,3.711332639931859,0.8020260931650997,B,573.1115999988106,Correct
15,15,14,A,33.77903104983237,56.478860069182005,1.6889515524916185,0.8871678593823406,A,573.088999999527,Correct
15,15,15,A,44.63049293986672,62.62180721888453,2.231524646993336,0.9836610475668195,A,547.1981999999116,Correct
15,15,16,B,40.781369345476065,31.923002985253476,2.039068467273803,0.5014453582949867,B,900.8518999999069,Correct
15,15,17,A,46.37256343918607,69.3784755526797,2.3186281719593036,1.089794545567788,A,723.2417000013811,Correct
15,15,18,A,31.74096498606469,62.66349239706619,1.5870482493032343,0.984315836814515,A,800.7675000008021,Correct
15,15,19,B,61.27148938617932,48.158802782417766,3.063574469308966,0.7564767051346166,B,454.86410000012256,Correct
15,15,20,B,55.428142871743525,34.38485376783171,2.7714071435871763,0.540116019958897,B,540.3669999996055,Correct
15,15,21,B,77.11432878082596,63.82132825900628,3.855716439041298,1.0025030800041839,B,618.454199999178,Correct
15,15,22,B,60.05857507838855,41.510656744787234,3.0029287539194276,0.6520478713755559,B,420.4107000005024,Correct
15,15,23,B,70.2788586716467,47.67569994757999,3.5139429335823356,0.7488881435503429,B,448.2986000002711,Correct
15,15,24,B,83.92830240225479,56.673450315801084,4.196415120112739,0.8902244758285343,B,687.7714000002015,Correct
15,15,25,A,55.947240997142785,79.81323596012113,2.7973620498571394,1.2537033787577263,A,669.8376000003918,Correct
15,15,26,B,47.27386825121708,32.49138201177762,2.3636934125608544,0.5103734351659005,B,663.8076999988698,Correct
15,15,27,B,68.39713522603435,43.42142326821616,3.419856761301718,0.6820621217392039,B,434.31499999860534,Correct
15,15,28,B,57.39513354883864,27.564102686770845,2.8697566774419325,0.4329759125177698,B,735.3022999996028,Correct
15,15,29,B,80.01494447051168,55.47401185677022,4.000747223525584,0.8713837405719118,B,687.307399999554,Correct
15,15,30,B,64.08085392136256,48.77949295376619,3.2040426960681283,0.7662264835469346,B,582.4747000006028,Correct
15,15,31,A,36.27873547534979,55.46784608502753,1.8139367737674894,0.8712868888558594,A,1121.8331000000035,Correct
15,15,32,A,42.77886078449455,57.138058347647636,2.1389430392247273,0.8975225217267739,A,740.3425000011339,Correct
15,15,33,A,29.895269224881204,49.35525684912141,1.4947634612440601,0.7752705616661857,A,571.221100000912,Correct
15,15,34,A,20.799765615964237,38.27768236270117,1.0399882807982117,0.601264428535528,A,491.5486999998393,Correct
15,15,35,B,30.988891770109817,13.669113409175822,1.549444588505491,0.21471393133676248,B,806.0313000005408,Correct
15,15,36,B,85.25053930350923,60.93608323833871,4.262526965175462,0.957181757200505,B,626.1777999989135,Correct
15,15,37,B,57.82409382946849,42.54774696902945,2.8912046914734244,0.6683384465235015,B,835.571899999195,Correct
15,15,38,A,49.41541362645495,79.12191005125109,2.4707706813227475,1.2428440567750143,A,576.3023999988945,Correct
15,15,39,A,28.84725538850433,55.05925016286977,1.4423627694252164,0.8648686791191715,A,606.9480999994994,Correct
15,15,40,A,35.566683446536956,47.37321449012549,1.7783341723268478,0.7441367130955588,A,415.4743999988568,Correct
15,15,41,B,72.28686641155925,56.13700639944338,3.6143433205779623,0.8817980344950727,B,638.401199999862,Correct
15,15,42,B,76.78901200607243,49.75931717015727,3.8394506003036213,0.7816175263470525,B,399.8219999994035,Correct
15,15,43,B,71.13305018282696,51.09699785734423,3.5566525091413483,0.80262976544563,B,549.081400000432,Correct
15,15,44,A,52.17716663963464,74.64840196894215,2.608858331981732,1.1725743561392326,A,540.536800001064,Correct
15,15,45,B,46.94779908235057,36.14945398664207,2.3473899541175287,0.567834295378585,B,1682.0650000008754,Correct
15,15,46,A,55.93253368220719,64.77724409924227,2.7966266841103593,1.0175185709098613,A,1576.214800001253,Correct
15,15,47,B,52.64963945870327,25.333197478675697,2.6324819729351634,0.3979329354547352,B,458.3746999996947,Correct
15,15,48,B,66.30963569904812,45.77950065892776,3.3154817849524054,0.7191027147754827,B,643.7545999997383,Correct
15,15,49,B,68.04483232393052,39.85880643435938,3.402241616196526,0.626100667375205,B,675.2016000009462,Correct
15,15,50,A,23.86299866659319,40.974713120475215,1.1931499333296594,0.6436292886111712,A,563.238700000511,Correct
15,15,51,A,41.99020841510062,73.02679246818596,2.099510420755031,1.147102173666397,A,583.1281000009767,Correct
15,15,52,A,32.88676564312209,43.77593431808773,1.6443382821561046,0.6876307682886686,A,778.2065999999759,Correct
15,15,53,A,14.67721404248914,43.10687373326428,0.733860702124457,0.6771211891982294,A,703.6994000009145,Correct
15,15,54,A,32.51709393105311,64.15908070256039,1.6258546965526557,1.007808482981192,A,761.9531000000279,Correct
15,15,55,B,77.89407132415917,50.079680861744784,3.894703566207959,0.7866497874468938,B,590.6402000000526,Correct
15,15,56,B,52.663205833265096,39.422501843085016,2.633160291663255,0.6192472108818299,B,586.2542999984726,Correct
15,15,57,A,40.77207234747958,67.2235326310928,2.038603617373979,1.0559447813109741,A,565.0273999999627,Correct
15,15,58,B,86.08483329194561,66.20079596982387,4.304241664597281,1.0398796714029772,B,570.0084000000061,Correct
15,15,59,A,17.32639456828901,47.08172246919329,0.8663197284144505,0.7395579671378557,A,677.6449000008142,Correct
15,15,60,B,86.2768390640342,69.29753707702942,4.3138419532017105,1.0885231669653097,B,797.0876999988832,Correct
15,15,61,B,43.89326917680204,22.795438845938442,2.194663458840102,0.35806991606877797,B,507.1850000003906,Correct
15,15,62,A,43.80126622169013,60.41963985629991,2.1900633110845065,0.9490694835254644,B,1007.6375999997254,Incorrect
15,15,63,A,60.44610309487008,82.15102136166436,3.022305154743504,1.2904252259735147,B,527.8897999996843,Incorrect
15,15,64,B,60.90297220508696,28.03304048867465,3.045148610254348,0.4403419702850275,B,493.42150000120455,Correct
15,15,65,B,63.309620356058026,33.865458916852226,3.1654810178029016,0.5319573847181495,B,631.6464000010455,Correct
15,15,66,A,40.168603812547616,68.20886064284353,2.0084301906273807,1.0714222775264362,A,572.6283999993029,Correct
15,15,67,A,21.821585058720498,36.67607723218018,1.091079252936025,0.5761064739755455,A,708.6724000000686,Correct
15,15,68,B,69.12147743278565,39.96748473225872,3.4560738716392825,0.627807782086631,B,758.0623000012565,Correct
15,15,69,A,10.468494421330686,31.64254052053693,0.5234247210665344,0.49703986420118085,A,502.3507999994763,Correct
15,15,70,A,59.059413221447166,73.62244934171252,2.9529706610723583,1.1564587299560536,A,974.9033999996755,Correct
15,15,71,B,73.23891603254891,59.296922383479824,3.6619458016274455,0.9314338787021218,B,944.8579999989306,Correct
15,15,72,A,27.99411058692538,47.274358194944526,1.399705529346269,0.7425838820420507,A,518.1233000002976,Correct
15,15,73,B,34.89602267295918,12.120896650835213,1.744801133647959,0.19039459936592518,B,514.5601000003808,Correct
15,15,74,B,88.44890864168235,68.61515717633661,4.4224454320841176,1.0778043685504404,B,662.9998999997042,Correct
15,15,75,A,39.98887356740295,48.030837327841134,1.9994436783701475,0.7544666284745606,A,1703.5642999999254,Correct
15,15,76,B,31.830359056258594,13.634819423146347,1.5915179528129297,0.2141752426638999,B,607.31560000022,Correct
15,15,77,A,63.259813434969985,73.14936277768203,3.1629906717484992,1.1490275035857027,A,1182.510699998602,Correct
15,15,78,B,59.011642102482284,45.30861574934966,2.950582105124114,0.7117060719123985,B,854.496800000561,Correct
15,15,79,B,74.909853783713,48.25946049810413,3.7454926891856504,0.7580578328352539,B,573.9815999986604,Correct
15,15,80,A,20.93977329477562,50.731438099963164,1.046988664738781,0.796887566204448,A,568.4708999997383,Correct
15,15,81,A,54.73358584938163,79.46630713033295,2.7366792924690815,1.2482538334428208,A,627.2198000006028,Correct
15,15,82,A,48.029526780242655,67.98242558315924,2.4014763390121328,1.0678654439263393,A,709.4673999999941,Correct
15,15,83,B,33.122569638186434,13.530125317507991,1.6561284819093216,0.21253071149816186,B,862.5793000010162,Correct
15,15,84,A,31.896606456525593,60.64635283072552,1.5948303228262797,0.9526306826001093,A,618.1784999989759,Correct
15,15,85,B,59.69763356156907,38.01467704520448,2.9848816780784535,0.5971331506690147,B,615.4552999996667,Correct
15,15,86,A,31.019087668818578,61.810366489172246,1.5509543834409287,0.9709149663903814,A,573.8106000007974,Correct
15,15,87,A,21.959198406697745,43.43529685080456,1.097959920334887,0.6822800474648975,A,1288.3237000005465,Correct
15,15,88,A,37.84357874198063,47.78947224571154,1.8921789370990314,0.7506752746303036,A,846.1585000004561,Correct
15,15,89,B,56.75913122525293,48.28699615686533,2.8379565612626463,0.7584903619516334,B,1512.9054999997607,Correct
15,15,90,B,34.77117351042744,24.13927293616033,1.738558675521372,0.37917881259620106,B,851.9359999991138,Correct
15,15,91,B,60.07982425257483,44.619176473982634,3.0039912126287414,0.7008763850994518,B,780.5277000006754,Correct
15,15,92,A,20.330894065708698,45.27352240614473,1.016544703285435,0.711154826966386,A,671.5807000000495,Correct
15,15,93,A,49.37477740960425,74.41633967485026,2.4687388704802125,1.1689291301477611,A,767.3355999995692,Correct
15,15,94,B,56.48844572956337,40.5972413520341,2.824422286478168,0.6376999759378104,B,894.4941000008839,Correct
15,15,95,A,63.96082986272738,75.17455533491682,3.198041493136369,1.1808391538852703,A,1449.8533999994834,Correct
15,15,96,B,37.163042513335384,23.63910924943528,1.858152125666769,0.37132225977716204,B,816.4827000000514,Correct
15,15,97,A,38.559890996207066,67.32283587065412,1.9279945498103532,1.0575046329503919,A,595.7730999998603,Correct
15,15,98,B,44.6425668472428,30.872404047688917,2.23212834236214,0.48494258877437646,B,567.9513000013685,Correct
15,15,99,A,34.99646182217316,42.73670215718877,1.749823091108658,0.6713065476783965,B,666.4258999990125,Incorrect
15,15,100,A,19.033160554070218,35.71089972152254,0.9516580277035109,0.5609455010910851,A,637.7926999994088,Correct
15,15,101,B,40.80842589557111,13.514396580913136,2.0404212947785556,0.21228364508147862,B,411.0529999998107,Correct
15,15,102,A,29.36541946808504,42.67647185091933,1.468270973404252,0.6703604522398988,A,546.2283999986539,Correct
15,15,103,A,36.108893260950715,50.3892628128833,1.8054446630475356,0.7915126893637978,A,681.1564999989059,Correct
15,15,104,B,76.82492248126444,47.58643112585487,3.841246124063222,0.7474859121777117,B,560.5856999991374,Correct
15,15,105,A,36.024545140604395,57.07695014288649,1.80122725703022,0.8965626362910154,A,577.734499998769,Correct
15,15,106,B,57.40550860777547,38.14214346720017,2.8702754303887734,0.5991353885436198,B,574.963500001104,Correct
15,15,107,A,39.55060352790671,51.20413789699556,1.9775301763953355,0.8043127172529998,A,800.1170999996248,Correct
15,15,108,B,70.74386375824844,54.54236494151912,3.537193187912422,0.8567494650484497,B,644.554499998776,Correct
15,15,109,B,35.633419092078185,18.94174731379478,1.7816709546039093,0.2975362710358594,B,799.0418000008503,Correct
15,15,110,B,77.6328699093533,64.98505934010113,3.881643495467665,1.0207829250797924,B,940.5385999998543,Correct
15,15,111,A,49.74305377676292,70.65100674496018,2.4871526888381457,1.1097834187934492,A,929.5476999996026,Correct
15,15,112,A,33.36003603446927,55.29062516151072,1.6680018017234632,0.8685031090989451,A,651.4886999993905,Correct
15,15,113,B,56.69140791785932,24.26913813702494,2.834570395892966,0.3812187304011671,B,605.4662000005919,Correct
15,15,114,B,48.605311555845624,28.68307364311803,2.430265577792281,0.4505526671979731,B,668.0961000001844,Correct
15,15,115,B,30.777728719450657,16.17738211869149,1.538886435972533,0.25411372409198035,B,1074.72880000023,Correct
15,15,116,B,65.82230868885677,44.84231752884437,3.291115434442838,0.7043814765927914,B,566.3306000005832,Correct
15,15,117,A,58.83741741709785,68.3518787547278,2.941870870854893,1.0736688007745658,A,1401.6610999988188,Correct
15,15,118,B,69.70218986489395,52.488724791263465,3.485109493244698,0.8244909610026487,B,656.5761000001658,Correct
15,15,119,A,47.23705177519862,75.6990560023411,2.361852588759931,1.1890779911031857,A,601.9772999989073,Correct
15,15,120,B,72.61312563681955,55.4452589420997,3.630656281840977,0.8709320908444209,B,684.1929000001983,Correct
15,15,121,A,27.33296242658492,57.72184322190283,1.3666481213292458,0.9066925930879587,A,505.5023999993864,Correct
15,15,122,A,23.72756239877827,55.32243822710465,1.1863781199389136,0.8690028275647355,A,565.3341999986878,Correct
15,15,123,A,35.06783585365511,60.92308686181062,1.7533917926827556,0.9569776105953854,A,430.76099999962025,Correct
15,15,124,B,68.12300918888761,37.54086135012412,3.4061504594443806,0.5896904711349146,B,542.2194000002492,Correct
15,15,125,A,35.398860493834064,66.03573276984217,1.7699430246917032,1.0372868647207747,A,497.5326000003406,Correct
15,15,126,B,78.61335242498896,55.728680659896824,3.9306676212494485,0.8753840687769173,B,504.71920000018144,Correct
15,15,127,B,50.276468682143545,21.03200780028593,2.5138234341071772,0.3303700059781075,B,524.0565000003699,Correct
15,15,128,A,21.93676385052207,48.80849383001407,1.0968381925261035,0.7666820282457748,A,523.8331000000471,Correct
15,15,129,A,54.727453279638844,65.20365297402098,2.7363726639819426,1.024216585852013,A,615.0852999999188,Correct
15,15,130,A,47.25800168847167,57.94700533072778,2.3629000844235835,0.9102294312227147,A,573.2014999994135,Correct
15,15,131,B,62.41435500904084,51.917621679426524,3.1207177504520422,0.8155200942997027,B,742.8821000012249,Correct
15,15,132,B,87.9956273896567,62.69225338414574,4.399781369482835,0.9847676133431105,B,831.4075000016601,Correct
15,15,133,B,83.90710607057488,64.52865342648002,4.195355303528744,1.0136137177533575,B,814.3454999990354,Correct
15,15,134,A,23.676498446030354,54.776653536906565,1.1838249223015176,0.860429661698895,A,582.6772999989771,Correct
15,15,135,A,29.92791150384594,41.44652604958543,1.496395575192297,0.6510405087709779,A,655.2068999990297,Correct
15,15,136,B,61.637779203708874,33.34737949293509,3.081888960185444,0.5238194121573789,B,602.5534999989759,Correct
15,15,137,A,25.167677393915156,42.27639483004418,1.2583838696957579,0.6640760570916416,A,571.9308000007004,Correct
15,15,138,B,64.373419785586,37.33274630656281,3.2186709892792997,0.5864214076751461,B,381.33149999885063,Correct
15,15,139,A,65.66347549119712,83.50669033802315,3.283173774559856,1.3117200244576563,A,713.4797999988223,Correct
15,15,140,A,18.865391274917176,48.12916671995617,0.9432695637458588,0.7560111829540632,A,1145.2847000000475,Correct
15,15,141,A,48.81227191239359,62.71616426331276,2.4406135956196793,0.9851432045547704,B,488.4388999998919,Incorrect
15,15,142,B,89.61885473357823,67.84546874872882,4.480942736678911,1.0657141310018117,B,569.5285000001604,Correct
15,15,143,B,66.6437705415636,37.239208714056545,3.3321885270781797,0.5849521226078852,B,602.6554000000033,Correct
15,15,144,B,69.54834861059521,45.62457194293763,3.4774174305297607,0.7166691001955592,B,513.0394999996497,Correct
15,15,145,A,30.980807610390606,53.15783401767945,1.5490403805195303,0.8350013041534368,A,541.7151000001468,Correct
15,15,146,B,62.89701365349329,48.25264493431522,3.1448506826746643,0.7579507742096071,B,2262.0159999987663,Correct
15,15,147,B,69.29612170562605,48.44122553167355,3.4648060852813023,0.7609129913059598,B,965.1850999998715,Correct
15,15,148,A,35.04952653964773,58.363908243037905,1.7524763269823864,0.9167781268555832,A,748.690299998998,Correct
15,15,149,B,76.04292056652541,64.24884799418217,3.8021460283262707,1.00921854430065,B,1335.7383999991725,Correct
15,15,150,B,78.07912832018721,51.59901886090675,3.9039564160093607,0.8105154929293292,B,957.8111999999237,Correct
15,15,151,B,44.44895850040073,27.011485460139475,2.2224479250200364,0.42429542142060844,B,907.0551000004343,Correct
15,15,152,B,70.30615624050161,43.627574897560734,3.51530781202508,0.6853003439605765,B,705.9991999994963,Correct
15,15,153,A,15.60980467515256,37.48892831739735,0.780490233757628,0.5888747089644494,A,592.3566000001301,Correct
15,15,154,A,12.849567312220437,37.31424609544564,0.6424783656110219,0.5861308070384683,A,534.9979999991774,Correct
15,15,155,B,68.02265743331546,42.17013604028244,3.4011328716657725,0.6624069479251674,B,685.9051999999792,Correct
15,15,156,B,43.20366453970158,30.852570733616744,2.1601832269850787,0.484631047805449,B,495.001900000716,Correct
15,15,157,A,57.92036163781121,66.66384432608024,2.8960180818905603,1.0471532179743364,B,923.727899998994,Incorrect
15,15,158,B,58.505482613308274,39.798995313559764,2.925274130665414,0.6251611564866698,B,688.7017999997624,Correct
15,15,159,B,34.59875498299223,16.573124129529436,1.7299377491496117,0.2603300250618071,B,806.5353000001778,Correct
15,15,160,A,42.6179503103534,69.59846334322012,2.13089751551767,1.0932501057009942,A,1287.9188999995677,Correct
15,15,161,A,34.26204577707192,50.638258643703125,1.713102288853596,0.7954239067281879,A,980.3305000004912,Correct
15,15,162,B,49.639278031799364,22.444592157783728,2.4819639015899684,0.3525588291785622,B,631.1307999985729,Correct
15,15,163,B,42.421274368988726,15.66126447238333,2.1210637184494363,0.2460065670618315,B,967.1362999997655,Correct
15,15,164,B,62.87725937104046,33.10009968861433,3.143862968552023,0.5199351500742029,B,745.6638000003295,Correct
15,15,165,A,24.650297634458152,38.3868394171876,1.2325148817229077,0.6029790635378384,A,668.1783000003634,Correct
15,15,166,B,47.0886877545028,33.669426059684916,2.3544343877251404,0.5288781077984542,B,490.7548000010138,Correct
15,15,167,B,33.29734960276235,19.94064127108288,1.6648674801381176,0.3132268606255171,B,361.70270000002347,Correct
15,15,168,B,63.39162326973753,32.91553590395401,3.1695811634868765,0.517036028924165,B,686.4041000008001,Correct
15,15,169,A,26.0052680368223,43.81897853514075,1.3002634018411152,0.688306905269035,A,492.20640000021376,Correct
15,15,170,A,61.248871539034454,79.47769137180748,3.0624435769517224,1.2484326566897364,A,727.7658999992127,Correct
15,15,171,B,68.39054834301683,59.05198023854867,3.4195274171508414,0.9275863364867707,B,783.5321000002295,Correct
15,15,172,A,22.34389674511452,40.382284106501615,1.117194837255726,0.6343234354208067,A,606.7581999996037,Correct
15,15,173,B,46.50136521600486,36.25196863884855,2.3250682608002426,0.569444591769871,A,700.8585000003222,Incorrect
15,15,174,A,47.838877368590026,70.88974133283932,2.3919438684295016,1.1135334529306438,A,941.1242999995011,Correct
15,15,175,B,49.15423843277324,26.43095810878539,2.457711921638662,0.4151765191094987,B,767.912499999511,Correct
15,15,176,B,54.20179475643247,35.81692609944839,2.7100897378216233,0.5626109595409778,B,755.7677999993757,Correct
15,15,177,A,38.37942244145059,61.13760786597148,1.9189711220725298,0.9603472986489479,A,593.0431999986467,Correct
15,15,178,B,67.9128679162626,57.38205082557096,3.39564339581313,0.9013551466076493,B,545.6338000003598,Correct
15,15,179,B,55.68346233378368,42.012092762722126,2.7841731166891837,0.6599244099265038,B,556.9412999993801,Correct
15,15,180,A,44.36330378650426,69.4898408298381,2.2181651893252132,1.0915438672507172,A,663.7258999999176,Correct
15,15,181,B,68.4234180674495,40.92505564496726,3.4211709033724755,0.6428492708099132,B,451.04990000072576,Correct
15,15,182,A,57.56456328660765,82.0575125510882,2.8782281643303826,1.2889563930117545,A,632.2977999989234,Correct
15,15,183,A,62.382746031893255,77.48666016321644,3.119137301594663,1.2171576115998481,A,983.4819000006974,Correct
15,15,184,A,48.445486369999784,72.10059749928942,2.4222743184999893,1.1325535371160114,A,517.8295999994589,Correct
15,15,185,B,44.570677232012144,21.235193843003373,2.2285338616006074,0.333561644873673,B,551.5082000001712,Correct
15,15,186,B,64.36380689422981,48.93595408708521,3.2181903447114903,0.7686841692819715,A,887.526099999377,Incorrect
15,15,187,B,52.63742300404523,35.582087140534775,2.6318711502022616,0.5589221178004795,B,650.2961999995023,Correct
15,15,188,B,59.165287036601,45.747495191776586,2.95826435183005,0.7185999740730986,B,604.7995999997511,Correct
15,15,189,A,30.989104082711556,39.59275106077792,1.5494552041355778,0.6219214793397471,A,743.865200000073,Correct
15,15,190,A,59.9527909106418,76.91877851625785,2.99763954553209,1.2082373475488801,A,637.6716999984637,Correct
15,15,191,B,42.28077173284037,21.346225506232187,2.114038586642019,0.3353057261612505,B,807.0690000004106,Correct
15,15,192,B,49.42870686504476,31.915539025424795,2.4714353432522382,0.5013281146881645,B,799.0816999990784,Correct
15,15,193,A,32.719616055097966,54.94235568251002,1.635980802754898,0.8630325049154545,A,1766.297800000757,Correct
15,15,194,B,65.71340826102553,52.36649411730204,3.2856704130512764,0.822570966065846,B,1377.0445999998628,Correct
15,15,195,A,48.44619035482242,61.91694707788954,2.422309517741121,0.972589130363029,A,1325.2193000007537,Correct
15,15,196,A,16.91410537086389,42.40366873493208,0.8457052685431945,0.6660752709145892,A,638.8908000008087,Correct
15,15,197,B,68.70398046613946,39.150030795271,3.4351990233069727,0.6149672456711877,B,629.8127000009117,Correct
15,15,198,A,53.90129701817479,61.82791881079817,2.6950648509087394,0.9711906776137486,B,779.6236000012868,Incorrect
15,15,199,A,52.90921030606396,68.12701704393885,2.645460515303198,1.0701366812811246,A,1410.5343999999604,Correct
15,15,200,A,24.47522536387581,45.32200437622282,1.2237612681937906,0.7119163799715305,A,600.6109999998444,Correct
15,15,201,A,54.87546335856757,78.93750626984948,2.7437731679283788,1.2399474489502869,A,710.4823000008764,Correct
15,15,202,B,43.27052688494538,34.02091502300842,2.163526344247269,0.5343992835234295,B,803.375600000436,Correct
15,15,203,A,23.478982526543106,47.23130171591325,1.1739491263271553,0.7419075524509803,A,505.4867999988346,Correct
15,15,204,B,34.14687730708867,11.586126245572451,1.7073438653544337,0.18199444548327154,B,2478.4852000011597,Correct
15,15,205,B,38.68077603216808,21.954054517225234,1.934038801608404,0.3448534819391231,B,647.3263000007137,Correct
15,15,206,A,32.779838360470634,45.16932191844048,1.638991918023532,0.7095180495330252,A,577.5555000000168,Correct
15,15,207,B,57.38801830184712,26.10211768376407,2.869400915092356,0.4100111057922472,B,639.912099999492,Correct
15,15,208,A,59.37792193576492,69.56913956017497,2.968896096788246,1.0927894887940437,A,496.45109999983106,Correct
15,15,209,A,34.99008422616342,60.25391261208457,1.749504211308171,0.9464662460608313,A,784.2304999994667,Correct
15,15,210,B,39.712512378420286,23.600469211093905,1.9856256189210142,0.37071530347422355,B,685.2065000002767,Correct
15,15,211,B,41.03736316198869,13.41766520987796,2.0518681580994342,0.21076419225839974,B,672.8196000003663,Correct
15,15,212,B,69.03005628957891,46.30613601847138,3.4515028144789452,0.7273750836587971,A,654.037000000244,Incorrect
15,15,213,A,24.24424001823341,53.40082356993543,1.2122120009116706,0.8388181751147692,A,620.7033000009687,Correct
15,15,214,A,14.03660602401067,37.10881634229327,0.7018303012005335,0.582903924021807,A,1120.303600000625,Correct
15,15,215,B,58.733715472310635,49.4017375622376,2.9366857736155314,0.7760006790004828,B,784.0476000001217,Correct
15,15,216,A,23.627837170165076,40.85711492704553,1.181391858508254,0.6417820605084006,A,724.2153999995935,Correct
15,15,217,A,47.39158674075981,63.78734744524866,2.3695793370379907,1.0019693106298644,A,1017.4634999984846,Correct
15,15,218,B,52.195590188370296,40.69658525074636,2.6097795094185146,0.6392604662496774,B,903.8051999996242,Correct
15,15,219,A,31.0332536058447,56.52495753869657,1.5516626802922349,0.8878919567402207,A,804.5544999986305,Correct
15,15,220,B,70.18161981261913,59.22975417985333,3.509080990630957,0.9303788030267829,B,631.0273999988567,Correct
15,15,221,B,60.32063278545888,36.02502989614745,3.0160316392729443,0.5658798463354475,B,607.0719999988796,Correct
15,15,222,B,71.49059862362742,41.31722390947215,3.574529931181371,0.6490094355036113,B,616.9819999995525,Correct
15,15,223,B,38.64759826070022,11.795974838989924,1.932379913035011,0.18529073948050392,B,630.2605999990192,Correct
15,15,224,B,70.00995068131174,60.6062562800896,3.500497534065587,0.9520008474555488,B,810.9391999987565,Correct
15,15,225,A,25.394082607976806,49.655022752798125,1.2697041303988401,0.779979273470123,A,916.3561999994272,Correct
15,15,226,B,39.80193027397662,21.201095796233773,1.9900965136988311,0.3330260340075073,B,612.9130000008445,Correct
15,15,227,B,46.55444919986367,17.4310435116123,2.327722459993183,0.27380619120242616,B,500.671699999657,Correct
15,15,228,A,38.1931162602959,46.94917117433857,1.9096558130147951,0.7374758562671586,B,1027.2711999987223,Incorrect
15,15,229,B,75.98701456856861,52.82084560020001,3.7993507284284305,0.8297079024699454,B,751.4912000006007,Correct
15,15,230,B,52.049558654929285,43.82545451224846,2.6024779327464644,0.688408629679567,B,727.2042000004149,Correct
15,15,231,A,67.89008107326293,82.71025676998518,3.394504053663147,1.2992096752255544,A,1014.6553999984462,Correct
15,15,232,B,76.10083039430793,57.020790088166265,3.8050415197153966,0.8956804762143442,A,2349.312500000451,Incorrect
15,15,233,A,36.227289583344444,52.85631428543904,1.811364479167222,0.8302650432748426,A,812.2136999991199,Correct
15,15,234,B,38.11486735173387,19.619068456752196,1.9057433675866935,0.3081756066700397,B,573.0798999993567,Correct
15,15,235,B,55.44589223694951,41.800880860158664,2.7722946118474754,0.6566067011192833,B,738.0444999998872,Correct
15,15,236,B,38.089759145731634,22.880730058277155,1.9044879572865818,0.3594096672992733,B,715.4621999998199,Correct
15,15,237,A,61.88856202079596,81.11746596146769,3.094428101039798,1.2741901757118348,A,803.2070999997813,Correct
15,15,238,A,28.898043074536645,45.2866142501656,1.4449021537268323,0.7113604731713754,A,575.3163000008499,Correct
15,15,239,B,84.43834035737306,63.00365456224108,4.221917017868654,0.9896590916102282,B,772.8853999997227,Correct
15,15,240,A,23.162193793487614,55.66560781393714,1.1581096896743808,0.8743933228293777,A,668.9117999994778,Correct
15,15,241,A,41.846972716601506,62.71734566407387,2.092348635830075,0.9851617619545305,A,662.0218999996723,Correct
15,15,242,A,36.62444244737562,57.1611607953856,1.8312221223687812,0.8978854141272413,A,530.7386999993469,Correct
15,15,243,A,27.90221876294509,59.16983244261384,1.3951109381472546,0.9294375545792731,A,472.8185999993002,Correct
15,15,244,A,19.78889811597053,41.04628463325827,0.9894449057985264,0.6447535313049989,A,438.0837999997311,Correct
15,15,245,B,69.55410052415587,57.54256229318351,3.477705026207793,0.9038764548449917,B,602.7491000004375,Correct
15,15,246,B,40.97102642100734,25.287715526685247,2.048551321050367,0.39721850662351454,B,732.703899999251,Correct
15,15,247,B,50.523672054267436,23.951960258057216,2.5261836027133717,0.37623651192893615,B,625.7045999991533,Correct
15,15,248,A,44.58712535535289,57.9693291336068,2.2293562677676446,0.9105800926983395,B,629.0370999995503,Incorrect
15,15,249,A,22.294746841425834,48.83144250059056,1.1147373420712916,0.7670425051202386,A,630.4538000003959,Correct
15,15,250,A,15.203073835880119,30.840960237786327,0.7601536917940059,0.48444867056342217,A,535.8394999984739,Correct
15,15,251,A,38.5634642975361,61.93692692542859,1.928173214876805,0.9729029730742714,A,2073.7926000001607,Correct
15,15,252,A,56.32300469255843,67.20405438768405,2.816150234627921,1.0556388177789857,B,815.0395000011486,Incorrect
15,15,253,B,88.93459750173633,65.29853369415643,4.446729875086817,1.025706968718737,B,435.758599998735,Correct
15,15,254,A,18.56245241879566,42.98637095890082,0.928122620939783,0.6752283360448423,A,808.4502000001521,Correct
15,15,255,A,43.76003836859792,65.65113810421666,2.188001918429896,1.03124566584008,A,2015.3646999988268,Correct
15,15,256,A,31.237429205679398,60.778876681655376,1.56187146028397,0.9547123623826425,A,541.9686999994155,Correct
15,15,257,B,61.68631611206632,34.6839321988494,3.084315805603316,0.5448139329675588,B,555.5063000010705,Correct
15,15,258,B,39.15015548818117,22.797348277023314,1.9575077744090583,0.3580999093421219,B,994.4305000008171,Correct
15,15,259,A,12.662819238732414,40.480025866567985,0.6331409619366206,0.6358587593976739,A,596.1282000007486,Correct
15,15,260,B,46.15793393317489,30.154359843507795,2.3078966966587444,0.4736635767903358,B,833.0985000011424,Correct
15,15,261,B,59.21465471576664,39.71607098891687,2.960732735788332,0.6238585842411597,B,558.8910000005853,Correct
15,15,262,B,59.45547799385856,36.879836953660636,2.9727738996929283,0.5793071241960481,B,455.76009999967937,Correct
15,15,263,B,49.99690460026269,39.61528457157922,2.4998452300131344,0.6222754348997116,B,583.5019000005559,Correct
15,15,264,A,14.956102059471139,32.25636734718785,0.7478051029735568,0.506681833447095,A,678.4158000009484,Correct
15,15,265,B,45.73259462812072,22.471409929699437,2.286629731406036,0.35298008175474244,B,758.1222000007983,Correct
15,15,266,A,13.813161289053703,36.318159030585235,0.6906580644526852,0.5704843080119618,A,631.8243999994593,Correct
15,15,267,B,69.85566308909968,37.48343040496361,3.4927831544549837,0.5887883479578899,B,552.4073000015051,Correct
15,15,268,B,62.15091390218828,41.40390832250783,3.107545695109414,0.6503710710794796,B,596.2856999994983,Correct
15,15,269,B,75.62590262671465,53.28969422186418,3.7812951313357326,0.8370725593972748,B,767.0569000001706,Correct
15,15,270,B,51.1797741664827,28.66259510888893,2.558988708324135,0.450230991134521,B,509.40540000010515,Correct
15,15,271,B,30.938570623169383,11.70740210396199,1.546928531158469,0.18389944221214338,B,794.9685000003228,Correct
15,15,272,A,58.7417726247901,67.13026118999879,2.937088631239505,1.054479676940321,A,1408.202499998879,Correct
15,15,273,B,33.14112555953446,20.639098333991278,1.6570562779767228,0.32419819851392173,B,538.1620999996812,Correct
15,15,274,A,46.22104235908493,57.599772852569004,2.311052117954247,0.9047751162103579,B,422.8500000008353,Incorrect
15,15,275,B,53.0874389779605,28.302624066674444,2.6543719488980253,0.4445765792258905,B,578.432199999952,Correct
15,15,276,A,57.99587646179569,79.73437040499658,2.899793823089784,1.2524645615147234,A,687.144099998477,Correct
15,15,277,A,69.8641701079184,87.42808064270082,3.4932085053959203,1.3733170793228244,A,681.685200001084,Correct
15,15,278,B,60.8734993874732,33.664327850155175,3.04367496937366,0.5287980253104289,B,712.8508999994665,Correct
15,15,279,B,47.891258822794235,40.578836958601855,2.394562941139712,0.6374108804018078,B,554.2564000006678,Correct
15,15,280,A,18.32694057880021,47.443000538550095,0.9163470289400106,0.7452329097808277,A,807.7840999994805,Correct
15,15,281,A,58.810904137188714,71.35727993687308,2.9405452068594355,1.120877532149154,A,981.8617999990238,Correct
15,15,282,B,89.8948477753786,67.32808449386454,4.4947423887689295,1.0575870781309884,B,1142.4468000004708,Correct
15,15,283,A,53.133303425131196,78.66311980980147,2.6566651712565594,1.2356373965146301,A,834.6024000002217,Correct
15,15,284,B,35.5461031227643,23.913372387047218,1.777305156138215,0.37563037506852276,B,600.1247000003787,Correct
15,15,285,B,54.36746021951845,46.30791012288702,2.718373010975922,0.7274029512257916,B,540.305200000148,Correct
15,15,286,A,35.639374605585374,66.3059097362414,1.7819687302792686,1.0415307945848196,A,844.875900000261,Correct
15,15,287,B,62.47589073281582,54.873379935570554,3.123794536640791,0.8619490364161501,B,657.295900000463,Correct
15,15,288,A,49.19439809300351,72.74851116241474,2.4597199046501754,1.1427309411371862,A,824.1958999988128,Correct
15,15,289,A,40.14159623259323,71.07464763967965,2.0070798116296613,1.1164379544065035,A,813.1607000013901,Correct
15,15,290,B,49.773570181343,32.057326107660174,2.48867850906715,0.5035553009677874,B,657.0480999998836,Correct
15,15,291,A,20.46559293918295,45.084609192765434,1.0232796469591476,0.7081873851497937,A,493.78149999938614,Correct
15,15,292,A,28.657214383671796,57.20463831300113,1.4328607191835898,0.8985683573769278,A,819.8570000004111,Correct
15,15,293,A,38.975708009853264,69.79952388374262,1.9487854004926632,1.0964083572861558,A,848.281999999017,Correct
15,15,294,B,46.15751805859588,18.508166440557797,2.307875902929794,0.2907255986053676,B,730.257299999721,Correct
15,15,295,A,41.64184766013868,57.34478723989845,2.082092383006934,0.9007698115726736,A,857.4212999992596,Correct
15,15,296,A,47.38942017850544,74.16418196152125,2.369471008925272,1.1649682460490591,A,461.02830000018,Correct
15,15,297,B,39.10921781254244,14.674692272586778,1.955460890627122,0.23050952718624768,B,690.8147000012832,Correct
15,15,298,A,40.90028087961545,54.08556882410093,2.0450140439807725,0.8495741284151032,A,815.8406000002287,Correct
15,15,299,B,80.90519645731494,53.66298818074309,4.045259822865748,0.842936247191492,B,690.5659999993077,Correct
15,15,300,A,52.11206721473289,78.29426614006967,2.605603360736644,1.2298434566192347,A,525.9242000011,Correct
15,15,301,A,47.682036767084824,57.68485359761143,2.384101838354241,0.906111561428294,A,617.5373999994918,Correct
15,15,302,A,42.62118350553029,49.36911665545663,2.1310591752765147,0.7754882709950004,A,618.0724999994709,Correct
15,15,303,B,64.97585209939426,47.130392151063525,3.2487926049697133,0.740322468712936,A,354.4004000013956,Incorrect
15,15,304,A,28.47196094773386,48.203876179436314,1.423598047386693,0.7571847163993458,A,445.17420000011043,Correct
15,15,305,B,58.689301538663095,48.16895440401093,2.934465076933155,0.7566361664337122,B,3934.026500000982,Correct
15,15,306,B,30.638061162340236,14.7416027354341,1.5319030581170119,0.2315605542788948,B,2837.4965000002703,Correct
15,15,307,A,49.74884891944235,59.39029981059455,2.4874424459721176,0.9329006478972955,A,2143.1270000011864,Correct
15,15,308,B,43.98643378947804,25.351701134922877,2.1993216894739023,0.3982235902073886,B,772.6872000002913,Correct
15,15,309,A,36.07285504346077,54.320274642012166,1.8036427521730385,0.8532608787816268,A,2083.875199999966,Correct
15,15,310,B,39.651651108544016,19.729209560960626,1.9825825554272007,0.3099056990892371,B,771.0951999997633,Correct
15,15,311,A,32.11718908053078,46.04796329753069,1.605859454026539,0.7233197160414743,A,1579.3611999997665,Correct
15,15,312,A,55.854727998191365,84.86928922140581,2.7927363999095682,1.3331236776667796,A,727.7991000009933,Correct
15,15,313,A,48.00383291053603,65.34788321088175,2.4001916455268018,1.0264821491147496,A,453.35850000083155,Correct
15,15,314,A,24.927232227467613,37.47787945991203,1.2463616113733806,0.5887011539169171,B,480.374099999608,Incorrect
15,15,315,B,76.22523996152421,48.8632696714691,3.8112619980762106,0.7675424451513213,B,597.3900000008143,Correct
15,15,316,B,72.84124040105529,54.89640301862852,3.6420620200527645,0.8623106821591395,B,698.9026000010199,Correct
15,15,317,B,60.40249667826762,29.164988822513273,3.020124833913381,0.4581225731341807,B,717.4163999989105,Correct
15,15,318,A,38.54255735363461,50.75643415163355,1.9271278676817305,0.7972802032659301,A,1278.5452999996778,Correct
15,15,319,B,51.15941421617859,24.556711704218344,2.5579707108089296,0.38573592543147417,B,775.9318999997049,Correct
15,15,320,B,31.07453335994475,17.24612131767189,1.5537266679972372,0.27090144017258166,B,743.1329999999434,Correct
15,15,321,B,34.713356017652906,18.328405636972377,1.7356678008826452,0.28790192250563085,B,650.1883999990241,Correct
15,15,322,B,82.2878769023155,68.508585707352,4.114393845115774,1.0761303478302187,B,711.442600000737,Correct
15,15,323,B,42.785324330098,33.60529894364363,2.1392662165049,0.5278708014151984,B,910.3599999998551,Correct
15,15,324,A,36.44276608816896,55.899852828907655,1.8221383044084478,0.8780728349202344,A,1652.9719000009209,Correct
15,15,325,B,34.39427264099807,10.69535486087603,1.7197136320499034,0.1680022412923201,B,714.5357999997941,Correct
15,15,326,B,40.939673931638076,30.753532118671465,2.0469836965819037,0.48307535287978015,B,841.7103000010684,Correct
15,15,327,A,52.41399885553886,80.05432712255228,2.620699942776943,1.2574904298814218,A,762.5642000002699,Correct
15,15,328,A,24.952901303764726,36.300372881518086,1.2476450651882363,0.5702049238357368,A,622.9609999991226,Correct
15,15,329,A,64.99533640440627,79.37078969270951,3.2497668202203136,1.2467534490411831,A,1371.7073000007076,Correct
15,15,330,A,50.082380589223554,71.83844435654639,2.5041190294611777,1.1284356451792266,A,1059.710700001233,Correct
15,15,331,A,60.977851479160215,72.9384139495505,3.0488925739580104,1.1457139271419956,A,929.2705000007118,Correct
15,15,332,A,22.09777440074202,41.79630756087209,1.104888720037101,0.6565348639020764,A,545.5603999998857,Correct
15,15,333,A,34.58784976175399,67.39157718416978,1.7293924880876999,1.0585844189780864,A,570.6891000008909,Correct
15,15,334,B,48.79005010812597,34.6169712893617,2.439502505406298,0.5437621134609375,A,3279.9395000001823,Incorrect
15,15,335,B,83.12543068120796,55.0889886450448,4.156271534060398,0.8653358101048214,B,676.6351999995095,Correct
15,15,336,A,62.436976145598564,76.40047479938352,3.121848807279928,1.2000958518025766,A,999.7320999991643,Correct
15,15,337,B,37.81984179679397,17.99106965630601,1.8909920898396988,0.28260306131236607,B,1771.573799998805,Correct
15,15,338,A,66.23447715390017,84.34803918665733,3.3117238576950085,1.3249359012675332,A,1935.7420000014827,Correct
15,15,339,B,77.1938104162576,47.54180163451525,3.8596905208128804,0.7467848737670817,B,622.1184000005451,Correct
15,15,340,B,61.498348028786836,33.03769542651455,3.074917401439342,0.5189549062173762,B,566.3922999992792,Correct
15,15,341,A,40.85881476042644,67.61591946613947,2.042940738021322,1.0621083793027142,A,661.2986999989516,Correct
15,15,342,A,38.9834816820328,53.71006310667512,1.94917408410164,0.8436756983988738,A,886.4457999989099,Correct
15,15,343,A,18.65581667899762,47.96416934637341,0.932790833949881,0.7534194102705173,A,539.9707000015042,Correct
15,15,344,B,48.21720182604198,26.98060568939145,2.410860091302099,0.42381036311597575,A,795.431100001224,Incorrect
15,15,345,A,21.76089432477861,43.70850402621018,1.0880447162389304,0.6865715757407089,A,825.8057000002736,Correct
15,15,346,A,34.79040158646447,60.61204756916386,1.7395200793232235,0.9520918168116014,A,575.0635000003967,Correct
15,15,347,B,73.17837947790362,56.00527986227465,3.658918973895181,0.8797288788878121,B,560.1805999995122,Correct
15,15,348,A,49.98930945240285,56.860829664267726,2.4994654726201424,0.8931678237514203,B,790.2446999996755,Incorrect
15,15,349,B,82.6316744702329,52.8750559924479,4.131583723511644,0.8305594373201165,B,568.2149000003847,Correct
15,15,350,A,43.20919202704751,54.17999235113381,2.1604596013523754,0.8510573297093658,A,1430.5824999992183,Correct
15,15,351,B,52.039914189120815,37.34543184416527,2.6019957094560406,0.5866206716338397,B,3060.6575000001612,Correct
15,15,352,B,64.59050157046512,48.439342201220796,3.229525078523256,0.7608834080203865,B,781.5223000015976,Correct
15,15,353,B,71.55834452029431,44.938209358207615,3.5779172260147156,0.7058877419261258,B,690.7539999992878,Correct
15,15,354,A,27.720896033201484,42.4336706096697,1.3860448016600742,0.6665465392609372,A,839.4926000000851,Correct
15,15,355,A,25.573036071496347,53.86713628064938,1.2786518035748173,0.8461429980460417,A,823.7883000001602,Correct
15,15,356,A,37.29282952429634,48.69159415092517,1.864641476214817,0.7648457723806114,A,666.7854999996052,Correct
15,15,357,A,11.692477053126705,33.96087573558823,0.5846238526563353,0.5334561886019992,A,624.6343000002526,Correct
15,15,358,A,57.64235773954639,74.76736771265793,2.8821178869773196,1.1744430656716642,A,656.0934999997698,Correct
15,15,359,A,30.31086329636921,47.98938776244567,1.5155431648184605,0.7538155402238563,A,508.24699999975564,Correct
15,15,360,A,53.46365005496784,80.83571009858208,2.673182502748392,1.2697643649670987,A,659.7454000002472,Correct
15,15,361,A,23.708441283527932,55.51833329873028,1.1854220641763966,0.8720799401542032,A,541.117500000837,Correct
15,15,362,B,84.1414386479241,62.42181368712658,4.207071932396206,0.9805195565161384,B,1626.9388000000617,Correct
15,15,363,B,80.96312007579573,56.75638920637661,4.048156003789786,0.891527276875179,B,1043.21390000041,Correct
15,15,364,B,76.69777883023255,60.8692715633842,3.8348889415116276,0.9561322818644495,B,850.1018999995722,Correct
15,15,365,A,23.736228561203315,53.25619470736552,1.1868114280601658,0.8365463502540359,A,689.6046999991086,Correct
15,15,366,A,40.13920761482542,63.13960806274219,2.006960380741271,0.9917946442022488,A,687.6928000001499,Correct
15,15,367,A,48.45566317245322,62.41533932340083,2.422783158622661,0.9804178574485509,A,853.4844999994675,Correct
15,15,368,A,38.8796621278097,50.13757139235372,1.943983106390485,0.7875591297752611,A,633.6446999994223,Correct
15,15,369,A,39.2273881050359,48.364595347082094,1.9613694052517952,0.759709287181181,A,454.3625999995129,Correct
15,15,370,A,29.58233169811052,50.61189842730487,1.4791165849055259,0.7950098414172689,A,547.6404000000912,Correct
15,15,371,A,42.16003439459516,69.60814232927812,2.108001719729758,1.0934021428584644,A,720.589700000346,Correct
15,15,372,B,82.14302958783117,52.345330213386404,4.1071514793915584,0.822238524240533,B,661.8339000015112,Correct
15,15,373,B,61.46874841223607,44.399152276332174,3.073437420611804,0.6974202530846983,B,1433.9947999997094,Correct
15,15,374,B,74.57358507664063,63.08235375291733,3.728679253832031,0.990895295606588,B,1313.2184999994934,Correct
15,15,375,A,27.800480356901687,49.80688894752028,1.3900240178450844,0.7823647820784619,A,591.2766000001284,Correct
15,15,376,A,51.78595305326856,78.24617794767761,2.5892976526634275,1.2290880890595182,B,595.165899998392,Incorrect
15,15,377,B,58.711537056773025,47.768506063198046,2.935576852838651,0.7503459386055124,B,1093.668700001217,Correct
15,15,378,A,26.39575710150081,49.39703174138455,1.3197878550750406,0.7759267601393777,A,769.544799999494,Correct
15,15,379,A,12.486193509389445,33.514567778759016,0.6243096754694722,0.5264455996099325,A,844.3260000003647,Correct
15,15,380,A,41.696987524846,58.366039396031574,2.0848493762423,0.9168116029285261,B,1227.515600001425,Incorrect
15,15,381,A,25.713758305636663,58.089319499648624,1.285687915281833,0.9124648969606324,A,1176.2084000001778,Correct
15,15,382,B,64.54513990958881,45.31941165184566,3.2272569954794403,0.7118756535522499,A,2486.0250000001543,Incorrect
15,15,383,A,55.370839715250455,79.71707222814781,2.7685419857625226,1.2521928423881803,A,1467.5672000012128,Correct
15,15,384,B,84.53944835100272,69.37030026275814,4.226972417550136,1.0896661284139952,B,634.7645000005286,Correct
15,15,385,B,34.92403811341731,17.944883842518866,1.7462019056708655,0.28187757624589727,B,704.5779000000039,Correct
15,15,386,B,76.19294291212498,65.05192569578567,3.809647145606249,1.0218332593387467,B,1299.0917000006448,Correct
15,15,387,A,19.881181036646502,50.79017325116215,0.994059051832325,0.7978101758020192,A,565.8727999998518,Correct
15,15,388,B,59.03736647922301,44.02132517452858,2.9518683239611505,0.691485358847932,B,616.0804999999527,Correct
15,15,389,A,47.54338637399843,79.11716449658161,2.3771693186999214,1.24276951377658,B,775.0142999993841,Incorrect
15,15,390,B,37.59820560770487,26.647006164106855,1.8799102803852434,0.41857019402660006,B,1728.9244000003237,Correct
15,15,391,A,44.79240932557628,73.44233168251495,2.2396204662788137,1.1536294483814693,A,815.0539000016579,Correct
15,15,392,B,65.0809910875922,52.68429906681767,3.25404955437961,0.8275630345392099,B,3892.2817000002397,Correct
15,15,393,B,56.354236720845435,24.32504270671791,2.817711836042272,0.3820968773284148,B,2025.0035999997635,Correct
15,15,394,B,64.63304073895466,42.05236981142132,3.2316520369477333,0.6605570803280121,B,894.8138000014296,Correct
15,15,395,A,59.23608388683224,86.44331475918361,2.961804194341612,1.3578484129970068,A,1201.3375999995333,Correct
15,15,396,A,28.63458065986107,39.90863524987486,1.4317290329930534,0.6268833765790076,A,719.9731000000611,Correct
15,15,397,A,66.20181213293014,83.6853457586457,3.3100906066465074,1.3145263372424154,A,1703.4150999988924,Correct
15,15,398,A,22.783458295348645,54.99984764846895,1.1391729147674323,0.8639355866049396,A,917.5108999988879,Correct
15,15,399,A,22.611167333532407,35.54950255657037,1.1305583666766204,0.5584102803524651,A,1520.0555000010354,Correct
15,15,400,A,63.36532149072626,85.05906261136842,3.168266074536313,1.3361046311055464,B,748.1747000001633,Incorrect
15,15,401,B,61.10233555876431,28.471979588867907,3.0551167779382156,0.44723680954772976,B,795.356399999946,Correct
15,15,402,A,41.66767442587444,53.24814805843714,2.083383721293722,0.8364199537882385,A,3818.276699999842,Correct
15,15,403,B,59.83645001589617,49.70530501758505,2.9918225007948087,0.7807691054384251,B,3371.177999999418,Correct
15,15,404,B,75.8221417936617,50.20749834230274,3.7911070896830847,0.7886575397365001,B,458.0739999983052,Correct
15,15,405,A,25.4698789889,39.32287039338965,1.2734939494450002,0.6176822037296824,A,889.2478999987361,Correct
15,15,406,A,50.855604912586514,65.24512489531357,2.5427802456293254,1.0248680252683282,A,1491.2301000003936,Correct
15,15,407,A,21.83969777466738,36.583962604761936,1.0919848887333687,0.5746595407916191,A,736.4833000010549,Correct
15,15,408,B,55.21650110384984,31.47683237901871,2.760825055192492,0.49443692680101253,A,615.9294000008231,Incorrect
15,15,409,B,49.35905721370979,29.084443988069292,2.4679528606854895,0.4568573778333116,B,1859.8330999993777,Correct
15,15,410,A,12.161485574244825,37.70476031156896,0.6080742787122412,0.5922649900009452,A,1566.3251999994827,Correct
15,15,411,A,11.290980060198574,30.938960130340835,0.5645490030099287,0.4859880492759314,A,680.2568000002793,Correct
15,15,412,B,46.23781402261113,25.566768316911016,2.3118907011305567,0.40160185760219963,B,1202.2330999989208,Correct
15,15,413,B,43.721547472737356,25.9927331771449,2.186077373636868,0.4082928979801905,B,672.012299999551,Correct
15,15,414,A,34.70613271294565,62.11716077576219,1.7353066356472826,0.9757340797749527,A,694.6869000003062,Correct
15,15,415,B,63.98105651133497,46.06741352022206,3.1990528255667483,0.7236252394250636,B,685.0065000016912,Correct
15,15,416,B,71.38833303290343,51.79307859321635,3.569416651645172,0.8135637760762364,B,560.9229000001505,Correct
15,15,417,B,77.49704290322862,63.37683419926614,3.8748521451614306,0.9955209836409643,B,768.9202999990812,Correct
15,15,418,A,50.457521738950234,70.77627669064148,2.5228760869475115,1.111751154498789,A,736.6526000005251,Correct
15,15,419,A,66.2330283177622,86.47818814723986,3.31165141588811,1.3583962028956234,A,981.9298000002163,Correct
15,15,420,A,46.04054769382619,64.24744489282,2.3020273846913097,1.0091965044359918,A,704.9927999996726,Correct
15,15,421,B,48.48423062407974,20.698010423000657,2.424211531203987,0.3251235874441192,B,909.9724999996397,Correct
15,15,422,B,48.68767446710727,18.41820619567071,2.4343837233553636,0.28931250638310557,B,937.2759999987466,Correct
15,15,423,B,64.38453788489116,41.302485417871715,3.2192268942445583,0.6487779238189267,B,676.3373000012507,Correct
15,15,424,A,41.248079125442146,51.09135803735176,2.062403956272107,0.8025411753603505,A,670.0246999989758,Correct
15,15,425,B,65.25495349719391,36.89439529742834,3.2627476748596957,0.5795358061251934,B,878.2897000000958,Correct
15,15,426,A,28.440102300052065,57.49969676496777,1.4220051150026032,0.9032031247023178,A,721.3182000014058,Correct
15,15,427,B,84.19720785969702,67.67694824023333,4.209860392984851,1.0630670170444685,B,631.1949000009918,Correct
15,15,428,B,57.852408004038104,34.06405221862508,2.892620400201905,0.5350768810076582,B,583.471300000383,Correct
15,15,429,A,60.31480394666436,82.66844442629657,3.015740197333218,1.2985528884667472,A,571.3381000005029,Correct
15,15,430,A,54.67943312621716,68.90950542967647,2.7339716563108585,1.082427980101888,B,965.8430999988923,Incorrect
15,15,431,A,26.924351031872447,47.19952612812477,1.3462175515936223,0.7414084226851815,A,1014.1270999993139,Correct
15,15,432,B,61.37311696977988,49.27704252362941,3.068655848488994,0.7740419739143299,B,4175.828600000386,Correct
15,15,433,A,21.997375946763935,47.43148344979972,1.0998687973381969,0.7450519997737833,A,596.79579999829,Correct
15,15,434,A,39.66406168746218,71.25822990144823,1.983203084373109,1.1193216578310115,A,496.95949999841105,Correct
15,15,435,B,77.4662193683304,46.967185652075166,3.87331096841652,0.7377588270217363,B,598.4489000002213,Correct
15,15,436,A,22.91930435096756,37.67428571567531,1.145965217548378,0.5917862961680422,A,574.2107999994914,Correct
15,15,437,A,26.941824918394822,45.135021278977526,1.347091245919741,0.708979256348274,A,660.0266000004922,Correct
15,15,438,A,46.555995968608336,56.156587534927326,2.3277997984304166,0.8821056142519993,A,501.42939999932423,Correct
15,15,439,B,82.25472570043758,61.71584721519156,4.112736285021879,0.9694302611065796,B,974.524699999165,Correct
15,15,440,A,57.63925222333533,80.32132382313098,2.8819626111667667,1.2616844042467756,A,739.2568000013853,Correct
15,15,441,A,63.958320320863265,89.0250179183477,3.1979160160431634,1.3984017113899043,A,662.311400001272,Correct
15,15,442,B,63.46974517555912,41.6062004045987,3.1734872587779557,0.6535486676743598,B,978.7565000005998,Correct
15,15,443,B,55.51356073836465,38.900384857906076,2.7756780369182326,0.6110458164570668,B,588.7343999984296,Correct
15,15,444,A,42.97613770406976,69.49715736874106,2.148806885203488,1.0916587951750534,A,594.8046000012255,Correct
15,15,445,B,39.70101426740966,12.247900051469177,1.985050713370483,0.19238956411798808,B,634.2309999999998,Correct
15,15,446,A,66.66669395535828,88.31740673490835,3.333334697767914,1.3872865809124488,A,753.6918000005244,Correct
15,15,447,A,57.38040817349398,65.00108623043758,2.869020408674699,1.0210346748844967,A,602.0275999999285,Correct
15,15,448,B,87.43636642914339,62.81982471611673,4.3718183214571695,0.9867714991397543,B,595.3943999993498,Correct
15,15,449,B,56.22260172146814,47.080255008710026,2.811130086073407,0.7395349163224874,B,743.5731999994459,Correct
15,15,450,B,63.80470310528422,54.62469353124945,3.1902351552642108,0.8580426795118358,B,816.4000000015221,Correct
15,15,451,A,16.59582569938082,41.676981811054446,0.8297912849690411,0.6546604994070204,A,635.6904999993276,Correct
15,15,452,B,77.67781568837422,58.13686175229607,3.883890784418711,0.9132116889188939,B,797.08170000049,Correct
15,15,453,A,61.97315588415411,88.03791757162611,3.098657794207705,1.3828963754018218,A,758.2480999990366,Correct
15,15,454,B,57.95789128515903,35.41204061799296,2.8978945642579514,0.5562510332705501,B,723.7504999993689,Correct
15,15,455,B,33.5380303838623,13.874651980245346,1.676901519193115,0.21794252366126926,B,654.8460999983945,Correct
15,15,456,A,29.495979919168516,43.736037840732294,1.4747989959584258,0.6870040758878488,A,765.1936000002024,Correct
15,15,457,B,39.27251945421426,24.512420690207595,1.963625972710713,0.3850402038102932,B,1126.3246999988041,Correct
15,15,458,B,63.53131946912981,42.52565365088724,3.1765659734564906,0.6679914054936565,B,1399.16649999941,Correct
15,15,459,B,61.95016649195796,46.230830510910515,3.097508324597898,0.7261921875121566,B,903.1701000003522,Correct
15,15,460,A,55.47615406915151,68.03096377867163,2.773807703457576,1.0686278801185407,B,624.8156000001472,Incorrect
15,15,461,A,44.20529967201038,55.478929549835364,2.210264983600519,0.8714609875139424,B,600.0277000002825,Incorrect
15,15,462,B,87.54857876169866,60.904497169574924,4.377428938084933,0.9566856043925847,B,629.305899999963,Correct
15,15,463,B,71.30507360728343,47.80430881075404,3.5652536803641715,0.7509083268490137,B,1499.9310999992304,Correct
15,15,464,B,68.1939016116124,51.37093582328418,3.4096950805806205,0.8069327729523116,B,1968.1056999997963,Correct
15,15,465,A,59.14778796149083,74.39452629411045,2.9573893980745414,1.1685864863643505,B,1154.0266000010888,Incorrect
15,15,466,B,37.77715663777394,16.076895730104056,1.888857831888697,0.25253528759112004,B,824.408599999515,Correct
15,15,467,A,63.16365974612297,73.67081036982935,3.1581829873061484,1.157218383209313,B,794.6477999994386,Incorrect
15,15,468,A,67.07999236190679,86.64598428865975,3.3539996180953393,1.3610319385215506,B,1312.150499999916,Incorrect
15,15,469,B,61.75038398239098,39.90057546767912,3.0875191991195488,0.6267567738163291,B,1037.4240999990434,Correct
15,15,470,A,36.486767735623275,59.088662430582495,1.8243383867811638,0.9281625390118259,A,1879.6547000001738,Correct
15,15,471,B,88.88568707837385,62.77724785906522,4.444284353918692,0.9861027034331243,B,1534.0312000007543,Correct
15,15,472,A,69.00647095595559,85.3885716484179,3.4503235477977796,1.3412805469559768,A,1453.2025999997131,Correct
15,15,473,A,53.148867483469836,72.17184769776236,2.657443374173492,1.1336727326164582,A,1654.6099999995931,Correct
15,15,474,B,56.014542107100596,28.939520443628624,2.80072710535503,0.4545809241205766,B,1345.1585999991948,Correct
15,15,475,A,30.853651470707725,54.18464506096349,1.5426825735353862,0.8511304143044669,A,817.1485000002576,Correct
15,15,476,A,46.705134782922975,70.29670354373005,2.335256739146149,1.1042180371228094,B,805.3077999993548,Incorrect
15,15,477,B,30.999983319472424,13.677533825430277,1.5499991659736212,0.2148461989259883,B,739.3677000000025,Correct
15,15,478,A,44.69295763341668,57.97908537956102,2.234647881670834,0.9107333434514215,A,1525.5947999994532,Correct
15,15,479,A,21.26131187245103,39.034690416418194,1.0630655936225515,0.6131554832368564,A,781.0804000000644,Correct
15,15,480,A,14.053520220052878,35.110058369710785,0.7026760110026439,0.5515075072069612,A,657.8265000007377,Correct
15,15,481,B,33.24971932185397,15.115300872460896,1.6624859660926987,0.2374305908886127,B,632.4296000002505,Correct
15,15,482,B,50.62691945212447,28.427388597907346,2.5313459726062235,0.4465363758996398,B,974.8003999993671,Correct
15,15,483,A,49.80063303093096,74.74763489171166,2.490031651546548,1.174133103245067,A,1102.2446999995736,Correct
15,15,484,A,46.104993909998306,58.9167196874461,2.3052496954999153,0.925461668718449,B,847.6463000006333,Incorrect
15,15,485,B,52.677292447939955,33.18686211254788,2.6338646223969975,0.5212980110423893,B,682.9794999994192,Correct
15,15,486,A,67.67832862755013,83.6168926584781,3.3839164313775063,1.3134510784594053,B,407.43019999899843,Incorrect
15,15,487,A,27.779697059019156,39.845853536938016,1.3889848529509579,0.6258972037382967,A,705.9086999997817,Correct
15,15,488,A,63.99526591287689,83.79083149083839,3.1997632956438444,1.3161833032489907,A,1046.5954999999667,Correct
15,15,489,A,50.672277510188664,64.11473449652637,2.5336138755094333,1.0071118944057367,B,2744.2507000014302,Incorrect
15,15,490,B,56.565514487287324,24.95847662515073,2.8282757243643664,0.39204683405183055,B,607.7513999989606,Correct
15,15,491,B,50.393979620514,23.743967752287976,2.5196989810257002,0.3729693732883043,B,696.002500000759,Correct
15,15,492,B,77.99739086346824,47.41620228407734,3.899869543173412,0.7448119637839248,B,656.3292000009824,Correct
15,15,493,A,28.963602105547093,55.46178827387137,1.4481801052773546,0.8711917329807342,A,840.6190999994578,Correct
15,15,494,A,33.94948103476193,60.44062204809001,1.6974740517380966,0.9493990710233844,A,1404.5035999988613,Correct
15,15,495,A,34.76998529487709,53.73508294391735,1.7384992647438542,0.8440687090832445,A,633.222399999795,Correct
15,15,496,B,73.85103272168222,56.726507338556125,3.6925516360841106,0.8910578935930771,B,656.1481000007916,Correct
15,15,497,A,25.14120786577788,36.031733536045394,1.257060393288894,0.565985146864726,A,708.0191000004561,Correct
15,15,498,B,63.57100595232609,50.82493829450845,3.178550297616305,0.7983562638259116,B,857.8141999987565,Correct
15,15,499,B,79.51096758382813,51.08678863326783,3.9755483791914066,0.8024693993288439,B,628.8702000001649,Correct
15,15,500,B,68.05120379717611,54.581861811075704,3.402560189858806,0.8573698804246437,B,4023.929200000566,Correct
15,15,501,B,58.19357644448996,33.244793988510125,2.9096788222244983,0.5222080028220476,B,705.0435999990441,Correct
15,15,502,A,62.73973474986381,86.05234046758976,3.1369867374931903,1.3517070031859382,A,794.1895000003569,Correct
15,15,503,B,59.2545801555798,33.33380414965221,2.96272900777899,0.5236061711637418,B,2614.066599999205,Correct
15,15,504,B,38.933682932018954,25.861402582852268,1.9466841466009475,0.4062299618290839,B,1197.829200000342,Correct
15,15,505,A,23.13376903763256,40.7820934695936,1.156688451881628,0.6406036262104375,A,2497.6824000004854,Correct
15,15,506,A,64.64998978082195,75.20663054806877,3.2324994890410976,1.181342990155273,B,601.4584000004106,Incorrect
15,15,507,B,46.31979366946019,30.544166974022453,2.3159896834730094,0.4797866528780446,B,659.9154000014096,Correct
15,15,508,A,61.64395660799987,86.65906912132449,3.0821978303999935,1.3612374745924154,A,715.3942000004463,Correct
15,15,509,B,52.70050015138363,30.643033408265893,2.6350250075691815,0.4813396431955737,B,552.6813000014954,Correct
15,15,510,A,64.0593102640712,81.6024446377809,3.20296551320356,1.2818082029451017,A,687.5820999994176,Correct
15,15,511,A,48.98276894354741,78.04518353495484,2.4491384471773703,1.2259308762074062,A,666.3666000004014,Correct
15,15,512,A,67.18998171809852,80.34636156436123,3.3594990859049263,1.262077696166333,A,888.73969999986,Correct
15,15,513,A,50.978982683388196,75.23342713607322,2.54894913416941,1.181763909975353,A,624.1761000001134,Correct
15,15,514,B,77.77569734394612,50.23175708391829,3.888784867197306,0.7890385951587238,B,806.559799999377,Correct
15,15,515,B,61.27268311189978,46.699079034583,3.063634155594989,0.7335474181222755,B,872.7724999989732,Correct
15,15,516,B,59.90106371798219,40.94559668413366,2.9950531858991094,0.6431719286986245,B,660.095100000035,Correct
15,15,517,B,41.785106261341596,23.278243777645407,2.0892553130670795,0.36565379820161564,A,672.5253000004159,Incorrect
15,15,518,B,59.25169761365302,31.168602341260165,2.9625848806826514,0.4895952606898228,B,633.9184000007663,Correct
15,15,519,A,15.102549266737924,31.913298700559935,0.7551274633368962,0.5012929237474789,A,574.0296000003582,Correct
15,15,520,A,66.09784223088867,83.12611979279163,3.3048921115444334,1.3057420363122962,B,556.988000000274,Incorrect
15,15,521,B,67.74550118860775,52.00578281228954,3.3872750594303875,0.8169049261363757,B,535.7708000010462,Correct
15,15,522,A,31.310310224843448,57.82787739945213,1.5655155112421724,0.9083581740540502,A,536.3188000010268,Correct
15,15,523,A,63.344030951137384,88.0583078071418,3.167201547556869,1.3832166644723272,A,730.2708000006533,Correct
15,15,524,B,69.63281457162269,38.71781049038462,3.4816407285811346,0.6081779449983707,B,528.0973999997514,Correct
15,15,525,B,75.35284976315685,58.80074371992129,3.767642488157843,0.9236399224806046,A,1535.2744000010716,Incorrect
15,15,526,A,35.77986526358074,51.2987291906331,1.788993263179037,0.8057985538189261,A,1314.3258999989484,Correct
15,15,527,B,66.46059963163599,55.04745173379277,3.3230299815817994,0.8646833498286104,B,471.6254000013578,Correct
15,15,528,A,48.87764341001284,62.76449775765125,2.443882170500642,0.985902425308451,A,789.4231999998738,Correct
15,15,529,B,42.77867459123454,14.337155534597919,2.138933729561727,0.22520751250433532,B,878.2620999991195,Correct
15,15,530,B,71.12154985078618,41.44666078514746,3.5560774925393095,0.6510426251922371,B,848.4759000002668,Correct
15,15,531,B,35.88771947574949,11.314871995526214,1.7943859737874746,0.17773359368727018,B,748.3666000007361,Correct
15,15,532,B,33.43572142518342,18.921241859623425,1.671786071259171,0.29721417211494316,B,558.299000000261,Correct
15,15,533,B,80.12425933983857,55.93066078222937,4.006212966991928,0.8785567651193728,B,561.0737000006338,Correct
15,15,534,B,75.70579373053687,53.42684001875967,3.7852896865268435,0.8392268405372627,B,679.1661999995995,Correct
15,15,535,B,64.53354448396547,37.509060362573756,3.2266772241982733,0.589190942390589,B,415.98440000052506,Correct
15,15,536,B,56.663229598574844,33.890792167780475,2.833161479928742,0.5323553184931882,B,522.7711999996245,Correct
15,15,537,A,64.75198330736268,85.20092064521008,3.237599165368134,1.3383329318903945,B,330.5220999991434,Incorrect
15,15,538,A,27.991599189919306,37.47575067362905,1.3995799594959653,0.5886677150201789,A,1078.4067999993567,Correct
15,15,539,B,54.76394388859012,36.47664548819899,2.738197194429506,0.572973807466626,B,1693.8695999997435,Correct
15,15,540,B,35.19918704413577,19.295328060731666,1.7599593522067887,0.3030903044209979,B,1102.1762999989733,Correct
15,15,541,A,56.2330815399266,72.07973213855833,2.81165407699633,1.132225784796075,A,1245.6143999988853,Correct
15,15,542,A,25.47198710548065,53.32985137445375,1.2735993552740326,0.8377033464750974,A,599.5616000000155,Correct
15,15,543,B,36.07356652282454,19.06721642912413,1.803678326141227,0.2995071352907148,B,563.1905000009283,Correct
15,15,544,B,51.41711795591874,41.769850413947225,2.570855897795937,0.6561192760100059,B,595.4789999996137,Correct
15,15,545,B,65.23076911721184,47.140254800255846,3.2615384558605918,0.7404773908441737,B,455.0976999998966,Correct
15,15,546,B,42.877241839521524,23.849358696948315,2.1438620919760765,0.3746248503758033,B,947.4899000015284,Correct
15,15,547,A,41.05111516874373,55.5618963319637,2.0525557584371863,0.8727642266800743,A,698.1441999996605,Correct
15,15,548,A,41.58289170695096,61.35567477047189,2.079144585347548,0.9637726855747957,B,1030.839200000628,Incorrect
15,15,549,B,43.15930514355257,28.952049291429404,2.1579652571776284,0.45477772680162104,B,583.6936000014248,Correct
