subject,day,trial,cat,x,y,xt,yt,resp,rt,fb
5,105,0,B,58.524545285095286,27.210529887452225,2.9262272642547646,0.42742200397352703,A,701.1051999998017,Incorrect
5,105,1,B,41.33580130697213,25.993585071768628,2.0667900653486067,0.4083062795096481,B,1461.7075999999543,Correct
5,105,2,A,49.940965146413916,81.1645988658533,2.497048257320696,1.274930537642636,B,1052.3071999996318,Incorrect
5,105,3,A,61.49148036557876,88.43787499406582,3.074574018278938,1.3891788919022483,B,1373.1903000002603,Incorrect
5,105,4,A,42.38991450651938,74.10114609648355,2.119495725325969,1.1639780809964833,A,865.8966000002692,Correct
5,105,5,B,54.57250936977638,43.32551087599061,2.728625468488819,0.6805555334051839,B,1068.6524999996436,Correct
5,105,6,B,57.75865998243958,50.36638239809936,2.8879329991219786,0.7911532846488161,B,696.599200000037,Correct
5,105,7,B,47.92894495614424,40.87985238830814,2.3964472478072123,0.6421392197147201,B,626.2177000003248,Correct
5,105,8,B,48.54234821632461,20.774250161040477,2.427117410816231,0.3263211584488067,B,834.5240000003287,Correct
5,105,9,B,55.68457933306262,45.51851387593691,2.784228966653131,0.7150031439748422,B,563.6712000000443,Correct
5,105,10,A,30.643239573017716,43.85363755984628,1.532161978650886,0.6888513279560123,B,857.7527000002192,Incorrect
5,105,11,A,58.61681677015443,79.26679789970294,2.9308408385077214,1.245119949776468,A,874.0913999999975,Correct
5,105,12,B,83.82220163427306,57.21393020230849,4.191110081713653,0.8987143140328576,A,646.1917999999969,Incorrect
5,105,13,A,55.52580747891366,80.3422842708856,2.776290373945683,1.2620136501901849,B,632.6936000000387,Incorrect
5,105,14,A,40.293226885978825,68.30535680153253,2.014661344298941,1.072938035642621,B,1089.5453000002817,Incorrect
5,105,15,B,71.29688628511447,46.80899160920585,3.564844314255723,0.7352739208071366,B,728.4876999997323,Correct
5,105,16,A,38.136922026045944,45.40309120508196,1.906846101302297,0.7131900889007641,A,1174.2872999998326,Correct
5,105,17,B,63.261306709909256,37.10812553401645,3.1630653354954625,0.5828930728307695,B,1046.0041999999703,Correct
5,105,18,A,50.10319321110272,65.11031638969551,2.5051596605551363,1.0227504582138727,B,980.1188000001275,Incorrect
5,105,19,A,29.70184603011421,53.09116441166648,1.4850923015057105,0.8339540604310964,B,1853.1934999996338,Incorrect
5,105,20,A,55.72355195853483,79.35674760684437,2.7861775979267414,1.2465328764722083,B,556.1428999999407,Incorrect
5,105,21,B,79.20533994209846,67.31851048785339,3.9602669971049234,1.0574366899962382,B,960.0319000001036,Correct
5,105,22,B,43.761418176941646,33.55924586540215,2.188070908847082,0.5271474013538051,B,2056.8829999997433,Correct
5,105,23,B,71.52496647245358,39.01637349520004,3.576248323622679,0.61286776171118,B,922.0130000003337,Correct
5,105,24,A,61.722909115124146,84.06751221017717,3.0861454557562076,1.3205293938253142,A,691.121899999871,Correct
5,105,25,A,46.72733539864027,78.62112316542395,2.3363667699320136,1.234977714767371,A,728.6762000003364,Correct
5,105,26,B,43.42813507877055,24.649822365851715,2.1714067539385273,0.38719850428426555,B,1114.6300999998857,Correct
5,105,27,A,55.18951026335982,82.5014233017578,2.759475513167991,1.2959293267775205,A,793.5644999997749,Correct
5,105,28,B,52.499545056367275,42.21247082167311,2.624977252818364,0.6630719411162087,B,725.9617999998227,Correct
5,105,29,B,67.47427691519955,45.50313830793995,3.3737138457599776,0.7147616251175222,B,773.1638000000203,Correct
5,105,30,B,83.63505500203325,62.122955480087235,4.181752750101663,0.9758251027776392,B,662.0232999998734,Correct
5,105,31,B,59.39448363385703,33.022303166328896,2.9697241816928517,0.5187131251597691,B,874.9770999997963,Correct
5,105,32,B,59.76516593302772,43.29663242862099,2.988258296651386,0.6801019118146665,B,579.0082000003167,Correct
5,105,33,A,22.041356294521318,51.1018421782414,1.1020678147260659,0.8027058598603409,A,859.0355999999701,Correct
5,105,34,A,14.77556137788384,42.934878174531974,0.738778068894192,0.674419489279412,A,933.2570999999916,Correct
5,105,35,B,56.83932527630197,41.56946007307259,2.841966263815099,0.6529715518962954,B,973.8332000001719,Correct
5,105,36,B,45.993646474536305,30.81755859514921,2.2996823237268154,0.48408107842046877,B,502.386099999967,Correct
5,105,37,B,67.36652345551775,35.230647111843275,3.368326172775887,0.5534017107389065,B,694.9753999997483,Correct
5,105,38,B,71.62459936790125,59.486216990429355,3.581229968395063,0.9344073114349061,B,695.5315999998675,Correct
5,105,39,A,30.079031899292392,50.720603935158266,1.5039515949646196,0.7967173835416538,A,1035.9561999998732,Correct
5,105,40,A,63.065097002453086,82.67062347330139,3.153254850122654,1.2985871168570577,A,1145.2871000001323,Correct
5,105,41,A,52.73984217784279,82.43809131090217,2.636992108892139,1.294934510191474,A,788.5740000001533,Correct
5,105,42,B,64.2189059719709,34.434630709279745,3.210945298598545,0.5408979143267537,B,692.5741000000016,Correct
5,105,43,A,43.734240588362304,69.06712331171764,2.186712029418115,1.0849038360033623,B,690.9387000000606,Incorrect
5,105,44,A,37.21403682315211,54.89551360405263,1.8607018411576053,0.8622967112676515,A,753.0406000000767,Correct
5,105,45,A,36.408244867974744,62.04483772598686,1.8204122433987373,0.9745980319656558,A,696.7663999998877,Correct
5,105,46,B,66.27253381729295,44.63337947803886,3.3136266908646475,0.7010994853654616,B,1122.7039000000332,Correct
5,105,47,B,47.05538469821274,27.98568059924959,2.352769234910637,0.4395980428815645,B,626.7339999999422,Correct
5,105,48,A,47.926672718008604,58.31212175516478,2.3963336359004304,0.9159646666062963,B,924.9547999997958,Incorrect
5,105,49,A,39.35065459808,49.967711855541566,1.9675327299039997,0.7848909824103051,A,807.7441000000363,Correct
5,105,50,A,22.54687231884692,50.46984244210299,1.127343615942346,0.7927784312197256,A,656.5889999997125,Correct
5,105,51,A,40.436934417830976,55.105815492449985,2.0218467208915487,0.8656001256057775,B,1650.8383999998841,Incorrect
5,105,52,B,84.53622547753984,69.17443658297262,4.226811273876993,1.086589508926399,B,522.3019000000022,Correct
5,105,53,B,52.56568607674479,45.004005586914744,2.6282843038372397,0.7069212666698269,B,643.457699999999,Correct
5,105,54,A,38.24546620073924,61.06300786897517,1.9122733100369618,0.9591754846363407,B,1078.1953999999132,Incorrect
5,105,55,B,63.39679385115568,39.65603108157003,3.169839692557784,0.6229154795819445,B,1200.1477000003433,Correct
5,105,56,B,64.1190622344297,51.38691284392813,3.205953111721485,0.8071837394057181,B,702.5273999997808,Correct
5,105,57,A,21.225095598922096,38.39031357300607,1.0612547799461047,0.6030336354498219,A,643.7465000003613,Correct
5,105,58,A,26.841605912951543,53.53372646369613,1.342080295647577,0.8409058088881661,A,594.6510999997372,Correct
5,105,59,A,32.22145969696512,57.07463745322197,1.6110729848482561,0.896526308646715,A,644.6476000000985,Correct
5,105,60,A,21.17403552945434,44.42526412000855,1.0587017764727171,0.6978304169660254,A,606.8700000000717,Correct
5,105,61,B,42.6847749477971,31.142790866472087,2.134238747389855,0.4891898149919601,B,679.4482000000244,Correct
5,105,62,B,64.78314880876987,54.295989959631385,3.2391574404384933,0.8528794158828157,B,629.5331999999689,Correct
5,105,63,A,55.16641705785226,62.497123993792556,2.758320852892613,0.9817025280469455,B,578.2241000001704,Incorrect
5,105,64,B,54.51832364532357,44.46788038801728,2.725916182266179,0.6984998317385236,B,675.6006999999045,Correct
5,105,65,A,32.402386322760506,48.12888635796549,1.6201193161380252,0.7560067790382119,A,631.7595999998957,Correct
5,105,66,A,23.596617449939778,46.607108455789074,1.1798308724969888,0.7321027476488484,A,650.2783999999338,Correct
5,105,67,B,79.00789242925842,54.396631004283265,3.950394621462921,0.8544602817154553,B,706.5568999996685,Correct
5,105,68,B,74.93179388694448,53.42601596459082,3.746589694347224,0.8392138963246476,B,586.5765000003194,Correct
5,105,69,B,63.04003243724305,40.71406780426136,3.1520016218621527,0.639535081558121,B,546.5945000000829,Correct
5,105,70,B,86.97348049683964,63.15785314345762,4.348674024841983,0.9920812372599475,B,589.6271000001434,Correct
5,105,71,B,77.79051495031516,55.113037795458,3.8895257475157576,0.8657135732761372,B,609.8250000000007,Correct
5,105,72,B,39.72251561440969,29.034984270683395,1.9861257807204844,0.4560804664093707,B,595.2103999998144,Correct
5,105,73,A,50.132267421055474,79.93580752933735,2.5066133710527736,1.2556287284646697,A,625.0256000002992,Correct
5,105,74,A,56.17898089837003,77.26504383875368,2.808949044918501,1.2136764705156096,A,652.6178999997683,Correct
5,105,75,B,43.86455281128414,29.629641779255422,2.1932276405642073,0.4654213247110302,B,1113.5881999998674,Correct
5,105,76,B,40.290168000603686,21.467447468994454,2.0145084000301843,0.33720987629958893,B,999.1344000000026,Correct
5,105,77,A,27.88796790054875,51.096880430400134,1.3943983950274375,0.8026279209075057,B,695.6891999998334,Incorrect
5,105,78,B,70.96128318948742,60.761613012408255,3.5480641594743707,0.9544411853002387,B,548.6870999998246,Correct
5,105,79,B,34.307774938546736,20.637406121572084,1.7153887469273368,0.32417161730339944,B,880.8561000000736,Correct
5,105,80,B,38.25116747736006,21.823108840454843,1.9125583738680032,0.342796592058317,B,590.6878000000688,Correct
5,105,81,A,38.01504426117417,58.39361208949686,1.9007522130587085,0.9172447137846774,B,595.3702000001613,Incorrect
5,105,82,A,42.371411547241095,61.457336973392806,2.118570577362055,0.9653695917240162,B,559.5243000002483,Incorrect
5,105,83,B,74.98679350813764,62.199521525669866,3.7493396754068815,0.9770277994092231,B,607.55620000009,Correct
5,105,84,B,36.45081719846469,14.195767601734822,1.8225408599232344,0.22298659604839055,B,661.0854999998992,Correct
5,105,85,B,60.61692422473587,35.70353925339144,3.0308462112367933,0.5608298831280467,B,512.9546000002847,Correct
5,105,86,B,55.20323001031092,41.88439936532971,2.7601615005155455,0.6579186067307041,B,525.3819999998086,Correct
5,105,87,A,63.38356050140635,76.02563267918435,3.1691780250703174,1.1942078455472083,B,651.2225000001308,Incorrect
5,105,88,B,64.08273872311314,49.18963322392962,3.204136936155657,0.7726689518453685,B,729.857599999832,Correct
5,105,89,B,56.374847649746705,27.262857850241836,2.8187423824873354,0.42824396969091283,B,634.9830999997721,Correct
5,105,90,A,30.897429287197085,49.46567792677712,1.5448714643598545,0.777005051898009,A,707.8231000000414,Correct
5,105,91,B,87.40388537860265,66.16813287858504,4.370194268930132,1.03936660076558,B,585.3568000002269,Correct
5,105,92,A,44.85555569985442,75.5852385921915,2.242777784992721,1.1872901514053027,A,772.1342999998342,Correct
5,105,93,A,14.233297428425711,33.85961818009574,0.7116648714212856,0.5318656386397208,A,690.5163000001266,Correct
5,105,94,B,55.849908858798095,27.400336672498153,2.792495442939905,0.430403481981036,B,638.357900000301,Correct
5,105,95,B,61.40375503068139,52.64547914783745,3.0701877515340694,0.826953252677804,B,629.5353999998952,Correct
5,105,96,B,62.65892206197596,40.80472037101892,3.1329461030987975,0.640959048746894,B,588.4925000000294,Correct
5,105,97,B,51.430061908448025,22.931089917484215,2.571503095422401,0.36020071811787696,B,590.9547000001112,Correct
5,105,98,A,57.50768636277394,66.51882862435279,2.875384318138697,1.044875316658326,A,749.5662000001175,Correct
5,105,99,A,46.01255804249289,61.586733158808705,2.3006279021246443,0.9674021422515418,A,733.8910999997097,Correct
5,105,100,B,58.86485809045698,39.1257035068046,2.943242904522849,0.6145851135175487,B,506.0512000000017,Correct
5,105,101,A,42.6166030849167,69.8146594895038,2.1308301542458348,1.0966461068254905,A,959.3156000000818,Correct
5,105,102,A,46.634589511024934,58.564012242295156,2.3317294755512465,0.9199213531256859,B,1552.4295999998685,Incorrect
5,105,103,A,46.31039621597645,76.70871929148453,2.315519810798823,1.2049377449620473,A,658.6521999997785,Correct
5,105,104,A,28.775000614377362,53.15122991860824,1.4387500307188679,0.8348975672078083,A,815.3650999997808,Correct
5,105,105,A,50.71377151230297,71.25450449648586,2.5356885756151484,1.1192631393067045,A,912.8000999999131,Correct
5,105,106,A,26.79165042491658,44.10844049254559,1.3395825212458288,0.692853763063419,A,844.9300999996012,Correct
5,105,107,A,54.19858250340799,68.68620480140378,2.709929125170399,1.0789203820352702,B,1289.930600000389,Incorrect
5,105,108,A,43.63168613478479,60.303660476249355,2.1815843067392398,0.9472476836837909,A,831.1818000001949,Correct
5,105,109,A,28.275353183463352,59.146826193426875,1.4137676591731676,0.929076173262111,A,698.7967000000026,Correct
5,105,110,A,69.18339217778774,88.0276885416547,3.4591696088893866,1.382735698174764,A,948.1731000000764,Correct
5,105,111,A,48.855679612201826,66.14162176907043,2.4427839806100913,1.0389501652311322,A,984.5949000000473,Correct
5,105,112,B,36.57170215092498,12.949438015952268,1.828585107546249,0.20340929669516017,B,757.601500000419,Correct
5,105,113,A,34.03843312688162,63.64285606023674,1.7019216563440809,0.9996996452615619,A,641.9949999999517,Correct
5,105,114,B,61.299200933813765,39.83277572041235,3.0649600466906883,0.6256917778766867,B,633.7720999999874,Correct
5,105,115,B,75.91371271261058,54.64219999303167,3.7956856356305284,0.8583176703704628,B,1022.7520999997068,Correct
5,105,116,A,51.724157829304765,66.36551096452652,2.586207891465238,1.042467008489447,A,712.9260000001523,Correct
5,105,117,B,49.837506001232626,32.298468385448885,2.491875300061631,0.507343155009642,B,717.4219999997149,Correct
5,105,118,B,49.46707437162967,25.418103126073493,2.4733537185814836,0.39926663024530124,B,787.4873999999181,Correct
5,105,119,B,61.808092466829216,49.47374458001178,3.0904046233414606,0.7771317625907143,B,584.5039999999244,Correct
5,105,120,B,56.211576788050145,47.22561608365159,2.8105788394025075,0.741818242748259,B,606.5690000000359,Correct
5,105,121,B,61.39437589260787,42.50744793849515,3.0697187946303934,0.6677054308321347,B,565.7539999997425,Correct
5,105,122,A,64.66807209191265,74.94482864131656,3.2334036045956327,1.1772306154205303,A,615.9923999998682,Correct
5,105,123,A,20.606173293892866,44.15426124363563,1.0303086646946433,0.6935735137384511,A,849.1057999999612,Correct
5,105,124,B,73.30162305760349,41.08952818969786,3.6650811528801746,0.6454327995011275,B,732.7154999998129,Correct
5,105,125,B,68.87178525976859,40.7927089708249,3.443589262988429,0.6407703741138497,A,671.2194000001546,Incorrect
5,105,126,A,29.47695735343596,51.5975070272714,1.473847867671798,0.8104917451021179,A,746.0090999998101,Correct
5,105,127,B,78.74391717482814,57.66788447343018,3.937195858741407,0.9058450110489658,B,1030.6996000003892,Correct
5,105,128,B,66.68037565961127,52.232824405139745,3.334018782980564,0.8204712871371634,B,611.9688000003407,Correct
5,105,129,A,47.05244625643134,69.91976532294598,2.3526223128215666,1.0982971053964472,A,827.1291999999448,Correct
5,105,130,B,81.45923862952132,67.48302171299282,4.072961931476066,1.0600208262778936,A,702.2653999997601,Incorrect
5,105,131,A,46.65485774509632,57.040421569666165,2.332742887254816,0.89598884680464,A,780.2898999998433,Correct
5,105,132,A,44.749410804771266,57.32515604841972,2.2374705402385633,0.9004614455380194,B,1457.0141999997759,Incorrect
5,105,133,B,52.46948277598399,32.92435663193081,2.6234741387991996,0.517174584595221,B,683.4957000000941,Correct
5,105,134,A,59.41890194099376,81.42831984727279,2.970945097049688,1.2790730571317608,A,716.0627000002933,Correct
5,105,135,A,58.59828204435929,85.35831180118494,2.9299141022179644,1.3408052263871477,A,815.39070000008,Correct
5,105,136,A,57.2335338976046,85.7421359875599,2.8616766948802304,1.3468343226080761,A,811.288599999898,Correct
5,105,137,B,50.208997787714004,25.75024560598413,2.5104498893857,0.40448391211946294,A,938.7543000002552,Incorrect
5,105,138,A,16.47233785956477,40.81053370772452,0.8236168929782386,0.6410503644263298,A,675.8647000001474,Correct
5,105,139,B,74.95322407598418,52.88180575433892,3.747661203799209,0.8306654623319679,A,1419.8434999998426,Incorrect
5,105,140,A,24.25276375458438,49.24240087353685,1.212638187729219,0.773497824147135,A,579.6341000000211,Correct
5,105,141,A,54.04713027864171,75.45778170034161,2.7023565139320858,1.1852880632298777,A,1486.6872000002331,Correct
5,105,142,A,52.05262246719544,74.34947373075286,2.6026311233597723,1.1678788023540023,A,649.7696999999789,Correct
5,105,143,A,25.113009465627506,51.3191366760603,1.2556504732813751,0.8061191138504079,A,816.9096999999965,Correct
5,105,144,B,57.53401702851815,32.523315899921705,2.8767008514259076,0.5108750515078707,B,1186.8786,Correct
5,105,145,B,68.15724740750971,51.26414361343889,3.4078623703754856,0.8052552848427588,B,1287.5723000001926,Correct
5,105,146,B,82.06751404862445,59.820252684514216,4.103375702431222,0.9396543318477748,B,628.017600000021,Correct
5,105,147,B,60.81087918966028,30.160805007207205,3.0405439594830135,0.47376481718498203,B,862.265600000228,Correct
5,105,148,A,59.74493909569134,68.79606186920694,2.9872469547845673,1.0806460128210469,A,841.8697000001885,Correct
5,105,149,A,44.39559950121833,54.16428201341403,2.2197799750609164,0.8508105523015365,B,892.0935999999529,Incorrect
5,105,150,B,66.6192465976715,35.727365212548825,3.3309623298835755,0.5612041404193147,B,654.3238999997811,Correct
5,105,151,A,11.735525560984787,37.22970523245904,0.5867762780492393,0.5848028422680339,A,639.4614999999249,Correct
5,105,152,A,41.92645209525228,64.22427711581344,2.096322604762614,1.0088325858457727,A,1179.343300000255,Correct
5,105,153,B,79.83159328328998,66.80245147117813,3.9915796641644987,1.0493304539182093,A,1457.150200000342,Incorrect
5,105,154,B,72.64481788893461,44.41161541243516,3.6322408944467304,0.6976160235688076,B,880.8647999999266,Correct
5,105,155,A,52.69465504608378,63.89889487763464,2.634732752304189,1.003721493600417,A,662.9757999999129,Correct
5,105,156,B,65.38918527818728,44.04502465167667,3.269459263909364,0.6918576293644438,B,766.4568000000145,Correct
5,105,157,B,58.824963373819934,44.53437078374867,2.9412481686909966,0.6995442604323437,B,712.6751000000695,Correct
5,105,158,B,51.228068838884774,40.55771769251492,2.5614034419442384,0.6370791397458683,B,1298.8691999998991,Correct
5,105,159,A,34.89368630762479,44.26005603466873,1.7446843153812395,0.6952353344299392,A,1183.034900000166,Correct
5,105,160,A,20.655390433366776,35.11385416291637,1.0327695216683388,0.5515671313872071,A,632.9792000001362,Correct
5,105,161,A,39.6647130866529,66.26536030902551,1.9832356543326453,1.040893845671576,A,1592.1573999999055,Correct
5,105,162,A,59.80068756394023,73.78148722408528,2.9900343781970116,1.1589568911705774,A,1160.7546999998704,Correct
5,105,163,A,30.252517093035266,59.205916268062175,1.5126258546517632,0.9300043579839827,A,632.4626000000535,Correct
5,105,164,A,62.850739375727315,83.65489463597278,3.1425369687863656,1.3140480121260012,A,999.1256000002977,Correct
5,105,165,B,38.763828704452024,15.20867329627987,1.938191435222601,0.2388972814922005,B,845.7879000002322,Correct
5,105,166,B,80.45638394383752,50.00018889057077,4.022819197191876,0.7854011304835955,A,1071.4735000001383,Incorrect
5,105,167,A,27.871231553242225,54.72003793928196,1.3935615776621113,0.8595403459710147,A,690.7931999999164,Correct
5,105,168,B,60.01790734670595,38.89598158412527,3.000895367335297,0.6109766499942593,B,691.0726999999497,Correct
5,105,169,A,57.56106920271013,74.00375599565638,2.8780534601355066,1.1624482808700285,A,1335.5209999999715,Correct
5,105,170,A,24.418410646642904,39.57117705580204,1.2209205323321453,0.6215825956620433,A,628.5018999997192,Correct
5,105,171,A,27.115756226495506,59.0439007964803,1.3557878113247752,0.9274594249075354,A,803.6746000002495,Correct
5,105,172,A,31.419046049877444,49.53220124012859,1.570952302493872,0.7780499976605962,A,552.1043999997346,Correct
5,105,173,A,20.31191999010167,35.45221242274669,1.0155959995050836,0.5568820505040291,A,610.0441000003229,Correct
5,105,174,B,85.0113809552261,55.31238367922803,4.250569047761306,0.8688448910960136,B,1028.2865000003767,Correct
5,105,175,A,27.148524743968817,42.7920503097452,1.357426237198441,0.6721759544257017,A,595.7412000002478,Correct
5,105,176,B,48.29006063225824,27.69154283484065,2.414503031612912,0.4349777376825123,B,937.8351000000293,Correct
5,105,177,A,49.9179546017935,68.06088940772459,2.4958977300896747,1.0690979508004745,A,756.8962000000283,Correct
5,105,178,B,44.364396609269726,34.72358334797207,2.2182198304634864,0.5454367717615096,B,778.4192999997686,Correct
5,105,179,B,89.71212009831874,68.07565321979628,4.485606004915937,1.0693298602181918,A,868.9112000001842,Incorrect
5,105,180,A,53.527064811685264,65.83715915605305,2.676353240584263,1.034167677689391,B,785.6431999998676,Incorrect
5,105,181,B,51.97810763249506,21.460675467855896,2.598905381624753,0.33710350195445393,B,685.5178000000706,Correct
5,105,182,B,48.19713400579084,33.58161871295088,2.4098567002895424,0.5274988332213,B,835.3142999999363,Correct
5,105,183,B,35.6487636092869,19.752563646361082,1.7824381804643452,0.310272544204864,A,672.5734999999986,Incorrect
5,105,184,A,38.098542971422134,58.74412980974417,1.9049271485711068,0.9227506332590872,A,1372.4646000000575,Correct
5,105,185,B,68.31021147013908,44.05493545014309,3.4155105735069538,0.6920133078227104,B,467.3998999996911,Correct
5,105,186,A,49.16433540640315,75.36857456518995,2.4582167703201576,1.1838868008276766,A,838.7221000002683,Correct
5,105,187,A,21.08347040686738,34.020159466967755,1.054173520343369,0.5343874152768957,A,745.7862999999634,Correct
5,105,188,A,35.61883494493094,56.823260113577135,1.780941747246547,0.8925776826291791,A,760.9849000000395,Correct
5,105,189,B,65.07921638177051,36.32734120349065,3.253960819088525,0.57062854124668,B,712.988299999779,Correct
5,105,190,B,69.83813264170317,37.8452521967865,3.4919066320851586,0.5944718313733872,B,650.6598999999369,Correct
5,105,191,A,52.669691772254254,73.07305922271416,2.633484588612713,1.1478289301470537,A,769.0351999999621,Correct
5,105,192,A,33.416671549468575,63.66712648751149,1.6708335774734286,1.000080884241691,A,639.3965999995999,Correct
5,105,193,B,53.52619849885501,41.086787569335925,2.6763099249427507,0.6453897499371509,B,750.0335999998242,Correct
5,105,194,A,25.235547760222573,43.23142572877259,1.2617773880111287,0.6790776473686237,A,640.2342999999746,Correct
5,105,195,A,40.21932645421879,54.88383949755522,2.0109663227109396,0.862113334831604,A,975.1670999999078,Correct
5,105,196,A,51.90215366935519,70.34921336445777,2.5951076834677593,1.1050428594580068,A,903.9898000000903,Correct
5,105,197,A,35.541637721872675,68.53907917813055,1.777081886093634,1.0766093381491204,A,699.6091000000888,Correct
5,105,198,A,28.15613824084059,44.41532855645448,1.4078069120420296,0.6976743494986718,A,833.1575000001976,Correct
5,105,199,A,13.912446476391668,32.354377567604374,0.6956223238195833,0.5082213743892815,A,633.4494000002451,Correct
5,105,200,B,56.19426883114273,48.44421247002005,2.8097134415571365,0.7609599100237903,B,731.380999999601,Correct
5,105,201,A,25.397846660355352,37.57677293630829,1.2698923330177676,0.5902545690115895,A,763.1228999998712,Correct
5,105,202,A,31.086526910779163,51.754583767636674,1.554326345538958,0.8129591007700246,A,600.9511000002021,Correct
5,105,203,B,77.72001725580084,62.30918674466581,3.8860008627900418,0.9787504166409832,A,1065.7906999999796,Incorrect
5,105,204,B,64.84364013133799,53.886818074442374,3.2421820065669,0.8464521589399893,B,767.8680000003624,Correct
5,105,205,B,82.1742801824937,64.22576390510274,4.108714009124685,1.0088559402773163,B,600.4580000003443,Correct
5,105,206,A,25.007610875547257,38.536012942306904,1.250380543777363,0.6053222757909628,A,717.4368999999388,Correct
5,105,207,B,45.24572651797088,34.3324376526001,2.2622863258985437,0.5392926695461904,B,981.4660999995795,Correct
5,105,208,A,54.713107584958,71.33814217328037,2.7356553792479,1.120576916861609,A,715.2521000002707,Correct
5,105,209,B,80.03026051520783,52.82677517193515,4.001513025760391,0.8298010439649558,B,1171.0102000001825,Correct
5,105,210,A,34.01017964517944,46.297071244982334,1.700508982258972,0.7272326945297988,A,792.8331999996772,Correct
5,105,211,B,63.83402842076652,33.98249968495938,3.191701421038326,0.5337958568044293,B,798.0423999997583,Correct
5,105,212,A,37.046721035333235,63.384194380505456,1.8523360517666618,0.9956365970975171,A,786.2488000000667,Correct
5,105,213,A,28.96301593906302,60.14369109748094,1.4481507969531509,0.9447348905580998,A,652.1902999998019,Correct
5,105,214,A,24.566195741674562,48.77354041060438,1.228309787083728,0.7661329812175981,A,579.6575999997913,Correct
5,105,215,A,38.333270657367976,60.808509736914914,1.9166635328683987,0.9551778373261766,A,625.2174000001105,Correct
5,105,216,A,17.95298524578446,35.42650759897295,0.897649262289223,0.5564782800763819,A,565.6380999998873,Correct
5,105,217,A,35.49937235548857,64.84538309711856,1.7749686177744284,1.018588895785617,B,821.3096999998015,Incorrect
5,105,218,B,83.21649362893788,64.90894111934637,4.160824681446894,1.019587262864155,B,868.5267000000749,Correct
5,105,219,A,47.698677483381466,56.97374780254407,2.3849338741690733,0.8949415377197503,A,1277.642399999877,Correct
5,105,220,B,60.46324873372256,45.842573317406895,3.023162436686128,0.7200934577780849,B,759.6252000003005,Correct
5,105,221,B,57.22772737186146,39.22498763161013,2.8613863685930734,0.6161446649030843,B,512.1871999999712,Correct
5,105,222,B,69.42758497562582,45.235707652352545,3.471379248781291,0.7105608342028317,B,495.36330000000817,Correct
5,105,223,B,44.811277938983835,17.410292033069574,2.2405638969491917,0.2734802277397214,B,804.5945999997457,Correct
5,105,224,A,30.949071039344922,59.16670253471024,1.547453551967246,0.9293883901008915,A,695.4015999999683,Correct
5,105,225,A,43.80071162308634,68.56234488932212,2.190035581154317,1.0769747950859205,A,1046.6083999999682,Correct
5,105,226,B,53.30590689974551,27.355909572743343,2.6652953449872756,0.42970562272998597,B,676.9717999995919,Correct
5,105,227,B,72.88969799020707,44.783572216752354,3.6444848995103536,0.7034587073882858,B,812.4184999996942,Correct
5,105,228,B,63.95634305528918,52.25976872253138,3.197817152764459,0.8208945274850312,B,510.91619999988325,Correct
5,105,229,B,66.0765804051037,43.621324717975654,3.303829020255185,0.6852021663692358,B,585.420399999748,Correct
5,105,230,B,62.29305341136491,31.73819840052596,3.1146526705682454,0.49854245466633845,B,465.99460000015824,Correct
5,105,231,B,58.436458491358835,35.12260504412112,2.921822924567942,0.5517045899077336,B,441.75129999985074,Correct
5,105,232,A,58.36989973550595,67.47680987543846,2.918494986775298,1.0599232509617633,A,749.8952000000827,Correct
5,105,233,A,49.58591281082735,57.672144080263834,2.4792956405413675,0.9059119207966446,B,788.5412000000542,Incorrect
5,105,234,A,56.602385546459885,69.69206737102786,2.8301192773229946,1.0947204343315302,B,522.8954999997768,Incorrect
5,105,235,A,16.33017675445658,38.242842825920064,0.816508837722829,0.600717170371498,A,567.0659000002161,Correct
5,105,236,A,15.352546963920538,33.00294393552594,0.7676273481960268,0.5184090310734206,A,718.7975000001643,Correct
5,105,237,B,81.48395174245431,57.79379748926124,4.074197587122716,0.9078228480765966,B,937.576799999988,Correct
5,105,238,B,42.435042101488705,22.06566974570981,2.1217521050744352,0.3466067298483025,B,1011.8122999997468,Correct
5,105,239,A,51.214850596132294,78.9928757667667,2.560742529806615,1.2408171909740273,A,893.4525999998186,Correct
5,105,240,A,13.112717112744924,31.297263815104508,0.6556358556372461,0.4916162703949699,A,590.8456000001934,Correct
5,105,241,A,55.17047009172043,82.33820823305736,2.7585235045860212,1.2933655504735981,A,917.5187000000733,Correct
5,105,242,A,18.809463290434586,37.019723550867475,0.9404731645217294,0.5815044577266516,A,605.8246000002327,Correct
5,105,243,A,48.57227886440228,73.1919489731703,2.428613943220114,1.149696445980154,A,1199.485999999979,Correct
5,105,244,A,15.045345601963852,43.55249365385823,0.7522672800981925,0.6841209705423855,A,615.4681000002711,Correct
5,105,245,B,56.41197037351075,45.471162321495186,2.820598518675537,0.7142593474969914,B,1205.873800000063,Correct
5,105,246,B,64.09102497486477,40.153902188078284,3.204551248743238,0.6307360206351493,B,611.3749000001008,Correct
5,105,247,B,59.17077010871578,27.289370301379904,2.958538505435789,0.4286604262995329,B,643.9178999999058,Correct
5,105,248,B,49.98729114583678,29.19796298491425,2.499364557291839,0.45864053006596656,B,683.4218000003602,Correct
5,105,249,A,25.321058040253398,39.64060004578679,1.26605290201267,0.622673089438675,A,644.8424000000159,Correct
5,105,250,B,69.26975180928936,36.065984411489836,3.4634875904644677,0.5665231583581023,B,553.8097999997262,Correct
5,105,251,A,55.23927466757099,72.03935577287938,2.761963733378549,1.1315915543270967,A,649.0058999997927,Correct
5,105,252,B,77.96470574750006,48.69266772530397,3.898235287375003,0.7648626360475189,B,758.8217999996232,Correct
5,105,253,A,62.76698577862755,79.7126823156445,3.1383492889313778,1.252123885803829,A,891.2420999999995,Correct
5,105,254,B,44.34670579398154,27.22474536755157,2.217335289699077,0.42764530021276387,B,658.1840999997439,Correct
5,105,255,A,63.67607457518632,84.03571877502429,3.1838037287593157,1.3200299837137708,A,643.302500000118,Correct
5,105,256,B,72.22581001096252,56.730265259327055,3.611290500548126,0.8911169228745106,A,878.8564999999835,Incorrect
5,105,257,B,53.07777817150621,28.46058234207515,2.653888908575311,0.44705778201375335,B,569.085499999801,Correct
5,105,258,B,80.81136751561867,66.35120400196949,4.040568375780933,1.0422422752471252,A,793.1140999999116,Incorrect
5,105,259,A,58.95730541269174,72.01038636858709,2.9478652706345874,1.1311365039885788,A,650.5112999998346,Correct
5,105,260,B,62.74614357367668,50.14481814412742,3.1373071786838342,0.7876729614859344,B,849.440400000276,Correct
5,105,261,A,51.354497966939455,82.18060238955204,2.567724898346973,1.2908898836730023,A,699.9243999998725,Correct
5,105,262,B,53.63512788477895,33.488200178899675,2.6817563942389477,0.5260314183198781,B,665.7712999999603,Correct
5,105,263,A,20.25627164706252,32.819731404816785,1.012813582353126,0.5155311353708132,A,538.0519000000277,Correct
5,105,264,B,75.73247393193101,44.93218231026319,3.7866236965965503,0.7057930692784005,B,551.5917000002446,Correct
5,105,265,A,13.11373529682102,41.020919776034795,0.6556867648410509,0.6443551010594359,A,564.3043999998554,Correct
5,105,266,A,13.819080854921001,42.50648384048222,0.69095404274605,0.667690286815961,A,650.6425999996281,Correct
5,105,267,B,66.31137915000843,42.70897838173833,3.3155689575004215,0.6708710636319722,B,498.65660000023126,Correct
5,105,268,B,65.13414622570147,47.264279698236535,3.2567073112850733,0.7424255693859656,B,460.90219999996407,Correct
5,105,269,B,58.01294766894791,30.47567687976987,2.900647383447396,0.4787108129933066,B,453.453300000092,Correct
5,105,270,B,75.19700782823135,47.36778143407626,3.7598503914115673,0.7440513708507048,B,531.2668999999914,Correct
5,105,271,B,30.114362813315925,12.19943061441207,1.5057181406657962,0.19162820798107688,A,485.5029000000286,Incorrect
5,105,272,A,55.331483788050804,73.49560084928062,2.7665741894025406,1.154466198496339,A,1115.026200000102,Correct
5,105,273,B,40.190509670755986,16.29963410391507,2.0095254835377996,0.2560340537853062,B,764.7326999999677,Correct
5,105,274,A,33.119487738692065,50.12210788566479,1.6559743869346033,0.7873162295801978,A,808.8502999999037,Correct
5,105,275,B,69.16539284511346,50.437412946351245,3.4582696422556727,0.7922690298916589,A,764.4485000000714,Incorrect
5,105,276,B,39.26390203997042,19.89373990217858,1.963195101998521,0.3124901356455517,B,685.5977999998686,Correct
5,105,277,B,32.635008384054615,19.761272301791408,1.6317504192027308,0.31040933944447674,B,1120.624300000145,Correct
5,105,278,A,42.84501391445753,61.2648834184612,2.1422506957228764,0.9623465383523641,A,760.3806000001896,Correct
5,105,279,B,63.55710909197072,39.03734506958921,3.1778554545985362,0.613197182431356,B,554.5915000002424,Correct
5,105,280,B,37.32693456793116,12.101289297243948,1.8663467283965582,0.1900866077759319,B,700.7796999996572,Correct
5,105,281,B,81.88749949712471,62.507255854401585,4.094374974856236,0.9818616789412281,A,1081.5170000000762,Incorrect
5,105,282,A,52.729625233140474,67.22486639168807,2.6364812616570235,1.055965731973413,A,1092.2937000000275,Correct
5,105,283,A,11.211843346008894,31.288589880998533,0.5605921673004447,0.49148002055664464,A,558.8104000003113,Correct
5,105,284,B,47.4792900479103,21.07428593535379,2.373964502395515,0.3310341093707908,B,739.7692999998071,Correct
5,105,285,A,48.922575457241734,65.68014204634167,2.446128772862087,1.0317012586976055,A,791.9464999999946,Correct
5,105,286,A,33.290824236411254,52.522397111550646,1.6645412118205627,0.8250198845728665,B,803.8137999997161,Incorrect
5,105,287,A,22.171785234216113,39.06656707894966,1.1085892617108057,0.6136562006810056,A,837.5233000001572,Correct
5,105,288,A,47.42227965518639,63.13681199538566,2.3711139827593195,0.9917507236789177,A,854.0640999999596,Correct
5,105,289,B,69.28732404149982,45.93976774557736,3.4643662020749906,0.7216201842856358,A,1267.0708999999079,Incorrect
5,105,290,B,48.473541044018674,40.66283680675155,2.423677052200934,0.6387303469310565,B,769.6910000004209,Correct
5,105,291,A,21.51825876256842,49.320464314365914,1.075912938128421,0.7747240418082476,A,581.5819000004012,Correct
5,105,292,B,50.19297884820344,22.871878775159473,2.509648942410172,0.35927063166918655,B,946.3040999999066,Correct
5,105,293,B,77.65981416667435,49.11818806747547,3.8829907083337174,0.7715466939521138,B,1005.0800999997591,Correct
5,105,294,B,77.48795984374307,63.228095122368686,3.8743979921871534,0.9931845956845504,A,714.6050999999716,Incorrect
5,105,295,A,27.805645043058874,53.3079823108878,1.3902822521529437,0.8373598280278987,A,1045.9514999997737,Correct
5,105,296,B,73.65024325042162,49.140681884869345,3.682512162521081,0.7719000260094928,B,585.576200000105,Correct
5,105,297,A,46.96058596710259,73.47742219851314,2.3480292983551294,1.1541806489178223,B,823.0953000002046,Incorrect
5,105,298,B,45.91854761884867,27.22599870341685,2.2959273809424334,0.427664987566498,B,687.6409999999851,Correct
5,105,299,B,65.10133374893928,47.08341919691202,3.255066687446964,0.7395846192745371,B,606.8176000003405,Correct
5,105,300,B,45.90055384902961,32.929086139944225,2.2950276924514807,0.5172488755333712,B,548.3619000001454,Correct
5,105,301,A,64.67455809537297,83.50479012367735,3.2337279047686485,1.3116901759605113,A,622.5951999999779,Correct
5,105,302,A,22.613929810792417,45.32621007156695,1.1306964905396208,0.7119824428795121,A,627.2770000000492,Correct
5,105,303,B,58.5227673842352,43.371609187345335,2.92613836921176,0.6812796439866584,B,747.8507999999238,Correct
5,105,304,A,21.73517336193608,47.598391245933534,1.086758668096804,0.7476737813045875,A,578.461999999945,Correct
5,105,305,B,45.440638665180494,35.35978323949609,2.272031933259025,0.555430176288642,B,610.5508999999074,Correct
5,105,306,B,61.0895537276521,53.079835314583214,3.0544776863826053,0.8337761033902535,B,574.3930000003274,Correct
5,105,307,B,56.61918964949794,26.155358971124464,2.830959482474897,0.41084741797844254,B,599.5213999999578,Correct
5,105,308,B,77.28615727574001,48.28549713307292,3.8643078637870008,0.7584668153409646,B,604.5113999998648,Correct
5,105,309,B,67.47339710721909,45.349374879792556,3.373669855360954,0.712346314836229,B,605.6485999997676,Correct
5,105,310,A,42.32678971508752,65.36712628876326,2.1163394857543762,1.0267844186752744,A,664.1048999999839,Correct
5,105,311,B,36.45690076033206,20.13564244783173,1.8228450380166032,0.31628993194709487,B,567.6370999999563,Correct
5,105,312,A,23.024492867776136,52.36977724033294,1.1512246433888067,0.8226225372418196,A,692.8352999998424,Correct
5,105,313,B,83.80376533808578,54.421498546128745,4.190188266904289,0.8548509001493283,B,687.3697000000902,Correct
5,105,314,A,39.245849735345274,69.97615278503793,1.9622924867672638,1.0991828375797603,B,817.3143999997592,Incorrect
5,105,315,B,51.652457802165316,26.717428740519885,2.582622890108266,0.4196763892701304,B,567.1351999999388,Correct
5,105,316,A,40.87053472114833,73.4606923256377,2.0435267360574163,1.1539178566892174,A,869.7108000001208,Correct
5,105,317,B,76.36873968649508,46.11884745769331,3.818436984324754,0.7244331618255881,B,613.7914000000819,Correct
5,105,318,B,35.47812145093484,13.235457862985577,1.7739060725467422,0.20790208594626378,B,1625.1357000001008,Correct
5,105,319,B,73.43625009668403,49.993406948951716,3.6718125048342016,0.7852945999937581,B,960.5587000000924,Correct
5,105,320,B,78.33335647786035,65.26612237261264,3.9166678238930173,1.0251978528704615,A,785.4274000001169,Incorrect
5,105,321,B,44.271082828923326,21.865682603509352,2.2135541414461666,0.3434653391645556,B,946.2841999998091,Correct
5,105,322,A,50.08843090101418,75.8308415211698,2.5044215450507092,1.1911480731921946,A,803.9405999998053,Correct
5,105,323,B,52.566835864635294,26.909092326673246,2.628341793231765,0.42268703384123074,B,552.4214000001848,Correct
5,105,324,A,24.950379338444673,41.03319571664865,1.2475189669222337,0.6445479310836777,A,597.3771999997552,Correct
5,105,325,A,16.730296675175993,36.928121860994295,0.8365148337587996,0.5800655817468415,A,751.3188000002629,Correct
5,105,326,B,35.79513635337161,22.203159816845243,1.7897568176685805,0.3487664188354056,B,560.146999999688,Correct
5,105,327,B,47.892847992658545,34.38641187800802,2.3946423996329274,0.540140494696314,B,608.9913999999226,Correct
5,105,328,A,21.31345480178047,35.70172668703131,1.0656727400890234,0.5608014114022412,A,587.518799999998,Correct
5,105,329,B,43.00706587465356,27.182781997197345,2.150353293732678,0.4269861411326403,B,592.7652999998827,Correct
5,105,330,A,46.0963057325057,56.29618355949252,2.304815286625285,0.8842983834782211,A,608.4366000000045,Correct
5,105,331,A,64.56081178509163,81.32618751717496,3.2280405892545816,1.2774687662421138,A,816.2318999998206,Correct
5,105,332,B,66.9666504846429,45.4997042906721,3.348332524232145,0.7147076837004174,B,665.8855999999105,Correct
5,105,333,B,64.76819280981522,35.2296190700011,3.2384096404907607,0.5533855622954117,B,689.3496000002415,Correct
5,105,334,A,42.1363830033349,66.49890947549657,2.106819150166745,1.0445624273997636,A,877.5165999995806,Correct
5,105,335,B,68.24761899485887,49.20797905817871,3.412380949742943,0.7729571275358731,B,621.5391000000636,Correct
5,105,336,B,74.37331514331476,63.250827960256416,3.7186657571657378,0.9935416822670672,A,1167.5256999997146,Incorrect
5,105,337,A,16.15354432386067,45.1412432329102,0.8076772161930336,0.7090769905721033,A,630.9704000000238,Correct
5,105,338,A,13.822203996516109,40.66474824176844,0.6911101998258055,0.638760371682091,A,563.6743999998544,Correct
5,105,339,B,73.05141755551038,57.27821527765727,3.6525708777755193,0.8997241016351135,B,794.0283999996609,Correct
5,105,340,A,51.11113907896599,63.155879923960704,2.5555569539482996,0.9920502420005702,B,721.2325000000419,Incorrect
5,105,341,A,36.40605055636008,57.24200731965458,1.8203025278180038,0.8991553483608001,A,984.1421000000992,Correct
5,105,342,B,74.90834014177075,47.12714722494052,3.7454170070885375,0.7402714975325888,B,581.6954000001715,Correct
5,105,343,B,59.45672081058018,50.08803523946048,2.972836040529009,0.7867810177051786,B,484.6012999996674,Correct
5,105,344,B,71.73471772252775,59.81330456031003,3.5867358861263874,0.9395451909679943,B,513.2892999999967,Correct
5,105,345,B,58.197683758543796,31.524793427613194,2.9098841879271897,0.495190297190627,B,526.5394000002743,Correct
5,105,346,A,60.45269147945538,76.38101254695098,3.022634573972769,1.1997901394562551,A,709.4693999997617,Correct
5,105,347,B,68.34300309560352,55.858213985040564,3.417150154780176,0.8774187734902503,B,515.0108000002547,Correct
5,105,348,A,37.42682475776211,59.06782665123935,1.8713412378881058,0.9278352513552447,A,984.8385999998754,Correct
5,105,349,A,45.830509390282174,70.77040872436086,2.2915254695141085,1.1116589806999955,A,700.4139000000578,Correct
5,105,350,A,20.975378670063016,37.00747420020777,1.0487689335031507,0.5813120453764327,A,648.006599999917,Correct
5,105,351,A,21.512758594869602,51.84538051231146,1.0756379297434802,0.8143853327002254,A,674.2223999999624,Correct
5,105,352,B,87.80950858662976,69.82142619083317,4.390475429331488,1.096752397921417,B,881.4505999998801,Correct
5,105,353,B,55.691298263230124,48.01558302796025,2.784564913161506,0.7542270144923532,B,799.2463999999018,Correct
5,105,354,B,57.74324727264086,46.88352561315343,2.887162363632043,0.7364446982033586,B,561.7257999997491,Correct
5,105,355,A,50.08924460218808,75.86301148064061,2.504462230109404,1.1916533977338934,A,690.8720000001267,Correct
5,105,356,B,55.7864862237087,23.577284396901618,2.789324311185435,0.37035111726451686,B,592.7024000002348,Correct
5,105,357,A,42.0789975871245,64.43015364912047,2.103949879356225,1.0120664868686924,A,655.0384000001941,Correct
5,105,358,B,47.095947832640974,37.57819945830806,2.3547973916320486,0.5902769767667628,B,690.3795999996873,Correct
5,105,359,B,38.90955102694632,12.890498604766787,1.9454775513473157,0.20248347858922405,B,642.6726000004237,Correct
5,105,360,A,43.03541588675112,62.178105961784894,2.1517707943375557,0.9766914045183558,A,766.504299999724,Correct
5,105,361,A,47.13478550791746,53.79897651788073,2.356739275395873,0.8450723469961194,B,591.9091999999182,Incorrect
5,105,362,A,37.439210535491775,67.31374774351642,1.871960526774589,1.0573618769831383,A,657.8789000000143,Correct
5,105,363,B,47.62569740943852,18.65600247518538,2.381284870471926,0.29304780160697697,B,497.9089999997086,Correct
5,105,364,A,50.57757818342649,63.065055272353554,2.528878909171324,0.9906235717093008,B,504.8357999999098,Incorrect
5,105,365,A,29.922115634168144,39.09306669861694,1.4961057817084071,0.6140724557333539,A,1934.6349999996164,Correct
5,105,366,A,54.36562257890612,83.32492627053573,2.7182811289453057,1.308864881162131,A,970.7650000000285,Correct
5,105,367,B,51.68269455641678,35.07387657115686,2.584134727820839,0.5509391648443078,B,919.5178999998461,Correct
5,105,368,A,12.06573382125585,31.46896700631726,0.6032866910627925,0.4943133778155294,A,662.4048999997285,Correct
5,105,369,A,34.315548058879905,57.07064477926304,1.7157774029439952,0.8964635918708271,A,1299.6738000001642,Correct
5,105,370,A,37.44445986891104,46.92137269041867,1.872222993445552,0.7370391987028403,A,1075.9911000000102,Correct
5,105,371,B,64.29141982164606,51.76742237542019,3.214570991082303,0.8131607691494998,B,1058.0629000000954,Correct
5,105,372,A,53.907730609538994,63.13576965052389,2.69538653047695,0.9917343505641163,B,630.7797999998002,Incorrect
5,105,373,B,53.951813072328996,30.016090776826772,2.69759065361645,0.4714916513698167,B,729.8347000000831,Correct
5,105,374,A,51.00597879097835,78.77731545593684,2.5502989395489175,1.2374311775294844,A,845.1294000001326,Correct
5,105,375,A,27.24042229304122,37.40662444317231,1.3620211146520609,0.5875818827313126,A,626.6806000003271,Correct
5,105,376,B,65.28832226704955,51.190138079552455,3.264416113352478,0.8040928086348456,B,690.7099000000017,Correct
5,105,377,B,79.64355756879553,66.46016501582591,3.9821778784397766,1.0439538308504202,A,1270.846999999776,Incorrect
5,105,378,B,70.05892719595042,57.49604009697357,3.5029463597975212,0.9031456858957818,B,740.9452000001693,Correct
5,105,379,B,40.25018424175454,28.845410636280725,2.012509212087727,0.4531026507236021,A,552.5462999999036,Incorrect
5,105,380,A,54.556562138678196,68.62033961303095,2.7278281069339094,1.0778857740756735,A,793.3963000000404,Correct
5,105,381,A,25.597538393117134,41.08580189084488,1.2798769196558566,0.6453742669356195,A,568.33319999987,Correct
5,105,382,B,57.61711040969036,25.433188510197148,2.880855520484518,0.3995035909049985,B,655.7816999998067,Correct
5,105,383,A,31.949947835962377,50.52090299922492,1.5974973917981188,0.793580488575438,A,576.3362000002417,Correct
5,105,384,B,80.76742209171395,56.40967304429109,4.038371104585698,0.8860810721367353,B,551.7888999997922,Correct
5,105,385,B,49.57587899895243,30.87962328706099,2.4787939499476215,0.48505598832125557,B,771.1331000000428,Correct
5,105,386,A,50.34582258774993,81.31604927553161,2.5172911293874964,1.2773095151147786,A,854.4815000000199,Correct
5,105,387,B,86.72442687817195,65.09064290974821,4.336221343908598,1.0224414279135077,B,888.4241000000657,Correct
5,105,388,A,35.20153639505253,58.919902559176045,1.7600768197526264,0.9255116651506694,A,906.9300000001022,Correct
5,105,389,A,36.90508143819337,69.51273551802564,1.8452540719096686,1.091903496171798,A,635.7662999998865,Correct
5,105,390,B,64.42422373491434,51.777752824491,3.221211186745717,0.8133230394640456,B,489.57330000030197,Correct
5,105,391,A,58.959758385248534,73.23433232782278,2.9479879192624265,1.1503622021582078,A,670.8376999999928,Correct
5,105,392,B,37.98388752883071,17.394425994783393,1.8991943764415353,0.2732310045931142,B,726.5457000003153,Correct
5,105,393,A,25.054446166815215,57.31497057231838,1.2527223083407606,0.9003014524535532,A,580.145999999786,Correct
5,105,394,A,69.39406723125272,89.0657787878759,3.4697033615626363,1.3990419816312227,A,984.549700000116,Correct
5,105,395,B,79.51389586418072,53.11053890804203,3.975694793209036,0.8342583943084986,B,554.7768999999789,Correct
5,105,396,A,56.752360319319905,78.29076859439417,2.837618015965995,1.2297885173002359,A,740.7276000003549,Correct
5,105,397,A,60.2861836320521,79.63119916970972,3.014309181602605,1.2508439515405283,B,582.4197000001732,Incorrect
5,105,398,B,38.76338486467778,17.38767360173059,1.9381692432338893,0.27312493825107,B,661.6122999998879,Correct
5,105,399,B,37.63757048500576,12.208121767039323,1.881878524250288,0.19176472828730187,B,922.2945999999865,Correct
5,105,400,A,38.615944477384005,69.13523099490268,1.9307972238692002,1.0859736689890982,A,908.8055999995959,Correct
5,105,401,A,57.69993961882512,68.56363099637056,2.8849969809412563,1.076994997208196,A,1384.4069000001582,Correct
5,105,402,A,53.88505934694202,71.72621821263574,2.694252967347101,1.1266728010329743,A,904.7027000001435,Correct
5,105,403,A,53.904666390392485,67.65244521451517,2.695233319519624,1.062682124416534,A,573.3884999999646,Correct
5,105,404,A,58.62319850138444,83.99821919169554,2.9311599250692217,1.3194409416362793,A,1062.4982999997883,Correct
5,105,405,B,86.52741000107468,63.048647184074696,4.326370500053734,0.9903658340613194,B,1444.8508999998921,Correct
5,105,406,A,29.551684452290445,60.64164719556115,1.4775842226145222,0.9525567666557949,A,793.8364999999976,Correct
5,105,407,A,66.87492601236934,84.22798636679042,3.343746300618467,1.32305011598285,B,1637.1782999999596,Incorrect
5,105,408,B,45.43753483917843,32.9372814694136,2.2718767419589216,0.5173776074676449,B,696.2609999995948,Correct
5,105,409,A,59.76970520707684,74.61275375794935,2.9884852603538423,1.1720143953503896,A,940.6745999999657,Correct
5,105,410,A,44.44903159452556,53.8796415535117,2.222451579726278,0.8463394304128186,A,1404.4392000000698,Correct
5,105,411,A,33.70742217674724,48.63313237036752,1.6853711088373617,0.7639274568790327,A,699.3658000001233,Correct
5,105,412,B,86.98064928867119,66.74112311403795,4.349032464433559,1.0483671103369678,B,650.2454999999827,Correct
5,105,413,B,71.21222224569395,43.3579845641895,3.5606111122846977,0.681065628906587,B,633.4471000000121,Correct
5,105,414,B,72.17720116413028,55.926059670850606,3.6088600582065142,0.8784844910308434,B,537.7763999999843,Correct
5,105,415,A,42.39912428653091,58.62165988143441,2.1199562143265456,0.9208268801237693,A,650.3217999998014,Correct
5,105,416,A,30.80343208274963,58.54296204990331,1.5401716041374813,0.9195906974768113,A,509.07310000002326,Correct
5,105,417,B,36.42152143528925,24.86024768192069,1.8210760717644627,0.39050385741972365,A,682.0495000001756,Incorrect
5,105,418,B,47.563247646007795,20.185566090570866,2.3781623823003897,0.31707413069344337,B,474.3659000000662,Correct
5,105,419,B,63.926068193900406,38.653547744990135,3.19630340969502,0.6071685081542166,B,569.2933000000266,Correct
5,105,420,A,57.55313757938212,73.17362452095628,2.877656878969106,1.1494086061578708,A,831.1038000001645,Correct
5,105,421,B,56.5492313387213,24.50641635916585,2.827461566936065,0.38494588799884083,B,462.26900000010573,Correct
5,105,422,A,56.98707254044598,82.96923002437514,2.8493536270222988,1.3032776175928933,A,700.6234000000404,Correct
5,105,423,B,47.87862505550792,19.587716966939194,2.393931252775396,0.30768313861966157,B,564.123500000278,Correct
5,105,424,A,33.01193184672321,44.264943030794186,1.6505965923361603,0.6953120991855687,A,586.4744000000428,Correct
5,105,425,A,35.82769468106452,56.00073061751297,1.791384734053226,0.8796574195181988,A,592.8172999997514,Correct
5,105,426,A,29.58821361029653,56.06791852496978,1.4794106805148266,0.8807128047005806,A,598.6376999999266,Correct
5,105,427,B,55.31141621080131,42.18903104924639,2.7655708105400656,0.6627037500319206,B,635.8915000000707,Correct
5,105,428,A,30.56406073082649,43.2660772884686,1.5282030365413246,0.6796219527955057,A,712.0605000000069,Correct
5,105,429,A,48.02573421160024,68.80165892553825,2.401286710580012,1.080733931176308,A,819.4244000001163,Correct
5,105,430,B,69.4649631324348,59.62332155123693,3.4732481566217404,0.9365609448399397,B,941.3215000004129,Correct
5,105,431,A,61.05087552703448,82.98723548407028,3.052543776351724,1.3035604466924071,A,930.8634999997594,Correct
5,105,432,A,60.682113448823806,71.7905179393247,3.03410567244119,1.1276828187779435,A,841.2458000002516,Correct
5,105,433,A,41.006288585183405,53.91081608548818,2.05031442925917,0.8468291188160004,A,1047.5986999999805,Correct
5,105,434,B,42.308263263440466,27.710090909743663,2.115413163172023,0.43526909016177995,B,826.1030000003302,Correct
5,105,435,A,12.77651200063696,38.633468358337055,0.638825600031848,0.6068531018862271,A,628.0179999998836,Correct
5,105,436,B,70.66449328627081,52.75247033998656,3.5332246643135408,0.828633866394076,B,615.6449000000066,Correct
5,105,437,B,73.53942557541694,54.38337627514957,3.6769712787708473,0.8542520769170968,B,646.5336999999636,Correct
5,105,438,B,59.00992145348948,39.84338664910654,2.9504960726744742,0.6258584539548537,B,499.0093999999772,Correct
5,105,439,B,72.46536978295876,46.20166397026489,3.623268489147938,0.725734040563042,B,685.2187999998023,Correct
5,105,440,A,51.58051451927162,80.25121729732874,2.579025725963581,1.2605831735146305,A,964.1147000002093,Correct
5,105,441,B,80.93456670545169,50.862671331008656,4.046728335272585,0.7989489729772449,B,1081.6663000000517,Correct
5,105,442,A,34.00715925805141,66.65576041140291,1.7003579629025705,1.0470262361395237,A,656.3052999999854,Correct
5,105,443,A,38.1640285337037,55.926899358487816,1.9082014266851848,0.8784976808134052,A,799.2224999998143,Correct
5,105,444,A,44.00123402397454,74.4508567903447,2.200061701198727,1.1694713237300636,A,964.2103999999563,Correct
5,105,445,B,71.52234257768009,43.16682148266448,3.576117128884005,0.6780628462438039,B,571.93610000013,Correct
5,105,446,B,61.248527388038816,44.06704460066959,3.062426369401941,0.6922035179143866,B,426.2706000004073,Correct
5,105,447,B,62.26183462474552,48.65537847459095,3.113091731237276,0.7642768978670293,B,788.8216999999713,Correct
5,105,448,A,19.071442656192115,37.294109841991016,0.9535721328096058,0.5858145075088488,A,565.1033000003736,Correct
5,105,449,B,72.74160735968258,46.693350493679105,3.6370803679841286,0.7334574344121781,B,533.6759999991045,Correct
5,105,450,A,51.14918192300087,67.59549564903769,2.557459096150043,1.0617875627338882,A,908.2928999996511,Correct
5,105,451,A,60.60372598963214,87.80989902952635,3.030186299481607,1.3793146685181077,B,650.0946999994994,Incorrect
5,105,452,A,35.117787508769595,59.003509445971886,1.7558893754384797,0.9268249590574063,A,799.9093999997058,Correct
5,105,453,B,78.00350470150752,50.027981037958675,3.900175235075376,0.7858376885139021,B,790.0212000004103,Correct
5,105,454,A,11.357667446409046,31.520340263825133,0.5678833723204523,0.495120347057418,A,625.3664000005301,Correct
5,105,455,B,79.38837013270269,63.623409608863184,3.9694185066351344,0.9993941811176942,B,695.4003000000739,Correct
5,105,456,A,56.28552590883212,67.54138086015571,2.814276295441606,1.0609375296178771,B,517.2578000001522,Incorrect
5,105,457,A,40.82291357573659,70.70124760707566,2.0411456787868296,1.110572600410109,A,766.3587000006373,Correct
5,105,458,A,28.867597795585123,57.51374224649814,1.4433798897792562,0.9034237506102775,A,531.3542999992933,Correct
5,105,459,A,35.927775289854594,48.453874194638125,1.7963887644927297,0.7611116760391959,A,1201.987100000224,Correct
5,105,460,A,17.31115390601284,41.672270482531104,0.865557695300642,0.6545864940316325,A,576.8892999994932,Correct
5,105,461,B,33.29675892261692,13.96214906995894,1.6648379461308458,0.21931692473254283,B,787.4005000003308,Correct
5,105,462,A,55.51651724681193,79.86137945240124,2.7758258623405965,1.254459614966053,A,851.9526999998561,Correct
5,105,463,A,21.981799655273218,52.432628829876876,1.0990899827636609,0.8236098077017079,A,599.3005000000267,Correct
5,105,464,B,59.73246926500801,28.80769514276438,2.9866234632504005,0.4525102171368148,B,656.9819999995161,Correct
5,105,465,B,54.2914252630958,37.816640060808105,2.71457126315479,0.5940223929924211,B,549.6789999997418,Correct
5,105,466,B,65.39057942399113,37.00593651208166,3.2695289711995565,0.5812878914278302,B,615.8872999994855,Correct
5,105,467,A,41.16401702626575,56.26862324247543,2.0582008513132877,0.8838654670308634,A,660.6117000001177,Correct
5,105,468,B,72.05711456360608,59.767558229912936,3.602855728180304,0.9388266092904732,B,574.285300000156,Correct
5,105,469,A,34.43453782752501,61.426240500719665,1.7217268913762507,0.9648811294735036,A,554.7202999996443,Correct
5,105,470,A,65.7609859929285,79.99051713423356,3.288049299646425,1.256488104928783,A,1046.869499999957,Correct
5,105,471,B,53.28193587018484,34.22360126458163,2.664096793509242,0.5375830715609801,B,600.5283000004056,Correct
5,105,472,A,43.14711844220641,55.15386140625224,2.157355922110321,0.8663548290549583,A,849.3708000005427,Correct
5,105,473,B,79.9413602843908,54.030491983298795,3.99706801421954,0.8487089834228685,B,796.695400000317,Correct
5,105,474,A,45.04222592039868,56.92558995040619,2.2521112960199337,0.8941850759473055,A,765.0174000000334,Correct
5,105,475,A,64.59074836043598,76.86972684043695,3.2295374180217995,1.2074668456268542,A,861.3255000000208,Correct
5,105,476,B,31.626428384373913,17.24751639284182,1.5813214192186955,0.2709233539621069,A,629.9025999996957,Incorrect
5,105,477,A,58.94773689632774,84.77126080818942,2.947386844816387,1.331583850952761,A,985.750900000312,Correct
5,105,478,B,83.26054241723563,53.20585437900107,4.1630271208617815,0.8357556062251904,B,760.1198999991539,Correct
5,105,479,B,82.47163453582034,57.334990712222336,4.123581726791017,0.9006159280757836,B,384.7176999997828,Correct
5,105,480,B,34.27477781472217,18.99785535152615,1.7137388907361086,0.29841761403158046,A,671.6032999993331,Incorrect
5,105,481,A,28.15255521508358,45.65941859202416,1.407627760754179,0.7172164700794217,A,651.4835999996649,Correct
5,105,482,A,26.294957046911314,52.66760110589884,1.3147478523455658,0.8273007435824472,A,486.24179999933403,Correct
5,105,483,B,70.68661857479682,45.87657280909361,3.5343309287398417,0.7206275205446288,B,564.8795999995855,Correct
5,105,484,B,41.715098958788964,30.251957206192873,2.085754947939448,0.47519663257844175,A,626.1562999998205,Incorrect
5,105,485,A,28.612717291099433,46.866055270191424,1.4306358645549715,0.736170274697833,A,590.8528999998452,Correct
5,105,486,A,67.694672647478,80.02264575553892,3.3847336323739,1.2569927801320975,B,1167.1572000004744,Incorrect
5,105,487,B,65.58857735930326,53.84208233646249,3.279428867965163,0.8457494516110367,B,654.3480999998792,Correct
5,105,488,A,32.84525679973868,48.61851428185163,1.642262839986934,0.7636978364815776,A,557.5390000003608,Correct
5,105,489,B,50.9888417763398,34.17034106978641,2.5494420888169897,0.5367464623774929,B,585.1249000006646,Correct
5,105,490,B,49.28015824406019,22.824995167812,2.4640079122030096,0.3585341856871035,B,710.9368000001268,Correct
5,105,491,A,52.9615091706227,60.179796555865714,2.648075458531135,0.9453020337721804,B,473.71709999970335,Incorrect
5,105,492,A,20.796401466901813,38.00989670080733,1.0398200733450906,0.5970580611948162,A,544.4663999996919,Correct
5,105,493,A,47.17482166719155,62.947754902360174,2.3587410833595777,0.988781021806128,A,871.2655999997878,Correct
5,105,494,B,70.08969243136264,39.94462667780894,3.5044846215681322,0.6274487286069571,B,642.5813999994716,Correct
5,105,495,A,44.91297374657316,57.56183730106259,2.245648687328658,0.9041792259607457,A,678.4999999999854,Correct
5,105,496,B,41.364373078865235,22.237526626983993,2.0682186539432617,0.3493062514267015,B,637.3991999998907,Correct
5,105,497,A,64.57022878640613,85.35103307289182,3.2285114393203065,1.3406908923904823,A,784.737199999654,Correct
5,105,498,B,31.752666226612117,14.517649841763433,1.5876333113306058,0.2280427104513651,B,1157.1626000004471,Correct
5,105,499,A,27.598174314074743,57.48203275846668,1.379908715703737,0.9029256591370337,A,732.361100000162,Correct
5,105,500,A,33.254086884530416,52.33614320701952,1.6627043442265208,0.8220942150819794,B,1341.7223999995258,Incorrect
5,105,501,A,34.83114655899908,46.199830813896554,1.741557327949954,0.7257052454101438,B,1229.4996000000538,Incorrect
5,105,502,B,71.8004040621649,53.93876396701555,3.590020203108245,0.8472681231124496,B,566.6385000004084,Correct
5,105,503,B,65.76522239771096,40.560270682551064,3.2882611198855476,0.6371192420195795,B,691.0618000001705,Correct
5,105,504,B,60.13936242622697,49.552971533686375,3.006968121311348,0.7783762566688663,B,474.52399999929185,Correct
5,105,505,B,65.5209907160759,38.23094600847995,3.276049535803795,0.6005302956001431,B,436.4480000003823,Correct
5,105,506,B,59.96803757259007,38.98924082569618,2.9984018786295037,0.6124415627352516,B,546.8075000007957,Correct
5,105,507,B,65.75930532051032,54.74399051187318,3.2879652660255156,0.8599165921014507,B,546.8359000005876,Correct
5,105,508,B,41.745480271314676,31.972048971596944,2.0872740135657337,0.5022157708469103,B,474.02929999952903,Correct
5,105,509,B,35.72841243657828,11.43471889169101,1.786420621828914,0.17961614433000447,A,563.4175000004689,Incorrect
5,105,510,B,42.780701720765826,16.570811712600687,2.1390350860382914,0.26029370170163013,B,847.5855999995474,Correct
5,105,511,A,27.699048547290918,43.1583331323158,1.384952427364546,0.6779295115483215,A,584.3144000000393,Correct
5,105,512,B,55.20328185169655,25.743511146537138,2.760164092584828,0.40437812747784013,B,445.127599999978,Correct
5,105,513,B,33.87276278538697,20.25222186642752,1.6936381392693483,0.31812115717219636,A,536.7370999993,Incorrect
5,105,514,B,36.91610301440001,13.079393062842097,1.8458051507200002,0.20545062579819018,B,655.358800000613,Correct
5,105,515,A,40.56354905246961,68.8341831634136,2.028177452623481,1.081244820710172,A,1154.733800000031,Correct
5,105,516,B,42.091346835960394,16.281359651579532,2.1045673417980195,0.25574699935927764,B,502.038900000116,Correct
5,105,517,A,15.065535206267665,32.66953799875708,0.7532767603133833,0.5131719028653391,A,675.2937000001111,Correct
5,105,518,A,48.03964791369113,74.99472792193035,2.401982395684556,1.1780144314875085,B,610.214299999825,Incorrect
5,105,519,B,65.66094340522781,39.65498690675762,3.283047170261391,0.6228990777223459,B,668.9796999999089,Correct
5,105,520,B,70.481110777412,60.85097099868345,3.5240555388706003,0.9558448172663475,B,796.147099999871,Correct
5,105,521,B,44.675383288124955,16.580286219375513,2.233769164406248,0.260442526906031,B,787.0841000003566,Correct
5,105,522,B,50.997288189474205,20.54388680816105,2.5498644094737104,0.3227026193634951,B,494.68739999974787,Correct
5,105,523,A,35.66079350745064,61.77385463804027,1.7830396753725322,0.9703414395739556,A,544.0724999998565,Correct
5,105,524,B,43.67748265204743,25.174138784979974,2.1838741326023716,0.39543444733671484,B,562.308600000506,Correct
5,105,525,B,84.89468215508626,63.65905285423949,4.244734107754312,0.9999540639068156,B,496.1137000000235,Correct
5,105,526,A,41.75144351897632,69.09630439823162,2.087572175948816,1.085362211438443,B,603.7275999997291,Incorrect
5,105,527,B,35.12042392624946,17.026025793965427,1.756021196312473,0.26744418777076057,B,512.9821999998967,Correct
5,105,528,A,54.885170335818245,73.14029733403126,2.7442585167909126,1.1488851039298285,B,452.31390000026295,Incorrect
5,105,529,A,53.552967304954976,82.95720438000463,2.6776483652477485,1.3030887192128477,A,596.5974999999162,Correct
5,105,530,A,19.075095633199624,45.11741068510589,0.9537547816599812,0.7087026297866115,A,819.4973999998183,Correct
5,105,531,B,66.09403001869065,39.75249877309822,3.3047015009345326,0.6244307905370131,B,515.2533000000403,Correct
5,105,532,B,78.74960898558894,61.65694337295488,3.9374804492794464,0.9685050017163848,B,391.9400000004316,Correct
5,105,533,B,55.37847810104362,33.35923716830273,2.768923905052181,0.5240056720864972,B,558.59430000055,Correct
5,105,534,B,50.679209614367124,40.51650732161505,2.5339604807183562,0.6364318087535146,B,428.6692999994557,Correct
5,105,535,B,63.29020555679321,48.964568471619785,3.164510277839661,0.7691336429831757,B,389.2634000003454,Correct
5,105,536,A,19.52366522495568,41.221047412300805,0.9761832612477839,0.6474986986188038,A,598.6418000002232,Correct
5,105,537,A,27.681769335237128,45.82921631662323,1.3840884667618565,0.7198836465004053,A,683.8963000000149,Correct
5,105,538,B,62.235049258047624,52.79799902808303,3.1117524629023814,0.8293490293543333,B,433.4489000002577,Correct
5,105,539,A,41.40058266973561,49.89189753958702,2.0700291334867806,0.7837000939201063,B,382.9561999991711,Incorrect
5,105,540,A,28.36851843442686,37.947932813365384,1.4184259217213429,0.5960847347269387,A,796.2010000001101,Correct
5,105,541,B,34.67231786118684,15.14768964670796,1.7336158930593422,0.23793935256477947,A,534.4952000004923,Incorrect
5,105,542,A,37.55448319520919,50.352610269638646,1.8777241597604593,0.7909369525608337,B,639.5875999996861,Incorrect
5,105,543,B,86.03087580896783,66.25062730130679,4.301543790448392,1.0406624201275039,B,644.2667999999685,Correct
5,105,544,A,15.696665900351746,42.911605253724495,0.7848332950175874,0.6740539190942303,A,565.3961999996682,Correct
5,105,545,A,62.63627085954367,82.00379401899399,3.131813542977184,1.2881125842828105,B,524.5799999993324,Incorrect
5,105,546,B,82.42181199275322,63.68126714289755,4.121090599637661,1.0003030051370803,B,477.7213999996093,Correct
5,105,547,A,43.77289084245238,70.11773448457595,2.188644542122619,1.1014067977155173,A,891.7765999995027,Correct
5,105,548,B,40.71154738583407,30.532153071862204,2.035577369291704,0.4795979389442067,B,620.3627999993842,Correct
5,105,549,A,39.4585172821197,62.697585000018165,1.9729258641059852,0.9848513621693933,A,760.7961000003343,Correct
