subject,day,trial,cat,x,y,xt,yt,resp,rt,fb
7,107,0,A,21.123168683705078,43.768570417025146,1.056158434185254,0.6875150964012687,A,3740.5033000000003,Correct
7,107,1,A,22.397590833222946,46.00081707008493,1.1198795416611473,0.7225791448325338,A,1764.8927000000185,Correct
7,107,2,B,71.61545242457233,51.21946792142788,3.580772621228616,0.8045535207136794,B,709.7361000001001,Correct
7,107,3,B,47.7099761455752,24.50236169315008,2.3854988072787595,0.38488219745400126,B,1694.8827000001074,Correct
7,107,4,B,64.76683495467596,41.865867863277096,3.238341747733798,0.6576275145771617,A,2219.8435999998765,Incorrect
7,107,5,A,46.50024796245781,53.95731597884865,2.3250123981228907,0.8475595374328704,A,796.7130000001816,Correct
7,107,6,A,21.815910188574847,51.02859052105357,1.0907955094287423,0.8015552255199182,A,685.5608000000757,Correct
7,107,7,A,18.88914384587637,49.79282334824627,0.9444571922938184,0.7821438401617241,A,1122.8329999999005,Correct
7,107,8,A,25.25400298194285,40.428045460002096,1.2627001490971426,0.635042253080684,B,1350.4133999999794,Incorrect
7,107,9,B,32.0230076437344,10.241727573092902,1.60115038218672,0.16087668051848342,B,766.452400000162,Correct
7,107,10,A,14.224134550913977,31.073409304551117,0.7112067275456988,0.48809997196583255,A,581.6408999999112,Correct
7,107,11,B,58.77254564558741,36.92303344766255,2.9386272822793704,0.5799856531371343,B,757.0886999997128,Correct
7,107,12,A,15.484436190505587,41.370874636509754,0.7742218095252794,0.6498521791532167,A,556.0336999997162,Correct
7,107,13,B,33.14788492267833,21.251516573500552,1.6573942461339164,0.3338180417247553,B,694.4997999999032,Correct
7,107,14,B,61.15374448344601,37.37426497200359,3.0576872241723003,0.587073581346824,B,641.8716999996832,Correct
7,107,15,B,55.88942295356434,23.99783658913675,2.794471147678217,0.37695713565240174,B,667.2356000003674,Correct
7,107,16,A,14.962601231549357,39.117549330494725,0.7481300615774679,0.6144570280155928,A,576.772500000061,Correct
7,107,17,A,54.23595728181027,76.02364196146651,2.7117978640905136,1.1941765754264195,A,1397.4872999997388,Correct
7,107,18,A,51.45871786847495,78.37362374324127,2.572935893423747,1.2310900029348868,A,630.3525999996964,Correct
7,107,19,B,47.580626638208166,32.747856428115895,2.3790313319104084,0.5144021258769109,B,1474.218700000165,Correct
7,107,20,A,56.699248819642435,77.84550521394448,2.834962440982122,1.2227943364755696,A,1096.318599999904,Correct
7,107,21,B,39.023193586829095,26.452182571103588,1.951159679341455,0.41550991218397504,B,929.1659000000436,Correct
7,107,22,B,48.463355959564495,18.507550225185845,2.4231677979782247,0.29071591911693984,B,693.054200000006,Correct
7,107,23,B,79.31681728426057,49.10458714750306,3.965840864213028,0.7713330512007771,A,1019.7158000000854,Incorrect
7,107,24,B,49.95539501552477,40.74681277446042,2.4977697507762384,0.640049438347218,B,1436.5167999999358,Correct
7,107,25,A,68.12270898690103,84.08510948120754,3.4061354493450517,1.3208058111122751,A,1208.4115999996357,Correct
7,107,26,B,66.88180859877666,55.46274173724932,3.344090429938833,0.8712067099484522,B,1060.8511000000362,Correct
7,107,27,B,61.2185301135268,46.61725270930288,3.06092650567634,0.732262093210424,B,874.9546999997619,Correct
7,107,28,B,46.312881573815304,33.89541333262935,2.3156440786907653,0.5324279075808895,B,1538.693499999681,Correct
7,107,29,A,34.252313854921695,44.60810347105239,1.7126156927460847,0.7007024507761577,A,614.2573000001903,Correct
7,107,30,A,29.657813832850913,59.998390070747426,1.4828906916425455,0.9424525073673746,A,630.0206000000799,Correct
7,107,31,A,38.85008917042297,63.60118938742106,1.9425044585211484,0.9990451466954755,A,2633.0904000001283,Correct
7,107,32,B,66.4842850983764,47.883521161405845,3.3242142549188203,0.75215259154342,A,1055.7472999998936,Incorrect
7,107,33,B,72.35243917123071,59.618064207368434,3.6176219585615352,0.9364783626755664,B,1216.8311000000358,Correct
7,107,34,A,43.089919370844115,51.993306536354424,2.154495968542206,0.816708949252266,A,1206.6749999999047,Correct
7,107,35,A,29.02181159852969,40.07977065824672,1.4510905799264844,0.6295715652875582,B,1399.2347999997037,Incorrect
7,107,36,B,30.89955062201856,12.398750882352466,1.544977531100928,0.1947591234284424,B,734.1443999998774,Correct
7,107,37,A,33.731539121048236,65.22905498741109,1.6865769560524118,1.0246155997452766,A,638.7260999999853,Correct
7,107,38,A,53.29884313174569,65.62933373714706,2.664942156587285,1.0309031636430699,B,1996.2651999999252,Incorrect
7,107,39,A,17.382363052327573,47.847213560776865,0.8691181526163787,0.7515822730863927,A,1494.7698000000855,Correct
7,107,40,A,40.355199344458214,65.35720920624424,2.0177599672229105,1.0266286415073402,A,1140.875699999924,Correct
7,107,41,A,16.97970895995823,43.22343338663054,0.8489854479979115,0.6789521039518315,A,1130.1382999999987,Correct
7,107,42,A,35.01862314206101,48.99585493365177,1.7509311571030506,0.7696250895795581,A,731.8172000000231,Correct
7,107,43,A,28.403492094509765,48.45057614850628,1.4201746047254884,0.7610598704517009,A,972.656900000402,Correct
7,107,44,B,41.452852504293475,19.70120476490774,2.072642625214674,0.3094658007815119,B,510.03509999918606,Correct
7,107,45,A,58.24623626346728,73.25621128023474,2.912311813173364,1.1507058759390358,A,1984.5593999998528,Correct
7,107,46,A,50.34442212334099,73.79462243936814,2.5172211061670495,1.1591632186497571,A,741.5339999997741,Correct
7,107,47,A,23.027328315632534,51.80251980853612,1.1513664157816266,0.813712078339684,A,1233.9707999999519,Correct
7,107,48,A,42.0030509400871,72.19059833623044,2.1001525470043547,1.1339672669567653,A,990.391900000759,Correct
7,107,49,A,20.94766032960326,51.062771261087825,1.047383016480163,0.8020921353288475,A,560.0886000001992,Correct
7,107,50,A,35.03550703157828,65.89041960180708,1.7517753515789138,1.0350042908149302,A,1179.6650999995109,Correct
7,107,51,B,64.97559995906661,56.28856868654749,3.2487799979533305,0.8841787693337104,A,747.1529000004011,Incorrect
7,107,52,B,46.87162182380819,26.469666857623807,2.34358109119041,0.4157845547144008,B,652.5409999994736,Correct
7,107,53,B,74.2919981498267,50.23903266019698,3.7145999074913347,0.7891528796436625,B,826.3490999997885,Correct
7,107,54,B,54.35230375893454,37.94252376898946,2.7176151879467274,0.595999769656567,B,561.5514999999505,Correct
7,107,55,A,49.75458018074771,73.19156252364976,2.487729009037386,1.1496903756452805,B,996.8699000000925,Incorrect
7,107,56,A,50.71536524167244,72.05532908347658,2.535768262083622,1.1318424625032248,B,1290.6974999996237,Incorrect
7,107,57,A,57.64097337478678,77.08205257905557,2.8820486687393387,1.2108020505299157,A,654.5568000001367,Correct
7,107,58,B,49.47462518282519,34.09975490546548,2.47373125914126,0.5356376975011143,B,746.7406000005212,Correct
7,107,59,A,40.55549085494799,69.31539372763064,2.0277745427474,1.0888036585770422,A,822.6103000006333,Correct
7,107,60,B,46.438468350364715,24.266678398694744,2.3219234175182355,0.3811800929218277,B,683.8621000006242,Correct
7,107,61,A,26.73713863566268,50.235897747577624,1.3368569317831343,0.7891036365513895,A,1304.3023999998695,Correct
7,107,62,B,32.61927192864915,17.49578036213193,1.6309635964324574,0.2748230752724713,B,703.2213999991654,Correct
7,107,63,B,79.17480075261636,66.85388483801125,3.958740037630818,1.050138367355171,B,725.3058000005694,Correct
7,107,64,A,27.237083345498768,55.91530722953475,1.3618541672749385,0.8783155920776129,A,951.2605999998414,Correct
7,107,65,B,58.27964288818299,37.0718822329709,2.9139821444091494,0.5823237643892367,B,1325.5988000000798,Correct
7,107,66,B,47.00524894258953,28.925124608071258,2.3502624471294764,0.45435479486443003,B,747.460399999909,Correct
7,107,67,A,41.72057704535324,60.8971067325394,2.086028852267662,0.9565695156790965,B,882.0778000008431,Incorrect
7,107,68,B,56.826722571875784,38.0870905215813,2.841336128593789,0.5982706188960464,B,406.242399999428,Correct
7,107,69,B,52.81505640449832,28.655401929873662,2.640752820224916,0.4501180009427694,B,671.3494999994509,Correct
7,107,70,B,60.95432064562256,49.31950540838176,3.047716032281128,0.774708979348271,B,1300.895600000331,Correct
7,107,71,A,27.640116603917818,55.923936851376446,1.3820058301958908,0.8784511458605186,A,488.50969999966765,Correct
7,107,72,B,74.18826020573303,62.98108683668738,3.7094130102866516,0.9893045986061896,A,812.6587999995536,Incorrect
7,107,73,A,68.63549990706066,86.22486962628132,3.4317749953530328,1.3544170848733155,B,790.0456999996095,Incorrect
7,107,74,B,59.019436012422084,38.58784196902143,2.950971800621104,0.6061364042388081,B,675.0443000000814,Correct
7,107,75,B,55.881358646739095,39.22214922628003,2.7940679323369544,0.6161000793364196,B,854.6475000002829,Correct
7,107,76,B,51.24744241534451,30.746358795005136,2.5623721207672254,0.4829626745751204,B,707.0784999996249,Correct
7,107,77,B,83.60315339683018,67.27052814793907,4.180157669841509,1.056682985163354,A,979.3713999997635,Incorrect
7,107,78,B,68.43406525168197,40.234863764947406,3.421703262584099,0.6320077621107247,B,971.9051000001855,Correct
7,107,79,A,45.346757532875955,63.92627268196411,2.267337876643798,1.0041515431451817,A,1054.4534000000567,Correct
7,107,80,A,54.40228800415405,63.92326949081137,2.7201144002077022,1.004104369128868,A,769.462499999463,Correct
7,107,81,B,58.828542150509676,48.304293636079805,2.941427107525484,0.7587620701197627,A,992.4158999992869,Incorrect
7,107,82,B,42.89541830288384,19.694074583258743,2.1447709151441923,0.3093538001500757,B,901.6668000003847,Correct
7,107,83,A,24.125947052577747,40.43823552292267,1.2062973526288874,0.6352023182147383,A,1591.6156999992381,Correct
7,107,84,A,13.08848279056265,39.508612779991346,0.6544241395281325,0.6205998383157232,A,722.082400000545,Correct
7,107,85,A,46.79598050314812,60.10280571226611,2.339799025157406,0.9440926644289492,A,1389.4356000000698,Correct
7,107,86,A,62.85789984372833,79.72928689247648,3.1428949921864167,1.2523847098867853,A,847.6849999997285,Correct
7,107,87,A,28.377562227115817,60.074348715432166,1.418878111355791,0.9436456629679657,A,960.7981999997719,Correct
7,107,88,A,45.99013112950222,64.73314918127855,2.299506556475111,1.016825929558184,A,1474.2088000002695,Correct
7,107,89,B,73.57538099063099,62.55549329456327,3.6787690495315495,0.9826193908794276,A,1186.5087999995012,Incorrect
7,107,90,A,42.78259492964875,52.38191976076116,2.1391297464824377,0.8228132715066863,A,754.5030999999653,Correct
7,107,91,A,35.58932276646403,44.260767865567324,1.7794661383232013,0.6952465158435475,A,2222.3997000000963,Correct
7,107,92,B,86.85758107417428,67.68840761693772,4.342879053708714,1.0632470205128146,B,1261.8461999991268,Correct
7,107,93,A,50.655130358739456,77.70286703301916,2.532756517936973,1.2205537811689877,B,600.1226000007591,Incorrect
7,107,94,B,86.62648397122089,67.58785810326968,4.3313241985610444,1.061667592445507,B,471.2883000001966,Correct
7,107,95,B,80.62154082489884,52.30476780475125,4.031077041244942,0.8216013714156323,A,1719.5867999998882,Incorrect
7,107,96,A,66.18546134628234,83.16646888728533,3.309273067314117,1.3063758384064985,B,781.1775000000125,Incorrect
7,107,97,B,39.56269608052854,13.408955755883774,1.978134804026427,0.2106273844749752,B,961.5492000002632,Correct
7,107,98,B,46.385662952923475,21.979743302178893,2.3192831476461735,0.34525700042957336,B,1235.4857000000266,Correct
7,107,99,B,82.51269691693994,52.001187827253915,4.125634845846998,0.8168327482802195,A,905.8924999999363,Incorrect
7,107,100,A,40.32223791720834,59.840270389202416,2.016111895860417,0.9399687692177258,A,1185.6364999994184,Correct
7,107,101,B,66.0025246484259,54.96714824626855,3.300126232421295,0.8634219455962917,A,817.8965999995853,Incorrect
7,107,102,A,36.81838025646081,45.979309464495415,1.8409190128230406,0.7222413041539524,A,841.9158000006064,Correct
7,107,103,A,20.78363324181875,47.94478901748114,1.0391816620909375,0.7531149847761567,A,582.911100000274,Correct
7,107,104,A,66.73043234915482,79.63994661761988,3.3365216174577417,1.2509813561309895,B,780.4286999999022,Incorrect
7,107,105,A,30.599430958282227,49.23471925732981,1.5299715479141114,0.773377161601916,A,2262.4048999996376,Correct
7,107,106,A,59.384166026053,80.21177984722951,2.96920830130265,1.2599636914970902,A,1845.8497000001444,Correct
7,107,107,A,29.539734936684702,41.20791566388171,1.4769867468342353,0.6472924255969926,A,941.6077999994741,Correct
7,107,108,A,61.53796404676916,73.78197385096847,3.076898202338458,1.158964535087784,B,970.054400000663,Incorrect
7,107,109,B,51.292426430261486,33.36428516474872,2.564621321513074,0.5240849658292476,B,456.14560000012716,Correct
7,107,110,B,49.72350759355109,34.77371521054988,2.4861753796775545,0.5462242412174358,B,812.2417999993559,Correct
7,107,111,B,36.12082445122049,17.47651730247417,1.8060412225610247,0.27452049183893884,B,916.8649000002915,Correct
7,107,112,B,64.71750969889257,40.73196937046071,3.2358754849446285,0.6398162787024192,B,1607.0912000004682,Correct
7,107,113,B,67.30857676519119,38.41009502480056,3.3654288382595596,0.6033443617679966,B,1093.7008999999307,Correct
7,107,114,A,42.528802768767505,49.39919752068645,2.126440138438375,0.7759607801210984,A,1025.0756999994337,Correct
7,107,115,B,41.123056117313205,18.019675215406565,2.0561528058656604,0.28305239638397667,B,813.7522999995781,Correct
7,107,116,B,79.12730418555991,66.3391870010682,3.9563652092779957,1.0420535126383768,A,2187.587400000666,Incorrect
7,107,117,A,53.99919153346883,78.60628619476431,2.6999595766734417,1.2347446561772417,A,781.2447000005704,Correct
7,107,118,A,36.812108891099484,53.326507903739106,1.8406054445549742,0.837650827359924,A,2355.9013999993113,Correct
7,107,119,A,23.166234874907826,38.20530130885807,1.1583117437453914,0.600127469600465,A,1317.3271000005116,Correct
7,107,120,B,69.1401109570632,49.5972851179975,3.45700554785316,0.7790723328234965,A,1745.4674000000523,Incorrect
7,107,121,B,72.40736396381541,45.461816948976015,3.620368198190771,0.7141125507287349,B,771.9205999992482,Correct
7,107,122,B,56.86508484519455,31.9235275159118,2.843254242259728,0.5014535976033007,B,1139.9610999997094,Correct
7,107,123,A,41.42730780240191,67.3491931145862,2.0713653901200955,1.0579186515699215,A,1172.840900000665,Correct
7,107,124,A,50.27780062062556,63.03242285796795,2.513890031031278,0.9901109829427873,A,752.1350999995775,Correct
7,107,125,B,54.6648167180513,24.151125573806908,2.733240835902565,0.3793649933929818,B,1295.905899999525,Correct
7,107,126,B,80.67603271475306,61.23468133946207,4.033801635737653,0.9618721252048301,B,2460.3409000001193,Correct
7,107,127,B,66.17799453365512,54.91343450694661,3.308899726682756,0.8625782121520386,B,631.9615000002159,Correct
7,107,128,A,17.060858721299606,44.87032326978594,0.8530429360649804,0.7048213897427934,A,699.8162999998385,Correct
7,107,129,B,73.88083008252895,49.02302615636776,3.6940415041264476,0.7700518941479261,B,958.0829000005906,Correct
7,107,130,B,77.6567349624732,50.035466551243644,3.8828367481236596,0.7859552706816242,B,741.2625999995726,Correct
7,107,131,A,60.013320091934176,77.65369407586289,3.000666004596709,1.2197813741642003,A,913.1335000001854,Correct
7,107,132,B,40.6735918540344,18.362565959800378,2.03367959270172,0.2884385116018343,B,932.1846000002552,Correct
7,107,133,B,43.956391824892464,35.0052954321328,2.1978195912446234,0.5498618948316437,B,723.3904000004259,Correct
7,107,134,B,46.02891056690218,33.72212636231549,2.3014455283451087,0.5297059222163851,B,894.6982000006756,Correct
7,107,135,A,28.19913177293747,53.38279849238575,1.4099565886468737,0.8385350378587169,A,1000.6492000002254,Correct
7,107,136,A,60.05049242615348,70.44727009637265,3.002524621307674,1.1065831310011012,A,886.4897000003111,Correct
7,107,137,B,44.86931532771343,17.582548318227055,2.2434657663856714,0.27618602313964846,B,637.102099999538,Correct
7,107,138,A,45.34264881012782,75.71856048158678,2.267132440506391,1.1893843667467372,A,935.3344999999536,Correct
7,107,139,B,40.35099807370226,19.41578518519315,2.017549903685113,0.30498244050740175,B,754.113399999369,Correct
7,107,140,B,57.77996695002872,29.861189412263926,2.888998347501436,0.4690584664251084,B,1112.443500000154,Correct
7,107,141,B,69.882534337227,47.83050040746804,3.4941267168613503,0.7513197434881259,B,1286.5482999995947,Correct
7,107,142,B,56.33921686094169,37.285577997211206,2.8169608430470845,0.5856804896044399,B,851.5281999998479,Correct
7,107,143,A,53.260705163056485,73.9115115399479,2.6630352581528247,1.1609993083480878,A,1027.2837000002255,Correct
7,107,144,A,39.46800296554016,50.78931419498273,1.973400148277008,0.7977966817791079,A,1250.752600000851,Correct
7,107,145,B,57.50402268048988,32.24058875292789,2.875201134024494,0.50643398386804,B,1496.035699999993,Correct
7,107,146,A,50.928154316085326,65.52046022432386,2.5464077158042664,1.0291929825027906,B,1084.7278000001097,Incorrect
7,107,147,A,49.22865152997147,78.83791794463376,2.4614325764985736,1.2383831191958816,A,1125.3012999995917,Correct
7,107,148,A,15.517366315905289,40.11815941750203,0.7758683157952645,0.6301745745078426,A,568.9173999999184,Correct
7,107,149,B,87.23908543650494,64.66553528594137,4.361954271825247,1.0157638529738249,B,1374.9907000001258,Correct
7,107,150,A,37.74178341229289,68.80841928750179,1.8870891706146444,1.0808401226937092,B,2028.5292999997182,Incorrect
7,107,151,B,57.31697589659062,46.57321573683173,2.8658487948295313,0.7315703620644154,B,1577.4873999998817,Correct
7,107,152,B,54.654269386076614,29.443338907338894,2.7327134693038304,0.4624948860422521,B,717.6523000007364,Correct
7,107,153,A,44.65074940394605,69.53561950667425,2.2325374701973026,1.0922629570249147,B,1844.6041999995941,Incorrect
7,107,154,A,46.75289510584328,63.66246150916244,2.337644755292164,1.0000076069331385,B,887.9440000000614,Incorrect
7,107,155,B,66.11647506556588,42.27228169856468,3.3058237532782937,0.6640114481734454,B,894.0130000000863,Correct
7,107,156,B,71.49886370288374,46.471546894609375,3.574943185144187,0.7299733516252919,B,674.4607999999062,Correct
7,107,157,A,63.73456776838746,79.56614526739034,3.1867283884193727,1.249822087232459,A,891.5927999996711,Correct
7,107,158,A,21.096993342973896,52.838070434407605,1.0548496671486947,0.8299784695329749,A,554.1974999996455,Correct
7,107,159,B,58.4864101136197,31.177834887691247,2.924320505680985,0.4897402851900319,B,978.255199999694,Correct
7,107,160,B,58.40110699725126,29.294974796299677,2.920055349862563,0.46016438803576604,B,2847.5048000000243,Correct
7,107,161,B,75.07142567299405,54.349087982564456,3.753571283649703,0.853713477676649,B,1128.93079999958,Correct
7,107,162,A,48.36188308260362,61.79992498570962,2.418094154130181,0.9707509516375282,B,2436.23960000059,Incorrect
7,107,163,A,37.93628833544453,68.51474187349463,1.8968144167722267,1.0762270486618586,A,1010.019999999713,Correct
7,107,164,A,50.54317124594468,65.82980948489914,2.5271585622972337,1.0340522293248742,A,1351.8574999998236,Correct
7,107,165,B,39.65332107434923,15.628040849438648,1.9826660537174616,0.24548469161298822,B,724.0096999994421,Correct
7,107,166,B,55.9506353743874,41.64165671776146,2.79753176871937,0.6541056141391373,B,1316.8738999993366,Correct
7,107,167,B,33.715108971383984,18.88280723213611,1.6857554485691992,0.29661044239815504,B,1284.8963000005824,Correct
7,107,168,B,46.55151934811343,37.90968328458962,2.3275759674056715,0.5954839125339126,B,2582.825100000264,Correct
7,107,169,A,28.051650967044836,58.76406051883465,1.4025825483522418,0.9230637041053847,A,1022.0496000001731,Correct
7,107,170,A,28.814502464539743,43.63017684873776,1.440725123226987,0.6853412153140901,A,2200.2446000005875,Correct
7,107,171,B,74.10531132718344,49.377138157624096,3.7052655663591723,0.7756142724564005,B,1217.9359000001568,Correct
7,107,172,B,71.82694616296077,47.862248601273805,3.5913473081480385,0.7518184429502508,B,559.2261000001599,Correct
7,107,173,A,24.173899453388117,55.07930112880942,1.2086949726694058,0.8651836389556384,A,731.9228999995175,Correct
7,107,174,B,36.37295322976192,26.32681154415492,1.818647661488096,0.4135405886978003,B,1161.9951000002402,Correct
7,107,175,B,68.55390710932984,53.54323936868074,3.4276953554664917,0.8410552372502361,B,1731.402899999921,Correct
7,107,176,B,58.213341855331876,29.1762496445398,2.9106670927665936,0.45829945771294034,B,824.9150000001464,Correct
7,107,177,A,25.207250769097943,42.721614889934344,1.260362538454897,0.6710695574385503,A,824.4002000001274,Correct
7,107,178,A,46.37497748414335,55.69080110103908,2.318748874207168,0.8747890580577736,B,1204.006500000105,Incorrect
7,107,179,A,32.31649177258373,57.5688399771723,1.6158245886291867,0.9042892237398544,A,623.0649999997695,Correct
7,107,180,B,88.02246149918153,69.1052054889234,4.401123074959076,1.085502029444074,B,608.4629999995741,Correct
7,107,181,A,60.322513772999415,72.44304057295346,3.0161256886499705,1.1379326203384899,B,506.1308000003919,Incorrect
7,107,182,A,26.398873601640496,44.007784173472274,1.3199436800820248,0.6912726573007284,A,1146.4135000005626,Correct
7,107,183,B,81.3543087994012,62.424409526713376,4.06771543997006,0.9805603318690171,B,1486.5740000004735,Correct
7,107,184,A,23.02836729313834,38.09712226168074,1.1514183646569172,0.5984281971010419,A,685.7915000000503,Correct
7,107,185,B,78.48578204799375,46.87516817755156,3.9242891023996878,0.73631341991191,B,1403.3079000000726,Correct
7,107,186,B,80.00022220402633,56.04134069000274,4.000011110201316,0.8802953210451767,B,794.7769999991579,Correct
7,107,187,B,60.087193264645826,34.018500848453336,3.0043596632322913,0.5343613617581957,B,2015.773399999489,Correct
7,107,188,A,66.2640926242943,77.51022345152617,3.3132046312147154,1.2175277428670896,A,1493.305699999837,Correct
7,107,189,A,59.919142005221374,72.82998118458545,2.9959571002610685,1.1440106692528824,B,2650.857999999971,Incorrect
7,107,190,B,68.86095074506167,50.813843132404216,3.4430475372530838,0.7981819814271264,B,795.9769999997661,Correct
7,107,191,A,36.80882799109378,44.7691537320659,1.8404413995546889,0.7032322223604516,A,1116.5608000001157,Correct
7,107,192,A,63.86746989819143,81.10968159571178,3.1933734949095713,1.2740678991804768,A,884.5521000002918,Correct
7,107,193,A,52.47226455366029,61.08169861287043,2.6236132276830144,0.959469078154898,A,719.0695999997843,Correct
7,107,194,A,50.48403998177975,63.16378617200613,2.5242019990889877,0.9921744330544551,A,989.7216000008484,Correct
7,107,195,A,43.19287480450319,61.55368982651525,2.1596437402251594,0.9668830988016255,A,834.6753000005265,Correct
7,107,196,B,47.19004724942783,23.364094091097925,2.3595023624713916,0.3670023317718697,B,1405.1641000005475,Correct
7,107,197,B,43.292643833856914,14.312058955696646,2.1646321916928457,0.22481329636480293,B,703.1124000004638,Correct
7,107,198,A,20.30783475730259,36.994720210599624,1.0153917378651294,0.5811117061761482,A,1120.5654999994294,Correct
7,107,199,A,17.833705025144646,32.47897262775669,0.8916852512572322,0.5101785090175219,A,661.5387000001647,Correct
7,107,200,A,28.90059075453317,56.35483662255625,1.4450295377266584,0.8852197036383787,A,1299.6345999999903,Correct
7,107,201,A,44.14591257751682,59.33055280773458,2.207295628875841,0.9319621441710011,A,1499.0742999998474,Correct
7,107,202,A,34.579549690812236,66.04614241033016,1.7289774845406116,1.0374503789711924,A,524.4961999997031,Correct
7,107,203,A,29.412210767815257,57.76821676491069,1.4706105383907628,0.9074210269981308,A,631.536099999721,Correct
7,107,204,B,49.21018024708957,27.78926739497155,2.4605090123544784,0.4365127914834249,B,836.2532000001011,Correct
7,107,205,A,14.546302956253111,37.42446587668586,0.7273151478126556,0.5878621353135909,A,626.3356999997995,Correct
7,107,206,B,46.24258097866727,17.460028777507702,2.3121290489333632,0.27426149069442285,B,1066.649200000029,Correct
7,107,207,A,43.59776528850969,52.49645635993474,2.1798882644254847,0.8246124081993407,A,1286.784799999623,Correct
7,107,208,A,20.086397420858763,41.801823924969455,1.0043198710429382,0.6566215147466904,A,593.8194000000294,Correct
7,107,209,B,69.8443631381911,50.08545160126515,3.492218156909555,0.7867404340113087,A,1895.9249999998065,Incorrect
7,107,210,B,58.27700466141974,28.972750379912444,2.9138502330709866,0.45510289873911913,B,972.9265999994823,Correct
7,107,211,B,61.24014936633058,30.09775656132131,3.062007468316529,0.4727744545129051,B,786.451500000112,Correct
7,107,212,B,43.91574290010729,33.23787957030267,2.1957871450053643,0.5220993913948255,A,1393.3686000000307,Incorrect
7,107,213,B,52.004494512535494,43.578459052535656,2.600224725626775,0.6845288340710483,B,1216.5414999999484,Correct
7,107,214,A,19.28927858954576,44.716517104525714,0.964463929477288,0.7024054081485016,A,1035.6345999998666,Correct
7,107,215,A,34.777096609068366,48.9884822127681,1.7388548304534184,0.7695092791507325,A,1692.4645999997665,Correct
7,107,216,A,53.43194142777591,65.48841969971802,2.671597071388795,1.0286896911191963,B,1646.6860999998971,Incorrect
7,107,217,A,22.60181866577284,41.35522931806157,1.130090933288642,0.6496064230657173,A,559.8091000001659,Correct
7,107,218,B,56.14381084597922,38.05531379275332,2.8071905422989607,0.5977714712068408,B,1617.755500000385,Correct
7,107,219,B,61.857244966590535,54.075484610897114,3.0928622483295265,0.8494157259645114,B,1428.8249000001088,Correct
7,107,220,A,15.624263012576154,37.762388140903184,0.7812131506288077,0.5931702058273388,A,503.33560000035504,Correct
7,107,221,B,79.6987310458868,62.11066367060276,3.9849365522943403,0.9756320234857605,B,1376.7223000004378,Correct
7,107,222,B,68.16215906412559,54.56447490280034,3.4081079532062795,0.857096767508111,B,831.1071999996784,Correct
7,107,223,A,32.103827511551984,60.04764356163308,1.605191375577599,0.9432261793930247,A,1674.1264000002047,Correct
7,107,224,A,51.8661498676018,67.49218491587904,2.59330749338009,1.0601647615322471,A,3203.2931000003373,Correct
7,107,225,B,37.63882154496257,24.313486277444397,1.8819410772481284,0.38191534936187777,B,792.8224999996019,Correct
7,107,226,A,39.01589505930901,68.83701759836467,1.9507947529654504,1.0812893439102687,A,1154.4594000006327,Correct
7,107,227,B,38.52224912738504,19.476216557175444,1.926112456369252,0.30593169427873135,B,866.2423000005219,Correct
7,107,228,B,67.48555374939218,51.63470703355431,3.374277687469609,0.8110760814343771,B,1485.0165999996534,Correct
7,107,229,B,70.26475147177227,37.01079885487401,3.5132375735886137,0.5813642689298086,B,633.1688000000213,Correct
7,107,230,A,41.362342929960555,73.35874948777898,2.068117146498028,1.152316542336702,A,709.0422000001126,Correct
7,107,231,A,16.541682933838775,46.779510215269084,0.8270841466919387,0.7348108281540903,A,513.198900000134,Correct
7,107,232,B,60.11243386914618,37.781949297743104,3.005621693457309,0.593477471760459,A,1579.4550999999046,Incorrect
7,107,233,B,74.91770763067326,42.978128668129294,3.745885381533663,0.6750988664441594,B,428.80650000006426,Correct
7,107,234,B,41.19269850195693,15.038231975505639,2.0596349250978467,0.23621999548613817,B,1123.190700000123,Correct
7,107,235,A,54.66835699701579,62.874702002491844,2.7334178498507895,0.9876335095383791,A,2836.307200000192,Correct
7,107,236,A,46.56525860285686,62.72150552030747,2.328262930142843,0.985227104823448,A,839.3807000002198,Correct
7,107,237,B,45.58626647255371,37.503971826334045,2.2793133236276857,0.5891110118502481,B,1657.3255000002973,Correct
7,107,238,A,26.479089688742278,39.32990376349369,1.3239544844371138,0.6177926836489267,A,1803.015499999674,Correct
7,107,239,B,54.78683421625341,31.802433288174242,2.7393417108126705,0.49955145392203854,B,1030.3432999999131,Correct
7,107,240,B,49.06700074990706,19.3836926016343,2.453350037495353,0.30447833138368574,B,681.3864999994621,Correct
7,107,241,A,54.64104328022144,79.23593059203516,2.7320521640110718,1.2446350872414422,B,2280.8344999994006,Incorrect
7,107,242,A,31.23653200494885,50.456583285351286,1.5618266002474426,0.7925701568725059,A,900.7344000001467,Correct
7,107,243,B,35.10661849465866,18.68571208478163,1.7553309247329332,0.29351447906322,B,1305.4688000001988,Correct
7,107,244,B,55.37724474478961,23.812886830755254,2.7688622372394804,0.3740519516413292,B,852.2162999997818,Correct
7,107,245,B,56.77856812321722,24.208609872278707,2.838928406160861,0.3802679546418607,B,851.693499999783,Correct
7,107,246,B,66.58018365231032,52.18549040387368,3.329009182615516,0.819727766383951,B,1685.6411000007938,Correct
7,107,247,B,70.34971069364549,54.19152620884114,3.517485534682274,0.8512385031225703,B,838.8020000002143,Correct
7,107,248,A,45.04067770095367,64.56051016833406,2.2520338850476835,1.0141141222842371,A,1078.5397999998168,Correct
7,107,249,B,78.38792700324016,52.631962682243966,3.9193963501620086,0.826740936532749,B,2141.151400000126,Correct
7,107,250,A,34.56219075589723,55.823628155023684,1.7281095377948614,0.8768755005427536,A,1331.7692000000534,Correct
7,107,251,B,77.73368853286891,48.62477998464084,3.8866844266434453,0.7637962579108384,B,1336.2396000002263,Correct
7,107,252,B,60.89590659582975,47.422385392735784,3.0447953297914876,0.7449090878276133,B,1174.5688000000882,Correct
7,107,253,A,40.55556351749133,50.29721730181157,2.0277781758745665,0.7900668418569032,A,2366.6316999997434,Correct
7,107,254,B,46.52533779345573,20.17636884106855,2.3262668896727865,0.31692966063609485,B,1577.6863000000958,Correct
7,107,255,A,58.32528897587936,68.88024769599568,2.9162644487939677,1.0819684006959265,A,2224.327099999755,Correct
7,107,256,A,23.71605095430227,45.152769768550705,1.1858025477151133,0.709258048970551,A,728.3440000001065,Correct
7,107,257,A,43.521121597629445,64.27292519709262,2.176056079881472,1.0095967481195625,A,989.9149000002581,Correct
7,107,258,B,66.63997307620859,35.39496025955806,3.33199865381043,0.5559827356276514,B,1104.127200000221,Correct
7,107,259,A,45.95143205839053,63.43645498156215,2.297571602919527,0.9964575046992765,A,1522.918099999515,Correct
7,107,260,A,26.880804369729496,42.226878023281,1.3440402184864748,0.6632982489098593,A,1338.3488999998008,Correct
7,107,261,B,46.27429197698952,23.546578487525533,2.313714598849476,0.3698687899679284,B,1844.3182999999408,Correct
7,107,262,A,42.5765667153144,51.170740590647306,2.12882833576572,0.8037881135916332,A,1095.1103999996121,Correct
7,107,263,A,52.36820213494021,59.2215769920543,2.6184101067470107,0.9302503560612005,A,2399.913600000218,Correct
7,107,264,A,34.14868159819009,58.71539264312407,1.7074340799095042,0.9222992309013939,A,1065.6278999995266,Correct
7,107,265,B,76.11455302436252,65.32333629246924,3.805727651218126,1.0260965670219844,B,931.3038999998753,Correct
7,107,266,B,63.78946853319809,54.30192256919744,3.1894734266599043,0.8529726050959624,B,872.2748000000138,Correct
7,107,267,A,58.013712809149354,78.26658669005346,2.9006856404574677,1.229408668835103,A,1851.610300000175,Correct
7,107,268,A,41.51559256483664,53.95220044224225,2.075779628241832,0.8474791827717612,A,1112.0516999999381,Correct
7,107,269,B,63.62688418541062,53.47832459089465,3.181344209270531,0.840035558305225,B,939.3763999996736,Correct
7,107,270,B,73.80289027103493,44.799060361867774,3.690144513551746,0.7037019946028474,B,750.9547999998176,Correct
7,107,271,B,47.98464528668534,23.255308141681887,2.3992322643342674,0.3652935260743736,B,974.7319999996762,Correct
7,107,272,A,64.45286206525417,84.90174494909108,3.2226431032627083,1.3336334910450942,A,1081.4946999998938,Correct
7,107,273,B,64.60653509758208,34.58456592421505,3.230326754879104,0.5432530911755294,B,747.9878999993161,Correct
7,107,274,B,45.52383614266576,21.536198422918186,2.2761918071332876,0.33828981375845935,B,1021.3956999996299,Correct
7,107,275,B,62.562450986803476,44.9204529457248,3.128122549340174,0.7056088248510749,B,1594.9241999996957,Correct
7,107,276,B,51.95035512642878,37.04855448152729,2.597517756321439,0.5819573329264368,B,1277.4419999996098,Correct
7,107,277,A,52.19550596369398,72.53851456400184,2.609775298184699,1.1394323222829221,A,2683.8066000000254,Correct
7,107,278,A,40.609776729152564,50.44492202222603,2.030488836457628,0.7923869821796765,A,2001.3621999996758,Correct
7,107,279,B,47.26174060766439,23.11230815010183,2.3630870303832197,0.363047287459317,B,802.491800000098,Correct
7,107,280,B,59.695093067978036,40.86856270416889,2.9847546533989022,0.6419618817709539,B,1852.4302000005264,Correct
7,107,281,B,54.08259855257564,41.22570007293227,2.7041299276287822,0.647571782441101,B,1195.3575999996247,Correct
7,107,282,A,30.434136617548425,63.55632848036896,1.5217068308774213,0.9983404732153343,A,1305.7435999999143,Correct
7,107,283,A,27.62581405483267,51.78788129117947,1.3812907027416335,0.8134821370467485,A,1692.2333000002254,Correct
7,107,284,A,23.95652236466124,48.3900138816425,1.197826118233062,0.760108560588381,A,665.2117000003273,Correct
7,107,285,A,44.638580607392996,54.90487432018125,2.23192903036965,0.8624437490527617,A,2407.3069999994914,Correct
7,107,286,A,50.08326241681897,80.0192620347711,2.5041631208409485,1.2569396287705676,A,1239.0378999998575,Correct
7,107,287,A,66.03157741726265,78.5699363310474,3.301578870863133,1.2341736738531814,B,1173.6829999999827,Incorrect
7,107,288,B,69.66581735826853,49.87928160948603,3.4832908679134267,0.783501923353489,B,2253.1389999994644,Correct
7,107,289,A,55.04953413773016,74.37048688152765,2.752476706886508,1.1682088761545169,A,776.183800000581,Correct
7,107,290,B,48.801072959499955,41.898725900325935,2.4400536479749975,0.6581436474161818,B,1265.0688000003356,Correct
7,107,291,A,51.813221124715106,59.921362843488524,2.5906610562357555,0.9412425665109596,A,1065.895400000045,Correct
7,107,292,A,64.5619835748364,82.99442413691527,3.2280991787418203,1.3036733657872424,A,1028.4215000001495,Correct
7,107,293,A,67.96042439703172,86.42500237794324,3.398021219851586,1.3575607627851345,A,913.3796999994956,Correct
7,107,294,B,40.02029474836039,26.026604942419148,2.0010147374180196,0.40882495442493905,B,1036.4660999994157,Correct
7,107,295,B,38.69041256050043,22.860856546024046,1.9345206280250213,0.3590974948987964,B,713.4384000000864,Correct
7,107,296,A,58.08904745900866,83.12304672829666,2.904452372950433,1.3056937647280893,A,1161.174399999254,Correct
7,107,297,A,37.186796158238586,46.284594382108686,1.8593398079119294,0.7270367084260803,B,1625.7455000004484,Incorrect
7,107,298,B,50.38099340040157,39.69596244746869,2.5190496700200784,0.6235427200107198,A,950.456600000507,Incorrect
7,107,299,B,48.82539341743113,21.977323153276796,2.4412696708715567,0.34521898481951624,B,828.0051000001549,Correct
7,107,300,B,73.23649738688565,54.0009381928398,3.661824869344282,0.8482447535679098,B,2683.4598000004917,Correct
7,107,301,A,41.13224070225209,56.5205212066286,2.0566120351126047,0.8878222709990525,A,1578.1213000000207,Correct
7,107,302,A,44.243254695282836,55.71739178402603,2.2121627347641417,0.8752067435294023,A,985.5677000005016,Correct
7,107,303,A,57.74151894538599,84.72946078053398,2.8870759472692997,1.3309272576537503,A,1197.4392999991323,Correct
7,107,304,A,27.66853689408584,48.82752676168903,1.383426844704292,0.7669809968374065,A,616.7879999993602,Correct
7,107,305,B,47.58563611282024,38.06230792673752,2.379281805641012,0.5978813348065557,B,802.7323000005708,Correct
7,107,306,A,34.16748970023912,60.990464624228196,1.708374485011956,0.9580359780125174,A,1824.8388000001796,Correct
7,107,307,A,32.697930462603196,52.23833598271351,1.63489652313016,0.8205578627952406,A,1041.9538999994984,Correct
7,107,308,B,35.134377334551814,11.098301393968597,1.7567188667275906,0.17433171063308553,B,786.5123000001404,Correct
7,107,309,B,83.38723846425795,53.19622688542642,4.169361923212898,0.8356043779097575,B,2182.139100000313,Correct
7,107,310,B,34.93556278235213,16.79203107606125,1.7467781391176063,0.2637686073370276,B,776.3585000002422,Correct
7,107,311,A,55.665408000307224,79.15820668348027,2.7832704000153616,1.2434142029408204,A,766.1598000004233,Correct
7,107,312,A,36.3671289921369,47.840343605026746,1.8183564496068447,0.7514743600738173,A,1991.0385000002861,Correct
7,107,313,A,37.392124497281415,61.46975989767412,1.8696062248640708,0.9655647305623075,A,666.081800000029,Correct
7,107,314,B,80.64517581282382,51.97542892939559,4.032258790641191,0.8164281284588379,B,1627.4549999998271,Correct
7,107,315,B,80.3446571634602,63.79312908599002,4.01723285817301,1.002060128430258,B,1684.0558000003512,Correct
7,107,316,B,38.735604660952745,12.899713915337632,1.9367802330476371,0.20262823234917365,B,958.0056999993758,Correct
7,107,317,A,39.952862279422085,54.562739189346836,1.9976431139711042,0.8570695029849396,A,1668.3861000001343,Correct
7,107,318,B,47.93977948805092,26.32145959927795,2.396988974402546,0.4134565205442608,B,1183.7132999999085,Correct
7,107,319,A,41.221574850842906,57.256528859722486,2.0610787425421453,0.8993834521787807,A,1626.1867000002894,Correct
7,107,320,B,44.51424122334287,22.305163578808113,2.2257120611671435,0.35036869018151096,B,690.2263000001767,Correct
7,107,321,A,33.25559694303355,44.21225333037072,1.6627798471516775,0.6944844513067175,A,1222.6217999996152,Correct
7,107,322,B,50.233176058060906,30.67296323598103,2.511658802903045,0.481809779829939,B,1106.8219999997382,Correct
7,107,323,B,45.584862269747205,22.770675959287033,2.27924311348736,0.3576809415548493,B,765.5620999994426,Correct
7,107,324,A,20.382744395776204,40.048897921901585,1.0191372197888102,0.6290866174790678,A,670.1572000001761,Correct
7,107,325,B,87.57840133545285,66.9388464958429,4.3789200667726424,1.0514729419555744,A,1655.81740000016,Incorrect
7,107,326,B,85.72186007133345,59.323960194045085,4.286093003566673,0.9318585876373269,B,1405.9303000003638,Correct
7,107,327,B,49.742499981504054,29.23936233024796,2.4871249990752027,0.4592908294617856,B,871.5955999996368,Correct
7,107,328,B,75.66042913209874,46.591880200689715,3.7830214566049367,0.7318635427771127,B,1726.7623000007006,Correct
7,107,329,A,38.44781422066176,55.18898842135781,1.9223907110330882,0.8669066029179493,A,861.4263999998002,Correct
7,107,330,A,48.99481525957252,78.44591925051127,2.4497407629786263,1.2322256181075217,A,1243.2502999999997,Correct
7,107,331,B,42.74233573179352,27.196883391035456,2.137116786589676,0.42720764530907623,B,762.177999999949,Correct
7,107,332,B,54.078570309504904,27.148969682784266,2.703928515475245,0.4264550185398353,B,1699.325499999759,Correct
7,107,333,B,54.06639765395393,44.50891687978499,2.7033198826976963,0.6991444314438563,A,2529.0993999997227,Incorrect
7,107,334,B,38.24996453231141,28.10326996125455,1.9124982266155706,0.44144513226064,B,1816.5686000002097,Correct
7,107,335,B,56.61702436410599,40.25515564659239,2.830851218205299,0.6323265062422417,A,1658.7892999996257,Incorrect
7,107,336,A,23.690586789450638,51.07451743648072,1.1845293394725318,0.8022766438204582,A,588.2105999999112,Correct
7,107,337,B,57.16027854664297,26.892245939539443,2.8580139273321485,0.4224224114109353,B,648.8945000000967,Correct
7,107,338,A,43.18592575258776,56.42903068360558,2.1592962876293877,0.8863851412240416,A,1632.641700000022,Correct
7,107,339,A,46.972158517517684,58.1971096254058,2.3486079258758843,0.9141580602966735,A,1072.9509000002508,Correct
7,107,340,A,17.816291863392117,38.10766075305416,0.8908145931696058,0.5985937353364352,A,674.337800000103,Correct
7,107,341,B,46.64634116756925,31.443714669439128,2.3323170583784623,0.49391671503541784,B,807.3475999999573,Correct
7,107,342,A,39.268877408048255,59.187717497870054,1.9634438704024126,0.9297184923702831,A,1239.0606999997544,Correct
7,107,343,B,30.492464122739676,12.482025188941776,1.5246232061369838,0.19606719317751115,B,840.1832999998078,Correct
7,107,344,A,39.477221493892515,53.59120809661724,1.9738610746946257,0.8418087282666727,A,1144.4616000007954,Correct
7,107,345,B,70.33594665411412,40.3545993015928,3.5167973327057065,0.6338885635222188,A,1125.7322999999815,Incorrect
7,107,346,B,61.317692594043486,41.732556335652745,3.0658846297021745,0.6555334619980442,B,1666.4771000005203,Correct
7,107,347,B,33.33781964620816,20.88565514347565,1.666890982310408,0.3280711038207649,A,1147.5798000001305,Incorrect
7,107,348,A,39.6723217983932,62.821383568022334,1.98361608991966,0.9867959855282277,A,982.924599999933,Correct
7,107,349,B,67.72114034040517,51.70272652442397,3.386057017020258,0.8121445290984626,B,1305.9696000000258,Correct
7,107,350,A,59.12187522654827,71.8671919417142,2.956093761327413,1.1288872111910846,B,1459.3537000000651,Incorrect
7,107,351,A,34.82744166856096,64.90177013383203,1.741372083428048,1.0194746212871006,A,1153.2125000003361,Correct
7,107,352,B,56.06257161149364,48.50511541904524,2.8031285805746817,0.7619165713099877,A,1948.5470999998142,Incorrect
7,107,353,A,49.74197476419878,69.40810548958493,2.487098738209939,1.090259971528327,B,1022.4755999997797,Incorrect
7,107,354,B,86.41380579303184,59.62801444902732,4.3206902896515915,0.9366346607060513,B,956.8469999994704,Correct
7,107,355,B,79.27985367535246,59.18006770411806,3.9639926837676227,0.9295983296910194,B,658.1034999999247,Correct
7,107,356,A,62.8338094224208,78.98750971059211,3.14169047112104,1.240732901160743,A,1066.1191999997754,Correct
7,107,357,A,10.356672550741148,33.174531755693906,0.5178336275370574,0.5211043262498464,A,792.199299999993,Correct
7,107,358,B,43.2095193331395,31.541556295154813,2.160475966656975,0.4954536076982362,A,1391.1071000002266,Incorrect
7,107,359,B,67.3860319769941,44.09008182758176,3.369301598849705,0.6925653858285185,B,1939.571299999443,Correct
7,107,360,A,47.081187142403316,55.06513178285467,2.354059357120166,0.8649610673898503,A,908.1047999998191,Correct
7,107,361,B,80.15792316878492,53.21120866549207,4.007896158439246,0.8358397111607172,A,1060.4216000001543,Incorrect
7,107,362,A,27.929617300106983,58.43981466669888,1.3964808650053493,0.9179704621702512,A,878.9239999996425,Correct
7,107,363,B,37.62368471199426,12.455777860149972,1.8811842355997128,0.19565490110096775,B,730.4998999998134,Correct
7,107,364,B,60.27583459847728,35.59714831543668,3.0137917299238643,0.5591586981826108,B,697.168600000623,Correct
7,107,365,A,41.59928809290901,53.130572438590086,2.0799644046454504,0.8345730802704748,A,1488.6319999995976,Correct
7,107,366,B,54.43928415630462,45.857677390954876,2.721964207815231,0.720330712010573,B,958.1755999997768,Correct
7,107,367,A,27.538731520106793,37.56463370413834,1.3769365760053398,0.5900638863985627,B,870.75139999979,Incorrect
7,107,368,B,50.657701637953664,38.60550573444405,2.532885081897683,0.6064138660172402,B,1334.2109000004712,Correct
7,107,369,A,27.1451386554713,39.98119511242298,1.357256932773565,0.6280231442346409,A,1285.6775999998717,Correct
7,107,370,B,67.9287394693891,42.68372977357876,3.396436973469455,0.6704744594224348,B,1049.283899999864,Correct
7,107,371,B,39.912157999375495,14.724475666972229,1.9956078999687747,0.2312915229166081,B,883.788199999799,Correct
7,107,372,B,42.22078638933516,18.85496947509606,2.111039319466758,0.2961731679331079,B,876.3539999999921,Correct
7,107,373,B,59.174236118351274,43.500292115182916,2.9587118059175634,0.6833009906903433,B,2441.0742000000027,Correct
7,107,374,A,57.265508709108246,76.53552957232908,2.8632754354554124,1.202217287215167,A,1140.6762999995408,Correct
7,107,375,B,65.81577521335375,51.69896843819221,3.290788760667687,0.8120854972179762,A,1688.0197999998927,Incorrect
7,107,376,A,11.910512199835555,31.065071432146762,0.5955256099917777,0.4879690009723721,A,710.9465000003183,Correct
7,107,377,A,47.0281765187523,61.57522782224915,2.3514088259376154,0.9672214168474788,A,1749.0053999999873,Correct
7,107,378,B,79.40870376437533,64.55977886280077,3.9704351882187665,1.0141026349637825,B,1267.1183000002202,Correct
7,107,379,B,80.26640252677949,49.90545242355461,4.013320126338974,0.7839130135395703,B,939.6795000002385,Correct
7,107,380,B,52.0334394497418,35.09992737308518,2.60167197248709,0.5513483698840984,A,1733.3709999993516,Incorrect
7,107,381,B,45.430327888835016,16.16927890433884,2.271516394441751,0.25398643909857654,B,887.8506999999445,Correct
7,107,382,A,19.25664936531296,36.49034473517229,0.9628324682656481,0.5731889947348813,A,938.6463000000731,Correct
7,107,383,A,49.0471523022663,66.8799239924634,2.4523576151133146,1.0505473894368338,A,2190.5022999999346,Correct
7,107,384,B,80.69643446463152,64.13205239906102,4.034821723231576,1.0073839233826287,B,1052.3431000001437,Correct
7,107,385,B,74.76656674271534,64.11268022885082,3.738328337135767,1.0070796260445465,B,1023.1191000002582,Correct
7,107,386,B,44.568553808941964,29.340344686659257,2.228427690447098,0.46087705660700523,B,997.4781999999323,Correct
7,107,387,A,44.03716318285737,57.48373731201999,2.2018581591428683,0.9029524342016374,A,835.2896000005785,Correct
7,107,388,A,17.913713753905157,33.23512579726679,0.8956856876952578,0.5220561352291299,A,980.3809000004549,Correct
7,107,389,B,50.6523783741639,30.025825618605328,2.532618918708195,0.4716445659068935,B,1183.4791999999652,Correct
7,107,390,A,27.419535980354866,44.75881207729879,1.370976799017743,0.70306977602724,A,945.1401000005717,Correct
7,107,391,A,44.273934490410696,61.252108951734016,2.213696724520535,0.9621458774982459,A,1455.2448000004006,Correct
7,107,392,A,22.765468674725025,37.770551312197114,1.1382734337362512,0.5932984326221739,A,2288.629200000287,Correct
7,107,393,A,33.46436551536957,60.47306628546833,1.6732182757684786,0.9499087039123795,A,952.3795000004611,Correct
7,107,394,A,20.858006784686484,48.905110668299756,1.0429003392343241,0.7681996819926317,A,1271.0228000005372,Correct
7,107,395,B,68.24660392001074,49.6802397182451,3.412330196000537,0.7803753806370933,B,834.0740999992704,Correct
7,107,396,B,73.43138769455605,53.7335458027437,3.671569384727803,0.8440445637261514,B,760.9922999999981,Correct
7,107,397,A,49.98204159109497,67.83860905314414,2.4991020795547483,1.0656063791555384,A,2208.4555999999793,Correct
7,107,398,B,58.19937985912933,51.12843043691576,2.9099689929564665,0.8031235072509566,B,1040.4445000003761,Correct
7,107,399,B,71.52841750001255,58.47986524927904,3.5764208750006277,0.9185995752502804,B,1171.8331000001854,Correct
7,107,400,B,71.0129324055435,55.009417458319476,3.550646620277175,0.8640859088265528,B,930.9992000007696,Correct
7,107,401,A,41.7461118579871,48.78484870850001,2.087305592899355,0.7663106115455656,A,1036.1165000003894,Correct
7,107,402,A,63.71031314015177,86.54300943930689,3.1855156570075884,1.359414413370393,A,1247.453900000437,Correct
7,107,403,A,39.69881272558119,68.57352366589453,1.9849406362790598,1.0771503908977005,A,931.6027000004397,Correct
7,107,404,B,75.06993726493612,56.65063671442597,3.7534968632468058,0.8898661206161242,B,1382.3932000004788,Correct
7,107,405,B,34.665488501049396,17.008694672762115,1.7332744250524699,0.26717195115550657,B,838.4099000004426,Correct
7,107,406,B,74.56964020629441,53.77043887525434,3.7284820103147207,0.8446240787539901,B,1568.6389000002237,Correct
7,107,407,B,73.08334351260719,40.47631852957331,3.6541671756303593,0.6358005246843397,B,2096.3685999995505,Correct
7,107,408,B,37.83922135650859,16.016485757017847,1.8919610678254293,0.2515863699528641,B,795.7027000002199,Correct
7,107,409,B,69.35761780124588,39.186097527163795,3.4678808900622937,0.6155337805709546,B,1241.5130999997928,Correct
7,107,410,A,43.57285596244918,58.034845464199456,2.178642798122459,0.9116092208127397,A,824.7169999995094,Correct
7,107,411,B,56.52340188176093,27.03737811301575,2.826170094088047,0.42470214226089864,B,752.745199999481,Correct
7,107,412,A,43.328022095215196,62.82773715849593,2.16640110476076,0.9868957874940065,A,871.3869000002887,Correct
7,107,413,B,59.74868997575913,31.435963636518732,2.987434498787956,0.4937949620950156,B,1292.0921000004455,Correct
7,107,414,A,57.889152615848644,72.53358791325319,2.894457630792432,1.1393549346339282,A,1417.9040000008172,Correct
7,107,415,B,51.79641753843934,27.667092534343713,2.5898208769219675,0.4345936732604161,B,1085.2283999993233,Correct
7,107,416,A,35.24899831765791,67.74731298505974,1.7624499158828955,1.0641723038715603,A,953.6661000001914,Correct
7,107,417,B,59.69650342212355,45.31799210522827,2.984825171106177,0.7118533553661268,A,2278.3665000006295,Incorrect
7,107,418,B,55.688860439458615,24.559484454502652,2.784443021972931,0.3857794796910913,B,833.6979999994583,Correct
7,107,419,B,79.14874373669544,52.2688442532254,3.957437186834772,0.82103708558781,B,888.0904999996346,Correct
7,107,420,A,41.633812201992825,53.23089337177137,2.0816906100996415,0.8361489178038928,A,1177.995799999735,Correct
7,107,421,B,49.50201152391523,20.11157313170266,2.4751005761957616,0.31591185201345473,B,829.0486999994755,Correct
7,107,422,A,51.563748082468805,63.05449049421588,2.5781874041234403,0.9904576205623802,A,1142.470000000685,Correct
7,107,423,B,71.74223129149547,49.06020015657805,3.5871115645747738,0.7706358219777522,B,814.4805000001725,Correct
7,107,424,B,38.48231142794245,21.100439181193924,1.9241155713971225,0.3314449235957853,B,926.8122000003132,Correct
7,107,425,B,58.03229643040811,42.96037819320302,2.9016148215204054,0.6748200426360288,B,1801.2659000005442,Correct
7,107,426,A,42.8117698863726,70.2786153791608,2.1405884943186297,1.103933908898171,A,809.0443999999479,Correct
7,107,427,B,40.922431633751614,15.739645992620577,2.0461215816875806,0.2472377811026042,B,650.6896999999299,Correct
7,107,428,A,17.290238198395198,36.79759091519121,0.8645119099197599,0.578015206444836,A,1636.0881999999037,Correct
7,107,429,A,31.805829394891497,64.38634394714927,1.590291469744575,1.011378325679349,A,950.061900000037,Correct
7,107,430,A,41.916575690794765,56.01330699363123,2.095828784539738,0.8798549687723083,A,1113.9320000002044,Correct
7,107,431,B,55.18129744961368,33.32346591580824,2.759064872480684,0.5234437785662652,B,1293.528299999707,Correct
7,107,432,A,22.018079223502294,39.03020729830688,1.1009039611751148,0.613085062582238,A,859.3559000000823,Correct
7,107,433,B,86.4987346025606,68.72931061704759,4.32493673012803,1.0795974866040383,B,710.9819999996034,Correct
7,107,434,A,43.01430847620352,71.1350423265302,2.1507154238101758,1.1173866319291312,A,967.5437000005331,Correct
7,107,435,B,40.38456214429634,23.30881093626875,2.019228107214817,0.36613394600647664,B,730.8646999999837,Correct
7,107,436,B,56.783636769064586,46.14085312698996,2.839181838453229,0.7247788260705865,A,1845.115000000078,Incorrect
7,107,437,A,47.15304976606401,59.135955877398196,2.3576524883032004,0.9289054227372215,A,1896.1331000000428,Correct
7,107,438,B,64.60980343344312,52.41270021660482,3.230490171672156,0.8232967697764492,B,1080.732800000078,Correct
7,107,439,A,38.19851639620652,57.60056274425962,1.909925819810326,0.9047875238000197,A,2132.0525000001,Correct
7,107,440,A,28.072590373070653,58.72485909554703,1.4036295186535326,0.9224479295883314,A,894.0306000004057,Correct
7,107,441,B,79.44351554524036,63.32935658111687,3.972175777262018,0.9947752069590259,B,2436.9188000000577,Correct
7,107,442,A,44.80712776103068,64.85701438049574,2.240356388051534,1.018771599557665,A,1155.0004999999146,Correct
7,107,443,A,48.900416552416004,66.44145594723217,2.4450208276208003,1.0436599494881724,A,1186.4664999993693,Correct
7,107,444,A,34.921895520598724,55.55746259945528,1.7460947760299361,0.8726945817726919,A,1355.294999999387,Correct
7,107,445,A,40.66072924506578,70.8545826987428,2.033036462253289,1.1129811823977045,A,738.8010000004215,Correct
7,107,446,A,40.48716550290174,57.033150536930286,2.024358275145087,0.8958746336895047,A,1142.6854999999705,Correct
7,107,447,B,48.52839354339966,34.41868262250249,2.426419677169983,0.5406474023654624,B,598.4250999999858,Correct
7,107,448,A,23.61597998681155,46.539450706853735,1.1807989993405774,0.73103998221378,A,1109.0641999999207,Correct
7,107,449,B,80.43576409203823,51.60833539052144,4.021788204601911,0.8106618366343014,B,1517.3562999998467,Correct
7,107,450,A,58.91265144372548,75.57410227276587,2.945632572186274,1.1871152225088246,A,1086.5002000000459,Correct
7,107,451,B,32.03266282764276,10.343949701151352,1.6016331413821379,0.16248238195119713,B,1374.2165999992721,Correct
7,107,452,A,43.786371772170334,59.45117573243917,2.1893185886085167,0.9338568846415334,A,1529.0622000002259,Correct
7,107,453,B,64.54462918061141,45.69142304205838,3.2272314590305706,0.7177191948049699,B,1042.6931000001787,Correct
7,107,454,A,15.505043205517673,33.81059742059616,0.7752521602758836,0.5310956223501345,A,603.8113000004159,Correct
7,107,455,B,50.01006848803016,36.596309882755506,2.500503424401508,0.5748534913808012,B,992.7873000006002,Correct
7,107,456,A,28.747000504934174,41.62377511250164,1.4373500252467089,0.653824730540544,A,736.8236000002071,Correct
7,107,457,A,23.66386711731017,36.865606795569924,1.1831933558655083,0.5790835973954622,A,895.7243999993807,Correct
7,107,458,B,45.91004843691736,26.575727003106127,2.295502421845868,0.4174505435838305,B,1050.5118999999468,Correct
7,107,459,B,66.84766612437754,35.33390480091327,3.3423833062188772,0.5550236787259512,B,999.1950000003271,Correct
7,107,460,B,80.97351532276987,61.03274804629902,4.048675766138493,0.958700164453249,B,1729.9995000003037,Correct
7,107,461,A,20.72870889163742,52.28791583098185,1.036435444581871,0.8213366612306702,A,1397.8721000003134,Correct
7,107,462,A,41.092229374593884,48.22831588702983,2.0546114687296946,0.7575686144285041,A,1629.3523000003916,Correct
7,107,463,B,74.48372457063027,52.10198878558275,3.7241862285315137,0.8184161260310228,B,1913.2139999992432,Correct
7,107,464,B,42.85293082774866,19.75635488548589,2.1426465413874327,0.3103320968497764,B,1146.356399999604,Correct
7,107,465,A,54.57626715204512,65.59129627991568,2.7288133576022564,1.0303056726620732,A,1634.095399999751,Correct
7,107,466,A,31.253525905009795,45.16980084140727,1.5626762952504896,0.7095255724373957,A,2860.034700000142,Correct
7,107,467,B,34.42291501864641,13.062118796064453,1.7211457509323203,0.20517928225016618,B,793.0431000004319,Correct
7,107,468,A,24.09358608308252,54.61733213460624,1.2046793041541262,0.8579270469637634,A,1368.2536999995136,Correct
7,107,469,B,44.64854878701925,15.383329154301489,2.2324274393509627,0.2416407692945362,B,763.2567000000563,Correct
7,107,470,A,41.17416743491998,73.50555138522624,2.058708371745999,1.154622501149469,A,1249.3557000007058,Correct
7,107,471,B,67.07863005725845,34.121053303708386,3.3539315028629226,0.53597225195838,B,669.2329999996218,Correct
7,107,472,A,52.20376472919408,77.18209145159923,2.6101882364597038,1.2123734574651985,A,941.2757999998576,Correct
7,107,473,A,63.331689524251765,77.91722444961374,3.166584476212588,1.223920899595068,B,894.6447999996963,Incorrect
7,107,474,A,55.62021031733417,71.10325695795746,2.7810105158667087,1.1168873485271325,A,880.9237999994366,Correct
7,107,475,A,39.85306893916158,64.48886627252114,1.992653446958079,1.012988742600435,A,900.2177000002121,Correct
7,107,476,A,59.69755457919892,70.32685804642051,2.984877728959946,1.1046917029434347,A,1069.0640000002531,Correct
7,107,477,B,41.37033510968739,13.202108210163296,2.0685167554843695,0.2073782308247325,B,598.7303000001702,Correct
7,107,478,A,17.571972263868354,47.28439902571814,0.8785986131934177,0.7427416030430223,A,722.0631999998659,Correct
7,107,479,B,69.16608725596112,50.379843579865025,3.4583043627980556,0.7913647323975344,B,916.0254000007626,Correct
7,107,480,A,29.614240780198834,44.779727126181925,1.4807120390099415,0.7033983088468435,A,2762.6586999995197,Correct
7,107,481,B,70.11423069250523,51.91638466672474,3.505711534625261,0.8155006633496211,B,1314.4093000000794,Correct
7,107,482,A,19.28516070242433,40.44880876284421,0.9642580351212167,0.635368402279049,A,565.4507999997804,Correct
7,107,483,B,60.507048609370656,45.16544364720991,3.0253524304685326,0.7094571297909923,A,861.7667999997138,Incorrect
7,107,484,A,53.17404839196354,65.72567944814298,2.658702419598177,1.032416558532418,A,970.429800000602,Correct
7,107,485,B,79.13038772863051,63.912921712719964,3.9565193864315256,1.003941826610703,B,1018.4942999994746,Correct
7,107,486,B,79.14427405219547,53.53377786549442,3.9572137026097733,0.8409066163057256,B,963.3692999996128,Correct
7,107,487,B,87.91653609765227,60.48534694405802,4.3958268048826135,0.9501016080464126,B,751.7659999994066,Correct
7,107,488,B,71.55612263436134,48.78804626627547,3.5778061317180674,0.7663608386656497,B,2284.1914999999062,Correct
7,107,489,B,58.137829122530974,29.982684306458648,2.906891456126549,0.4709669037603623,A,1327.5277999991886,Incorrect
7,107,490,A,39.81576296035456,50.004332777889346,1.990788148017728,0.7854662225133824,A,943.5512999998537,Correct
7,107,491,B,73.49897615197617,53.56968535363974,3.6749488075988084,0.8414706498105567,B,1026.072299999214,Correct
7,107,492,B,55.553228852793794,27.135352525919714,2.7776614426396895,0.4262411207399931,B,634.3488000002253,Correct
7,107,493,A,22.724785449127612,51.76020581584646,1.1362392724563806,0.8130474116967946,A,928.1650000002628,Correct
7,107,494,A,30.30642864479639,43.763916242177274,1.5153214322398196,0.6874419887937158,A,966.2481000004846,Correct
7,107,495,A,21.131744850777622,51.01330634286967,1.0565872425388811,0.8013151422104247,A,1398.2714999992822,Correct
7,107,496,A,33.98092834130999,55.82656620173651,1.6990464170654997,0.8769216512725984,A,1437.185199999476,Correct
7,107,497,A,62.60809221824555,71.99648106710242,3.1304046109122776,1.130918080023628,B,1230.2955000004658,Incorrect
7,107,498,A,62.6866099501228,72.3937601149896,3.13433049750614,1.1371585247149656,B,557.4963999997635,Incorrect
7,107,499,A,18.226057880913544,37.90811071436977,0.9113028940456772,0.5954592106586629,A,1447.4278999996386,Correct
7,107,500,A,50.91113336908791,64.0504152272879,2.5455566684543958,1.0061015696871174,A,1356.9926999998643,Correct
7,107,501,A,33.49220377824276,44.10891237900518,1.6746101889121379,0.6928611754385928,A,1027.0602999999028,Correct
7,107,502,B,63.57252602282003,38.14351940331481,3.178626301141002,0.5991570016975678,B,3206.964099999823,Correct
7,107,503,A,44.86030665413447,68.55406082767144,2.2430153327067233,1.076844669349802,A,1151.25530000023,Correct
7,107,504,A,49.80796054273665,66.94299770862109,2.4903980271368327,1.0515381490534117,A,948.231699999269,Correct
7,107,505,B,74.98073400304358,42.66078347942634,3.749036700152179,0.670114019876753,B,894.4693000003099,Correct
7,107,506,A,51.020525652767596,71.73510572656023,2.5510262826383796,1.1268124057752436,A,932.0017000000007,Correct
7,107,507,A,36.96873966672072,55.62170546611193,1.8484369833360361,0.8737037063623625,A,2252.5542000003043,Correct
7,107,508,B,63.61587925838762,41.75150155580172,3.180793962919381,0.6558310528202476,B,1378.6671999996543,Correct
7,107,509,B,52.82786432642255,32.1029215572924,2.6413932163211276,0.504271512615796,B,2830.562799999825,Correct
7,107,510,B,59.32042599682418,41.954150044166916,2.9660212998412088,0.6590142478317933,B,1128.811399999904,Correct
7,107,511,B,78.36529621953414,65.81960309129839,3.918264810976707,1.0338919076690953,B,1528.7859000000026,Correct
7,107,512,A,28.631371839514173,42.119391570848606,1.4315685919757086,0.6616098556632491,A,1184.2759999999544,Correct
7,107,513,A,61.91344989646595,83.98224596262884,3.095672494823298,1.319190034740829,A,986.2290999999459,Correct
7,107,514,B,31.50135143579185,16.966434799657417,1.5750675717895926,0.26650813462106976,B,850.5076999999801,Correct
7,107,515,A,21.55481240509738,37.63625941587363,1.077740620254869,0.5911889804475414,A,1496.3456999994378,Correct
7,107,516,A,52.13670029618165,64.05934096610115,2.6068350148090826,1.0062417748645351,A,1407.5061000003188,Correct
7,107,517,B,61.9883309814865,36.641097442531304,3.0994165490743253,0.5755570127246205,B,988.5125000000698,Correct
7,107,518,A,43.40682464642629,52.09783599585839,2.1703412323213143,0.818350894162573,A,1365.0797999998758,Correct
7,107,519,B,30.55154374568068,12.659674903416747,1.527577187284034,0.1988577083670456,B,652.8367000000799,Correct
7,107,520,B,70.96423298250893,55.55811632653828,3.5482116491254465,0.8727048504936992,A,2512.9987000000256,Incorrect
7,107,521,A,54.691198017977975,83.71394993813223,2.734559900898899,1.3149756506430996,A,1258.9505000005374,Correct
7,107,522,A,52.01187587288584,61.66673052610073,2.600593793644292,0.9686587379584973,A,1073.0231000006825,Correct
7,107,523,B,35.72200067288968,16.80406102830445,1.786100033644484,0.26395757338497905,B,420.3699999998207,Correct
7,107,524,A,51.196655012265595,65.41660950807668,2.5598327506132796,1.0275616992666294,A,1130.9880999997404,Correct
7,107,525,B,48.43469906259746,34.42615906349492,2.421734953129873,0.5407648420259465,B,633.6361000003308,Correct
7,107,526,B,53.84446886460206,39.06579627329126,2.692223443230103,0.6136440928940369,B,1739.3197999999757,Correct
7,107,527,A,33.34673727873578,47.42898875465231,1.6673368639367891,0.745012813194043,A,984.0315000001283,Correct
7,107,528,B,80.11265881288548,62.590292452110084,4.005632940644274,0.9831660147679285,B,833.4224999998696,Correct
7,107,529,B,74.56360394787096,51.423856577694764,3.728180197393548,0.807764050218705,B,1198.681600000782,Correct
7,107,530,A,17.23792606991236,46.316290330676594,0.861896303495618,0.7275345872219278,A,661.0364999996818,Correct
7,107,531,A,41.041412920574466,62.79183512847945,2.052070646028723,0.9863318397252627,A,1867.6891000004616,Correct
7,107,532,A,41.414350480326775,74.21922116016948,2.070717524016339,1.1658327997597229,A,1749.352099999669,Correct
7,107,533,B,68.94877514287629,45.32506320300087,3.4474387571438143,0.711964427910203,B,993.5609000003751,Correct
7,107,534,B,37.09788660937985,21.34715265842864,1.8548943304689924,0.3353202898338962,B,718.5018999998647,Correct
7,107,535,A,30.680218582056032,59.99927772170116,1.5340109291028017,0.9424664505559506,A,864.7298999994746,Correct
7,107,536,A,26.803817892225535,54.71910685766757,1.3401908946112766,0.8595257205752165,A,880.4581999993388,Correct
7,107,537,B,34.813919787816445,23.18088455873043,1.7406959893908223,0.36412448316710294,B,698.426400000244,Correct
7,107,538,B,77.01529250313818,60.33209452999864,3.850764625156909,0.9476943247556434,A,1563.5340999997425,Incorrect
7,107,539,A,15.875377953739093,41.90840486870519,0.7937688976869546,0.6582956842959546,A,597.2191000000748,Correct
7,107,540,B,60.77726301206771,42.40188049384645,3.038863150603386,0.6660471812893018,B,1710.9075999997003,Correct
7,107,541,B,67.28780733775434,45.42704575143904,3.364390366887717,0.7135663660350414,B,1264.5567999998093,Correct
7,107,542,A,38.01309724077684,59.70271611145864,1.9006548620388417,0.9378080716755772,A,1098.562099999981,Correct
7,107,543,B,53.95434070054427,22.538936278191482,2.697717035027214,0.35404078315647414,B,721.724400000312,Correct
7,107,544,B,75.86062828065663,50.53280165520284,3.793031414032831,0.7937673922264769,B,1067.40069999978,Correct
7,107,545,A,36.13420273883142,46.94218085826108,1.806710136941571,0.737366052638982,A,1144.9149999998554,Correct
7,107,546,A,23.78857903059573,52.930235691177074,1.1894289515297864,0.8314261980008908,A,653.6509000006845,Correct
7,107,547,B,48.04035104851657,29.20696506338365,2.4020175524258285,0.458781934383899,B,665.219800000159,Correct
7,107,548,A,59.27975607414281,81.55189006090058,2.9639878037071408,1.2810140935084386,A,1113.2680999999138,Correct
7,107,549,A,39.018511918415165,51.15659722814621,1.950925595920758,0.8035659501729804,A,840.4586999995445,Correct
