subject,day,trial,cat,x,y,xt,yt,resp,rt,fb
12,312,0,A,27.760644899482436,37.27503280384615,1.3880322449741218,0.5855148460944081,A,1260.1453000024776,Correct
12,312,1,A,12.775950139824392,36.30832904018408,0.6387975069912195,0.5703298988838162,A,527.469700002257,Correct
12,312,2,A,63.06962690307721,82.60766244226669,3.1534813451538604,1.2975981272942525,A,1258.5249000003387,Correct
12,312,3,B,56.875544154185974,33.28421277018005,2.8437772077092984,0.5228271915965861,B,1068.2455999995,Correct
12,312,4,A,49.13279726167431,64.22238307738345,2.4566398630837156,1.0088028343596867,A,1601.758199998585,Correct
12,312,5,A,41.28069730409557,51.60737878532813,2.0640348652047784,0.8106468103150629,A,858.8691000004474,Correct
12,312,6,A,47.18463905756141,62.82447244269477,2.3592319528780705,0.9868445054581215,A,963.2266000007803,Correct
12,312,7,A,56.013296409578466,63.580320618961096,2.8006648204789233,0.9987173408470592,A,519.5868000009796,Correct
12,312,8,A,30.947292137026984,62.775660343192975,1.5473646068513491,0.9860777667921157,A,482.9191000026185,Correct
12,312,9,B,38.63512882000163,16.359909377727078,1.9317564410000816,0.2569808555723108,B,698.3971000008751,Correct
12,312,10,B,39.94003772411747,21.17453861937058,1.9970018862058734,0.3326088748488399,B,477.45339999892167,Correct
12,312,11,A,31.23796633304071,45.81967586028256,1.5618983166520355,0.7197337853626463,A,679.3886999985261,Correct
12,312,12,A,25.680206138947426,56.75298854376318,1.2840103069473714,0.8914738593917605,A,549.4648000021698,Correct
12,312,13,A,65.06798380760605,80.83257229452869,3.253399190380303,1.269715076456286,A,891.8741000015871,Correct
12,312,14,A,62.28065322809678,72.79597567255911,3.114032661404839,1.143476511919065,A,489.66199999995297,Correct
12,312,15,B,55.38496939950546,39.126848391454914,2.769248469975273,0.6146030973235819,B,1106.2180000008084,Correct
12,312,16,A,63.97396724444715,84.30964950490954,3.1986983622223577,1.3243328775567706,A,633.690899998328,Correct
12,312,17,A,25.471768798480824,37.57364048577521,1.2735884399240411,0.5902053645936771,A,552.8859999976703,Correct
12,312,18,A,66.14017428239084,80.18404390038448,3.307008714119542,1.2595280162628468,A,498.013100001117,Correct
12,312,19,B,46.871859355300664,33.37193412836815,2.343592967765033,0.5242051154688194,B,749.6124999997846,Correct
12,312,20,A,31.433212498380463,58.66719468874625,1.5716606249190233,0.9215421392044367,A,652.2527999986778,Correct
12,312,21,A,69.95383187068418,87.48693793389826,3.4976915935342094,1.3742416074910047,A,912.6861000004283,Correct
12,312,22,A,48.306567305507556,61.834929551564,2.4153283652753776,0.9713008020721794,A,3703.8653999989037,Correct
12,312,23,A,58.20971433774379,67.6656685312349,2.910485716887189,1.062889835789848,A,1466.6638000016974,Correct
12,312,24,B,35.63685948554536,24.546090840295285,1.781842974277268,0.3855690932910969,B,710.0042999991274,Correct
12,312,25,A,37.3632065550538,54.98423233018926,1.8681603277526901,0.8636903017589848,A,2149.474800000462,Correct
12,312,26,B,79.53362424585322,52.91135572858046,3.976681212292661,0.831129632241923,B,516.3867999981449,Correct
12,312,27,B,45.665402344229065,20.152050123127534,2.283270117211453,0.31654766310795374,B,508.3833000026061,Correct
12,312,28,A,38.952264943418946,49.22492495439433,1.9476132471709473,0.7732233130511705,B,1078.0965000012657,Incorrect
12,312,29,A,52.25951448501276,75.43508560746866,2.6129757242506377,1.1849315538367033,A,542.3736999982793,Correct
12,312,30,A,48.68666514221672,66.63514622221311,2.434333257110836,1.0467024292129317,A,779.6505999976944,Correct
12,312,31,B,74.84384465246244,58.93663885696627,3.742192232623122,0.9257745583015998,B,670.6501999979082,Correct
12,312,32,B,72.7292118955078,50.794189431492626,3.63646059477539,0.7978732618151277,B,556.7704999994021,Correct
12,312,33,A,57.90632102471055,66.59998243676746,2.8953160512355276,1.0461500777627895,A,1254.990800000087,Correct
12,312,34,B,40.54606804102332,16.93611552360349,2.027303402051166,0.2660318805465039,B,707.7094999986002,Correct
12,312,35,A,64.01220170748577,84.70872420065578,3.2006100853742883,1.3306015282187207,A,619.4418000013684,Correct
12,312,36,A,48.94848796218157,57.623980270337945,2.4474243981090784,0.9051553654394844,A,1230.5063999992853,Correct
12,312,37,A,68.37655887597359,83.48100284560053,3.4188279437986795,1.311316526270236,A,664.1698999992514,Correct
12,312,38,B,83.04181702975377,61.72054583992484,4.152090851487689,0.9695040669312999,B,767.6332000010007,Correct
12,312,39,A,47.64288083681818,74.35667135276859,2.3821440418409088,1.167991862336242,A,587.5161000003573,Correct
12,312,40,A,32.03774772723823,45.32085576153791,1.6018873863619114,0.7118983375742508,A,1164.6328999995603,Correct
12,312,41,B,36.55644520834936,13.497719789442836,1.827822260417468,0.21202168665363594,B,647.9742000010447,Correct
12,312,42,B,64.47228475588958,54.52965167873928,3.2236142377944788,0.8565497655836882,B,2612.6803000006475,Correct
12,312,43,B,61.498694027294015,31.327637657253916,3.074934701364701,0.4920933815917593,B,525.5402000002505,Correct
12,312,44,B,66.37188368928204,52.3422936232425,3.3185941844641023,0.8221908255940925,B,534.0935999993235,Correct
12,312,45,B,59.84156475561324,41.45478131180262,2.992078237780662,0.6511701821266528,B,579.6255000022938,Correct
12,312,46,B,63.32514027483849,43.69849893715113,3.1662570137419244,0.6864144161692768,B,493.03779999900144,Correct
12,312,47,B,32.45465248006907,19.170031895493633,1.6227326240034534,0.301122156859824,B,628.2178000001295,Correct
12,312,48,A,58.82574566543255,84.29183392643696,2.941287283271628,1.3240530311045264,A,590.9965999999258,Correct
12,312,49,B,41.67639987842799,15.425350662863586,2.0838199939213995,0.24230084160749346,B,581.6330000016023,Correct
12,312,50,B,64.45977916326802,47.88250415614939,3.222988958163401,0.7521366164622083,B,568.7262000028568,Correct
12,312,51,A,15.50110928467797,32.46446717602913,0.7750554642338985,0.5099506579146005,A,509.3648000001849,Correct
12,312,52,B,78.86580052712436,49.124290774606635,3.943290026356218,0.7716425550515652,B,538.3930999996664,Correct
12,312,53,B,57.07216801652202,47.88427939854259,2.8536084008261007,0.7521645019045125,B,1100.5845999970916,Correct
12,312,54,A,57.159407698406426,71.04701531683756,2.8579703849203213,1.116003906894292,A,807.1134999991045,Correct
12,312,55,B,55.71412149654685,29.103885953255286,2.785706074827343,0.4571627715083099,B,613.7369999996736,Correct
12,312,56,B,74.21345194777075,62.04220818530474,3.7106725973885375,0.9745567272372093,B,932.9376999994565,Correct
12,312,57,A,51.50306531638877,76.45289718512254,2.5751532658194383,1.2009193007121834,A,887.1419999995851,Correct
12,312,58,A,16.574239156978106,39.01295822266506,0.8287119578489053,0.6128141147356504,A,539.6003999994718,Correct
12,312,59,A,54.684380023335194,81.65980907688518,2.7342190011667595,1.282709281447438,A,862.9139000004216,Correct
12,312,60,A,53.736549180773395,63.18383875627427,2.68682745903867,0.9924894183115663,A,1615.4850000020815,Correct
12,312,61,B,88.92969505503729,67.02362283329485,4.446484752751864,1.0528046055502611,B,635.3632999998808,Correct
12,312,62,B,73.91864583843056,41.42966331322265,3.6959322919215283,0.6507756295275943,B,478.1559000002744,Correct
12,312,63,A,37.373358674029205,52.60795797141881,1.8686679337014602,0.8263638714168495,A,676.505300001736,Correct
12,312,64,B,80.84641314836219,63.7124875378846,4.042320657418109,1.0007934139547476,B,1230.4590999992797,Correct
12,312,65,A,39.99301296386598,65.54362291721066,1.9996506481932987,1.029556821231843,A,592.4111999993329,Correct
12,312,66,A,38.340374073974836,62.91252918646117,1.9170187036987416,0.9882276975546993,A,759.5910000018193,Correct
12,312,67,A,39.83722745280138,51.63103364580613,1.9918613726400691,0.81101837999456,A,660.3234999965935,Correct
12,312,68,A,60.430045060127334,81.0851595212301,3.021502253006367,1.273682707335265,A,914.9341999982425,Correct
12,312,69,B,60.61064719550831,51.633081563983005,3.0305323597754152,0.811050548618058,B,1926.8230999987281,Correct
12,312,70,A,68.19049079419412,84.92478581771383,3.409524539709706,1.333995416163082,A,654.5694000014919,Correct
12,312,71,A,47.71755666987469,68.43884408568543,2.3858778334937343,1.0750348489988328,A,1123.2730000010633,Correct
12,312,72,B,58.812279525581374,49.711199431912604,2.940613976279069,0.7808616946821687,B,774.3384999994305,Correct
12,312,73,B,71.17466360381043,55.753810877984485,3.5587331801905213,0.8757788133195538,B,587.3342999984743,Correct
12,312,74,A,42.331359465977435,58.65880313206149,2.116567973298872,0.9214103249402716,A,639.757600001758,Correct
12,312,75,A,30.247779384721717,57.58617055570628,1.512388969236086,0.9045614518308785,A,862.9550999976345,Correct
12,312,76,B,72.13528599110896,42.246048554364194,3.606764299555448,0.6635993789079413,B,624.0694999978587,Correct
12,312,77,B,56.653164509626336,25.80563463521036,2.8326582254813166,0.4053539609559959,B,510.6704999998328,Correct
12,312,78,A,41.01285836715448,62.68428044597384,2.050642918357724,0.9846423747231687,A,686.7187000025297,Correct
12,312,79,B,65.96420611289037,36.49444817823114,3.2982103056445182,0.5732534514677217,B,653.6233000006177,Correct
12,312,80,A,18.7058670388792,41.9255948526651,0.9352933519439601,0.6585657039325735,A,473.52350000073784,Correct
12,312,81,A,32.69588053262511,63.20142440568311,1.6347940266312555,0.9927656530465236,A,632.1619999980612,Correct
12,312,82,A,47.80447319779681,76.1397446201369,2.3902236598898408,1.1960003117241251,A,741.4059000002453,Correct
12,312,83,B,48.678394206423654,41.84128768652992,2.4339197103211827,0.6572414100636973,B,2200.4496000008658,Correct
12,312,84,B,57.55543563855167,25.565321085951012,2.8777717819275836,0.4015791245514397,B,599.1096999969159,Correct
12,312,85,B,83.06455239314573,63.240906116808006,4.153227619657287,0.9933858303146291,B,613.4567999979481,Correct
12,312,86,B,70.08804444177821,51.67768554053363,3.5044022220889106,0.8117511862433197,B,1819.000400002551,Correct
12,312,87,B,70.29321771353591,50.43787224341966,3.5146608856767956,0.7922762445131386,B,747.0253999999841,Correct
12,312,88,A,48.242865890634405,63.81057979381459,2.4121432945317203,1.002334243507766,A,3491.0328000005393,Correct
12,312,89,A,62.166123116434775,84.50743906669226,3.108306155821739,1.3274397487280372,A,675.5876999995962,Correct
12,312,90,B,51.154371017748225,29.798518277205602,2.557718550887411,0.46807403053765145,B,780.1896999990277,Correct
12,312,91,A,30.766815912003075,58.05174937920961,1.5383407956001536,0.9118747468888038,A,1801.9994000023871,Correct
12,312,92,B,72.1600212821618,39.10748171813544,3.6080010641080893,0.6142988863304572,B,473.5091000002285,Correct
12,312,93,B,39.986429057017034,26.047171811469347,1.9993214528508516,0.4091480180485162,B,823.2721000022138,Correct
12,312,94,B,72.22106002574614,49.86449723078712,3.611053001287307,0.783269690875947,B,605.6354000029387,Correct
12,312,95,B,83.183812194096,60.64337042744269,4.1591906097048,0.9525838351188923,B,482.3556000010285,Correct
12,312,96,A,62.88392224068804,74.52010040515395,3.1441961120344017,1.1705589998880268,B,1598.512299999129,Incorrect
12,312,97,A,21.781800980796508,49.58566400075878,1.0890900490398254,0.7788897887407782,A,570.9515999988071,Correct
12,312,98,B,56.568833183776725,31.591830873306147,2.828441659188836,0.4962433189251491,B,584.7562000017206,Correct
12,312,99,B,72.64194628090691,50.29169146595495,3.632097314045345,0.7899800422302428,B,472.77649999887217,Correct
12,312,100,A,34.99956150262237,47.76778480329984,1.7499780751311187,0.7503346090815247,A,2311.3904999991064,Correct
12,312,101,A,46.93366663702298,69.18788435380378,2.346683331851149,1.0868007460166509,A,861.8124999993597,Correct
12,312,102,B,49.95632852534292,39.4841273847683,2.497816426267146,0.6202152226269584,B,672.5439000001643,Correct
12,312,103,B,55.795432908132604,41.755178880334505,2.78977164540663,0.6558888160989329,B,517.5225999992108,Correct
12,312,104,B,74.21566806849421,44.32206957940498,3.7107834034247107,0.6962094409127718,B,548.7133999995422,Correct
12,312,105,A,20.089640408254528,42.10068894177063,1.0044820204127263,0.6613160754526782,A,532.20710000096,Correct
12,312,106,A,33.30625345537728,63.87009787651292,1.665312672768864,1.0032691513645704,A,571.6528000011749,Correct
12,312,107,A,51.334483368868604,73.39032659297948,2.5667241684434305,1.1528125543452996,A,948.4897000002093,Correct
12,312,108,B,53.71052981679258,23.34534318868994,2.685526490839629,0.36670779328560416,B,532.2392999987642,Correct
12,312,109,A,38.82465177133606,54.915399812892694,1.9412325885668027,0.8626090831056499,A,597.086899997521,Correct
12,312,110,A,45.73117350811295,60.019261447280805,2.2865586754056477,0.9427803541833125,A,469.1132000007201,Correct
12,312,111,A,28.292005051458045,42.86536531624583,1.4146002525729022,0.6733275838548031,A,550.7609999986016,Correct
12,312,112,B,41.029550340772225,27.043023343895882,2.0514775170386113,0.42479081734020296,B,710.2657000032195,Correct
12,312,113,B,48.77331125401948,31.68233790902542,2.438665562700974,0.4976650001177183,B,642.6835000020219,Correct
12,312,114,B,54.82139002590473,30.491635829734015,2.741069501295237,0.4789614955931385,B,614.8140000004787,Correct
12,312,115,B,63.14446470830248,30.274485653521133,3.1572232354151244,0.47555050860155784,B,574.2786000009801,Correct
12,312,116,A,30.89814005782254,59.09913674962776,1.5449070028911271,0.9283270692306458,A,879.6615999999631,Correct
12,312,117,B,56.94438448341237,36.251687831418835,2.847219224170619,0.5694401808570795,B,495.94319999960135,Correct
12,312,118,A,33.6976829035,66.88210902540565,1.6848841451750003,1.05058171185403,A,545.6330000015441,Correct
12,312,119,B,44.34987088755167,37.06042897305497,2.2174935443775836,0.582143857003179,B,587.3152999993181,Correct
12,312,120,B,38.285762997146506,16.15186715138993,1.9142881498573252,0.2537129359228245,B,555.0629999997909,Correct
12,312,121,B,36.51821216764356,22.095827784508366,1.825910608382178,0.34708045121398357,B,579.3456999999762,Correct
12,312,122,A,41.79454480065214,70.60102494403137,2.089727240032607,1.1089983065003934,A,655.2216000018234,Correct
12,312,123,A,39.06878071857087,51.02833692794054,1.9534390359285436,0.8015512420886138,A,957.3015000023588,Correct
12,312,124,B,75.26214795078346,59.82283159247595,3.763107397539173,0.9396948412393091,B,512.3667999978352,Correct
12,312,125,A,65.25196387523583,78.58538551079181,3.2625981937617916,1.2344163490011266,A,763.1351000018185,Correct
12,312,126,A,47.263179003956914,70.16971430810776,2.3631589501978456,1.1022232948742297,A,593.7794999990729,Correct
12,312,127,B,75.33645893520023,64.89417303440406,3.766822946760011,1.0193552863283433,A,947.7204999966489,Incorrect
12,312,128,B,66.2393149491761,51.41469867266456,3.3119657474588053,0.8076201981828793,B,549.9204000007012,Correct
12,312,129,A,33.46133378485981,63.60613564608814,1.6730666892429906,0.9991228423449319,A,604.2868999975326,Correct
12,312,130,B,70.9641093258287,44.76718314935116,3.548205466291435,0.703201268519552,B,588.6186000025191,Correct
12,312,131,B,71.16451980729406,42.90768840755936,3.5582259903647024,0.6739923934185421,B,542.8367999993498,Correct
12,312,132,B,60.006542126567766,33.00891805104073,3.0003271063283883,0.5185028722604853,B,624.7613000014098,Correct
12,312,133,B,64.41450715425081,38.57702250657813,3.2207253577125408,0.6059664525201699,B,441.07480000093346,Correct
12,312,134,A,45.9236199127385,59.92596119213017,2.296180995636925,0.9413147972025158,A,1785.359999998036,Correct
12,312,135,B,48.23799579292904,40.4796979280673,2.4118997896464522,0.635853608151751,A,950.6231999985175,Incorrect
12,312,136,B,68.95988204425609,46.04038265848649,3.447994102212805,0.7232006396418205,B,458.4963000015705,Correct
12,312,137,B,60.94288591695125,43.526032105120834,3.0471442958475627,0.6837053135068054,B,405.5341999992379,Correct
12,312,138,A,61.375692778778614,70.28776676281835,3.0687846389389306,1.1040776584965146,B,469.2916999993031,Incorrect
12,312,139,A,55.55306068221024,72.54752455380701,2.777653034110512,1.1395738508718258,B,427.11269999927026,Incorrect
12,312,140,A,25.00803593027397,57.644347132986724,1.2504017965136984,0.9054752873698547,A,522.0699000019522,Correct
12,312,141,B,64.87548397411432,44.33905303863944,3.243774198705716,0.6964762164665893,A,1154.0303000001586,Incorrect
12,312,142,A,45.925852094126824,70.10821503222988,2.2962926047063412,1.1012572665077345,A,743.5608000014327,Correct
12,312,143,B,37.1323195039171,22.763423356504095,1.856615975195855,0.35756701793673784,B,1539.7851999987324,Correct
12,312,144,A,48.34469278422013,62.371187951267004,2.4172346392110065,0.9797243293168432,A,1164.3105000002834,Correct
12,312,145,A,49.67454116948452,72.1744492019329,2.483727058474226,1.1337135969484107,A,1998.245799997676,Correct
12,312,146,B,35.445821465856014,19.806313553202774,1.7722910732928006,0.3111168457671889,B,682.6881999986654,Correct
12,312,147,B,84.05804172687603,67.88052015009,4.202902086343801,1.0662647171268835,B,929.8589999998512,Correct
12,312,148,B,67.87662822671194,56.23399852018323,3.393831411335597,0.8833215831649347,B,471.95559999818215,Correct
12,312,149,B,45.326050356816026,33.571251174173725,2.2663025178408014,0.5273359803030094,A,1727.1534000028623,Incorrect
12,312,150,B,36.44665638872112,25.96349586575809,1.822332819436056,0.4078336393668729,B,904.5600999997987,Correct
12,312,151,B,73.21190937548586,50.548044993923334,3.660595468774293,0.7940068340311793,B,552.0149999974819,Correct
12,312,152,A,38.55960216049805,55.17206007654293,1.9279801080249026,0.8666406930994098,A,863.2020999975794,Correct
12,312,153,A,60.42075020968855,80.63586015582094,3.0210375104844274,1.266625129407105,A,1126.3862000014342,Correct
12,312,154,A,47.577577554718,72.48139217088682,2.3788788777359,1.138535045830094,A,556.1753000001772,Correct
12,312,155,B,79.10650928334113,61.38538793393637,3.955325464167056,0.9642394188550703,B,742.1625000024505,Correct
12,312,156,B,38.5571116682807,15.535764645673812,1.927855583414035,0.2440352203937444,B,837.618300000031,Correct
12,312,157,A,35.5267156883359,62.600484350682805,1.776335784416795,0.9833261087363396,A,939.9865999985195,Correct
12,312,158,B,50.720100447931124,29.94619034123042,2.536005022396556,0.47039365789505555,A,1131.1778999988746,Incorrect
12,312,159,A,61.892273804110715,77.7259522766738,3.0946136902055357,1.2209164033283462,A,1171.7495000011695,Correct
12,312,160,A,38.550112971489035,52.04139919748012,1.9275056485744517,0.8174643870066866,A,1493.7090999992506,Correct
12,312,161,B,61.64122885385799,46.65441266599752,3.0820614426928996,0.7328458004452221,B,2018.423999998049,Correct
12,312,162,A,22.5588871009096,54.89422602897928,1.12794435504548,0.8622764860856945,A,650.9877999997116,Correct
12,312,163,A,38.06269276133539,53.22512417352761,1.9031346380667697,0.8360582954497943,A,730.9877000006963,Correct
12,312,164,B,84.2818017925127,62.37476060894961,4.214090089625635,0.9797804484924906,B,678.3213000016985,Correct
12,312,165,A,37.41683428008618,52.17476964176443,1.8708417140043088,0.8195593650465344,A,830.1189999983762,Correct
12,312,166,B,55.98634870609581,39.955178227312004,2.7993174353047903,0.6276144719589712,B,2525.810699997237,Correct
12,312,167,B,54.46400153749784,47.421827114499216,2.7232000768748925,0.74490031841358,B,1084.172099999705,Correct
12,312,168,B,57.63924931696737,44.40216832171684,2.8819624658483685,0.6974676290148153,B,678.1313000028604,Correct
12,312,169,A,34.315867769077805,63.62490707523005,1.7157933884538903,0.99941770326438,A,527.7934000005189,Correct
12,312,170,A,55.6521804573048,66.64618316360435,2.7826090228652403,1.046875797082896,A,1779.6732999995584,Correct
12,312,171,B,52.37602453083675,26.65792053970976,2.6188012265418377,0.4187416366376632,B,704.6832000014547,Correct
12,312,172,B,56.53529895238027,43.867122301695304,2.8267649476190138,0.6890631457856548,B,1458.9134000016202,Correct
12,312,173,B,56.87786144977582,24.819875375949145,2.843893072488791,0.3898696907204802,B,596.5446999980486,Correct
12,312,174,A,29.90047361668239,55.55309236905484,1.4950236808341197,0.8726259343540893,A,637.4047999997856,Correct
12,312,175,B,47.029238182235275,24.075065779520155,2.3514619091117637,0.37817024893815776,B,729.2832999992243,Correct
12,312,176,A,25.695038976307806,47.12018593919658,1.2847519488153905,0.7401621499118253,A,558.0072000011569,Correct
12,312,177,B,47.07289224233491,28.886878529739555,2.3536446121167454,0.45375402687085253,B,546.1357999993197,Correct
12,312,178,A,52.73916109851179,63.266448720891134,2.6369580549255893,0.9937870526013348,A,770.1646999994409,Correct
12,312,179,A,11.939408590247936,39.18071459030703,0.5969704295123968,0.615449225596535,A,555.5297999999311,Correct
12,312,180,A,55.99487078093988,75.21173836712892,2.799743539046994,1.1814232235894488,A,734.0814000017417,Correct
12,312,181,B,52.54215422632631,42.1529031278447,2.6271077113163153,0.6621362539695957,B,1528.539400002046,Correct
12,312,182,B,30.892755932152813,12.620172248063195,1.5446377966076406,0.19823720210776558,B,1288.0045999991125,Correct
12,312,183,B,76.427897560167,48.91091062097321,3.82139487800835,0.7682907874361822,B,628.4699999996519,Correct
12,312,184,A,58.717580115544166,67.86437456878461,2.935879005777208,1.0660111029287986,A,1003.3732999982021,Correct
12,312,185,B,46.69876151643045,23.314568042527807,2.3349380758215226,0.3662243784201237,B,598.4339000024193,Correct
12,312,186,A,39.78348079880708,67.13344758084715,1.9891740399403544,1.0545297286507243,A,1004.5080999989295,Correct
12,312,187,B,40.94385921641131,15.786867287717573,2.0471929608205657,0.24797953147145277,B,927.8645999984292,Correct
12,312,188,B,66.41549662316359,51.80136336279129,3.3207748311581793,0.8136939129324028,B,563.9804999991611,Correct
12,312,189,A,47.78543001247612,62.239248370171055,2.389271500623806,0.9776518272233995,A,854.7679999974207,Correct
12,312,190,B,62.330768070605096,36.69477974675829,3.116538403530255,0.5764002523875569,B,616.9683000007353,Correct
12,312,191,A,57.39292505546079,78.21805346570031,2.8696462527730398,1.2286463107296888,A,689.0249000025506,Correct
12,312,192,A,52.823255106022856,67.14374625345783,2.641162755301143,1.0546914998218015,A,1536.5232000003743,Correct
12,312,193,A,38.85579065708079,52.93582692900975,1.9427895328540392,0.8315140249593888,A,735.1160999969579,Correct
12,312,194,B,33.76014690653952,18.181811513013297,1.688007345326976,0.28559922739118443,B,1094.6211999980733,Correct
12,312,195,B,79.31799138270918,47.771305650522265,3.965899569135459,0.7503899144203667,B,580.9626000009303,Correct
12,312,196,B,82.87487438745106,57.96261676030768,4.143743719372553,0.910474654985116,B,519.7009999974398,Correct
12,312,197,A,48.04627434456283,69.82500242735756,2.4023137172281417,1.0968085733133799,A,808.2882999988215,Correct
12,312,198,A,27.899937419190977,39.45297580540671,1.3949968709595486,0.6197258947626079,A,1997.8470999994897,Correct
12,312,199,A,50.07099104909099,59.107538606627806,2.5035495524545497,0.9284590452917849,A,1665.983300001244,Correct
12,312,200,A,46.51555610331433,58.87539840602769,2.3257778051657167,0.924812595547744,A,1016.103000001749,Correct
12,312,201,B,58.27985320328226,34.38526191375076,2.9139926601641126,0.5401224311000015,B,678.4676000024774,Correct
12,312,202,B,65.48198618136423,49.18942618113091,3.2740993090682116,0.7726656996246917,B,479.57920000044396,Correct
12,312,203,B,36.59959146323947,12.494122032218549,1.8299795731619737,0.19625720994736084,B,765.4082999979437,Correct
12,312,204,B,72.41146326116453,59.974060630963706,3.6205731630582263,0.942070341420922,B,521.820400001161,Correct
12,312,205,A,47.58421151134691,69.27098121316813,2.3792105755673454,1.0881060284312278,A,719.3557000027795,Correct
12,312,206,A,43.27029524930576,60.919943954896254,2.1635147624652884,0.9569282419290199,A,1004.0488999984518,Correct
12,312,207,B,74.44729583535555,43.31993686621349,3.7223647917677773,0.6804679770643497,B,486.53619999822695,Correct
12,312,208,A,51.46106259087307,60.660619066738114,2.573053129543654,0.9528547761113669,B,802.4250999987999,Incorrect
12,312,209,A,28.92154576793722,38.91111315983572,1.4460772883968611,0.6112143362297051,A,661.2149000029603,Correct
12,312,210,B,85.18995680001183,64.26457294068074,4.259497840000591,1.00946555118264,B,578.1993999989936,Correct
12,312,211,A,52.40897741878871,79.1659185697712,2.6204488709394353,1.2435353409674048,A,1046.902099998988,Correct
12,312,212,A,35.092068481893804,43.59859607568286,1.7546034240946904,0.6848451456909702,A,2145.94660000148,Correct
12,312,213,B,66.22699624695419,42.17170796636232,3.311349812347709,0.6624316396822901,B,767.4924999992072,Correct
12,312,214,A,65.64096745423909,78.98520074979817,3.2820483727119547,1.2406966320894048,A,905.9704000028432,Correct
12,312,215,A,42.94414030586872,52.169177630527315,2.147207015293436,0.819471525939428,A,1126.9706999992195,Correct
12,312,216,A,56.5396525158077,84.5557681305159,2.826982625790385,1.3281988998873535,A,1016.6626000027463,Correct
12,312,217,B,57.09430695586667,34.097396497352605,2.8547153477933334,0.5356006517131064,B,1020.2150000004622,Correct
12,312,218,A,24.188513266040605,38.079757379915094,1.2094256633020302,0.5981554301761148,A,562.6897000001918,Correct
12,312,219,A,22.641771769373648,43.870529508268824,1.1320885884686824,0.6891166660613578,A,528.4069000008458,Correct
12,312,220,A,64.59291677961065,74.72332622951066,3.2296458389805323,1.1737512636721208,A,1169.283399998676,Correct
12,312,221,A,16.917930452788344,35.32137163632832,0.8458965226394172,0.5548268082370197,A,584.4753999990644,Correct
12,312,222,A,65.41300747377645,79.39963128202805,3.2706503736888224,1.2472064916667884,A,939.2281000000366,Correct
12,312,223,B,69.7700226057216,56.15875405040946,3.48850113028608,0.8821396457976121,B,793.6242999967362,Correct
12,312,224,A,46.86550405436494,62.083281202242574,2.3432752027182473,0.975201900678573,A,1025.6182000011904,Correct
12,312,225,A,45.406853057624055,53.77731655297538,2.2703426528812027,0.8447321130630011,B,2687.176900002669,Incorrect
12,312,226,B,68.49791888108865,53.079089035492544,3.4248959440544327,0.8337643808657096,B,598.9097000019683,Correct
12,312,227,B,84.65881388117677,63.21438193991261,4.232940694058839,0.9929691895182438,B,433.42159999883734,Correct
12,312,228,A,36.943322785762646,48.46947820035109,1.8471661392881322,0.7613567831877682,A,1009.3973000002734,Correct
12,312,229,B,58.234859401131516,29.15187211158998,2.911742970056576,0.45791653632080126,B,550.6776999973226,Correct
12,312,230,A,38.2174730918892,59.61386182226513,1.9108736545944598,0.9364123517647258,A,762.2821000004478,Correct
12,312,231,B,52.22034172722277,29.16690398438081,2.611017086361138,0.45815265642644804,B,636.7804999972577,Correct
12,312,232,A,57.587509477708295,68.04318012934428,2.879375473885415,1.0688197741061751,A,739.1523000005691,Correct
12,312,233,A,40.36810944591209,61.78425658769598,2.0184054722956044,0.9705048330170624,A,847.2999000005075,Correct
12,312,234,B,77.0615192448989,62.93472224572827,3.8530759622449455,0.9885763053144702,B,699.73630000095,Correct
12,312,235,A,21.58224490773427,42.94243967191117,1.0791122453867135,0.674538265002495,A,645.6901999990805,Correct
12,312,236,B,38.1804486562924,23.620872543363422,1.9090224328146201,0.3710357982680568,B,822.8124999986903,Correct
12,312,237,A,33.8580157524165,47.47324126938598,1.6929007876208249,0.7457079300699939,A,565.4223999990791,Correct
12,312,238,B,79.84629495307469,49.96194374500632,3.9923147476537344,0.784800377141892,B,502.2829000008642,Correct
12,312,239,A,48.56168193371145,68.21510630888676,2.428084096685572,1.071520384219227,A,827.2679000001517,Correct
12,312,240,B,37.14941564141836,23.950376587714477,1.857470782070918,0.3762116356933639,B,548.6454000019876,Correct
12,312,241,A,34.87477072122481,49.31397252256464,1.7437385360612407,0.7746220689810901,A,887.7026999980444,Correct
12,312,242,B,54.80599351702274,29.014585299792742,2.740299675851137,0.45576004012391635,B,488.00909999772557,Correct
12,312,243,A,24.077775866650903,56.422062308332194,1.2038887933325453,0.8862756822412098,A,580.1653999988048,Correct
12,312,244,B,70.48174308589208,46.31774432964608,3.5240871542946035,0.7275574265843321,B,596.4481000009982,Correct
12,312,245,B,52.48355144432304,45.450802436874284,2.624177572216152,0.7139395351772265,B,1008.9001000014832,Correct
12,312,246,A,35.42957527160416,45.380618410087806,1.771478763580208,0.7128370870624678,A,1066.2757999998576,Correct
12,312,247,B,75.78262013775213,58.94700980016089,3.7891310068876067,0.9259374646963549,B,616.1127000013948,Correct
12,312,248,A,61.77362071027362,85.5650655841039,3.088681035513681,1.3440529072147485,A,1104.3696999986423,Correct
12,312,249,A,39.20858789772016,54.53069410127592,1.9604293948860079,0.8565661399186035,A,871.5661999995064,Correct
12,312,250,A,42.07704445842456,50.53585581079858,2.103852222921228,0.7938153667903893,A,734.7658999970008,Correct
12,312,251,A,48.460713759444026,66.30082556386475,2.423035687972201,1.0414509325918795,A,632.7305000013439,Correct
12,312,252,B,63.04255253606492,39.80393252378268,3.152127626803246,0.6252387100034975,B,456.4388999970106,Correct
12,312,253,B,88.97623049260594,66.60235105458301,4.4488115246302975,1.046187283924432,B,733.9771000006294,Correct
12,312,254,A,41.72058518662886,67.57872513037944,2.086029259331443,1.06152413204282,A,647.3751000012271,Correct
12,312,255,B,84.76647934944938,55.35253492499173,4.238323967472469,0.8694755853896323,B,743.9522999993642,Correct
12,312,256,B,35.989062047893114,19.04714402920212,1.7994531023946558,0.2991918387700403,B,1203.5557000017434,Correct
12,312,257,A,46.69703336721646,70.86802878533693,2.334851668360823,1.1131923930320224,A,712.8290999971796,Correct
12,312,258,B,53.85692028556457,29.166181329886722,2.6928460142782287,0.4581413049961995,B,955.8641999974498,Correct
12,312,259,A,42.876334103072274,57.09914019071981,2.143816705153614,0.8969111967472951,A,790.9174999986135,Correct
12,312,260,A,42.193631843608294,63.72665932280375,2.1096815921804146,1.0010160238316987,A,1243.910400000459,Correct
12,312,261,A,57.055315383652825,71.67412961802012,2.8527657691826414,1.125854595302073,B,1133.2958999992115,Incorrect
12,312,262,A,40.97922330416933,67.17664798561279,2.0489611652084663,1.0552083190219435,A,759.529000002658,Correct
12,312,263,B,80.8113082215605,66.72564530544429,4.040565411078024,1.0481239854881101,B,1336.3657999980205,Correct
12,312,264,A,46.64636494247054,55.02516787724019,2.332318247123527,0.8643333158284142,A,776.9721999975445,Correct
12,312,265,B,56.2070962677817,44.95810904222601,2.8103548133890848,0.7062003254317305,B,853.6511000020255,Correct
12,312,266,A,14.075865071550059,31.607487500540056,0.7037932535775029,0.49648925265063926,A,608.9788999997836,Correct
12,312,267,B,78.7956508298567,52.426979103081834,3.9397825414928347,0.8235210620007375,B,489.5579000003636,Correct
12,312,268,A,34.584517586270486,59.00250875721563,1.7292258793135244,0.9268092402751803,A,590.8022000003257,Correct
12,312,269,B,48.52346389493573,26.74237099231448,2.4261731947467866,0.42006818124513984,B,658.9561000000685,Correct
12,312,270,B,84.42325829350362,65.98753640891776,4.2211629146751815,1.0365297980537251,B,460.91830000295886,Correct
12,312,271,A,54.81581567738863,80.42033797790529,2.740790783869431,1.2632397149529777,A,1022.5812999997288,Correct
12,312,272,B,39.599979449744424,23.16918635114918,1.9799989724872211,0.36394072815211587,B,790.5820999985735,Correct
12,312,273,A,19.786588361524384,41.60744684560092,0.9893294180762191,0.6535682467238383,A,589.7981000016443,Correct
12,312,274,B,76.76896930340405,47.962849923613774,3.8384484651702024,0.7533986848262739,B,451.05640000110725,Correct
12,312,275,B,48.83635096373976,18.50566737261523,2.441817548186988,0.29068634333792165,B,463.48130000114907,Correct
12,312,276,B,62.27387507966847,45.025853959713025,3.1136937539834237,0.7072644601072067,B,565.5560999985028,Correct
12,312,277,A,46.531438615874634,67.27676154872454,2.326571930793732,1.0567808991939265,A,769.9807999997574,Correct
12,312,278,A,47.69270005028862,60.90270908277822,2.384635002514431,0.9566575171908621,A,653.0394000001252,Correct
12,312,279,A,39.48247256715356,66.09788038862777,1.974123628357678,1.0382630772338493,A,576.100199999928,Correct
12,312,280,B,38.82168858082971,20.11565770427667,1.9410844290414855,0.3159760123294126,B,561.2105000000156,Correct
12,312,281,A,51.21525999541739,78.20932085277583,2.560762999770869,1.2285091391666378,A,598.7564999995811,Correct
12,312,282,A,31.600320706469653,42.49892657117394,1.5800160353234827,0.6675715775072605,A,811.505000001489,Correct
12,312,283,B,35.8396924673488,17.833536270234998,1.79198462336744,0.28012853267048693,B,699.4415000008303,Correct
12,312,284,A,26.368049202101663,53.67842768976668,1.318402460105083,0.8431787704321095,A,609.5323000008648,Correct
12,312,285,A,41.46799979536155,56.707310770143124,2.0733999897680775,0.890756354601575,A,748.0603000003612,Correct
12,312,286,A,58.06070166216662,85.2556025742382,2.903035083108331,1.3391918736229889,A,842.1599000030255,Correct
12,312,287,B,65.53947582051084,42.450520104863614,3.2769737910255423,0.6668112105125268,B,572.1035999995365,Correct
12,312,288,B,88.1623147889268,63.45495081285722,4.40811573944634,0.9967480365378696,B,646.5864999991027,Correct
12,312,289,A,33.046255773656384,51.90849884676106,1.6523127886828193,0.815376793179294,A,621.7815999989398,Correct
12,312,290,B,72.53050100187879,51.48802040175056,3.6265250500939397,0.8087719332101047,B,696.2750000020606,Correct
12,312,291,A,16.383673174274318,40.34984964913562,0.8191836587137159,0.6338139561558858,A,640.5655999988085,Correct
12,312,292,A,27.275589225697487,54.11082591712997,1.3637794612848746,0.8499708659046585,A,537.1484999996028,Correct
12,312,293,B,45.136181766728086,20.91553254133183,2.2568090883364045,0.32854041688883173,B,1138.2446000025084,Correct
12,312,294,B,83.01738579259288,53.143605238172626,4.150869289629644,0.8347777990075957,B,1099.3593000021065,Correct
12,312,295,A,35.493447970989344,46.77832422805894,1.774672398549467,0.7347921987105571,A,1005.8946999997715,Correct
12,312,296,B,65.33485367663043,52.55392863351132,3.2667426838315214,0.8255151805616071,B,588.8029000016104,Correct
12,312,297,B,85.66169320869707,65.54371828745506,4.283084660434854,1.029558319304139,B,936.9395000030636,Correct
12,312,298,A,30.143345798894813,38.97759289143886,1.5071672899447406,0.6122585974117903,A,644.5377999989432,Correct
12,312,299,A,59.35314979821703,70.13330572960865,2.9676574899108514,1.1016513902605274,A,722.6598999986891,Correct
12,312,300,B,52.72996294565761,44.27645796276061,2.6364981472828806,0.6954929753139302,A,1842.0865000007325,Incorrect
12,312,301,A,24.66151811896093,55.207402444458,1.2330759059480465,0.8671958497164222,A,532.0544999995036,Correct
12,312,302,B,56.94292016375757,40.012046346889996,2.8471460081878788,0.6285077542924196,B,826.1239000021305,Correct
12,312,303,B,38.21679069113907,23.265692220319604,1.9108395345569533,0.3654566388001863,B,953.9019000003464,Correct
12,312,304,B,63.86621258989308,41.65177701045108,3.1933106294946536,0.6542645833249666,B,383.70299999951385,Correct
12,312,305,A,52.769711960587394,71.70128193447685,2.6384855980293698,1.126281102891615,A,977.3828000033973,Correct
12,312,306,A,55.23819512144396,65.59936787664651,2.761909756072198,1.0304324610070346,A,836.7003999992448,Correct
12,312,307,A,55.045917437349175,81.5978700459446,2.752295871867459,1.281736345424571,A,794.2237000024761,Correct
12,312,308,B,73.19955766995668,45.81947089060712,3.6599778834978336,0.7197305657065137,B,569.9973999981012,Correct
12,312,309,B,85.16432233373018,62.841764796381426,4.258216116686509,0.9871161331146479,B,505.7110999987344,Correct
12,312,310,B,54.659805457147044,47.18374973857328,2.7329902728573523,0.7411606077376057,B,994.5628999994369,Correct
12,312,311,A,48.6404485621265,74.6814859471048,2.432022428106325,1.173094038052969,A,1217.768899998191,Correct
12,312,312,B,46.269737740822514,19.381236583862034,2.3134868870411256,0.30443975234673354,B,989.3776000026264,Correct
12,312,313,B,42.91150224119762,15.599434571891969,2.145575112059881,0.24503534525605225,B,533.1233000033535,Correct
12,312,314,B,62.41813736140324,30.885991932703583,3.120906868070162,0.48515602677307595,B,580.8558999997331,Correct
12,312,315,A,42.612028553175676,65.59171987311187,2.1306014276587835,1.0303123264484395,A,637.6990999997361,Correct
12,312,316,A,28.49523832033627,43.34976823169937,1.4247619160168137,0.6809365670576347,A,508.5964999998396,Correct
12,312,317,A,59.99259654749352,72.29996766262742,2.999629827374676,1.1356852363184495,A,964.0530999968178,Correct
12,312,318,A,63.75887981614868,85.18185296291281,3.187943990807434,1.3380334174372643,A,614.0086999985215,Correct
12,312,319,B,35.901736675659826,22.3479595908208,1.7950868337829915,0.3510409283662209,B,614.8398000004818,Correct
12,312,320,B,38.96490117176572,20.39973259416612,1.9482450585882858,0.3204382502651427,B,503.70549999934155,Correct
12,312,321,B,49.311718464054294,27.83968273852129,2.465585923202715,0.4373047138480453,B,473.08189999967,Correct
12,312,322,A,23.90294624723011,35.67679141747196,1.1951473123615053,0.5604097291039264,A,1001.9432000008237,Correct
12,312,323,A,32.55263039508916,44.0121523696356,1.627631519754458,0.6913412727656091,A,660.7163000007858,Correct
12,312,324,B,68.94899595952026,52.00058039590613,3.4474497979760135,0.8168232067709205,B,560.0577000004705,Correct
12,312,325,A,53.673213154526046,79.71871333666758,2.6836606577263025,1.2522186208605277,A,640.6352000012703,Correct
12,312,326,A,33.27264881963623,42.17769713630864,1.6636324409818115,0.6625257173438124,A,656.1017999993055,Correct
12,312,327,A,38.245947418934215,70.22725544354908,1.9122973709467106,1.103127148916138,A,2000.109299999167,Correct
12,312,328,A,52.738326303287295,80.82753599282009,2.6369163151643646,1.2696359664140406,A,533.3614999981364,Correct
12,312,329,B,42.376220925346445,31.053672874420933,2.1188110462673224,0.4877899528463072,A,2592.692899997928,Incorrect
12,312,330,A,39.1923136060587,52.176903953566196,1.9596156803029348,0.819592890737919,B,1061.6578000008303,Incorrect
12,312,331,B,59.79808817148992,32.28551839586632,2.9899044085744957,0.5071397370489588,B,457.5407999982417,Correct
12,312,332,B,83.85268624050974,59.36735000747534,4.192634312025487,0.9325401532328924,B,359.08330000165734,Correct
12,312,333,B,69.2975924337603,43.50897982831957,3.464879621688015,0.6834374569691762,B,473.8464000001841,Correct
12,312,334,B,82.0537579131239,60.20170856412196,4.102687895656195,0.9456462267929963,B,489.3307999991521,Correct
12,312,335,A,49.01933623564726,77.21603911426921,2.450966811782363,1.2129067061034513,A,648.2212000009895,Correct
12,312,336,B,55.01515313551575,42.307864991948314,2.7507576567757877,0.664570389238868,B,1049.911099999008,Correct
12,312,337,B,42.012685452675896,22.953804842592984,2.100634272633795,0.3605575233271197,B,660.4224000002432,Correct
12,312,338,B,56.55882447066909,32.257209390662354,2.827941223533454,0.5066950602350627,B,417.95769999953336,Correct
12,312,339,B,47.80524247739134,17.229431992314225,2.390262123869567,0.2706392848628966,B,457.4219999994966,Correct
12,312,340,A,45.25164957206226,76.04325792181504,2.2625824786031132,1.1944847022110399,A,680.3298000013456,Correct
12,312,341,A,66.2129318550555,81.84897043345539,3.310646592752775,1.2856806210881582,A,1092.515700001968,Correct
12,312,342,B,54.132779825416016,32.27993906702973,2.706638991270801,0.5070520971565339,B,485.6303000015032,Correct
12,312,343,B,50.693908448921356,31.80829518392096,2.5346954224460676,0.49964353236510844,B,579.683700001624,Correct
12,312,344,B,46.24789648422496,36.23648139407513,2.312394824211248,0.5692013186978482,B,606.4641000011761,Correct
12,312,345,A,17.856819474556424,40.32259315686044,0.8928409737278212,0.6333858121764141,A,775.5763000022853,Correct
12,312,346,A,55.252830632349394,84.01650264790624,2.7626415316174695,1.3197281374948482,A,653.3732999996573,Correct
12,312,347,A,56.79243874015115,74.10703253550864,2.8396219370075575,1.1640705449644686,A,578.645300000062,Correct
12,312,348,B,82.23429702538957,68.43210854086257,4.111714851269478,1.074929047308166,B,993.2732999986911,Correct
12,312,349,A,42.062471482425586,52.54030902289167,2.1031235741212795,0.82530124421827,A,720.1987999978883,Correct
12,312,350,B,33.86674657999525,16.60887557284295,1.6933373289997626,0.2608916074201519,B,777.5760999975319,Correct
12,312,351,A,57.55679565176876,68.8526989508039,2.877839782588438,1.081535666018376,A,905.0533000008727,Correct
12,312,352,B,74.44716446839752,60.39020195503167,3.722358223419876,0.9486070740536573,B,781.7620999994688,Correct
12,312,353,A,51.58887073673966,69.61459179270165,2.579443536836983,1.093503450793019,A,2132.6986999993096,Correct
12,312,354,B,62.44119220741946,46.797748669321315,3.1220596103709735,0.7350973171204068,B,626.208099998621,Correct
12,312,355,B,44.79682176763876,25.875722804703287,2.239841088381938,0.4064549033479087,B,699.3583000003127,Correct
12,312,356,A,57.37860454459668,81.01231021254915,2.868930227229834,1.2725383930704088,A,619.6291999985988,Correct
12,312,357,A,35.99158050768645,56.75523356555525,1.7995790253843225,0.8915091241116061,A,723.0913999992481,Correct
12,312,358,A,63.11714700995,77.47721433504226,3.1558573504975005,1.217009236877853,A,654.1295999995782,Correct
12,312,359,A,35.14486639809549,55.13389095545025,1.7572433199047743,0.8660411339473162,A,546.3358000015432,Correct
12,312,360,B,37.90111170743427,12.604203494245713,1.8950555853717135,0.19798636550936566,B,653.9131999998062,Correct
12,312,361,A,20.599210148372112,46.61801164220759,1.0299605074186056,0.7322740145006141,A,509.6569000015734,Correct
12,312,362,B,68.33610875494901,48.487998192777184,3.4168054377474504,0.7616476945485199,B,554.0876000013668,Correct
12,312,363,B,81.74492512693323,65.43253884000781,4.087246256346662,1.0278119166274868,B,483.7358000004315,Correct
12,312,364,A,20.244138132448743,50.316820872037866,1.012206906622437,0.7903747740179387,A,445.44719999976223,Correct
12,312,365,A,45.96663627679913,65.05479579147642,2.2983318138399564,1.0218783426964324,A,574.8289000002842,Correct
12,312,366,A,29.624539632066615,47.07269227016127,1.4812269816033308,0.7394161211031586,A,497.60800000149175,Correct
12,312,367,B,43.603772093965944,14.605675612968586,2.180188604698297,0.22942541603208855,B,713.0634000022837,Correct
12,312,368,B,63.482626117801935,35.88803050154306,3.1741313058900964,0.5637278648772704,B,574.8643999977503,Correct
12,312,369,A,30.73781378012487,54.82648605188192,1.5368906890062437,0.8612124290136777,A,678.345200001786,Correct
12,312,370,A,36.062783553387746,61.99052793493142,1.8031391776693875,0.973744935762667,A,925.7876999981818,Correct
12,312,371,A,42.594981798009094,73.74382737783642,2.1297490899004545,1.158365331689024,A,610.2372999994259,Correct
12,312,372,A,33.18374558315656,44.71545968660624,1.659187279157828,0.7023887982666637,A,1079.7641999997722,Correct
12,312,373,B,89.21393465611104,64.27656413371189,4.460696732805552,1.0096539084023122,B,481.43770000024233,Correct
12,312,374,B,55.05257862647122,23.04321584133903,2.752628931323561,0.36196198801117324,B,731.6767999982403,Correct
12,312,375,B,52.94368675586407,44.3627889846253,2.647184337793204,0.696849059834265,B,635.3865000019141,Correct
12,312,376,A,23.095349997528565,47.64082193441361,1.1547674998764281,0.7483402810006663,A,466.59169999838923,Correct
12,312,377,B,70.95727351726413,49.218931736827315,3.5478636758632063,0.7731291718097711,B,485.93479999908595,Correct
12,312,378,A,52.79157358349732,82.78573799927594,2.639578679174866,1.3003953316026733,A,618.3536000025924,Correct
12,312,379,B,31.680586731101087,11.548923721582092,1.5840293365550542,0.181410069602956,B,714.4023000000743,Correct
12,312,380,B,49.34647903081289,37.893306694418094,2.467323951540644,0.5952266696570441,B,845.4259000027378,Correct
12,312,381,B,39.913144211740175,18.955737894732504,1.995657210587009,0.2977560345673264,B,478.8133000001835,Correct
12,312,382,B,53.08041544672004,43.701220967738,2.6540207723360023,0.6864571737257498,B,931.2315999995917,Correct
12,312,383,B,39.52870644199251,17.23270609972187,1.9764353220996256,0.2706907144217912,B,486.5866999971331,Correct
12,312,384,B,33.86150973120441,21.55847211228065,1.6930754865602204,0.33863968805280664,B,854.8867999998038,Correct
12,312,385,B,85.67367086923015,69.41809805210325,4.283683543461508,1.0904169343333174,B,457.38580000033835,Correct
12,312,386,A,33.98794138836871,53.841415571893094,1.6993970694184355,0.8457389780976722,A,804.1403000024729,Correct
12,312,387,A,61.54088357766412,83.15867895686058,3.0770441788832055,1.3062534744655268,A,850.2430999978969,Correct
12,312,388,B,61.691713172198966,41.44563187838596,3.0845856586099485,0.6510264631626212,B,1145.957200002158,Correct
12,312,389,A,53.11267973708132,79.69782518585527,2.655633986854066,1.2518905105548324,A,677.297099999123,Correct
12,312,390,B,37.41632543312797,24.173295679170764,1.8708162716563987,0.3797132405936838,B,711.5174000027764,Correct
12,312,391,A,33.56962680037956,65.30770432247355,1.678481340018978,1.0258510206114866,A,606.7192000009527,Correct
12,312,392,A,37.73422346377947,62.99682262050518,1.8867111731889736,0.9895517757203919,A,694.4393000012496,Correct
12,312,393,A,37.90978666351306,62.17019499496461,1.8954893331756528,0.9765671393421288,A,1360.1307999997516,Correct
12,312,394,A,32.47325738082625,45.192139537697884,1.6236628690413124,0.7098764678581825,A,623.6030000000028,Correct
12,312,395,A,45.619918765177566,62.17556095230846,2.2809959382588785,0.9766514276029833,A,1880.1633000002766,Correct
12,312,396,B,39.440175804320425,13.718173782266994,1.9720087902160213,0.21548456987519052,B,636.559300000954,Correct
12,312,397,B,65.12007828561613,53.648648074528296,3.256003914280807,0.8427109933298116,B,558.2403000007616,Correct
12,312,398,B,55.83062445400513,28.09990663758591,2.791531222700257,0.4413923012959948,B,535.9443999986979,Correct
12,312,399,A,28.962386187164867,47.889608758101815,1.4481193093582434,0.7522482152887104,A,828.0989000013506,Correct
12,312,400,B,36.53113935816342,16.933862134351827,1.826556967908171,0.26599648439091034,B,572.3902999998245,Correct
12,312,401,A,62.9958692075234,76.0616230204966,3.14979346037617,1.194773180506542,A,569.9213000007148,Correct
12,312,402,B,55.66538466924559,46.63876870323162,2.7832692334622795,0.7326000656527302,B,889.8961000013514,Correct
12,312,403,A,42.97478899695311,68.420343916697,2.1487394498476555,1.074744249023912,A,651.6033000007155,Correct
12,312,404,B,63.90762090056608,56.38544685193847,3.195381045028304,0.8857005279971379,B,611.9163999974262,Correct
12,312,405,A,35.657472562550154,60.526740549224165,1.7828736281275075,0.9507518172758904,A,1170.546999997896,Correct
12,312,406,B,70.93726525601406,40.70370469838689,3.5468632628007026,0.6393722982717032,B,491.9553999970958,Correct
12,312,407,B,64.71378635330709,47.60895509990892,3.2356893176653547,0.747839717934801,B,519.5397999996203,Correct
12,312,408,B,37.968572274858474,17.670774303411438,1.8984286137429236,0.27757187367420333,B,549.6025000029476,Correct
12,312,409,A,33.382795327205706,61.35440689057409,1.6691397663602854,0.9637527697639326,A,1264.683099998365,Correct
12,312,410,A,14.540930892992812,36.22525650090487,0.7270465446496405,0.5690249984882432,A,958.2498000017949,Correct
12,312,411,B,89.44157816815235,68.67629425745983,4.472078908407617,1.0787647075750335,B,449.5454999996582,Correct
12,312,412,B,84.6059782554632,63.13831116784377,4.23029891277316,0.9917742726248218,B,559.3254000013985,Correct
12,312,413,A,25.53669300065444,54.20725587796426,1.2768346500327221,0.8514855841873732,A,920.4597000025387,Correct
12,312,414,A,33.228744745484796,63.07268031172563,1.6614372372742396,0.9907433455476741,A,503.39679999888176,Correct
12,312,415,B,70.72240964504395,40.100175436030625,3.5361204822521977,0.6298920827874784,B,528.5035999986576,Correct
12,312,416,B,55.63512554154264,46.464594381755184,2.781756277077132,0.7298641418087582,B,385.62369999999646,Correct
12,312,417,A,61.04909501196741,88.15249283992327,3.0524547505983706,1.3846961195076488,A,616.8012000016461,Correct
12,312,418,B,63.74886658131835,47.10708411447557,3.1874433290659177,0.7399563469303645,B,848.2758000027388,Correct
12,312,419,A,20.73533633889728,34.18693779198841,1.036766816944864,0.5370071630802103,A,558.8827999999921,Correct
12,312,420,A,51.856352998784125,59.87415867898272,2.592817649939206,0.9405010852288082,A,1539.3235999981698,Correct
12,312,421,B,72.30643091298617,44.40108275898477,3.6153215456493086,0.6974505770352948,B,974.9253000009048,Correct
12,312,422,B,38.77775816655935,28.77575400382774,1.9388879083279675,0.45200848689966155,B,1195.090799999889,Correct
12,312,423,B,40.57437387153787,14.040416583748598,2.0287186935768937,0.22054634796422448,B,470.4431999998633,Correct
12,312,424,B,81.85432646177094,52.42783271371517,4.092716323088547,0.823534470485211,B,441.4781000014045,Correct
12,312,425,A,38.74326127677835,66.4958632221686,1.9371630638389175,1.0445145769643829,A,535.2998000016669,Correct
12,312,426,B,44.57653877176328,31.22205501166377,2.2288269385881643,0.49043489327309636,B,562.8830999994534,Correct
12,312,427,B,53.47310373785036,34.87649273192913,2.673655186892518,0.5478386667480319,B,627.1855000013602,Correct
12,312,428,A,51.393108311550336,70.53965260000084,2.569655415577517,1.1080342719746938,A,624.1635000005772,Correct
12,312,429,A,13.954633619840262,31.08203665331214,0.6977316809920131,0.4882354900432705,A,984.4857999996748,Correct
12,312,430,B,50.7174746229545,26.740327629243062,2.535873731147725,0.4200360841730708,B,1156.617800003005,Correct
12,312,431,B,40.15589957890987,28.952520775318632,2.007794978945493,0.45478513285323435,B,730.168699999922,Correct
12,312,432,B,87.06234806324954,67.13711932556471,4.353117403162477,1.0545874042818772,B,817.3545999998169,Correct
12,312,433,A,52.787202193584555,80.60828265856473,2.6393601096792274,1.2661919430931823,A,649.3893999977445,Correct
12,312,434,B,66.50502996761307,33.341611403429035,3.3252514983806534,0.5237288072192916,B,573.7716000003275,Correct
12,312,435,A,25.441744632769563,56.70923405660107,1.2720872316384781,0.8907865655146101,A,923.0505999985326,Correct
12,312,436,A,32.44573779414005,41.1573135232223,1.6222868897070026,0.6464975690302351,A,563.0629999977828,Correct
12,312,437,A,39.307847122534895,54.261354778716935,1.9653923561267448,0.8523353677332327,A,526.9681999998284,Correct
12,312,438,A,42.58044052212505,52.24695634028411,2.1290220261062527,0.820693271055316,A,516.4909999984957,Correct
12,312,439,A,38.96154266145202,61.14060577666774,1.9480771330726012,0.9603943897200452,A,724.2426000011619,Correct
12,312,440,B,52.47770784214072,37.65444750547936,2.6238853921070358,0.5914746782909824,B,536.6544999997132,Correct
12,312,441,A,61.81918865577447,81.03421205026754,3.0909594327887238,1.27288242633279,A,637.3789999997825,Correct
12,312,442,A,61.21843245538791,76.67728849697932,3.0609216227693956,1.2044440311964768,A,764.8259999987204,Correct
12,312,443,B,47.10664879726629,24.60681887690778,2.3553324398633144,0.38652300705954057,B,456.1627999974007,Correct
12,312,444,B,59.275554811234755,29.17853963526231,2.963777740561738,0.4583354288030933,B,436.0309000003326,Correct
12,312,445,A,55.67041642451742,68.6432585711274,2.783520821225871,1.0782457842275923,A,600.7293999973626,Correct
12,312,446,A,37.53999655865171,51.4844094445891,1.8769998279325852,0.8087152124276503,A,1197.4093999997422,Correct
12,312,447,A,28.15709547715148,53.656152697779454,1.407854773857574,0.8428288756761804,A,778.9647999998124,Correct
12,312,448,A,40.62125543757564,62.450990234832545,2.031062771878782,0.9809778606557891,A,495.9648999974888,Correct
12,312,449,B,61.18752484472307,40.459412866608055,3.0593762422361532,0.6355349711514611,B,496.8023000001267,Correct
12,312,450,B,43.537616103655516,33.57400086758267,2.1768808051827757,0.5273791723860752,B,670.0368000019807,Correct
12,312,451,B,43.05098095434573,16.901883604798012,2.1525490477172866,0.26549416682331606,B,555.0567000027513,Correct
12,312,452,A,19.295667947942704,49.64096694558666,0.9647833973971351,0.779758485366744,A,545.9601000002294,Correct
12,312,453,A,60.87850864148149,82.05271620330566,3.0439254320740745,1.2888810521569665,A,822.3747000010917,Correct
12,312,454,B,38.83113862526481,18.76539371503676,1.9415569312632408,0.29476611518439777,B,579.9137000030896,Correct
12,312,455,B,34.71783850764166,20.733228299723518,1.735891925382083,0.325676788558057,B,566.6952999999921,Correct
12,312,456,B,69.28740633033111,39.76500917875061,3.464370316516556,0.624627303529468,B,456.642399996781,Correct
12,312,457,A,61.42995495713622,84.37050610367064,3.0714977478568106,1.3252888107747223,A,578.0401000010897,Correct
12,312,458,B,39.60080649798141,15.980943552904133,1.9800403248990706,0.251028074316184,B,627.1587000010186,Correct
12,312,459,B,31.803098217084017,14.67966620566084,1.5901549108542008,0.23058765754427227,B,480.4210000002058,Correct
12,312,460,A,32.17509871752821,64.58402791708264,1.6087549358764104,1.0144835382177246,A,858.3848000016587,Correct
12,312,461,A,26.596086547839022,54.97165269291028,1.3298043273919513,0.8634927012786826,A,631.0866999992868,Correct
12,312,462,B,71.27256237908223,40.767493897093736,3.5636281189541115,0.640374296661882,B,455.08199999676435,Correct
12,312,463,A,29.201353360317057,45.59711234388224,1.4600676680158529,0.7162377658222445,A,984.4838999997592,Correct
12,312,464,B,34.81053151433277,20.53277317667729,1.7405265757166388,0.32252804684837466,A,1192.50159999865,Incorrect
12,312,465,A,28.189028020225493,43.698784993353044,1.4094514010112746,0.6864189095295891,A,953.0737000022782,Correct
12,312,466,B,39.152748896462306,15.219744920357478,1.9576374448231153,0.2390711941565281,B,670.0090999984241,Correct
12,312,467,B,79.84363848939913,50.342336200162606,3.9921819244699566,0.7907755678548916,B,503.7597000009555,Correct
12,312,468,B,69.95457755269513,37.00071720161126,3.4977288776347564,0.5812059066906771,B,545.9514999965904,Correct
12,312,469,B,55.44387766603605,27.34914852268539,2.7721938833018025,0.4295994204040228,B,696.5922999988834,Correct
12,312,470,B,65.26400005104405,42.928788041362914,3.2632000025522023,0.6743238256912956,B,1405.8393999985128,Correct
12,312,471,B,71.84488761123022,54.00014145098348,3.5922443805615107,0.8482322383760967,B,473.17289999773493,Correct
12,312,472,A,34.927758468104706,44.78926215855997,1.7463879234052353,0.7035480847851966,B,1584.398599999986,Incorrect
12,312,473,A,17.03958046585109,34.10167525802615,0.8519790232925544,0.5356678623285989,A,1022.4549999984447,Correct
12,312,474,A,35.16565471991054,57.65713052613761,1.758282735995527,0.9056760884399085,A,788.2581999983813,Correct
12,312,475,B,64.20761392556636,48.12853809379975,3.2103806962783183,0.756001308517489,B,702.7783000012278,Correct
12,312,476,B,88.55943306928096,64.39435739965347,4.427971653464048,1.0115042006969344,B,477.4054999979853,Correct
12,312,477,B,67.88424679831188,54.60795497456172,3.394212339915594,0.8577797508782266,B,564.0046000007715,Correct
12,312,478,A,64.53593188025951,88.65532539763532,3.2267965940129755,1.3925945948541187,A,714.1209000001254,Correct
12,312,479,A,29.86112719853035,46.24778579155438,1.4930563599265176,0.7264585204377083,A,724.9231999994663,Correct
12,312,480,B,36.045322669831634,21.378725601468734,1.802266133491582,0.33581623646343106,B,805.4714999998396,Correct
12,312,481,B,43.4922197922985,24.894031689163075,2.174610989614925,0.39103453536453114,B,505.64940000185743,Correct
12,312,482,A,11.520265382433784,35.74481296574384,0.5760132691216893,0.5614782090856102,A,830.3707999984908,Correct
12,312,483,A,52.14496937319489,66.00219801232895,2.607248468659744,1.0367601019815573,A,568.8511000007566,Correct
12,312,484,B,50.11285390323824,23.541643056207707,2.505642695161912,0.3697912643940765,B,464.85069999835105,Correct
12,312,485,B,68.60691591696012,36.207145209800586,3.430345795848006,0.568740506992842,B,420.19920000166167,Correct
12,312,486,A,37.905350103858986,53.48200787336775,1.8952675051929493,0.8400934151710181,B,1182.9537999983586,Incorrect
12,312,487,A,22.4681701785643,40.387703205312576,1.1234085089282149,0.6344085584258746,A,474.83220000140136,Correct
12,312,488,B,83.48748187778367,61.24291646558121,4.174374093889184,0.9620014822634165,B,563.935300000594,Correct
12,312,489,B,39.76889357254382,13.161085928734863,1.9884446786271908,0.20673385433488722,B,419.9996999996074,Correct
12,312,490,A,49.88243875975388,60.99748444998454,2.494121937987694,0.9581462451776456,A,977.2236999997403,Correct
12,312,491,A,61.3590726306506,87.75813868967585,3.06795363153253,1.378501619000999,A,784.1466999998374,Correct
12,312,492,B,69.6604697552021,55.30935059373964,3.483023487760105,0.8687972475005736,B,672.9675000024145,Correct
12,312,493,B,76.90084902067215,61.986653984969436,3.8450424510336076,0.9736840838989623,B,465.58899999945424,Correct
12,312,494,B,51.652606259409,20.055312734871578,2.58263031297045,0.31502811576659184,B,434.665100001439,Correct
12,312,495,B,42.77944016640626,31.449575244118304,2.138972008320313,0.49400877272720745,B,1326.27340000181,Correct
12,312,496,A,24.58921454451523,40.858886988112545,1.2294607272257614,0.6418098959785499,A,670.5822000003536,Correct
12,312,497,A,34.96431475044561,61.74902730683074,1.7482157375222807,0.9699514527672749,A,634.1914000004181,Correct
12,312,498,B,82.01049532871947,58.3790866370543,4.100524766435973,0.9170165485112592,B,472.2556999986409,Correct
12,312,499,B,49.7880355242529,27.47821829987283,2.489401776212645,0.4316268437230854,B,539.6007999988797,Correct
12,312,500,A,39.02650758454397,50.58421014350719,1.9513253792271985,0.7945749148724224,A,1410.4947999985598,Correct
12,312,501,A,27.201990032978724,38.97136776984766,1.3600995016489361,0.6121608134304972,A,913.4183999995003,Correct
12,312,502,A,38.84591860106403,47.13228094007126,1.9422959300532014,0.7403521377412905,B,867.638600000646,Incorrect
12,312,503,A,56.48398188378227,65.5001381782831,2.8241990941891135,1.0288737645500525,B,392.0899999975518,Incorrect
12,312,504,B,47.57092856704051,35.3196294544714,2.3785464283520255,0.554799442108405,B,461.0465000005206,Correct
12,312,505,B,60.904428248340146,37.53314527824223,3.0452214124170074,0.5895692673612211,B,439.572399998724,Correct
12,312,506,B,44.248615142201416,14.776035309093388,2.2124307571100705,0.2321014198811559,B,435.9851000008348,Correct
12,312,507,B,38.682495473720586,23.113607212037024,1.9341247736860294,0.3630676930764779,B,456.4256000012392,Correct
12,312,508,B,52.288247842087046,32.30573980557001,2.6144123921043523,0.5074573742098105,B,445.12400000166963,Correct
12,312,509,A,35.073583163563704,43.13522650970806,1.7536791581781852,0.6775665535691527,B,815.5950000000303,Incorrect
12,312,510,B,66.60640554985629,52.67473925265877,3.3303202774928145,0.8274128693295535,B,460.8330999981263,Correct
12,312,511,B,37.44916267440581,18.712283547625315,1.8724581337202906,0.29393186262554416,B,676.6100999993796,Correct
12,312,512,B,42.30805092972192,30.825430346360168,2.1154025464860964,0.4842047275993449,B,553.8789000020188,Correct
12,312,513,A,37.19794690072234,66.17838771743158,1.8598973450361171,1.0395276833975002,A,628.6340000006021,Correct
12,312,514,B,68.28275788292852,35.8384239982499,3.4141378941464264,0.5629486477456902,B,521.9058000002406,Correct
12,312,515,A,56.16901115010968,66.87564215688937,2.808450557505484,1.0504801305209175,A,858.4847999991325,Correct
12,312,516,B,58.53442893869541,40.509061559869615,2.926721446934771,0.6363148510015152,B,571.0379000011017,Correct
12,312,517,B,75.7092680093104,54.45500933856805,3.7854634004655203,0.8553772864460447,B,441.1072000002605,Correct
12,312,518,A,24.142651056669866,46.31978658085778,1.2071325528334933,0.7275895061913494,A,537.3987999992096,Correct
12,312,519,A,57.414528615671806,75.42185801643687,2.87072643078359,1.1847237753226525,A,1182.962499999121,Correct
12,312,520,A,60.94310478026502,79.23632736718189,3.0471552390132506,1.2446413197708723,A,960.0610999987111,Correct
12,312,521,A,48.77187120152205,71.72202376579654,2.438593560076103,1.1266069148160949,A,693.6182000026747,Correct
12,312,522,A,38.4308211690864,54.92380579182378,1.9215410584543202,0.8627411239139307,A,771.400800000265,Correct
12,312,523,A,31.109041171442044,52.68783786773915,1.5554520585721021,0.8276186218940971,A,525.6399999998393,Correct
12,312,524,A,45.041888742054134,77.09683145834173,2.252094437102707,1.211034196622884,A,999.0256999990379,Correct
12,312,525,B,75.57631641555017,47.62296080726077,3.7788158207775084,0.7480597190714252,B,562.939200000983,Correct
12,312,526,A,52.377741913751265,62.0012224609679,2.618887095687563,0.9739129249848162,A,992.73379999795,Correct
12,312,527,B,68.53266496646918,42.78591626542516,3.426633248323459,0.6720796010828386,B,717.4269000024651,Correct
12,312,528,A,21.497419550886754,44.40687302951694,1.0748709775443377,0.6975415303921256,A,494.8465000015858,Correct
12,312,529,B,75.03648496638337,46.300893208913436,3.7518242483191684,0.72729272979884,B,495.9705000001122,Correct
12,312,530,A,24.485955454488654,52.647941645658776,1.2242977727244326,0.8269919335031286,A,462.04909999869415,Correct
12,312,531,A,54.32399569699528,70.54254015844434,2.716199784849764,1.1080796296366586,A,1281.3630999989982,Correct
12,312,532,B,48.83416419813423,26.96663199614309,2.441708209906712,0.4235908648557129,B,557.5076999994053,Correct
12,312,533,A,39.138823001393256,71.23951605751186,1.956941150069663,1.1190277014578567,A,654.07690000211,Correct
12,312,534,B,53.22510887383096,39.402123697341025,2.661255443691548,0.6189271117170143,B,1089.1580999996222,Correct
12,312,535,A,58.20180497597845,77.67333026305712,2.9100902487989226,1.22008981867137,A,764.7715999992215,Correct
12,312,536,B,48.87830472083862,34.64182271627629,2.443915236041931,0.544152478762068,B,1035.3921999994782,Correct
12,312,537,B,34.94525973471944,15.304525333844918,1.7472629867359724,0.24040292177743033,B,592.3695000019507,Correct
12,312,538,A,49.44769660934567,60.746670769236886,2.4723848304672833,0.9542064730933623,A,878.4429000006639,Correct
12,312,539,B,59.38805968307515,29.56316951404436,2.9694029841537577,0.4643771808107575,B,446.1942999987514,Correct
12,312,540,B,55.50373273921002,26.604312515021952,2.775186636960501,0.41789956375499976,B,764.007000001584,Correct
12,312,541,B,57.13288255454563,39.92213586305661,2.8566441277272814,0.6270954437149613,B,422.5154999985534,Correct
12,312,542,B,72.0162911199289,42.31312754453871,3.6008145559964446,0.6646530532216536,B,397.96889999706764,Correct
12,312,543,B,42.248925906618126,27.742890013271396,2.112446295330906,0.4357842972752152,B,452.04889999877196,Correct
12,312,544,A,36.26945330406573,59.54890237765387,1.8134726652032864,0.9353919711948658,A,975.6774999987101,Correct
12,312,545,B,41.58694990297098,32.611061447956494,2.079347495148549,0.5122533553533273,B,657.5974000006681,Correct
12,312,546,A,11.203890055301294,31.30770834698891,0.5601945027650647,0.4917803327181611,A,647.4127000001317,Correct
12,312,547,A,20.10335278933049,48.98037096444355,1.0051676394665245,0.7693818679599933,A,563.8502000001608,Correct
12,312,548,A,34.654072500429955,57.42160297764094,1.7327036250214976,0.901976430359533,A,559.1678999990108,Correct
12,312,549,B,54.475559574190626,36.975878259311365,2.7237779787095313,0.5808157374974157,B,480.5868000003102,Correct
