subject,day,trial,cat,x,y,xt,yt,resp,rt,fb
7,507,0,B,54.70348524568044,29.85127303355908,2.735174262284022,0.4689027003126616,B,1078.9306000001488,Correct
7,507,1,A,28.8241427721046,39.38808457145779,1.44120713860523,0.6187065856433264,A,979.9066000000494,Correct
7,507,2,B,63.52884982975314,44.04077846211757,3.176442491487657,0.6917909303748208,B,643.0485999999291,Correct
7,507,3,B,64.49028923481443,32.6163573607134,3.2245144617407213,0.5123365433563829,B,596.2307999998302,Correct
7,507,4,A,10.761663993756645,35.51649275181559,0.5380831996878322,0.557891763551895,A,441.4747000000716,Correct
7,507,5,B,50.015944591788426,20.45308167801047,2.500797229589421,0.32127625571454843,B,706.3345000001391,Correct
7,507,6,A,55.22587655563787,83.38126317945054,2.761293827781893,1.3097498192579946,A,740.3036000000611,Correct
7,507,7,A,59.819080564589214,82.78374989555915,2.990954028229461,1.3003641025425172,A,767.3091000001477,Correct
7,507,8,A,41.798378016190114,70.10022216132778,2.0899189008095056,1.101131714785199,A,672.9891999998472,Correct
7,507,9,B,41.31368028913087,32.39622511111621,2.0656840144565436,0.5088787140656194,B,487.9092999999557,Correct
7,507,10,B,78.245048823527,58.7076140017401,3.9122524411763497,0.9221770442882598,B,2643.819999999778,Correct
7,507,11,A,14.236735293609463,30.267723377021213,0.7118367646804731,0.47544428701068947,A,535.9864000001835,Correct
7,507,12,A,43.50388935826878,65.15479652873994,2.175194467913439,1.0234491506041357,A,1356.0998000002655,Correct
7,507,13,A,34.232123404493464,50.51399504625339,1.711606170224673,0.7934719787039043,A,2289.39709999986,Correct
7,507,14,A,62.88502268783928,84.48088579698734,3.1442511343919644,1.3270226509428686,A,593.9650000000256,Correct
7,507,15,A,68.32578824566654,81.67469015138334,3.4162894122833274,1.2829430328190425,A,2438.098000000082,Correct
7,507,16,B,67.08355501917579,45.683971730820666,3.3541777509587893,0.7176021498817499,B,1291.3972000001195,Correct
7,507,17,A,20.465182135026573,45.108033249533044,1.0232591067513286,0.7085553293730856,A,450.32039999978224,Correct
7,507,18,B,81.97391048736662,65.48586184179918,4.098695524368331,1.0286495123809622,B,1552.1389000000454,Correct
7,507,19,A,46.8088710196117,58.01702907774331,2.340443550980585,0.9113293616687189,A,1183.8674000000537,Correct
7,507,20,B,82.71883522473684,60.61382080568775,4.135941761236841,0.9521196707457839,B,1480.1603999999315,Correct
7,507,21,B,42.3266005982709,16.568032434977564,2.116330029913545,0.26025004491081466,B,538.6736000000383,Correct
7,507,22,B,65.10350836356716,47.05892747440622,3.2551754181783576,0.7391999041970473,B,569.887000000108,Correct
7,507,23,B,61.1771391819847,38.2174342160747,3.0588569590992347,0.6003180528613575,B,621.194800000012,Correct
7,507,24,B,67.7896326240519,48.16831484841114,3.3894816312025955,0.756626120317843,B,520.8072000000357,Correct
7,507,25,B,77.95016124036371,56.906785771378225,3.897508062018186,0.89388970059385,B,596.1356000002525,Correct
7,507,26,B,62.493028887055466,53.0444065024804,3.1246514443527733,0.8332195889111154,B,582.0650000000569,Correct
7,507,27,A,32.101648797485254,50.89882182080332,1.605082439874263,0.7995168235430579,A,968.0404999999155,Correct
7,507,28,A,31.885969480117424,40.922978990201514,1.594298474005871,0.6428166507931325,A,541.2992999999915,Correct
7,507,29,B,61.29235417228453,41.68640319835856,3.064617708614227,0.6548084902127266,B,568.6363999998321,Correct
7,507,30,A,64.32267057459238,75.40359431152982,3.2161335287296193,1.184436889716836,A,672.1081999999114,Correct
7,507,31,A,59.223421461644996,68.97908805063312,2.96117107308225,1.0835209813559625,A,568.0797999998504,Correct
7,507,32,B,50.027207724496385,35.98182945216938,2.5013603862248193,0.5652012553482808,B,531.1741999998958,Correct
7,507,33,A,29.223397317868272,48.43435961683517,1.4611698658934136,0.7608051417678775,A,794.6254999997109,Correct
7,507,34,B,57.6753308019673,33.0538525815435,2.883766540098365,0.5192087022150854,B,456.7276999996466,Correct
7,507,35,B,53.480554968263576,34.62851224345287,2.6740277484131787,0.5439433983438786,B,796.0516999996798,Correct
7,507,36,A,69.92165566292056,87.73505278193716,3.496082783146028,1.3781389864102327,A,1138.405000000148,Correct
7,507,37,A,46.85583876124172,72.06675428417121,2.3427919380620863,1.1320219291360651,A,699.821200000315,Correct
7,507,38,A,57.24311520495483,70.18901687758476,2.8621557602477417,1.1025264989265513,A,722.6974999998674,Correct
7,507,39,A,27.481772287051896,56.57674448734672,1.374088614352595,0.8887054242273766,A,564.1302999997606,Correct
7,507,40,B,75.10608383050965,43.52810388093436,3.7553041915254823,0.6837378568851837,B,430.5978000002142,Correct
7,507,41,B,64.0722874434515,32.28428480201791,3.203614372172575,0.5071203598021004,B,587.0740999998816,Correct
7,507,42,A,12.671851097465357,36.5049580969184,0.6335925548732678,0.5734185408844104,A,883.880500000032,Correct
7,507,43,A,17.065246534889376,31.511482291142507,0.8532623267444689,0.49498120634789083,A,448.5700000000179,Correct
7,507,44,A,19.310430594835168,44.16910325870009,0.9655215297417584,0.6938066515659058,A,499.67190000006667,Correct
7,507,45,A,41.79238999048761,53.8919048510198,2.0896194995243804,0.8465320618396196,A,553.205700000035,Correct
7,507,46,B,51.61098689277272,20.651819348403837,2.5805493446386363,0.3243980197410452,B,501.9151999999849,Correct
7,507,47,A,30.495235431141896,54.144766905753954,1.5247617715570947,0.8505040097072418,A,1182.7530999998999,Correct
7,507,48,B,65.92167477057345,45.411675709624326,3.296083738528672,0.7133249339827892,B,1155.7301999996525,Correct
7,507,49,A,46.48925098162116,55.50706302122883,2.324462549081058,0.8719029070491909,A,1192.7083999999013,Correct
7,507,50,A,11.811655444092146,35.12554851157715,0.5905827722046073,0.5517508257864133,A,508.0732999999782,Correct
7,507,51,B,65.79199093423898,53.23192367524452,3.289599546711949,0.836165101773004,B,2052.624499999638,Correct
7,507,52,A,55.22581888420124,83.87558655530677,2.761290944210062,1.3175146326884328,A,560.4766999999811,Correct
7,507,53,B,36.358791765865746,12.234616103987772,1.8179395882932874,0.1921809003588968,B,646.3310999997702,Correct
7,507,54,A,49.41362596733343,57.765706901344046,2.4706812983666713,0.9073816021534183,A,2922.725000000355,Correct
7,507,55,B,71.4570634340601,46.03436681539875,3.572853171703005,0.7231061429995722,B,740.6926999997268,Correct
7,507,56,B,36.94531082181297,24.070967652585622,1.8472655410906484,0.3781058757108027,B,550.3800999999839,Correct
7,507,57,A,29.226756167408702,47.512220449176695,1.461337808370435,0.7463202135943613,B,1167.8006999995887,Incorrect
7,507,58,B,55.0297428261497,46.29123118189152,2.751487141307485,0.7271409590332856,B,1006.6913999999088,Correct
7,507,59,B,81.0562576395494,49.69588500743444,4.05281288197747,0.780621136264996,B,612.5502000004417,Correct
7,507,60,A,30.037636179348777,40.84219211815576,1.5018818089674388,0.6415476535745055,A,528.6760999997568,Correct
7,507,61,A,52.17393757161089,68.23412511508036,2.608696878580545,1.0718191309283163,A,644.8095999999168,Correct
7,507,62,A,35.058795022099005,50.00662097136845,1.75293975110495,0.785502165372502,A,729.8094999996465,Correct
7,507,63,A,32.729207161591,53.677475853941125,1.63646035807955,0.8431638190299247,A,453.4339000001637,Correct
7,507,64,A,37.38319280590554,52.39321059937015,1.8691596402952768,0.8229906275848207,A,592.7335000001221,Correct
7,507,65,B,56.61511668802462,31.246852194244,2.830755834401231,0.4908244065062152,B,511.9470999998157,Correct
7,507,66,B,35.80870481008438,23.213253758736272,1.790435240504219,0.36463293737180763,B,637.7152999998543,Correct
7,507,67,B,68.04674573063683,59.51670351306396,3.402337286531841,0.9348861926126177,B,2551.6790000001492,Correct
7,507,68,A,65.71943724960656,78.96126530196375,3.285971862480328,1.24032065495402,A,590.8911000001353,Correct
7,507,69,A,15.541675500106074,31.360607511836484,0.7770837750053036,0.4926112708564919,A,558.6238999999296,Correct
7,507,70,A,15.744130505399756,45.34697845833087,0.7872065252699878,0.7123086719359344,A,429.2574999999488,Correct
7,507,71,B,85.4720906643798,65.86964951861533,4.2736045332189905,1.0346780351110818,B,691.9533999998748,Correct
7,507,72,B,70.16524692773095,40.83728690766625,3.508262346386547,0.6414706027083146,B,553.4475999997994,Correct
7,507,73,B,54.88987737098087,38.449880467550926,2.744493868549043,0.6039693100413184,B,1449.4764000000941,Correct
7,507,74,A,59.09941270773599,69.80150860309146,2.9549706353868,1.0964395331847845,A,786.3332000001719,Correct
7,507,75,B,57.881598967955206,26.733054894568696,2.8940799483977604,0.4199218443239483,B,507.43029999966893,Correct
7,507,76,B,34.127645983463836,11.486313717203867,1.7063822991731916,0.1804265939539767,B,492.555799999991,Correct
7,507,77,A,35.32525026982866,51.08322881892855,1.7662625134914327,0.8024134818959617,A,823.9077000002908,Correct
7,507,78,A,43.56667434424247,52.9343656793869,2.1783337172121238,0.831491071703988,A,476.33059999998295,Correct
7,507,79,B,73.8470523353611,58.27921419580858,3.6923526167680554,0.915447755872691,B,597.9852000000392,Correct
7,507,80,B,79.23663997624615,63.1745311117365,3.961831998812307,0.9923432141730562,B,873.8838000003852,Correct
7,507,81,A,61.532916575201014,83.37287369987195,3.0766458287600504,1.309618037620937,A,487.96589999983553,Correct
7,507,82,A,58.242173436829006,77.19265932948245,2.9121086718414504,1.2125394573028083,A,602.4535999999898,Correct
7,507,83,B,49.55613371202702,36.619461366520895,2.477806685601351,0.5752171540373865,B,1020.3785999997308,Correct
7,507,84,A,16.57851762283668,34.31494009275855,0.8289258811418341,0.5390178185189206,A,550.0704000000951,Correct
7,507,85,B,60.10855360712957,39.69225582893877,3.0054276803564783,0.6234844965830034,B,692.4194999996871,Correct
7,507,86,A,60.726539172333915,87.19455682193916,3.0363269586166957,1.369648895724109,A,636.4525999997568,Correct
7,507,87,B,64.31256763660198,43.49165097435991,3.2156283818300992,0.6831652559677023,B,933.2876000003125,Correct
7,507,88,A,30.845397630591805,50.04236090752048,1.5422698815295903,0.7860635669767769,A,444.77409999990414,Correct
7,507,89,B,36.34533988134234,10.960898751190559,1.8172669940671171,0.172173394967409,B,443.65849999985585,Correct
7,507,90,B,84.64266096973694,60.460865797980176,4.232133048486847,0.9497170591030645,B,722.8554999996959,Correct
7,507,91,A,17.799797821182793,36.06596494372876,0.8899898910591396,0.5665228525592264,A,554.577700000209,Correct
7,507,92,A,40.44571108221516,65.13073316512985,2.022285554110758,1.023071164172445,A,484.2711999999665,Correct
7,507,93,A,61.99192307367416,86.42563145123634,3.099596153683708,1.3575706442453153,A,576.716800000213,Correct
7,507,94,A,55.82923108466903,66.54163737956426,2.7914615542334515,1.0452335957473753,A,896.2078999998084,Correct
7,507,95,B,43.45128128711497,14.87727733365196,2.1725640643557487,0.23369172588409473,B,535.3735999997298,Correct
7,507,96,B,61.51640837049159,41.49079283620112,3.0758204185245797,0.6517358498291274,B,805.4827999999361,Correct
7,507,97,B,35.73376310257654,17.701894505631955,1.786688155128827,0.2780607086675744,B,625.6035000001248,Correct
7,507,98,B,77.43656074186477,45.20745227401747,3.871828037093238,0.7101169997578224,B,655.1507999997739,Correct
7,507,99,A,33.031449441973706,48.436710936032966,1.6515724720986853,0.7608420762034679,A,686.3299999999981,Correct
7,507,100,A,20.693692062996952,48.63867420258707,1.0346846031498476,0.7640145077759747,A,444.69260000005306,Correct
7,507,101,B,61.82478564358443,35.46861254967333,3.091239282179221,0.5571396630953823,B,602.4959999999737,Correct
7,507,102,A,48.447539787612946,73.23171130096749,2.4223769893806475,1.1503210311646404,A,641.9571999999789,Correct
7,507,103,A,23.335409112016883,43.9527768678051,1.1667704556008442,0.6904086045638395,A,502.95509999978094,Correct
7,507,104,A,30.299617165579193,50.031216989453206,1.5149808582789597,0.7858885187211151,A,832.6397000000725,Correct
7,507,105,B,31.528658824784355,15.373735792615872,1.5764329412392177,0.2414900771215624,B,580.2478000000519,Correct
7,507,106,B,66.67503375395926,47.44498146260326,3.333751687697963,0.7452640260630916,B,1315.2563999997255,Correct
7,507,107,B,62.80217588434194,38.267140675652,3.140108794217097,0.6010988401025774,B,438.47090000008393,Correct
7,507,108,B,78.46843222071226,63.88261689240703,3.923421611035613,1.0034657996063856,B,611.7698000002747,Correct
7,507,109,A,34.50332886311861,51.654461095725324,1.7251664431559306,0.8113863775173523,A,498.654500000157,Correct
7,507,110,A,16.05734773497507,35.225022548401924,0.8028673867487535,0.5533133603029715,A,466.6914999997971,Correct
7,507,111,A,54.9089545920812,70.14699104231745,2.7454477296040602,1.1018663586498678,A,653.993200000059,Correct
7,507,112,B,65.03493236923705,55.04545431000708,3.2517466184618526,0.8646519743691543,A,1167.125400000259,Incorrect
7,507,113,A,39.34810132108688,60.62179755068948,1.967405066054344,0.9522449691632688,A,1031.9570000001477,Correct
7,507,114,B,50.52685206367715,21.77097027615008,2.5263426031838576,0.34197760140537425,B,801.9444999999905,Correct
7,507,115,B,42.79723661405322,21.825015143699,2.139861830702661,0.34282653619965386,B,736.0373999999865,Correct
7,507,116,A,17.075061248740425,46.854078713127365,0.8537530624370213,0.7359821473793943,A,834.2690999998013,Correct
7,507,117,B,44.36124402726203,19.203499421757133,2.218062201363102,0.3016478635330403,B,443.3748999999807,Correct
7,507,118,B,77.6026721758781,50.26976541649451,3.8801336087939045,0.789635628650707,B,611.1267999999654,Correct
7,507,119,A,28.71800249832655,40.889261268379585,1.4359001249163272,0.642287014057275,A,955.1311000000169,Correct
7,507,120,B,36.046996318733875,25.020709946689877,1.8023498159366937,0.3930243927806098,B,569.7402000000693,Correct
7,507,121,B,69.41743479108717,38.697178444260985,3.470871739554359,0.6078538575757181,B,614.1786999996839,Correct
7,507,122,A,21.411103617310726,40.55454141415612,1.0705551808655362,0.6370292468820794,A,612.5434999999015,Correct
7,507,123,A,43.09577089617713,53.332180419093156,2.1547885448088566,0.8377399310227424,A,1411.2175000000207,Correct
7,507,124,B,76.70247978741511,53.061531045036766,3.8351239893707554,0.8334885805965712,B,544.1743999999744,Correct
7,507,125,B,67.81769790726797,51.02336719606194,3.3908848953633988,0.8014731777228131,B,989.9811999998747,Correct
7,507,126,B,50.38350837009447,38.96812032776595,2.5191754185047235,0.612109802729563,B,1010.4044999998223,Correct
7,507,127,A,49.20364561876555,78.19177861952485,2.4601822809382776,1.2282335864110936,A,466.15479999991294,Correct
7,507,128,B,56.51764883921149,49.165278213197126,2.8258824419605744,0.772286384231392,B,1271.9672999996874,Correct
7,507,129,A,55.28635779561918,70.74868461492804,2.7643178897809593,1.111317739186996,A,576.2919000003421,Correct
7,507,130,A,20.016447024952274,37.46633996894616,1.0008223512476138,0.5885198920166944,A,811.8977000003724,Correct
7,507,131,A,36.68864300611081,56.18592145755583,1.8344321503055403,0.8825663904311526,A,878.932199999781,Correct
7,507,132,B,61.72877338108616,38.1221153116215,3.086438669054308,0.5988207870114653,B,609.4293999999536,Correct
7,507,133,A,57.404178041597774,75.34410003368937,2.870208902079889,1.183502355785865,A,880.3772000001118,Correct
7,507,134,B,48.099179129113324,36.95977581657616,2.4049589564556664,0.5805628009184068,B,999.793999999838,Correct
7,507,135,B,35.74851665343432,19.499227212574933,1.787425832671716,0.30629314480851794,B,585.5173999998442,Correct
7,507,136,B,62.023000095859956,41.15847024064756,3.101150004792998,0.6465157387050625,B,955.1602999999886,Correct
7,507,137,B,80.39717472984597,54.22661401322617,4.019858736492298,0.8517896610650033,B,831.0305999998491,Correct
7,507,138,B,70.02838780952942,50.31941546006218,3.501419390476471,0.7904155297113201,B,781.160699999873,Correct
7,507,139,A,16.16249793962922,40.43898350066177,0.808124896981461,0.6352140674215894,A,499.75640000002386,Correct
7,507,140,A,41.749078378138115,60.47489323565912,2.0874539189069057,0.9499374015788687,A,708.9147000001503,Correct
7,507,141,A,54.58931643432813,76.5870226185988,2.7294658217164067,1.2030261380945264,A,598.2751000001372,Correct
7,507,142,A,55.82929608456088,84.32460525010096,2.791464804228044,1.3245678018528826,A,614.8622000000614,Correct
7,507,143,A,51.74289688401143,65.7230240566617,2.5871448442005716,1.032374847740568,A,655.6977000000188,Correct
7,507,144,A,65.09062132914863,78.50949400436247,3.2545310664574316,1.2332242480057851,A,496.54340000006414,Correct
7,507,145,B,46.06014633985347,28.510727995009276,2.3030073169926735,0.44784546808808995,B,521.9514000000345,Correct
7,507,146,B,50.847964332438906,44.10062315679886,2.542398216621945,0.6927309686406562,B,690.8238000000892,Correct
7,507,147,B,67.61716866959318,47.115296588088526,3.380858433479659,0.7400853481642157,B,600.9337999998934,Correct
7,507,148,B,82.85667255417273,54.97829560562522,4.142833627708637,0.863597047907601,B,575.2133999999387,Correct
7,507,149,B,50.04558432061357,43.039826381836804,2.5022792160306784,0.6760680118647933,B,2181.8575000002056,Correct
7,507,150,B,81.04904458053903,67.63374907558187,4.052452229026952,1.0623884461529174,B,594.8969999999463,Correct
7,507,151,A,10.873501116856847,35.41471830787408,0.5436750558428423,0.5562930943248457,A,472.12930000023334,Correct
7,507,152,A,51.057504297678875,65.99105478112573,2.5528752148839438,1.0365850645151307,A,692.0116000001144,Correct
7,507,153,A,21.35442808156877,45.0725836210797,1.0677214040784384,0.7079984879114781,A,524.3009000000711,Correct
7,507,154,A,16.690452477540887,33.46849726841323,0.8345226238770443,0.5257219257256853,A,506.9541000002573,Correct
7,507,155,A,45.15880733639896,52.09363660484788,2.257940366819948,0.8182849302828321,A,746.4052000000265,Correct
7,507,156,A,22.78763267077046,43.295765682960365,1.139381633538523,0.6800882970056669,A,580.6507000002057,Correct
7,507,157,B,64.1141817001931,44.00823698353739,3.205709085009655,0.6912797700245985,B,930.1855000003343,Correct
7,507,158,A,19.275523556108894,35.7095577877823,0.9637761778054447,0.5609244220451853,A,934.0591999998651,Correct
7,507,159,A,34.27895183363271,52.25361453873319,1.7139475916816354,0.8207978577919849,A,988.1617999999435,Correct
7,507,160,B,69.618084217005,42.985356188239365,3.48090421085025,0.6752123960645666,B,595.0635999997758,Correct
7,507,161,B,68.9228855760317,41.088078155073305,3.4461442788015852,0.6454100224105077,B,606.1273000000256,Correct
7,507,162,A,25.356076632808207,42.097362298392355,1.2678038316404103,0.6612638206606867,A,722.2837999997864,Correct
7,507,163,B,50.37639602216361,33.15208566292745,2.518819801108181,0.5207517438491619,B,500.4773999999088,Correct
7,507,164,B,60.68136977810986,32.78999209316525,3.0340684889054934,0.5150639913557769,B,666.0458999999719,Correct
7,507,165,B,53.46057700252026,42.44295613861622,2.6730288501260127,0.6666923960085526,B,837.6534999997602,Correct
7,507,166,B,32.02824908911889,15.216253799379796,1.6014124544559445,0.23901635575644675,B,679.0102999998453,Correct
7,507,167,B,59.65617591929071,37.33899119343068,2.9828087959645355,0.586519502128679,B,1394.6200000000317,Correct
7,507,168,A,41.268851162733654,66.12299212917338,2.063442558136683,1.0386575315319342,A,682.9077000002144,Correct
7,507,169,A,47.50487615310693,63.8993561625834,2.3752438076553464,1.0037287394474486,A,567.106099999819,Correct
7,507,170,B,42.50383744071904,17.402997845871344,2.125191872035952,0.27336565091514203,B,511.94459999987885,Correct
7,507,171,B,83.97162335198672,64.02325366205774,4.198581167599336,1.005674916818182,B,749.4335000001229,Correct
7,507,172,B,50.34454981490082,23.489918269132456,2.517227490745041,0.3689787733386559,B,724.105100000088,Correct
7,507,173,B,77.69105027627008,63.26881106351807,3.8845525138135035,0.993824160192545,B,806.5953999998783,Correct
7,507,174,A,63.733635664613686,81.4328142645808,3.1866817832306844,1.2791436552737458,A,873.6613000000943,Correct
7,507,175,B,66.67319064150347,40.42186928763216,3.3336595320751736,0.6349452379919605,B,525.2756999998383,Correct
7,507,176,A,23.447788645101515,36.778978152355464,1.1723894322550756,0.5777228378498971,A,856.5631000001304,Correct
7,507,177,B,57.43780430950008,49.40498303679638,2.8718902154750037,0.7760516587956393,B,1104.8732000003838,Correct
7,507,178,B,74.22469657143547,44.03894750674482,3.7112348285717736,0.6917621697950803,B,656.3508000003822,Correct
7,507,179,B,60.367254132422616,50.04960137361512,3.0183627066211307,0.7861772999522344,B,552.0999999998821,Correct
7,507,180,B,61.552040434333556,35.5543060233982,3.077602021716678,0.5584857330329556,B,505.2051000002393,Correct
7,507,181,B,53.97800420000003,27.55845801907921,2.6989002100000015,0.43288724628500985,B,636.2656000001152,Correct
7,507,182,A,35.67622896462696,57.51460376614434,1.7838114482313479,0.9034372833292346,A,939.1800999997031,Correct
7,507,183,A,46.539867342342816,59.04718756732152,2.3269933671171406,0.9275110533831793,A,906.1092000001736,Correct
7,507,184,A,39.921149744251736,58.005656097934505,1.996057487212587,0.9111507153196352,A,510.7775000001311,Correct
7,507,185,B,34.44454074894908,17.42507146742106,1.722227037447454,0.27371238255163555,B,650.395799999842,Correct
7,507,186,B,57.8463753116854,32.68870729156615,2.89231876558427,0.5134730134126566,B,484.33269999986805,Correct
7,507,187,B,61.210248325546935,30.226135236695782,3.0605124162773465,0.4747910220300752,B,654.8314000001483,Correct
7,507,188,B,38.052021162392556,19.28936347255204,1.9026010581196278,0.3029966128889639,B,704.7792000003028,Correct
7,507,189,A,26.29070228328857,38.0894849407437,1.3145351141644286,0.5983082303442973,A,1773.2366000000184,Correct
7,507,190,B,38.3703794590469,28.562155376512003,1.9185189729523449,0.4486532875077016,B,787.3197000003529,Correct
7,507,191,A,13.171537123987022,37.936340265296074,0.6585768561993511,0.595902639407684,A,511.2288999998782,Correct
7,507,192,A,17.182775897829575,35.901820806223,0.8591387948914787,0.5639444824766369,A,576.0786000000735,Correct
7,507,193,B,43.45324273677243,16.013351310213004,2.1726621368386216,0.25153713417758833,B,602.8166000000965,Correct
7,507,194,B,33.27380892534468,11.901509045346284,1.663690446267234,0.18694846691746178,B,834.5671000001857,Correct
7,507,195,A,48.7853366277004,65.96361941285802,2.4392668313850203,1.0361541107581391,A,720.9227999996983,Correct
7,507,196,A,42.17607366215644,69.61571237890216,2.1088036831078223,1.093521052919895,A,672.6831999999376,Correct
7,507,197,B,80.8798616959554,63.55038079382818,4.04399308479777,0.9982470471736224,B,579.9883999998201,Correct
7,507,198,B,38.132022641785795,24.881164576728924,1.9066011320892897,0.39083241923505097,B,1037.1344999998655,Correct
7,507,199,A,40.15938892276348,61.41477248054817,2.007969446138174,0.9647009902338937,A,531.773499999872,Correct
7,507,200,A,15.374741214278963,40.72032528879445,0.7687370607139482,0.6396333738953165,A,498.1333000000632,Correct
7,507,201,B,60.899892519914076,50.98545791037604,3.044994625995704,0.8008777000557449,A,2132.0496999996976,Incorrect
7,507,202,A,20.147937553766045,50.45165541170001,1.0073968776883022,0.7924927500142024,A,439.13270000030025,Correct
7,507,203,A,21.70764261254225,36.80123944906433,1.0853821306271128,0.5780725174808969,A,1179.3015999996896,Correct
7,507,204,B,61.56084117394763,46.987789610075374,3.0780420586973816,0.7380824732371781,B,572.9670000000624,Correct
7,507,205,A,11.400160041580108,31.388577386761888,0.5700080020790054,0.4930506206244293,A,562.804000000142,Correct
7,507,206,B,73.25439899882329,61.4338775323025,3.6627199499411645,0.965001091685083,B,1049.1250999998556,Correct
7,507,207,A,46.74388028350514,69.1682128161635,2.337194014175257,1.086491746225973,A,754.822399999739,Correct
7,507,208,A,40.77294655287926,60.18897453733433,2.038647327643963,0.9454462011679633,A,445.309200000338,Correct
7,507,209,B,36.715255880440566,15.44453916878248,1.8357627940220282,0.24260225395363422,B,555.42400000013,Correct
7,507,210,B,45.65070030913266,21.58145019737045,2.282535015456633,0.339000626969365,B,740.5572000002394,Correct
7,507,211,A,20.23797724508256,44.409695120944015,1.011898862254128,0.6975858597006008,A,946.6294999997444,Correct
7,507,212,A,68.04329340830839,82.7885856339447,3.402164670415419,1.300440062143451,A,689.526499999829,Correct
7,507,213,A,51.96819360218544,66.4776767459966,2.598409680109272,1.0442289044646997,A,636.8725999996059,Correct
7,507,214,A,55.95257350322251,77.82435511052475,2.7976286751611257,1.2224621114279393,A,418.94849999971484,Correct
7,507,215,B,52.86603233976636,42.8371528698006,2.6433016169883183,0.6728844237823424,B,673.2896000003166,Correct
7,507,216,A,62.26419517265468,74.83225589791827,3.1132097586327343,1.1754623269022575,A,512.5034000002415,Correct
7,507,217,B,83.40361984398189,56.67994393918883,4.170180992199095,0.8903264774261846,B,593.3497000000898,Correct
7,507,218,B,85.22134625359917,61.93821347124308,4.261067312679958,0.9729231820886681,B,486.30009999988033,Correct
7,507,219,B,42.82803077557197,14.596902530967299,2.1414015387785983,0.22928760878226562,B,1092.145800000253,Correct
7,507,220,B,66.97606350289944,45.307104737151526,3.3488031751449716,0.7116823369882928,B,540.9924999999021,Correct
7,507,221,A,51.33356153510303,66.1656118086159,2.5666780767551516,1.039326999891109,A,720.3283999997439,Correct
7,507,222,A,12.106849189902775,34.68125953286551,0.6053424594951388,0.5447719508284564,A,522.7942999999868,Correct
7,507,223,B,78.07471978088245,65.32859821677634,3.9037359890441223,1.026179221135719,A,1723.7012999999024,Incorrect
7,507,224,A,55.8900629565322,71.68211621868483,2.79450314782661,1.12598004853195,A,678.4326000001784,Correct
7,507,225,B,54.4149648762481,23.68509684360379,2.720748243812405,0.3720446312171423,B,559.5475000000079,Correct
7,507,226,B,47.11749208268817,17.912218506122443,2.3558746041344083,0.281364470341647,B,568.4211999996478,Correct
7,507,227,B,69.7458232932902,56.364218225735655,3.48729116466451,0.8853670695165154,A,920.7510999999613,Incorrect
7,507,228,A,27.33298045988609,48.491038256365705,1.3666490229943045,0.7616954477557006,B,456.4528999999311,Incorrect
7,507,229,B,65.07996396983013,50.94905005515861,3.253998198491507,0.8003058068033245,B,611.2370000000737,Correct
7,507,230,A,45.210157473407364,70.88962008479977,2.2605078736703685,1.113531548370892,A,527.074900000116,Correct
7,507,231,A,31.645500759398114,51.15297662795521,1.5822750379699055,0.8035090779181725,A,745.3363999998146,Correct
7,507,232,A,39.79095987883357,61.0128683460434,1.9895479939416785,0.9583878948518557,A,463.1080000003749,Correct
7,507,233,A,26.380652293496794,40.23765712241604,1.3190326146748397,0.6320516400672362,A,689.3963999996231,Correct
7,507,234,A,31.503211739675898,48.98151142657899,1.5751605869837948,0.7693997822973254,A,791.4590999998836,Correct
7,507,235,A,49.02403698512787,70.12583247503983,2.451201849256394,1.1015340006522685,A,532.4141999999483,Correct
7,507,236,A,28.628945346350953,59.54036720967759,1.4314472673175476,0.9352579010898086,A,1060.9894000003806,Correct
7,507,237,A,13.621001503269756,31.27153378930006,0.6810500751634878,0.49121210409475025,A,542.9551000001993,Correct
7,507,238,B,53.18289447404583,43.08968697016774,2.6591447237022914,0.676851220154814,B,2728.045800000018,Correct
7,507,239,B,69.2126882913048,60.441832024058954,3.46063441456524,0.9494180772814595,B,1854.7107000003962,Correct
7,507,240,A,13.743994317869205,30.28586606150785,0.6871997158934603,0.4757292716321875,A,455.3243999998813,Correct
7,507,241,B,61.70382973599328,50.4090203006174,3.085191486799664,0.7918230392553919,B,553.2298999996783,Correct
7,507,242,A,17.344369707659027,38.95034274661703,0.8672184853829513,0.6118305531378828,A,505.5339999998978,Correct
7,507,243,A,20.867625817381878,33.11128172606363,1.0433812908690938,0.5201107971077173,A,450.9422999999515,Correct
7,507,244,A,38.9454652336316,67.26596329773886,1.9472732616815802,1.0566112806640855,A,746.3969999998881,Correct
7,507,245,A,21.70664764524348,44.03306036282133,1.0853323822621739,0.6916696947545771,A,768.7646000003951,Correct
7,507,246,B,80.04238438259853,54.01712595900174,4.002119219129926,0.8484990304041717,B,570.9535000000869,Correct
7,507,247,A,62.80175776307985,80.50281164547087,3.140087888153993,1.2645352082936705,A,787.0106000000305,Correct
7,507,248,A,64.13394333262602,74.50069371392729,3.206697166631301,1.1702541602950862,A,565.7924000001913,Correct
7,507,249,B,55.68380049026789,46.944310296484964,2.7841900245133946,0.7373995017763844,B,1190.6395000000884,Correct
7,507,250,B,63.29047142079693,36.112742942341825,3.164523571039847,0.5672576396431888,B,611.8689999998423,Correct
7,507,251,B,45.1022317436791,25.422732072740338,2.255111587183955,0.39933934156951323,B,643.1031000001894,Correct
7,507,252,A,18.61546472811399,41.80851327762655,0.9307732364056995,0.6567265908525144,A,758.1405000000814,Correct
7,507,253,B,62.66621623277257,30.876575141064244,3.1333108116386286,0.4850081081559033,B,614.1889999998966,Correct
7,507,254,B,31.014082680952484,10.647630126276411,1.550704134047624,0.16725258291425665,B,635.9413000000131,Correct
7,507,255,A,19.54424583324683,35.22823073916851,0.9772122916623416,0.5533637544456896,A,554.3166000002202,Correct
7,507,256,B,59.089401914373006,45.91095774041754,2.95447009571865,0.7211676377828359,B,1909.115500000098,Correct
7,507,257,B,61.89740153981581,45.971759709196384,3.094870076990791,0.722122712875033,B,1259.9997999996049,Correct
7,507,258,B,61.614905373653016,40.33558859789948,3.0807452686826506,0.6335899440869062,B,530.3788000001077,Correct
7,507,259,A,57.01457777778023,75.56963346930493,2.8507288888890114,1.1870450267082087,A,596.8760999999176,Correct
7,507,260,B,79.8856063522726,53.8142193535967,3.99428031761363,0.8453117808996453,B,978.6751000001459,Correct
7,507,261,A,45.81682313200267,57.0068618567268,2.290841156600133,0.8954616920665054,A,669.4705999998405,Correct
7,507,262,B,60.4337544142173,53.43796250598814,3.0216877207108648,0.8394015521580958,B,1412.6407999997355,Correct
7,507,263,A,50.58821235500748,80.16232388626182,2.529410617750374,1.2591868390788286,A,604.7130999995716,Correct
7,507,264,B,65.81397911398571,34.801325502004545,3.290698955699286,0.5466579426614231,B,625.1455999999962,Correct
7,507,265,B,79.41059312639723,52.98944399527855,3.970529656319861,0.8323562398668745,B,662.6387999999679,Correct
7,507,266,A,46.08595104689032,75.53374339073267,2.3042975523445164,1.1864812666723117,A,628.7477000000763,Correct
7,507,267,A,22.718874127913754,43.64679101846937,1.1359437063956876,0.6856021900819617,A,494.9448000002121,Correct
7,507,268,B,68.96561307395928,53.67719996802339,3.4482806536979638,0.8431594854240627,B,577.7298000002702,Correct
7,507,269,B,51.67946029277308,37.62802999408289,2.583973014638654,0.591059712992336,B,604.2514000000665,Correct
7,507,270,B,73.73088616650918,62.37620699073303,3.6865443083254594,0.9798031682044159,B,1278.746300000421,Correct
7,507,271,B,40.631005555955525,13.875115435530962,2.0315502777977765,0.21794980359987204,B,466.3236999995206,Correct
7,507,272,B,82.50101865582542,63.98578491412545,4.125050932791271,1.0050863591019656,A,547.4498000003223,Incorrect
7,507,273,B,55.43026393369073,40.652888808111385,2.7715131966845363,0.6385740841338272,B,1040.7444000002215,Correct
7,507,274,A,14.868805668700006,38.430591888863056,0.7434402834350002,0.6036663257557983,A,530.9594999998808,Correct
7,507,275,A,53.13204883938519,68.3391648106634,2.6566024419692598,1.0734690906082112,A,1416.4924000006067,Correct
7,507,276,A,11.157059797643225,34.87372500196582,0.5578529898821613,0.5477951913474327,A,564.1132999999172,Correct
7,507,277,B,70.44008555682166,57.879128327313055,3.522004277841083,0.9091632217463379,B,1231.4107000001968,Correct
7,507,278,B,75.87181916839162,55.9693285646338,3.7935909584195815,0.8791641572250345,B,1095.1710999997886,Correct
7,507,279,A,23.60884843879793,38.42789596674626,1.1804424219398966,0.6036239783102144,A,671.9882999996116,Correct
7,507,280,B,71.97330519096795,47.25636144623531,3.5986652595483974,0.742301189774384,B,756.1560999993162,Correct
7,507,281,A,58.423917675261464,84.5877550089156,2.9211958837630734,1.3287013485983121,A,906.5247999997155,Correct
7,507,282,B,73.23290831324282,54.48754496056282,3.661645415662141,0.8558883548012386,B,838.9572000005501,Correct
7,507,283,A,57.857020728876854,85.96676255276435,2.8928510364438424,1.3503627484433132,A,515.40870000008,Correct
7,507,284,A,40.2817380893164,63.19770854520084,2.01408690446582,0.9927072844465592,A,843.1123000000298,Correct
7,507,285,A,26.5528540745564,52.573759180326654,1.32764270372782,0.8258266780625656,A,877.6297000003979,Correct
7,507,286,A,51.522175091084975,76.68683139402638,2.576108754554249,1.2045939306727622,A,615.3081000002203,Correct
7,507,287,B,37.00924036875736,27.23203899232908,1.850462018437868,0.42775986820285916,B,639.0338000001066,Correct
7,507,288,B,35.806208893894365,21.746408593190022,1.7903104446947182,0.3415917873916386,B,958.5219000000507,Correct
7,507,289,A,23.5334468462345,37.735327321193964,1.176672342311725,0.5927451354653458,A,1700.875200000155,Correct
7,507,290,B,61.2691088211945,39.27322889208218,3.063455441059725,0.6169024368505789,B,740.0919000001522,Correct
7,507,291,B,39.4621747916558,26.42809463269825,1.97310873958279,0.4151315397323033,B,1543.4229000002233,Correct
7,507,292,B,69.42907422559666,60.52601922508907,3.471453711279833,0.9507404867428721,B,1525.4893999999695,Correct
7,507,293,A,60.21293624992959,84.78283314076702,3.0106468124964794,1.3317656287278148,A,750.6101999997554,Correct
7,507,294,A,41.36177555967823,58.714666723533284,2.0680887779839114,0.9222878281831263,A,793.1199000004199,Correct
7,507,295,A,25.412659119120466,55.02421829230367,1.2706329559560232,0.8643183997831118,A,1091.901400000097,Correct
7,507,296,B,41.46939489658346,20.061161580774474,2.073469744829173,0.31511998922319445,B,632.3350000002392,Correct
7,507,297,A,38.19031329580327,58.301922024247794,1.9095156647901634,0.9158044496077091,A,751.225400000294,Correct
7,507,298,A,21.497954261471175,44.93780708007223,1.0748977130735589,0.7058814229559516,A,679.8277999996571,Correct
7,507,299,A,52.97010762602082,77.63491493885087,2.648505381301041,1.219486392169812,A,750.1890000003186,Correct
7,507,300,A,34.822691066801426,42.80727426056377,1.7411345533400715,0.6724150916859529,A,1059.443399999509,Correct
7,507,301,A,41.84397985838626,49.05021999273348,2.092198992919313,0.7704790539306734,A,640.3960999996343,Correct
7,507,302,B,54.411787120053326,41.58272684109346,2.7205893560026664,0.6531799458010517,B,974.7710999999981,Correct
7,507,303,B,45.03101114384517,22.881806313556865,2.2515505571922585,0.35942657307767395,B,865.2523000000656,Correct
7,507,304,B,56.87813173307086,44.7629995952914,2.843906586653543,0.7031355534060516,B,1391.3696999998137,Correct
7,507,305,A,53.068484136796386,68.26020512196114,2.6534242068398193,1.0722287947184275,A,820.8944999996675,Correct
7,507,306,B,55.31959558940012,32.33869542411183,2.7659797794700065,0.507975039855338,B,647.3895999997694,Correct
7,507,307,B,80.93876248974016,52.59732130491001,4.046938124487008,0.826196791050036,B,878.8985000001048,Correct
7,507,308,A,24.479392381963223,49.05822998822326,1.223969619098161,0.7706048746456033,A,700.6735999993907,Correct
7,507,309,A,44.78548289247569,59.900002340681496,2.2392741446237845,0.9409070365174821,A,758.6638000002495,Correct
7,507,310,B,77.97656530783958,55.07030224563168,3.8988282653919786,0.8650422848292298,B,613.5481000001164,Correct
7,507,311,B,51.85051335554848,28.144449177853417,2.592525667777424,0.4420919738823779,B,676.4855999999781,Correct
7,507,312,B,37.73952119459271,27.820178794914497,1.8869760597296357,0.4369983466182896,B,646.6773000001922,Correct
7,507,313,B,70.01550449561543,44.85417058147247,3.5007752247807717,0.7045676639080867,B,575.8355999996638,Correct
7,507,314,B,55.769135555300956,23.547181885262226,2.7884567777650475,0.3698782681174123,B,676.2428000001819,Correct
7,507,315,B,62.06726959164852,36.70871157529546,3.1033634795824256,0.5766190930384741,B,689.4828999993479,Correct
7,507,316,B,58.205205895410344,28.95127272296002,2.9102602947705174,0.45476552849262875,B,3181.3458000005994,Correct
7,507,317,B,31.257581241486225,17.448028282763236,1.5628790620743112,0.27407298736377955,B,868.5989000005065,Correct
7,507,318,A,51.77922550699936,71.8227474147416,2.588961275349968,1.1281890781939374,A,1798.004000000219,Correct
7,507,319,B,49.467927286607974,36.06365277535091,2.4733963643303984,0.5664865331032779,B,807.3825999999826,Correct
7,507,320,B,86.79487340937743,63.29353018662155,4.339743670468872,0.9942124472702705,B,1042.694599999777,Correct
7,507,321,B,57.41078781399446,50.04285071479873,2.870539390699723,0.7860712608515121,B,1127.6797999998962,Correct
7,507,322,A,54.10883619854522,84.06362473279388,2.705441809927261,1.3204683294733726,A,486.0426000004736,Correct
7,507,323,A,26.401409755987682,55.4922983469689,1.320070487799384,0.8716709840882526,A,462.9162000001088,Correct
7,507,324,A,19.984508864123544,42.608317065768915,0.9992254432061771,0.6692898793782212,A,561.3769000001412,Correct
7,507,325,B,85.09545446513232,69.28161828934088,4.254772723256616,1.0882731152330278,B,522.5508000003174,Correct
7,507,326,B,38.82846776550001,18.80576705037503,1.9414233882750005,0.2954002980528959,B,640.878100000009,Correct
7,507,327,A,48.851901916272844,73.84880436141607,2.442595095813642,1.1600143062910733,A,531.953099999555,Correct
7,507,328,A,19.277555754477355,46.12023885343343,0.9638777877238678,0.724455017818765,A,510.44180000008055,Correct
7,507,329,A,19.63638694783634,49.505527855310945,0.981819347391817,0.7776310131116487,A,456.1186999999336,Correct
7,507,330,B,38.72315068575117,28.60875207511532,1.9361575342875585,0.44938522673777015,B,629.114500000469,Correct
7,507,331,A,18.67992992487018,41.84111705810227,0.933996496243509,0.6572387298386234,A,405.1290000006702,Correct
7,507,332,A,58.7177223378559,77.56641262995572,2.935886116892795,1.2184103604179173,A,559.0581999995266,Correct
7,507,333,B,44.4852747301893,21.770494816799953,2.224263736509465,0.34197013290736705,B,518.2801000000836,Correct
7,507,334,B,60.09424681621666,38.72406064918163,3.004712340810833,0.6082761222631731,B,578.1470000001718,Correct
7,507,335,B,59.61249103559138,37.28731613662678,2.980624551779569,0.5857077922345343,B,614.8595000004207,Correct
7,507,336,B,51.319739339952584,37.17554162174516,2.565986966997629,0.5839520422604809,B,1908.1077999999252,Correct
7,507,337,B,79.73667684366818,60.5119595419884,3.986833842183409,0.9505196377571677,B,620.6720000000132,Correct
7,507,338,B,63.76521797342422,40.49410149486914,3.188260898671211,0.6360798588500017,B,497.92359999992186,Correct
7,507,339,A,61.82340987591926,82.14979364412437,3.091170493795963,1.290405941031493,A,495.47509999956674,Correct
7,507,340,B,41.972611913398836,17.885914444648233,2.098630595669942,0.2809512871102123,B,652.9852999992727,Correct
7,507,341,A,54.26793772946243,83.65561811043291,2.713396886473122,1.3140593764362465,A,445.55290000062087,Correct
7,507,342,B,56.22346938523192,32.69618979922249,2.811173469261596,0.5135905483680745,B,2620.7555000000866,Correct
7,507,343,B,49.16772341251099,24.4071369142276,2.458386170625549,0.3833864101244884,B,733.3416000001307,Correct
7,507,344,B,39.598091442957156,19.402232483159377,1.9799045721478579,0.3047695551616737,B,1303.8258999995378,Correct
7,507,345,B,54.668558927693184,31.091383482109496,2.7334279463846594,0.48838230968669116,B,1059.1283000003386,Correct
7,507,346,A,44.89759958876334,66.4042817689068,2.244879979438167,1.0430760188605213,A,578.6442999997234,Correct
7,507,347,B,66.16691522277448,51.15507924191421,3.308345761138724,0.8035421057010069,B,1624.710999999479,Correct
7,507,348,B,83.65444371565971,63.47011766379589,4.1827221857829855,0.9969862768753046,B,502.01389999983803,Correct
7,507,349,B,44.12657242303068,32.986739347932016,2.206328621151534,0.518154490006723,B,768.760700000712,Correct
7,507,350,A,53.98507759095232,69.52954412547392,2.699253879547616,1.092167525160181,A,671.6777999999977,Correct
7,507,351,B,74.15691716335606,49.25919145306267,3.707845858167803,0.773761569953574,B,638.8905999992858,Correct
7,507,352,B,51.36146049044229,39.15707805239237,2.5680730245221146,0.6150779437271899,B,1455.7276000005004,Correct
7,507,353,A,57.007526812385684,72.43805535662902,2.850376340619284,1.1378543127435825,A,866.2168999999267,Correct
7,507,354,A,58.521217915884364,70.81564826523056,2.926060895794218,1.1123696017462357,A,603.0565999999453,Correct
7,507,355,A,49.817759142504116,65.05035747364248,2.4908879571252056,1.0218086257629255,A,1216.3083999994342,Correct
7,507,356,A,31.265512201539078,40.667867447092206,1.5632756100769538,0.6388093680447419,A,1709.0698000001794,Correct
7,507,357,A,53.247370921911575,72.39715931471555,2.662368546095579,1.1372119192194012,A,545.4964000000473,Correct
7,507,358,A,53.500165063027296,64.18998083508184,2.675008253151365,1.0082938611278136,A,767.5637000002098,Correct
7,507,359,A,58.65998505170447,87.02629471359911,2.932999252585223,1.367005840706916,A,649.202200000218,Correct
7,507,360,A,59.80261932308676,84.56409054336942,2.990130966154338,1.3283296280427572,A,745.5282000000807,Correct
7,507,361,A,59.73970830659602,85.40032353491924,2.9869854153298014,1.3414651451574688,A,754.9150000004374,Correct
7,507,362,B,34.08976942476785,18.91214729444074,1.7044884712383925,0.29707131501911554,B,766.5326000005734,Correct
7,507,363,A,25.683869061160514,51.3805733394143,1.284193453058026,0.8070841587016777,A,506.11620000017865,Correct
7,507,364,A,30.08575384372733,46.65668034511045,1.5042876921863664,0.7328814210654315,A,556.3555999997334,Correct
7,507,365,A,33.080853224626225,64.5437328342366,1.6540426612313113,1.0138505845364998,A,556.6381999997247,Correct
7,507,366,B,78.36894533969341,65.08267582097079,3.918447266984671,1.0223162811756394,B,662.6000999995085,Correct
7,507,367,A,22.02613238724941,45.45547071961162,1.1013066193624708,0.7140128643909891,A,424.81359999965207,Correct
7,507,368,B,62.57831975806348,52.505599875137285,3.128915987903174,0.8247560342002823,B,622.3396999994293,Correct
7,507,369,B,48.224618691157566,35.99792941278923,2.4112309345578784,0.565454152938313,B,1069.2681000000448,Correct
7,507,370,A,48.48128306410166,68.42671694167811,2.424064153205083,1.0748443562662209,A,542.6468000005116,Correct
7,507,371,A,27.218442913063463,53.05692074551768,1.360922145653173,0.8334161621810711,A,562.559500000134,Correct
7,507,372,B,61.46687136818898,34.846283538575015,3.0733435684094492,0.547364141848471,B,514.308799999526,Correct
7,507,373,A,39.36568900873526,71.18246973078782,1.9682844504367631,1.1181316198531042,A,445.3166000002966,Correct
7,507,374,B,40.55283018006668,13.852726988250534,2.0276415090033337,0.21759812669236472,B,518.4473999997863,Correct
7,507,375,B,59.38003726626882,32.27317174191778,2.969001863313441,0.506945796262253,B,502.16550000004645,Correct
7,507,376,B,57.66020252986408,25.065385393657852,2.883010126493204,0.39372615306056213,B,1123.4527999995407,Correct
7,507,377,B,59.97686970417837,27.272426105541847,2.9988434852089187,0.42839426749370385,B,1000.1886000000013,Correct
7,507,378,B,46.095647596173784,20.001855062538805,2.3047823798086893,0.3141884046131986,B,1018.0961999994906,Correct
7,507,379,A,29.144508835400643,61.67347401067533,1.457225441770032,0.9687646643664931,A,1270.8334999997533,Correct
7,507,380,B,52.655095635609726,39.46991813178024,2.632754781780486,0.6199920242029568,B,1412.9057000000103,Correct
7,507,381,A,45.1329383605956,55.925569657352085,2.25664691802978,0.8784767939168079,A,1561.362999999801,Correct
7,507,382,A,26.26145172936773,53.66423278329922,1.3130725864683865,0.8429557973627269,A,809.126400000423,Correct
7,507,383,B,75.27612572130238,64.65946864327344,3.763806286065119,1.0156685583736371,B,774.3779000002178,Correct
7,507,384,A,26.649185354473452,37.78960112398168,1.3324592677236726,0.5935976663659472,A,912.0623999997406,Correct
7,507,385,A,37.06938035965444,60.24572512486484,1.853469017982722,0.9463376373123269,A,450.80630000029487,Correct
7,507,386,A,20.997226025722977,44.36814294905405,1.0498613012861489,0.6969331597108499,A,604.1933999995308,Correct
7,507,387,B,80.0995552908298,50.81856001586759,4.00497776454149,0.7982560740593082,B,527.5749000002179,Correct
7,507,388,A,13.928869215506356,34.61036772176105,0.6964434607753178,0.5436583848636292,A,518.7029999997321,Correct
7,507,389,A,44.948048849814946,53.15199323158228,2.2474024424907473,0.8349095572999665,A,861.0693000000538,Correct
7,507,390,B,74.3666853176698,51.4714969153116,3.7183342658834904,0.8085123828920631,B,960.1560999999492,Correct
7,507,391,A,67.62104397740909,80.55742740622777,3.3810521988704547,1.2653931106574912,A,682.0656999998391,Correct
7,507,392,A,24.73833631684019,55.26222127453831,1.2369168158420094,0.8680569418857158,A,2206.219699999565,Correct
7,507,393,A,62.767526985749555,86.22839998889367,3.1383763492874777,1.354472539679553,A,574.5294999996986,Correct
7,507,394,B,82.42020913195972,65.8729895580149,4.121010456597986,1.0347305003272838,B,588.8672999999471,Correct
7,507,395,B,58.22952667690736,49.029024221957,2.9114763338453677,0.7701461115418807,B,972.3875999998199,Correct
7,507,396,B,70.16913817823223,46.01073355712647,3.5084569089116115,0.7227349126467295,B,1385.644100000718,Correct
7,507,397,B,50.266332588887146,24.829167143569663,2.513316629444357,0.3900156454649576,B,566.6297999996459,Correct
7,507,398,A,60.34786240835157,72.94821973958098,3.0173931204175783,1.1458679561316074,A,672.3060000003898,Correct
7,507,399,A,50.74391547748195,62.749066401236085,2.5371957738740973,0.985660030128707,A,730.5120000000898,Correct
7,507,400,B,66.35080035305833,53.3764780765529,3.3175400176529166,0.8384357569989763,B,1303.8066999997682,Correct
7,507,401,B,52.04687122428017,30.36740501382161,2.602343561214008,0.47701008250003907,B,753.1705000001239,Correct
7,507,402,B,57.108585465626795,38.20173810528194,2.8554292732813398,0.6000714989295751,B,537.5015999998141,Correct
7,507,403,A,67.54129428230755,86.04446355532353,3.3770647141153773,1.3515832729373956,A,508.52630000008503,Correct
7,507,404,A,33.074022073111315,65.81220668300712,1.6537011036555658,1.0337757251593411,A,448.9223000000493,Correct
7,507,405,B,54.87486073458131,48.23910058163435,2.7437430367290654,0.757738020015208,A,1682.893299999705,Incorrect
7,507,406,A,42.866898105107474,60.86161713668485,2.1433449052553737,0.9560120464110189,A,631.9002000000182,Correct
7,507,407,A,46.121845237575,62.58353402278876,2.3060922618787503,0.9830598536084002,A,1148.048000000017,Correct
7,507,408,B,37.575725590475635,19.238781333671966,1.8787862795237817,0.30220207050942144,B,524.9101999997947,Correct
7,507,409,A,64.63219249685721,86.10649425784594,3.2316096248428607,1.3525576489341027,A,503.938200000448,Correct
7,507,410,A,20.96810585151093,52.952549049223826,1.0484052925755465,0.8317766954094736,A,532.1112999999968,Correct
7,507,411,A,16.3278928257377,33.72680505937543,0.816394641286885,0.5297794150179446,A,478.30570000041917,Correct
7,507,412,A,28.04451487508733,58.61405481824163,1.4022257437543664,0.9207074200704864,A,501.7791999998735,Correct
7,507,413,A,42.55995358778538,60.58236288855765,2.127997679389269,0.9516255309390181,A,712.5530999992407,Correct
7,507,414,A,53.63822590711247,68.89518853500451,2.681911295355624,1.0822030908462694,A,712.0322999999189,Correct
7,507,415,A,63.726721009023905,80.13124321140201,3.186336050451195,1.2586986249797874,A,564.186200000222,Correct
7,507,416,A,35.47533653152388,59.04676811982566,1.773766826576194,0.9275044647173214,A,694.1396000001987,Correct
7,507,417,B,71.46561793119976,53.75688603320001,3.5732808965599876,0.8444111912088246,B,656.9241000006514,Correct
7,507,418,B,39.554110861702256,24.788678908341712,1.977705543085113,0.38937965775321287,A,1624.0952999996807,Incorrect
7,507,419,B,52.96152785901346,36.732300105774165,2.648076392950673,0.5769896208087784,B,869.0833000000566,Correct
7,507,420,A,35.020843863592404,50.267146438335615,1.7510421931796203,0.7895944898379876,A,620.006199999807,Correct
7,507,421,A,42.067048107270615,49.7520185685359,2.103352405363531,0.7815028801808768,A,496.14719999954104,Correct
7,507,422,B,34.78100384776814,12.331410444246544,1.7390501923884072,0.19370134230022693,B,753.258800000367,Correct
7,507,423,A,53.00147517432085,74.6900027343288,2.650073758716043,1.1732278194338448,A,562.9589999998643,Correct
7,507,424,A,54.68108324039274,77.48317060363125,2.7340541620196372,1.2171027977260627,A,848.7326000004032,Correct
7,507,425,B,54.36301666291485,41.80491145291603,2.7181508331457427,0.6566700135222641,B,1271.6841999999815,Correct
7,507,426,B,34.84262690114673,22.486273087138482,1.7421313450573366,0.3532135516858406,B,937.0903000008184,Correct
7,507,427,A,46.002574342978065,72.36521336231291,2.300128717148903,1.1367101133725008,A,577.1060999995825,Correct
7,507,428,A,34.154836076434805,48.905730015069416,1.7077418038217402,0.7682094106689396,A,1413.2645999998203,Correct
7,507,429,B,47.59425748926,40.205546539668326,2.3797128744630003,0.6315472482129226,B,1217.9445000001579,Correct
7,507,430,A,22.959989206386187,52.854233257398285,1.1479994603193093,0.8302323545628187,A,1048.9047999999457,Correct
7,507,431,A,49.90741618805069,78.91835165770455,2.4953708094025346,1.2396465690063023,A,544.8759000000791,Correct
7,507,432,B,65.63408422845114,33.98250894214517,3.2817042114225567,0.5337960022159635,B,922.0255000000179,Correct
7,507,433,A,52.85900513292903,80.20521701060699,2.6429502566464516,1.25986060270049,A,640.6734000001961,Correct
7,507,434,B,68.2918273522333,53.38461099338517,3.4145913676116653,0.8385635085578388,B,727.0247000005838,Correct
7,507,435,B,30.908621118241996,14.53819570157767,1.5454310559120998,0.2283654440626356,B,572.8601999999228,Correct
7,507,436,B,51.17061797171156,27.490171581856302,2.5585308985855777,0.4318146054374133,B,714.6400999999969,Correct
7,507,437,B,48.3372488101776,29.9557424173033,2.4168624405088797,0.4705437015551409,B,710.7861999993474,Correct
7,507,438,B,59.97881541130901,37.7076820461869,2.9989407705654503,0.5923108845010026,B,1430.542900000546,Correct
7,507,439,B,69.16977976465373,59.33906052960756,3.4584889882326864,0.9320957831536758,B,1420.091400000274,Correct
7,507,440,A,42.263520000044835,59.703296527554166,2.1131760000022415,0.9378171888302859,A,1670.026699999653,Correct
7,507,441,A,24.69756046487597,45.47829887311002,1.2348780232437986,0.7143714481876171,A,1436.3735999995697,Correct
7,507,442,B,51.8114142192019,42.959235720881686,2.5905707109600953,0.6748020967227706,B,1116.7370000002848,Correct
7,507,443,A,54.50835836745365,65.72358100774538,2.7254179183726825,1.0323835963077328,A,705.1483999994161,Correct
7,507,444,A,62.24239330042102,73.38144760077697,3.112119665021051,1.1526730834619263,A,1059.8960000006628,Correct
7,507,445,A,36.01281544043083,63.65468822118257,1.8006407720215412,0.9998855044110796,A,818.546200000128,Correct
7,507,446,A,17.423690641429697,40.342104334218405,0.8711845320714849,0.6336922930336675,A,550.4326000000219,Correct
7,507,447,A,31.048779653943342,43.93508628445288,1.5524389826971672,0.6901307215303542,A,630.451400000311,Correct
7,507,448,A,39.35347394130001,66.5703763454552,1.9676736970650006,1.0456850263679491,A,679.0068000000247,Correct
7,507,449,B,60.602562397695536,49.523014916319454,3.0301281198847767,0.7779056992236347,B,1227.4936000003436,Correct
7,507,450,A,66.7439892553158,89.63459416408696,3.3371994627657897,1.4079769126669908,A,995.472300000074,Correct
7,507,451,A,43.327512371943385,57.55323450138853,2.1663756185971694,0.9040440934994641,A,1750.5390999995143,Correct
7,507,452,B,49.1063699521939,39.2467972609221,2.4553184976096953,0.6164872497592044,B,1639.6445999998832,Correct
7,507,453,A,53.20752038528762,61.87476858363495,2.6603760192643815,0.9719265921245805,A,1014.3156000003728,Correct
7,507,454,B,61.39675845117191,40.40573846971197,3.0698379225585954,0.634691855696588,B,1288.5242000002108,Correct
7,507,455,B,52.5602933293546,43.00858467819196,2.62801466646773,0.675577268331512,B,1047.6936999993995,Correct
7,507,456,B,49.567078879300155,19.16656961995645,2.4783539439650077,0.3010677715628625,B,662.9289000002245,Correct
7,507,457,A,31.979999874754007,61.20641359224849,1.5989999937377004,0.9614280964699314,A,544.0430999997261,Correct
7,507,458,A,69.39848347716314,86.68356402362971,3.469924173858157,1.361622239618078,A,680.5996000002779,Correct
7,507,459,B,67.21958319605024,34.14486864698164,3.3609791598025116,0.53634634249573,B,581.8782999995165,Correct
7,507,460,A,36.07515484310621,48.01038785018464,1.8037577421553106,0.7541454088306837,A,1251.9637999994302,Correct
7,507,461,B,38.1837137702009,22.2721658344624,1.9091856885100453,0.34985036282540327,B,653.9076999997633,Correct
7,507,462,A,53.84047037001898,60.908191971502525,2.6920235185009487,0.9567436422055458,B,3319.866499999989,Incorrect
7,507,463,B,56.005675019989354,34.614247370989304,2.8002837509994674,0.543719326251199,A,41.54649999964022,Incorrect
7,507,464,A,56.03982940841027,65.99585346584384,2.8019914704205133,1.0366604420784176,A,836.2986000001911,Correct
7,507,465,A,24.73296079142162,50.67127432211491,1.2366480395710808,0.7959425157919467,A,964.3081999993228,Correct
7,507,466,B,74.3301554444334,53.3577898259686,3.7165077722216697,0.838142202645256,B,2108.3535999996457,Correct
7,507,467,B,39.18905932111966,20.459715826001624,1.959452966055983,0.32138046466750764,B,652.6708000001236,Correct
7,507,468,B,70.50792563387645,39.261079072063254,3.5253962816938222,0.6167115879240095,A,1214.6304999996573,Incorrect
7,507,469,A,36.641833195772215,69.07986774417394,1.8320916597886108,1.0851040250802568,A,1053.5175000004529,Correct
7,507,470,A,32.13568969980135,63.42689217313196,1.6067844849900672,0.9963072924557166,A,1292.1361999997316,Correct
7,507,471,B,63.21162711591349,48.718855948271234,3.1605813557956743,0.7652739996919415,B,596.4512000000468,Correct
7,507,472,A,22.3519937902525,36.21633151649975,1.117599689512625,0.5688848051610406,A,962.2479999998177,Correct
7,507,473,B,89.341508923624,65.07453730345816,4.467075446181201,1.0221884416414955,B,653.3331000000544,Correct
7,507,474,B,63.02894957598276,41.71578863801125,3.151447478799138,0.6552700756194035,B,1222.732299999734,Correct
7,507,475,A,64.28011223673155,85.50106801110893,3.2140056118365776,1.3430476356889054,A,910.2080000002388,Correct
7,507,476,A,41.58241750764361,53.38818528882999,2.0791208753821806,0.8386196534593948,A,1240.421200000128,Correct
7,507,477,A,63.392768060286,81.04205414496884,3.1696384030143,1.2730056096683018,A,879.3137999991814,Correct
7,507,478,A,16.133053598264997,44.73505599229641,0.8066526799132498,0.7026966163166323,A,1169.8464999999487,Correct
7,507,479,A,27.258551774449586,51.34521452304931,1.3629275887224792,0.8065287437130182,A,991.6357000001881,Correct
7,507,480,B,51.092626881045554,24.984043369155764,2.554631344052278,0.3924484355275426,B,1141.7187999995804,Correct
7,507,481,A,22.743833536507925,43.658343716322506,1.1371916768253962,0.6857836594354845,A,1574.305699999968,Correct
7,507,482,A,51.00590185769471,81.97744482575175,2.5502950928847357,1.2876986921232214,A,1398.3287000000928,Correct
7,507,483,A,38.83235889129269,60.44373685806187,1.9416179445646347,0.9494479983440088,A,1171.8482999995103,Correct
7,507,484,A,37.116639908888544,60.70535616713513,1.8558319954444271,0.9535575048411178,A,1404.4182999996337,Correct
7,507,485,B,88.19881032534127,60.950531774516406,4.4099405162670635,0.9574087142760601,B,1411.3232999998218,Correct
7,507,486,A,34.26493467194581,46.26938026720208,1.7132467335972905,0.726797725667973,A,1247.8148999998666,Correct
7,507,487,B,53.288471979149485,31.07546277490312,2.664423598957474,0.48813222780269366,B,1910.9613999999056,Correct
7,507,488,A,60.46753189759953,83.41488779904779,3.0233765948799767,1.310277993547527,A,1116.7835000005653,Correct
7,507,489,B,75.36633077999089,59.69742581332311,3.7683165389995446,0.9377249718667877,B,1047.301399999924,Correct
7,507,490,B,49.576406952205566,40.61067840741161,2.478820347610278,0.6379110447101098,B,1895.8473000002414,Correct
7,507,491,A,47.05183249513887,64.0692630788585,2.3525916247569434,1.0063976310472682,A,1560.9890999994604,Correct
7,507,492,B,35.72796116432457,21.451323287381605,1.7863980582162284,0.3369565982470885,B,1418.1452999991961,Correct
7,507,493,A,55.262593903507806,68.42370539676224,2.7631296951753903,1.0747970510293028,A,1643.2302000002892,Correct
7,507,494,B,52.64017091273967,27.58357586818454,2.6320085456369835,0.43328179653612625,B,1668.6280000003535,Correct
7,507,495,A,24.582632746638943,45.92176283390961,1.2291316373319472,0.7213373637945163,A,1849.9127999994016,Correct
7,507,496,B,56.90652132268437,40.42871323064544,2.8453260661342186,0.6350527423974209,B,1230.0709999999526,Correct
7,507,497,A,54.32734618543832,71.9900023265145,2.716367309271916,1.1308163122044506,A,1305.6835000006686,Correct
7,507,498,A,57.4116942044182,76.1616563777195,2.87058471022091,1.1963445008073688,A,1827.6144000001295,Correct
7,507,499,A,35.606613841615555,55.87654952610863,1.780330692080778,0.8777067874958455,A,1469.0177000002222,Correct
7,507,500,B,69.31363883352003,52.75539250319972,3.4656819416760016,0.8286797676264914,B,1946.5876000003846,Correct
7,507,501,B,59.83514699833538,40.698163411844675,2.991757349916769,0.6392852559462406,B,3504.4003000002704,Correct
7,507,502,B,74.5443900733081,56.78962565762594,3.7272195036654043,0.8920493538305604,B,1187.474100000145,Correct
7,507,503,B,47.259241185467,19.366609369094853,2.36296205927335,0.30420998859445825,B,907.2268999998414,Correct
7,507,504,B,44.44564243325584,35.43591745158791,2.222282121662792,0.5566260896956147,B,1117.1582999995735,Correct
7,507,505,A,28.022509762898956,54.52177935308201,1.4011254881449478,0.8564261073814307,A,551.1137000003146,Correct
7,507,506,A,65.75880259154762,86.51127816182901,3.287940129577381,1.3589159796293255,A,653.4770999996908,Correct
7,507,507,B,59.46894457044696,39.08319362940237,2.973447228522348,0.6139173699247894,B,1284.121700000469,Correct
7,507,508,A,52.683585308219314,62.13064342764216,2.6341792654109657,0.9759458647754378,A,621.7628999993394,Correct
7,507,509,A,68.68640476442826,82.54428029985625,3.4343202382214133,1.2966025229294253,A,549.2342000006829,Correct
7,507,510,B,42.29019475078458,27.859892888649384,2.1145097375392288,0.43762217414389715,B,518.9008999996076,Correct
7,507,511,A,45.45279302605449,73.6202216536692,2.272639651302725,1.156423737514097,A,506.8006999999852,Correct
7,507,512,A,26.85210149074043,50.95973875174334,1.3426050745370217,0.8004737044566598,A,491.686700000173,Correct
7,507,513,A,30.30700067083994,55.58475380253705,1.5153500335419972,0.8731232709882387,A,488.62220000046364,Correct
7,507,514,B,73.21979461317665,46.576292392771,3.6609897306588324,0.7316186900628976,B,632.6315999995131,Correct
7,507,515,A,56.62325075042983,82.51889951030776,2.8311625375214917,1.2962038424194862,A,612.5451999996585,Correct
7,507,516,B,41.07506386092477,31.670540959281283,2.053753193046239,0.49747969406446363,B,1109.6248999992895,Correct
7,507,517,A,52.59594713511274,72.81370571087857,2.629797356755637,1.1437550147097264,A,590.4961999995066,Correct
7,507,518,A,28.100826944031805,39.09006028210467,1.4050413472015901,0.614025231053211,A,651.7161000001579,Correct
7,507,519,A,51.85066593868772,76.54545762361036,2.592533296934386,1.2023732366800155,A,768.7149999992471,Correct
7,507,520,B,71.41452890169214,49.03364189795643,3.570726445084607,0.770218645826863,B,1468.877799999973,Correct
7,507,521,A,50.8933024141364,65.44042830603364,2.54466512070682,1.0279358440700241,A,587.514600000759,Correct
7,507,522,B,58.136693864190185,50.507824154870264,2.9068346932095093,0.7933750465687278,B,1687.4236000003293,Correct
7,507,523,A,32.93046921090155,57.17283553252765,1.6465234605450774,0.8980688004694318,A,586.1865000006219,Correct
7,507,524,A,58.07705620678996,69.32380076733416,2.9038528103394983,1.0889357160478974,A,640.007400000286,Correct
7,507,525,B,82.02184317755842,58.96108274510628,4.101092158877921,0.926158521998629,B,651.072199999362,Correct
7,507,526,B,43.65465288386098,23.9599989741657,2.1827326441930492,0.3763627837862896,B,627.3292000005313,Correct
7,507,527,B,34.553556087737576,19.465956593994374,1.7276778043868788,0.3057705311539526,B,675.9207000004608,Correct
7,507,528,B,31.225509552838645,16.397763691887576,1.5612754776419322,0.2575754697486773,B,597.6013999998031,Correct
7,507,529,A,15.232000613805134,37.812056078213054,0.7616000306902566,0.593950387962197,A,634.0182999992976,Correct
7,507,530,B,65.12536344483765,50.29498554562651,3.2562681722418825,0.7900317855127253,B,920.4134999999951,Correct
7,507,531,B,47.59757555344157,35.760786735104475,2.3798787776720784,0.5617291244679777,B,811.1748000001171,Correct
7,507,532,A,51.41025944724419,61.17698695223747,2.5705129723622093,0.9609658638895392,A,889.5106999998461,Correct
7,507,533,B,64.63439415786966,46.76149388829374,3.2317197078934834,0.7345278283517381,B,622.4761000003127,Correct
7,507,534,B,41.4278760533845,26.570528094431907,2.071393802669225,0.41736887931734246,B,644.609599999967,Correct
7,507,535,B,56.4047770732809,45.719056311122486,2.820238853664045,0.7181532571804022,B,820.329799999854,Correct
7,507,536,A,45.67582771831174,59.09906421269107,2.2837913859155865,0.9283259298231084,A,978.1346999998277,Correct
7,507,537,A,42.77940116890784,60.28886133242137,2.138970058445392,0.9470152192761437,A,859.5161000002918,Correct
7,507,538,B,45.74618443795323,33.11153019029062,2.2873092218976616,0.5201146999746683,B,672.7913000004264,Correct
7,507,539,B,67.82217932156462,49.7635041672861,3.3911089660782308,0.7816832955441554,B,667.591800000082,Correct
7,507,540,B,70.5134345138175,61.3434399977496,3.5256717256908754,0.963580502214282,B,1530.2328999996462,Correct
7,507,541,B,84.16343763717133,67.785274737346,4.208171881858567,1.0647686056820598,B,733.0255999995643,Correct
7,507,542,B,66.17759662548389,36.58813358115697,3.3088798312741945,0.5747250583356236,B,1008.5924000004525,Correct
7,507,543,B,71.61325687842015,55.46294661765476,3.580662843921007,0.8712099282023353,B,762.5684000004185,Correct
7,507,544,B,67.61561770713982,51.690315742215354,3.3807808853569905,0.8119495809874029,B,564.2220999998244,Correct
7,507,545,A,47.656622027961866,54.34622468136769,2.3828311013980934,0.853668501046625,A,738.3342000002813,Correct
7,507,546,B,49.40272544495484,21.934385832070465,2.4701362722477422,0.34454452695518306,B,496.3914999998451,Correct
7,507,547,B,52.64784471200538,42.02839080566681,2.6323922356002694,0.6601804189864182,B,926.2006999997539,Correct
7,507,548,A,28.03092829004099,47.69305866390597,1.4015464145020495,0.7491608136287702,A,1029.6700000008059,Correct
7,507,549,B,50.08116712907485,22.22182858440908,2.5040583564537426,0.3490596671505562,B,534.7774000001664,Correct
