subject,day,trial,cat,x,y,xt,yt,resp,rt,fb
11,411,0,B,76.01526619131354,62.32530383345022,3.8007633095656774,0.9790035832795949,B,514.929499999198,Correct
11,411,1,A,41.64145754729123,55.26080158525403,2.0820728773645616,0.8680346414585862,A,2879.366299999674,Correct
11,411,2,A,31.900728021534757,43.87409986185173,1.595036401076738,0.6891727490442918,A,1948.6450999993394,Correct
11,411,3,A,58.155831350904805,78.17465542967201,2.90779156754524,1.2279646159738553,A,1517.4803999998403,Correct
11,411,4,B,86.96427532034573,62.62537210369146,4.348213766017286,0.9837170446464214,B,859.3000000000757,Correct
11,411,5,B,84.91186838961406,55.78222340399206,4.245593419480702,0.8762251162344306,B,465.6481999991229,Correct
11,411,6,B,79.54188910875428,66.0824934513629,3.977094455437714,1.0380213797884865,B,464.04529999927036,Correct
11,411,7,A,48.068293961856625,72.18706170522734,2.4034146980928313,1.1339117136868764,A,784.0464999990218,Correct
11,411,8,A,34.91193471247297,47.85019583368362,1.7455967356236486,0.7516291185196671,A,1552.3180000000139,Correct
11,411,9,B,40.72067168758219,18.77116120840173,2.0360335843791093,0.29485671075832287,B,682.2914000003948,Correct
11,411,10,A,66.18269272471734,83.92256869262437,3.3091346362358673,1.3182526263756673,A,679.2893999991065,Correct
11,411,11,B,79.7740282709212,63.52418984423677,3.988701413546061,0.9978356406994879,B,674.8779000008653,Correct
11,411,12,B,75.33848645285516,49.851371385242295,3.766924322642758,0.7830635105762681,B,771.7379000005167,Correct
11,411,13,A,56.25709790791183,63.924233259308664,2.812854895395591,1.0041195079690222,A,692.8470000002562,Correct
11,411,14,B,35.712244128315874,10.68746126704034,1.7856122064157938,0.16787824901029696,B,492.8653999995731,Correct
11,411,15,A,31.333603592008828,51.20263303494113,1.5666801796004415,0.8042890789351256,A,802.9355999988184,Correct
11,411,16,A,60.57326187033645,81.95533024137771,3.0286630935168226,1.287351317044188,A,678.0211999994208,Correct
11,411,17,A,30.247108924026428,60.749658803328,1.5123554462013216,0.9542534090231086,A,709.483900000123,Correct
11,411,18,A,42.83447527716682,54.61317100402477,2.141723763858341,0.8578616840774367,A,791.9658000009804,Correct
11,411,19,B,37.71182197973592,27.57642843944886,1.8855910989867963,0.4331695249880859,B,769.367400000192,Correct
11,411,20,B,76.45342737017079,58.911696144539135,3.8226713685085394,0.9253827590909915,B,601.9068000005063,Correct
11,411,21,A,59.520985780864706,81.40548166069169,2.9760492890432353,1.2787143157358383,A,893.806099998983,Correct
11,411,22,A,48.509536134852645,67.18353789276519,2.4254768067426324,1.055316545430413,A,712.8183000004356,Correct
11,411,23,A,55.93317210145331,65.49072017959062,2.796658605072665,1.0287258269725337,A,1173.0391999990388,Correct
11,411,24,A,50.040633264753325,71.71010623399077,2.5020316632376662,1.126419714664245,A,750.425100000939,Correct
11,411,25,B,71.88928409874241,57.971128227900316,3.59446420493712,0.9106083528054175,B,549.0745000006427,Correct
11,411,26,B,69.04812664536067,38.915773426801515,3.452406332268033,0.6112875395320226,B,468.5172999998031,Correct
11,411,27,A,43.117943102631095,62.04691161170037,2.1558971551315547,0.9746306084862656,A,581.1004000006506,Correct
11,411,28,B,79.19094231901806,53.741766360528366,3.9595471159509033,0.844173691945875,B,477.12200000023586,Correct
11,411,29,B,69.22685285794672,37.381030197601376,3.461342642897336,0.5871798492620134,B,415.32489999917743,Correct
11,411,30,B,55.19865750638111,38.601300545377654,2.7599328753190555,0.6063478110618507,B,682.9328999992867,Correct
11,411,31,A,40.273450683841,56.61228073427959,2.01367253419205,0.8892636262888788,A,584.47840000008,Correct
11,411,32,B,35.76586531383449,17.59799393702704,1.7882932656917245,0.2764286423524093,B,876.654799998505,Correct
11,411,33,B,80.8865722910886,60.98296032582145,4.04432861455443,0.9579181007687925,B,538.6909999997442,Correct
11,411,34,B,69.95174926178066,59.268158898966384,3.497587463089033,0.9309820629439265,B,665.9265999987838,Correct
11,411,35,B,62.99265132671716,44.14472382345576,3.1496325663358578,0.6934237002925947,B,599.7027000012167,Correct
11,411,36,A,55.70431421986525,79.43125348806485,2.7852157109932625,1.2477032121176659,A,537.4164000004384,Correct
11,411,37,B,61.005538245410534,38.49201125811694,3.050276912270527,0.6046310989519789,B,649.0871999994852,Correct
11,411,38,B,62.624509436599126,34.33205606377064,3.131225471829956,0.5392866755628737,B,533.5546999995131,Correct
11,411,39,A,51.052720859508725,73.60954248043012,2.5526360429754362,1.1562559894531252,A,607.2084000006726,Correct
11,411,40,A,30.630354196598446,62.86153375844038,1.5315177098299222,0.9874266632445154,A,520.3564000003098,Correct
11,411,41,B,45.32869751372862,29.369298030561396,2.266434875686431,0.4613318546695043,B,611.6713999999774,Correct
11,411,42,B,37.65125764059016,18.60102962955709,1.882562882029508,0.2921842901671131,B,475.6822999988799,Correct
11,411,43,A,52.704036870990734,77.2093507146296,2.635201843549537,1.212801644967591,A,693.6630999989575,Correct
11,411,44,A,31.06368452221451,44.71131577035081,1.5531842261107256,0.7023237057823378,A,1098.037599998861,Correct
11,411,45,B,73.39005248265255,45.20359076772658,3.6695026241326274,0.7100563433588462,B,539.7462000000814,Correct
11,411,46,B,76.74394986053628,57.45325277487019,3.8371974930268142,0.9024735842118479,B,501.40970000029483,Correct
11,411,47,A,41.64257122953277,74.46397195845363,2.0821285614766385,1.1696773363089714,A,610.1221999997506,Correct
11,411,48,A,52.621848612992586,72.00787824254625,2.631092430649629,1.131097106436858,A,1195.8020999991277,Correct
11,411,49,B,64.68276223805981,51.419536208513534,3.2341381119029906,0.8076961860183024,B,550.0087000000349,Correct
11,411,50,B,55.16299296890154,37.221912890267085,2.758149648445077,0.5846804404431114,B,636.3902000011876,Correct
11,411,51,B,46.692210216325385,37.21441728501168,2.3346105108162694,0.5845626997510884,B,743.1603000004543,Correct
11,411,52,B,69.19867265791872,50.49366995083939,3.459933632895936,0.7931527128517235,B,763.6000999991666,Correct
11,411,53,B,39.06776705237898,18.880320085592352,1.9533883526189493,0.29657137439160375,B,728.0455999989499,Correct
11,411,54,B,47.139763028792295,35.93142996762519,2.3569881514396145,0.5644095820963373,B,1078.970800001116,Correct
11,411,55,A,33.22549377765115,53.961440420266825,1.6612746888825576,0.847624324007168,A,677.0402000001923,Correct
11,411,56,A,34.413937259757716,67.23021447762433,1.7206968629878858,1.056049739510854,A,567.7909000005457,Correct
11,411,57,A,42.80462016124347,58.76994718215446,2.1402310080621736,0.923156171596583,A,534.7122000002855,Correct
11,411,58,B,84.04904701430867,61.27242606082389,4.202452350715434,0.9624650179015406,B,606.4734999999928,Correct
11,411,59,A,23.81749293560228,49.006763269972424,1.190874646780114,0.7697964373257973,A,561.7898999989848,Correct
11,411,60,B,59.23352957256108,26.543527761358625,2.9616764786280543,0.4169447590772049,B,532.5604999998177,Correct
11,411,61,A,39.325455737160134,51.96625607998813,1.9662727868580065,0.816284041677283,A,556.2972999996418,Correct
11,411,62,B,54.55684588463563,23.34454887503072,2.7278422942317815,0.36669531623582186,B,472.4549999991723,Correct
11,411,63,A,22.49616932563972,41.74591530674189,1.1248084662819862,0.6557433042252101,A,793.8694999993459,Correct
11,411,64,A,26.599412879755853,49.76224143342588,1.3299706439877925,0.7816634605670618,A,509.7435999996378,Correct
11,411,65,B,54.05007515454193,33.46184202507924,2.7025037577270963,0.5256173854078559,B,498.70410000039556,Correct
11,411,66,A,66.0814176955642,78.88307742645176,3.30407088477821,1.2390924826774787,A,744.5456999994349,Correct
11,411,67,A,39.75330533042833,52.578596809988376,1.9876652665214167,0.8259026673715962,A,757.7904999998282,Correct
11,411,68,A,31.952583855099412,52.23912562397286,1.5976291927549706,0.8205702664511373,A,518.3797999998205,Correct
11,411,69,A,39.25141800626431,51.575147114571834,1.9625709003132155,0.8101405164147585,A,553.9759999992384,Correct
11,411,70,A,28.312308166700006,41.00300103293024,1.4156154083350003,0.6440736341009418,A,486.68259999976726,Correct
11,411,71,B,76.44831229991053,48.18158849916069,3.8224156149955264,0.7568346223362484,B,403.3476000004157,Correct
11,411,72,A,17.559006150142963,41.672669119521,0.8779503075071482,0.6545927558068269,A,446.14030000047933,Correct
11,411,73,A,31.415561410139404,46.42808742524675,1.57077807050697,0.7292906918768992,A,850.314299999809,Correct
11,411,74,A,22.543516863105754,47.047059233866875,1.1271758431552876,0.7390134783106,A,498.0546000006143,Correct
11,411,75,A,60.57173407765114,76.86714336086649,3.0285867038825574,1.207426264424658,A,782.7478999988671,Correct
11,411,76,A,29.759794916385665,50.548573595160704,1.4879897458192832,0.7940151372799993,A,460.01350000005914,Correct
11,411,77,B,68.46078043593023,57.91029901201769,3.423039021796512,0.9096528497167152,B,570.3513999997085,Correct
11,411,78,B,60.49035446424876,42.782089480368114,3.0245177232124383,0.6720194900837282,B,485.95860000023094,Correct
11,411,79,B,83.38106122787768,61.83710810301785,4.1690530613938845,0.9713350226783937,B,455.9365999994043,Correct
11,411,80,B,52.135826998241875,21.58602326696132,2.606791349912094,0.33907246057852014,B,458.6498999997275,Correct
11,411,81,A,38.414216438310454,52.36348450785605,1.920710821915523,0.8225236912312176,A,702.8792000000976,Correct
11,411,82,A,38.31134172152993,50.501872504822096,1.9155670860764962,0.7932815582683871,A,501.2384000001475,Correct
11,411,83,B,68.01259872489058,58.72523573694053,3.4006299362445294,0.9224538458575058,B,508.97140000051877,Correct
11,411,84,B,79.47221372454769,47.909751723208856,3.9736106862273846,0.7525646202447195,B,413.5318999997253,Correct
11,411,85,B,69.81807806185125,48.408976695805464,3.4909039030925624,0.7604064277767097,B,395.68529999996827,Correct
11,411,86,A,58.80252645658098,70.45206574632536,2.9401263228290486,1.1066584608944043,A,838.1227000008948,Correct
11,411,87,A,21.30688289266501,37.04584095445929,1.0653441446332506,0.5819147089429259,A,640.8917000007932,Correct
11,411,88,A,62.344015535655686,85.09069778350712,3.1172007767827843,1.3366015552274761,A,790.9603999996762,Correct
11,411,89,B,44.873091296545134,19.647678747520253,2.243654564827257,0.30862501606650966,B,777.7587000000494,Correct
11,411,90,A,37.06016928149396,47.0006290067942,1.853008464074698,0.7382841540092198,A,740.5062000016187,Correct
11,411,91,B,78.56100328641453,56.42125363947129,3.9280501643207266,0.886262979700447,B,528.9768000002368,Correct
11,411,92,A,47.995752832559546,76.02418252287909,2.3997876416279773,1.1941850665452323,A,543.5924000012164,Correct
11,411,93,B,75.82815139017453,62.44751586893952,3.7914075695087264,0.980923285443962,B,882.8979000008985,Correct
11,411,94,A,40.3099396207712,50.922631182130175,2.0154969810385603,0.7998908201162133,A,679.9251000011282,Correct
11,411,95,B,82.42838751733089,65.70738825375646,4.1214193758665445,1.0321292411228677,B,518.7920999997004,Correct
11,411,96,A,55.32976771553996,64.95903765945,2.7664883857769977,1.0203741774759543,A,922.1323000001576,Correct
11,411,97,B,46.64540807866818,30.79794809892465,2.3322704039334092,0.48377303746610706,B,490.4538999999204,Correct
11,411,98,A,10.947972943005887,32.072171360845054,0.5473986471502943,0.503788489659519,A,528.7976999989041,Correct
11,411,99,A,46.6651589629477,56.088767499581046,2.333257948147385,0.8810402996279488,A,890.4506999988371,Correct
11,411,100,B,37.08186090855466,11.205063340544704,1.854093045427733,0.17600872336831774,B,564.1476000000694,Correct
11,411,101,B,83.2812827984531,53.81986556842831,4.1640641399226554,0.8454004714348231,B,550.1024999994115,Correct
11,411,102,A,42.898965817446935,60.287626548819816,2.144948290872347,0.9469958233406867,A,609.1348999998445,Correct
11,411,103,A,39.80250833383382,48.49163932610219,1.990125416691691,0.7617048893370426,A,605.8679999987362,Correct
11,411,104,A,58.025823031176806,71.29382531991061,2.9012911515588407,1.1198807893567257,A,841.7083000003913,Correct
11,411,105,A,25.435512133976708,39.62236080024473,1.2717756066988355,0.6223865880396652,A,631.8203000009817,Correct
11,411,106,A,50.3222331391112,58.798620746671624,2.51611165695556,0.9236065748947797,A,906.018600000607,Correct
11,411,107,A,28.63495274118936,51.89419101113751,1.431747637059468,0.8151520462228754,A,641.7861000008998,Correct
11,411,108,A,22.33709428817299,50.18629814199759,1.1168547144086496,0.7883245277688334,A,517.6831999997376,Correct
11,411,109,A,34.80995242937833,43.83717856240553,1.7404976214689163,0.6885927906287859,A,483.83239999930083,Correct
11,411,110,A,63.707209664322264,74.92467164354326,3.185360483216113,1.176913990039915,A,590.7981000000291,Correct
11,411,111,B,73.87169188336483,43.84866021147686,3.6935845941682417,0.6887731439506538,B,543.9313999995647,Correct
11,411,112,B,47.7874879344489,18.553947952728294,2.389374396722445,0.29144473291689293,B,445.4643000008218,Correct
11,411,113,B,73.46875535737162,63.127100787032816,3.673437767868581,0.9915981803748238,B,898.1691999997565,Correct
11,411,114,A,68.76952650048796,87.94950808717384,3.4384763250243977,1.3815076424675072,A,625.0411000000895,Correct
11,411,115,A,29.731950210887096,45.84652568542347,1.4865975105443547,0.7201555414297107,A,756.9485000003624,Correct
11,411,116,A,29.228012341715313,56.878470960767295,1.4614006170857659,0.8934449325888347,A,438.0578999989666,Correct
11,411,117,A,13.78022960603884,39.13249873411915,0.689011480301942,0.614691852698603,A,425.14290000144683,Correct
11,411,118,B,36.96537620011327,24.686082761800108,1.8482688100056635,0.38776808125190415,B,771.360700000514,Correct
11,411,119,B,70.61532363018364,46.93115584946808,3.5307661815091818,0.7371928722058326,B,532.1994000005361,Correct
11,411,120,B,47.76750910011527,30.127397118693043,2.388375455005763,0.4732400472993418,B,457.97270000002754,Correct
11,411,121,A,28.10100887845638,50.82440367123883,1.4050504439228189,0.7983478659832299,A,563.6586000000534,Correct
11,411,122,B,43.756552565599435,33.0678630232927,2.1878276282799716,0.5194287777194496,B,843.7231999996584,Correct
11,411,123,B,63.099361003810756,47.07429664867199,3.154968050190538,0.7394413226218727,A,2356.5482000012707,Incorrect
11,411,124,A,16.77008727363448,35.19375716668819,0.8385043636817241,0.5528222448354536,A,536.4913000012166,Correct
11,411,125,A,56.05444032660718,81.93472344726017,2.8027220163303586,1.2870276262791196,A,602.9202000008809,Correct
11,411,126,A,59.917694459820346,78.52178939258783,2.9958847229910175,1.2334173835123945,A,552.7337000003172,Correct
11,411,127,A,21.767721029200317,43.3659341511556,1.0883860514600159,0.6811905007266458,A,729.0128000004188,Correct
11,411,128,A,37.39981142452324,49.253193516008416,1.8699905712261622,0.7736673545786423,A,2076.655999999275,Correct
11,411,129,B,73.49040977398576,43.904456728365936,3.6745204886992884,0.6896495935884268,B,548.6408999986452,Correct
11,411,130,A,46.667257885585016,54.26421522754427,2.333362894279251,0.8523802995583424,A,607.9755000009754,Correct
11,411,131,B,50.942351380945496,44.10624534398844,2.5471175690472747,0.6928192817505155,B,2951.4438999995036,Correct
11,411,132,B,80.43610396474637,64.94968641916526,4.021805198237319,1.0202272885370516,B,539.3572999983007,Correct
11,411,133,A,46.54613108436638,70.82873825932847,2.327306554218319,1.1125752188927032,A,532.7333999994153,Correct
11,411,134,A,30.080852961613104,57.417001057687756,1.5040426480806552,0.9019041435699461,A,815.2491999990161,Correct
11,411,135,B,60.823365502405295,47.896565731902896,3.0411682751202647,0.7523574951776338,B,480.89429999890854,Correct
11,411,136,A,38.94033089169206,71.20587349830502,1.9470165445846026,1.118499245373596,A,498.8689000001614,Correct
11,411,137,B,50.07620481638921,19.105509273968917,2.5038102408194605,0.3001086378909621,B,422.99199999979464,Correct
11,411,138,A,33.78538135062896,66.38067213578009,1.6892690675314481,1.0427051596105972,A,630.207000000155,Correct
11,411,139,B,71.9617731298894,54.95419671741534,3.5980886564944696,0.8632185034568018,B,861.6650000003574,Correct
11,411,140,A,12.52597118994083,34.568313060016024,0.6262985594970415,0.5429977917816922,A,533.4156000008079,Correct
11,411,141,A,51.26981050783692,69.0658698092073,2.5634905253918463,1.0848841460319738,A,604.3253999996523,Correct
11,411,142,A,46.25157827145334,63.02658877266944,2.312578913572667,0.9900193413452162,A,492.8947000007611,Correct
11,411,143,B,70.94796035034095,48.97422710746298,3.5473980175170476,0.7692853604802191,B,642.9556000002776,Correct
11,411,144,A,64.54049520359362,86.87693279475383,3.2270247601796815,1.364659669172064,A,596.9046999998682,Correct
11,411,145,B,45.92752127871494,18.443520944631842,2.2963760639357473,0.28971014952992435,B,505.9101000006194,Correct
11,411,146,B,58.56680120041691,47.2307034381233,2.9283400600208456,0.7418981547254317,B,1243.0249999997613,Correct
11,411,147,B,69.75900804647493,41.21838492659947,3.487950402323747,0.6474568763912057,B,493.5041999997338,Correct
11,411,148,A,52.480470466629406,79.02134682232864,2.62402352333147,1.2412644132689943,A,631.4815999994607,Correct
11,411,149,B,38.26154066080457,18.41873823710094,1.9130770330402285,0.2893208636703486,B,604.9644999984594,Correct
11,411,150,B,89.40994741449555,66.40828192148594,4.470497370724777,1.0431388531103005,B,630.9642999985954,Correct
11,411,151,B,66.2706826030019,45.43321045173363,3.313534130150095,0.7136632009208269,B,507.37630000003264,Correct
11,411,152,A,17.72395796873202,35.846570205124934,0.886197898436601,0.5630766080640562,A,560.9205000000657,Correct
11,411,153,A,59.4920245848989,86.98394638300373,2.974601229244945,1.3663406346854647,A,644.4877000012639,Correct
11,411,154,A,40.392904239357115,61.27048817198472,2.019645211967856,0.9624345776148374,A,556.5317999989929,Correct
11,411,155,A,59.80138269678258,73.86348333605534,2.9900691348391293,1.1602448830855177,A,551.0885999992752,Correct
11,411,156,A,22.403366213589038,53.97216745983513,1.120168310679452,0.8477928239506807,A,573.1129000014334,Correct
11,411,157,A,37.071516994663945,64.6381038048332,1.8535758497331971,1.015332960276192,A,500.57379999998375,Correct
11,411,158,B,34.073008900986196,21.65941544666094,1.7036504450493097,0.3402253022413965,B,705.2824999991572,Correct
11,411,159,B,75.83382693687514,47.001325071346415,3.791691346843757,0.7382950877656381,B,538.7128000002122,Correct
11,411,160,B,54.03003044307218,23.070798346534083,2.7015015221536087,0.3623952529896151,B,457.8827999994246,Correct
11,411,161,A,17.61437470385606,32.884439676887254,0.880718735192803,0.5165475705316286,A,523.8027999985206,Correct
11,411,162,B,58.061057080174926,37.55975315225412,2.9030528540087466,0.5899872228688381,B,825.1039000006131,Correct
11,411,163,B,71.57690603480862,53.81374068645354,3.578845301740431,0.8453042620137429,B,796.9582000005175,Correct
11,411,164,A,15.827266963755509,30.64526730673379,0.7913633481877754,0.4813747331906517,A,398.2419999992999,Correct
11,411,165,A,50.026551595866756,65.95666636798761,2.5013275797933376,1.0360448925847143,A,627.3382999988826,Correct
11,411,166,A,30.067242756716837,40.09899074296557,1.503362137835842,0.6298734736723287,A,432.06950000057986,Correct
11,411,167,B,50.65522507223344,22.04806891066725,2.532761253611672,0.3463302565779687,B,590.9757999997964,Correct
11,411,168,A,57.394269620088615,71.38550879326678,2.869713481004431,1.1213209499884826,A,592.0827999998437,Correct
11,411,169,B,33.52035896570046,21.217575966723942,1.676017948285023,0.3332849039202164,B,643.4503999989829,Correct
11,411,170,B,46.920168448200194,20.112369246039854,2.34600842241001,0.3159243573482205,B,583.5620000016206,Correct
11,411,171,A,34.021692079586494,56.186149128369436,1.7010846039793248,0.8825699666759299,A,1030.743999999686,Correct
11,411,172,B,87.0858974136157,59.64994903810051,4.354294870680786,0.9369792084255105,B,494.4738000012876,Correct
11,411,173,B,63.07433787497648,33.50006316519426,3.153716893748824,0.5262177616728416,B,629.1443000009167,Correct
11,411,174,A,45.836665698312245,57.19622881900309,2.291833284915612,0.8984362613541046,A,1602.6588999993692,Correct
11,411,175,A,32.73100432799446,56.87270730891671,1.6365502163997232,0.8933543973572764,A,520.4843999999866,Correct
11,411,176,A,44.13572784774877,68.56532748149871,2.2067863923874382,1.0770216455342736,A,1134.016200001497,Correct
11,411,177,B,74.84292722899532,48.208579356956776,3.742146361449766,0.7572585937390797,B,485.7482000006712,Correct
11,411,178,B,58.495856576040865,29.290549358219877,2.924792828802043,0.460094873416964,B,526.8840999997337,Correct
11,411,179,B,85.19421379272124,55.79663232496455,4.259710689636062,0.8764514510357971,B,525.2168999995774,Correct
11,411,180,B,37.65262875523918,16.365294441509175,1.8826314377619588,0.2570654439563955,B,407.4557999992976,Correct
11,411,181,B,59.63939224921716,32.439401211400494,2.981969612460858,0.5095569226629382,B,440.3343000012683,Correct
11,411,182,A,45.396906705269025,52.71670508287523,2.2698453352634513,0.8280720670491026,A,932.4500000002445,Correct
11,411,183,B,50.56519993983361,41.41834644922083,2.5282599969916806,0.6505978646435452,B,526.4057000003959,Correct
11,411,184,A,50.54445024125948,74.62720000124818,2.5272225120629743,1.1722413164094874,A,564.8045000016282,Correct
11,411,185,B,74.96321954135541,50.64616886164693,3.748160977067771,0.7955481601410906,B,934.7731999987445,Correct
11,411,186,B,70.33528069211316,45.12990831738575,3.5167640346056577,0.7088989421353998,B,624.9487999994017,Correct
11,411,187,A,30.08019466017997,43.179725788971254,1.5040097330089985,0.6782655466132691,A,739.4370999991224,Correct
11,411,188,B,66.85087441211878,34.767488086399545,3.3425437206059394,0.5461264257800174,B,595.1837000011437,Correct
11,411,189,A,31.513524854416453,47.07698591355893,1.5756762427208226,0.7394835654959345,A,558.7875999990501,Correct
11,411,190,A,33.57236441132398,48.64590262727756,1.678618220566199,0.764128051605498,A,694.50549999965,Correct
11,411,191,A,62.01084623567838,71.00292917808119,3.100542311783919,1.115311403446081,A,838.8145999997505,Correct
11,411,192,A,47.39950821919933,74.14491632056131,2.3699754109599667,1.1646656220685268,A,588.3515000004991,Correct
11,411,193,A,17.17427469485648,31.35416203527098,0.858713734742824,0.49251002554735657,A,511.4039000000048,Correct
11,411,194,B,83.92861916583475,60.53200762765985,4.196430958291737,0.9508345523504876,B,566.8905000002269,Correct
11,411,195,A,57.93783578660968,84.91371996073633,2.896891789330484,1.333821594088151,A,576.2653000001592,Correct
11,411,196,B,88.7323702077328,65.65228700437554,4.43661851038664,1.0312637127215742,B,572.9498000000603,Correct
11,411,197,B,77.913823268001,48.80099098629304,3.89569116340005,0.7665641738521995,B,422.93050000080257,Correct
11,411,198,B,87.66692669823519,68.66670019338072,4.38334633491176,1.0786140043688883,B,496.8743000008544,Correct
11,411,199,B,48.07812823642701,19.504364872791065,2.4039064118213505,0.3063738469864762,B,525.0247000003583,Correct
11,411,200,A,28.981060777589832,56.6859710644847,1.4490530388794918,0.8904211512889435,A,546.7970999998215,Correct
11,411,201,B,42.05463378000141,23.56220384515427,2.1027316890000707,0.3701142325116091,B,460.7703000001493,Correct
11,411,202,B,42.87254135999828,33.93281328049396,2.143627067999914,0.53301538458817,B,487.01059999984864,Correct
11,411,203,B,59.41116772534607,39.962371384843415,2.9705583862673035,0.6277274618132552,B,794.0364999994927,Correct
11,411,204,B,88.30526665090086,69.41663240749048,4.415263332545043,1.0903939120415762,B,877.9435999986163,Correct
11,411,205,A,39.40816089630289,50.30831082604421,1.9704080448151444,0.7902410985280619,B,3405.939499998567,Incorrect
11,411,206,A,45.45998927578961,53.25247764483701,2.2729994637894806,0.8364879627723731,A,1266.0926000007748,Correct
11,411,207,B,68.30768825567263,43.28769504609539,3.4153844127836317,0.6799615237382428,B,1116.0556000013457,Correct
11,411,208,A,58.46926228925753,86.71861876755513,2.9234631144628764,1.3621728782480258,A,591.6766000009375,Correct
11,411,209,A,34.44497266675158,42.793413775837934,1.7222486333375793,0.6721973717010035,A,2083.5329000001366,Correct
11,411,210,B,39.979455955343894,21.762839072006237,1.9989727977671947,0.3418498767493585,B,672.2801999985677,Correct
11,411,211,B,58.25592820664481,34.25566086297162,2.9127964103322403,0.5380866625548751,B,629.7999999987951,Correct
11,411,212,B,87.2515183455659,69.690127909024,4.362575917278295,1.094689969333614,B,553.3991000011156,Correct
11,411,213,A,18.213648859780825,32.01283852662717,0.9106824429890412,0.5028564916790411,A,592.8726000001916,Correct
11,411,214,A,46.7992660716782,69.57065865973851,2.33996330358391,1.0928133507541884,A,635.6477000008454,Correct
11,411,215,B,73.43163718911592,56.36276332971191,3.671581859455796,0.8853442160632158,B,518.4225000011793,Correct
11,411,216,A,36.766308003062626,51.55775405268461,1.8383154001531312,0.8098673068375166,A,502.4075000001176,Correct
11,411,217,A,33.48820393244979,53.87931684655501,1.6744101966224896,0.84633432992787,A,614.1894000011234,Correct
11,411,218,A,64.93018119026665,85.96571843513581,3.2465090595133326,1.3503463474819566,A,851.160099999106,Correct
11,411,219,A,56.782705351203504,81.41456323852427,2.839135267560175,1.2788569688268474,A,610.8987999996316,Correct
11,411,220,A,58.850908160915786,72.93854158778652,2.9425454080457896,1.1457159320787187,A,474.6677000002819,Correct
11,411,221,A,69.42665560894754,88.35378569791995,3.4713327804473773,1.3878580203271613,A,573.1185000004189,Correct
11,411,222,A,27.02111629371536,56.155364019770275,1.3510558146857679,0.8820863953208544,A,682.6783999986219,Correct
11,411,223,A,68.98561367397829,83.30843279256274,3.4492806836989143,1.3086058022159706,A,471.6965000006894,Correct
11,411,224,A,31.013213686087518,41.465063127075574,1.5506606843043758,0.6513316885032882,A,553.0374999998457,Correct
11,411,225,A,52.232855004744586,75.43715162632262,2.6116427502372295,1.1849640067849725,A,607.4145999991742,Correct
11,411,226,B,55.17419313401455,45.75230928820983,2.758709656700727,0.7186755937230404,A,1068.9590999991196,Incorrect
11,411,227,B,56.15545309631638,46.951142832008706,2.807772654815819,0.7375068269934182,B,1412.4276999991707,Correct
11,411,228,A,67.27550056999182,85.14757219536017,3.363775028499591,1.3374949363997501,A,881.133899998531,Correct
11,411,229,A,43.88309561134945,74.84468034993739,2.1941547805674726,1.1756574897381982,A,579.0654000011273,Correct
11,411,230,A,48.11325837613049,67.37749790638176,2.4056629188065246,1.0583632621997532,A,707.6631999989331,Correct
11,411,231,B,70.64273451155417,41.87297020353483,3.5321367255777085,0.6577390778770466,B,511.27119999910065,Correct
11,411,232,A,28.621454059959873,55.61370630909816,1.4310727029979937,0.8735780558978156,A,594.2788000011205,Correct
11,411,233,B,71.52044442110238,43.45392096345505,3.5760222210551196,0.6825725943423093,B,567.5231000004715,Correct
11,411,234,A,40.57141566601944,49.63740176585724,2.0285707833009723,0.7797024836545107,A,894.1835000005085,Correct
11,411,235,B,62.6845975782987,53.027503165450455,3.134229878914935,0.8329540719139432,B,4356.009299999641,Correct
11,411,236,B,59.03530445997882,42.19256509869122,2.951765222998941,0.6627592627507872,B,474.1316999989067,Correct
11,411,237,B,80.17667582405612,61.59636455485061,4.0088337912028065,0.967553431866787,B,623.6472000000504,Correct
11,411,238,A,60.46328411478592,76.80219418361864,3.023164205739296,1.2064060451341652,A,601.5826000002562,Correct
11,411,239,A,20.598950837871953,47.985018635302254,1.0299475418935977,0.7537469101351745,A,481.0621999986324,Correct
11,411,240,A,49.32590696722581,60.7732776374994,2.4662953483612906,0.9546244128027049,A,474.16599999996834,Correct
11,411,241,B,54.75919502439073,25.891090746140037,2.7379597512195364,0.40669630240750104,B,507.8467000003002,Correct
11,411,242,B,40.14489398719908,21.18940634557121,2.007244699359954,0.3328424165458773,B,437.2268000006443,Correct
11,411,243,A,32.413644024564526,48.746067490794346,1.6206822012282263,0.7657014376023589,A,566.9124999985797,Correct
11,411,244,B,58.85131274126412,46.70127459770167,2.942565637063206,0.7335819059470959,A,672.5764999991952,Incorrect
11,411,245,A,42.24151919713151,64.72781194039263,2.1120759598565755,1.016742092374396,A,573.8320000000385,Correct
11,411,246,B,62.05616866173697,38.54862433861134,3.102808433086848,0.6055203751408704,B,905.1872999989428,Correct
11,411,247,A,43.977446749291616,75.87462414185235,2.198872337464581,1.1918358089896506,A,475.92860000077053,Correct
11,411,248,B,45.222565880175864,37.42387125619901,2.261128294008793,0.5878527950368252,B,499.9502999999095,Correct
11,411,249,A,43.01623839430361,62.784588299320475,2.150811919715181,0.9862180067990244,A,535.2792000012414,Correct
11,411,250,A,41.83353512668737,51.33524351067015,2.0916767563343686,0.8063721194168222,A,500.2469999999448,Correct
11,411,251,A,22.41681631946956,36.96485104666855,1.120840815973478,0.5806425224462745,A,530.6117000000086,Correct
11,411,252,B,67.39442165244152,56.53965375582959,3.369721082622076,0.8881228043791239,B,599.0787999999156,Correct
11,411,253,A,41.977888710518535,72.21921603425082,2.0988944355259265,1.1344167927060829,A,485.7132000015554,Correct
11,411,254,B,70.15396533589828,41.66876967350846,3.507698266794914,0.6545315034520967,B,401.0435999989568,Correct
11,411,255,B,63.6238950047266,30.417389195100206,3.18119475023633,0.4777952321835418,B,411.2360999988596,Correct
11,411,256,B,35.648925533369166,11.584769117280576,1.7824462766684581,0.18197312776191282,B,484.637899999143,Correct
11,411,257,A,48.71258383358507,71.1831565976362,2.435629191679254,1.1181424091323284,A,550.0315999997838,Correct
11,411,258,B,38.942916337546535,15.564431922895086,1.9471458168773268,0.24448552493132827,B,498.4784000007494,Correct
11,411,259,B,82.620714816102,59.37342898156416,4.1310357408051,0.9326356415345864,B,988.1070999999793,Correct
11,411,260,A,50.621628714036355,73.90749543910417,2.5310814357018177,1.1609362235835539,A,570.2352999996947,Correct
11,411,261,B,85.84939059922824,65.96364498539091,4.292469529961412,1.0361545124505465,B,595.6294999996317,Correct
11,411,262,B,64.07311225745262,48.28536566587728,3.2036556128726312,0.7584647502590843,B,423.2198999998218,Correct
11,411,263,B,37.72778087069906,11.388032003866634,1.8863890435349528,0.17888278841096433,B,496.3404999998602,Correct
11,411,264,A,32.02815385078653,59.81026270072504,1.6014076925393266,0.939497409549367,A,504.3699999987439,Correct
11,411,265,B,78.32000089815925,46.491591246067514,3.9160000449079626,0.7302882075617262,B,575.8069999992586,Correct
11,411,266,A,39.95591782997761,54.38079730401483,1.9977958914988805,0.854211566533243,A,651.7033000000083,Correct
11,411,267,A,42.74103779446513,50.205098641415326,2.1370518897232564,0.7886198453231065,A,575.3067000005103,Correct
11,411,268,B,64.0893885283952,47.133933301306705,3.2044694264197604,0.7403780929708822,B,488.98730000109936,Correct
11,411,269,B,83.16959066265464,60.25456272976487,4.1584795331327316,0.9464764580854734,B,444.30430000102206,Correct
11,411,270,B,69.64644697706714,38.659174023977954,3.4823223488533572,0.6072568855378925,B,384.9970999999641,Correct
11,411,271,B,38.450750809701276,28.400461693307626,1.9225375404850638,0.44611340907126784,B,489.0266000002157,Correct
11,411,272,A,55.31901523925894,69.43798697884455,2.765950761962947,1.0907293488640089,A,479.10460000093735,Correct
11,411,273,B,83.7263554991857,60.358422437970646,4.186317774959285,0.9481078825669895,B,593.3147000014287,Correct
11,411,274,A,50.49929692242111,69.86552874346388,2.5249648461210557,1.0974451591981633,A,567.1533999993699,Correct
11,411,275,B,82.43621915053473,66.20774222110064,4.121810957526736,1.0399887828628827,B,561.9470000001456,Correct
11,411,276,A,10.519511705463337,32.820146416620446,0.5259755852731669,0.5155376543609809,A,505.1146999994671,Correct
11,411,277,B,81.91371403923054,60.56783246223884,4.095685701961527,0.9513972875361347,B,447.74320000033185,Correct
11,411,278,A,55.76748083500654,82.72593765564784,2.788374041750327,1.2994559900015523,A,676.177600000301,Correct
11,411,279,B,70.36772380198889,55.96869083385447,3.518386190099444,0.8791541397733779,B,483.36249999920256,Correct
11,411,280,A,46.078685028262505,67.279925582266,2.3039342514131254,1.0568305997165741,A,492.45970000083616,Correct
11,411,281,B,82.73036578028,67.2126836761527,4.136518289014,1.0557743663252797,B,622.4502999994002,Correct
11,411,282,A,19.36699720904055,44.80142226622094,0.9683498604520275,0.7037390953096695,A,488.6415000000852,Correct
11,411,283,B,47.69747683436151,36.203185563468466,2.3848738417180755,0.568678309013703,B,427.179199999955,Correct
11,411,284,A,63.64143569760802,80.09462272849017,3.1820717848804008,1.258123391779354,A,490.33259999851,Correct
11,411,285,B,62.67021089420401,45.39530886196777,3.1335105447102007,0.7130678441409878,B,501.4276999991125,Correct
11,411,286,B,72.95482621341174,57.21008755896571,3.6477413106705865,0.8986539539323775,B,457.8327999988687,Correct
11,411,287,A,42.57282557804589,52.348799386687645,2.1286412789022946,0.8222930178873188,A,3925.9409999995114,Correct
11,411,288,B,52.41535035382687,23.598740314562356,2.620767517691343,0.3706881460310119,B,550.844400000642,Correct
11,411,289,A,17.499178793097247,33.17893524636874,0.8749589396548623,0.5211734961196174,A,652.106300000014,Correct
11,411,290,B,62.601887890011,52.460847353099965,3.1300943945005497,0.8240530632279719,B,842.1908000000258,Correct
11,411,291,B,31.579832182148955,15.451641330725742,1.5789916091074476,0.24271381445256207,B,667.3183000002609,Correct
11,411,292,B,38.564072486420486,15.184137591199374,1.9282036243210243,0.23851187553804284,B,446.3668999997026,Correct
11,411,293,A,41.21094012604751,58.944393727202375,2.0605470063023756,0.9258963715184163,A,1299.0704999992886,Correct
11,411,294,A,38.94881693404483,70.56649031532316,1.9474408467022415,1.1084558378211729,A,578.7806999996974,Correct
11,411,295,B,78.8860717934709,64.25065800417904,3.9443035896735457,1.0092469758711957,B,487.5205999996979,Correct
11,411,296,B,38.959617164933604,13.632064090141622,1.9479808582466802,0.21413196199427073,B,504.36769999942044,Correct
11,411,297,B,40.19552697738159,22.321754700221813,2.0097763488690794,0.3506293029072514,B,576.1031999991246,Correct
11,411,298,A,41.596529336859184,73.6537728936447,2.079826466842959,1.156950759159226,A,586.0649000005651,Correct
11,411,299,B,60.49690405453368,31.43096798362383,3.0248452027266843,0.49371649056284306,B,419.1902000002301,Correct
11,411,300,A,14.021705004203366,35.07909869887692,0.7010852502101683,0.551021193834715,A,468.2790999995632,Correct
11,411,301,B,53.9256731378864,46.72842599373054,2.6962836568943196,0.734008399078591,B,1469.6837999999843,Correct
11,411,302,A,23.646529220917802,52.46168074531843,1.1823264610458901,0.8240661541223275,A,489.82749999959196,Correct
11,411,303,A,39.82962805226475,51.79054010336634,1.9914814026132377,0.8135239015709163,A,1392.4869999991643,Correct
11,411,304,B,64.66522622565184,32.96461059205706,3.233261311282592,0.5178068923222738,B,607.3594999998022,Correct
11,411,305,B,50.30643747285012,25.37256160436838,2.515321873642506,0.3985512656951907,B,669.4948000003933,Correct
11,411,306,B,54.557547376221095,44.70063623913927,2.727877368811055,0.7021559520983481,B,732.940800000506,Correct
11,411,307,A,40.35110493974971,68.74366967962385,2.017555246987486,1.0798230382315486,A,577.3756000016874,Correct
11,411,308,B,68.90239294122478,54.133064080183395,3.445119647061239,0.8503201821530483,B,841.6460999997071,Correct
11,411,309,B,69.05711360034543,51.987769878732216,3.4528556800172714,0.8166219796377092,B,684.1745999990962,Correct
11,411,310,A,13.065031437159568,35.74859340396449,0.6532515718579784,0.5615375920703171,A,474.78440000122646,Correct
11,411,311,B,53.93067703208859,29.18222074282688,2.6965338516044297,0.458393251505503,B,847.7870000006078,Correct
11,411,312,A,27.900743727845246,44.696267966578425,1.3950371863922624,0.702087335433418,A,760.3703999993741,Correct
11,411,313,A,41.73170356963558,60.71365478344792,2.086585178481779,0.953687859201334,A,475.1221999995323,Correct
11,411,314,A,38.22339594768428,53.083795446799456,1.911169797384214,0.8338383090016425,A,685.6284999994386,Correct
11,411,315,A,40.51742270141856,69.6041224057663,2.0258711350709278,1.0933389980476007,A,468.5274000003119,Correct
11,411,316,A,52.127038062432064,79.90353152416571,2.6063519031216034,1.2551217381609971,A,440.4317999997147,Correct
11,411,317,A,26.614559461513636,44.89720714914102,1.3307279730756818,0.7052436807322029,A,830.2263999994466,Correct
11,411,318,A,56.45923039764548,73.11701013404087,2.822961519882274,1.1485193094477661,A,521.5619999999035,Correct
11,411,319,A,14.722386895780847,35.09890338594049,0.7361193447890423,0.5513322851316427,A,482.9651999989437,Correct
11,411,320,B,67.20549139934725,40.51744392857115,3.3602745699673626,0.6364465209411775,B,1277.4671000006492,Correct
11,411,321,A,62.78890454752319,76.93490834914695,3.1394452273761595,1.2084907143714205,A,784.8037999992812,Correct
11,411,322,A,27.900397392620896,38.78884789144697,1.395019869631045,0.6092937978849087,A,391.1813999984588,Correct
11,411,323,A,37.82072980894386,57.696908339336545,1.891036490447193,0.9063009168685167,A,480.28440000052797,Correct
11,411,324,B,73.63439010293278,52.0971095125859,3.6817195051466394,0.8183394825900139,B,1789.2640000009123,Correct
11,411,325,B,72.60963027971847,56.74508288124726,3.6304815139859237,0.8913496775353515,B,467.65360000063083,Correct
11,411,326,B,48.17140455929142,26.83352528148329,2.408570227964571,0.4215000294711194,B,628.4603999993124,Correct
11,411,327,B,55.01191690419692,42.70636495087489,2.7505958452098462,0.6708300119559659,B,449.9933000006422,Correct
11,411,328,A,47.178745058261484,61.408013319519036,2.358937252913074,0.964594817580726,A,600.3777000005357,Correct
11,411,329,B,68.79768698791658,50.51331453452785,3.439884349395829,0.7934612892507161,B,647.8189999997994,Correct
11,411,330,B,68.13572714625742,53.32936009993696,3.406786357312871,0.837695629553033,B,1058.8595999997779,Correct
11,411,331,B,80.60370157185733,57.67386947009124,4.030185078592866,0.9059390231566765,B,492.26660000022093,Correct
11,411,332,B,88.44966045425716,62.60739545291598,4.422483022712857,0.9834346680763593,B,467.9989999985992,Correct
11,411,333,B,56.5678246022546,40.35970757971906,2.8283912301127305,0.6339688041673884,B,524.316799999724,Correct
11,411,334,B,79.04850967770203,60.855441202880854,3.9524254838851016,0.9559150350696805,B,565.6921999998303,Correct
11,411,335,B,56.08733550286994,25.637267092827262,2.804366775143497,0.4027092497847274,B,538.1295999995928,Correct
11,411,336,B,49.92238899276916,32.31188278544239,2.4961194496384578,0.5075538679120016,B,377.04349999876285,Correct
11,411,337,B,30.991376572203517,11.807670141568405,1.5495688286101759,0.18547444886381426,B,545.896100000391,Correct
11,411,338,B,50.289510706280666,36.87221337821543,2.5144755353140336,0.5791873733529844,B,666.1929999991116,Correct
11,411,339,B,48.461053288208184,32.45544870534178,2.423052664410409,0.5098089961083104,B,442.47619999987364,Correct
11,411,340,B,58.793035163278034,33.18079731877174,2.939651758163902,0.5212027454845259,B,523.0498000000807,Correct
11,411,341,B,48.287273082195824,19.880514635387403,2.4143636541097915,0.31228239364058713,B,446.3387999985571,Correct
11,411,342,A,45.71177852917919,67.09247515333185,2.2855889264589595,1.0538861352643152,A,470.38179999981367,Correct
11,411,343,B,76.47505178381861,53.96834690212,3.823752589190931,0.8477328107704283,B,466.820399999051,Correct
11,411,344,B,55.55051532171101,32.37515731218717,2.7775257660855504,0.5085477818539055,B,464.890799999921,Correct
11,411,345,A,36.28877607532039,58.52421437899016,1.8144388037660195,0.919296209750748,A,646.442899998874,Correct
11,411,346,B,48.229928572982544,30.115799892767846,2.4114964286491274,0.4730578785004987,B,861.3531000009971,Correct
11,411,347,B,38.454571485101326,24.99465626151845,1.9227285742550664,0.39261514245094253,B,550.7233000007545,Correct
11,411,348,B,40.64756313675984,19.239389138308535,2.0323781568379924,0.30221161788232676,B,394.0756000010879,Correct
11,411,349,B,78.28712669172944,58.126599736266755,3.914356334586472,0.9130504935480502,B,539.445299998988,Correct
11,411,350,A,25.399579136245634,56.26052283722935,1.2699789568122817,0.8837382261628025,A,471.89219999927445,Correct
11,411,351,A,44.25952861483152,58.97914285070605,2.2129764307415756,0.9264422094740056,A,577.0004999994853,Correct
11,411,352,B,77.10153610982552,56.46532488137848,3.855076805491276,0.886955249149498,B,658.4077999996225,Correct
11,411,353,A,24.691254226345272,37.31039349635874,1.2345627113172637,0.586070290553525,A,1396.3514999995823,Correct
11,411,354,B,51.85896321484052,29.61341277241575,2.592948160742026,0.4651664000677173,B,731.8092999994406,Correct
11,411,355,B,89.2340808283112,64.99387347505093,4.461704041415561,1.0209213771878227,B,537.3597999987396,Correct
11,411,356,B,59.19675284517487,36.28792337139109,2.9598376422587434,0.5700093673879579,B,1100.7044999987556,Correct
11,411,357,B,87.69654427374788,66.1527407797059,4.384827213687394,1.0391248222417697,B,460.14589999867894,Correct
11,411,358,A,28.646232962794677,61.03732619234643,1.4323116481397338,0.958772077803197,A,517.2922000001563,Correct
11,411,359,A,30.401755623267633,58.003142845071544,1.5200877811633817,0.9111112372359806,A,603.6409999996977,Correct
11,411,360,A,55.925268231415615,71.91950289910197,2.7962634115707807,1.129708909788243,A,543.8029999986611,Correct
11,411,361,B,51.721767502966486,32.70602473209465,2.586088375148324,0.5137450351323731,B,453.0386999995244,Correct
11,411,362,A,25.178067849576443,46.568614914994036,1.2589033924788222,0.7314980925239867,A,456.36869999907503,Correct
11,411,363,B,48.05002106481595,35.16120717233853,2.4025010532407975,0.5523109507198374,B,454.45049999943876,Correct
11,411,364,A,39.81213566122882,57.739942004882444,1.990606783061441,0.9069768881061969,A,568.7010000001465,Correct
11,411,365,B,64.77924945767938,46.81405789145858,3.238962472883969,0.7353535017826679,B,358.46219999984896,Correct
11,411,366,B,55.34974011447927,27.90124676563424,2.767487005723963,0.4382717593245626,B,513.2482999997592,Correct
11,411,367,A,52.644807531820774,82.21425686979396,2.6322403765910387,1.2914185270124443,A,451.7660999990767,Correct
11,411,368,B,39.255846100171325,18.85122618139832,1.962792305008566,0.29611436841320266,B,498.67079999967245,Correct
11,411,369,B,72.64660468591052,45.40143851969727,3.6323302342955257,0.7131641285794479,B,506.3900000004651,Correct
11,411,370,A,64.79461594345258,88.2326277289238,3.239730797172629,1.3859548754005504,A,453.1718999987788,Correct
11,411,371,B,46.05257728070756,20.029586708722636,2.3026288640353783,0.314624012292814,B,425.92400000103225,Correct
11,411,372,B,63.850097422950185,44.173780435879195,3.1925048711475092,0.6938801204932331,B,468.14180000001215,Correct
11,411,373,B,58.94439933203364,36.29655088417063,2.947219966601682,0.5701448880417928,B,776.2794999998732,Correct
11,411,374,A,28.301607037321133,48.667053468153306,1.4150803518660566,0.7644602882370605,A,1178.5091000001557,Correct
11,411,375,B,50.10256197578627,35.352550517537246,2.5051280987893136,0.5553165649577854,A,838.3899000000383,Incorrect
11,411,376,A,27.956126494417127,46.02054650778056,1.3978063247208565,0.722889054115154,A,565.2539000002434,Correct
11,411,377,A,59.45329371413894,74.53801039898123,2.9726646857069468,1.1708403294131953,A,768.3725000006234,Correct
11,411,378,B,69.1714929394498,48.5888912785467,3.4585746469724903,0.7632325194337773,B,1503.5423999997874,Correct
11,411,379,A,26.344672654925986,52.023371247133326,1.3172336327462995,0.8171812046248428,A,696.1034000014479,Correct
11,411,380,B,75.81241758647917,63.26990040851662,3.7906208793239586,0.9938412715837682,B,589.6559000011621,Correct
11,411,381,A,45.00948641983325,66.5986704848227,2.2504743209916627,1.046129469669832,A,543.0527999997139,Correct
11,411,382,A,57.007579510020776,65.28958029159462,2.8503789755010387,1.025566329000173,A,562.6605999987078,Correct
11,411,383,B,33.004387459056865,20.767447771695338,1.6502193729528432,0.32621430676683894,B,748.5880999993242,Correct
11,411,384,A,15.308666829929411,43.96237839223298,0.7654333414964705,0.690559424956869,A,531.7816000006133,Correct
11,411,385,B,84.31136051110323,64.45244674369874,4.215568025555161,1.012416665979457,B,642.9691000012099,Correct
11,411,386,A,26.48740539644431,56.36527435839138,1.3243702698222153,0.8853836592094777,A,444.3916000000172,Correct
11,411,387,B,38.27758633157322,20.003290882955916,1.913879316578661,0.31421095842757,B,543.7001999998756,Correct
11,411,388,A,56.26313580578316,72.6101880350122,2.813156790289158,1.1405581665328393,A,623.1604999993579,Correct
11,411,389,A,12.82452236622747,32.54731117364701,0.6412261183113734,0.5112519683861522,A,477.50230000019656,Correct
11,411,390,A,26.947744199624474,53.92132932230622,1.3473872099812239,0.8469942603537656,A,504.03990000086196,Correct
11,411,391,A,37.954083175311304,64.84364605582161,1.8977041587655652,1.0185616104047297,A,522.8057999993325,Correct
11,411,392,A,33.22503475872452,56.12934763442165,1.661251737936226,0.8816777308954336,A,475.09119999995164,Correct
11,411,393,B,61.59918235053661,50.38167918169237,3.07995911752683,0.7913935659636129,B,1071.2430999992648,Correct
11,411,394,B,40.8204625416942,24.24919688205432,2.04102312708471,0.3809054939005718,B,425.7357000005868,Correct
11,411,395,A,45.856993934732756,70.09758243686122,2.292849696736638,1.1010902500902406,A,442.30809999862686,Correct
11,411,396,B,69.58367378564922,44.358707345218015,3.4791836892824612,0.6967849455923826,B,797.6326999996672,Correct
11,411,397,A,23.517302351451818,52.372759495459135,1.175865117572591,0.8226693823957975,A,672.1336999999039,Correct
11,411,398,A,43.81305428135796,75.25288626756634,2.1906527140678977,1.1820695732980733,A,536.4403999992646,Correct
11,411,399,B,54.29859400490213,39.039182156350456,2.7149297002451065,0.6132260393227217,B,590.494400001262,Correct
11,411,400,B,85.08082527957482,57.05238150978498,4.254041263978741,0.8961767131047131,B,493.13270000129705,Correct
11,411,401,A,24.084342840711983,49.61189670583222,1.2042171420355992,0.7793018511084908,A,496.16880000030505,Correct
11,411,402,A,30.159793984816503,42.9106360032163,1.507989699240825,0.67403869414285,A,529.877500001021,Correct
11,411,403,B,70.78511305826473,52.57922946116504,3.5392556529132366,0.8259126050330405,B,471.39029999925697,Correct
11,411,404,A,48.635401273557655,62.08593886328089,2.4317700636778827,0.9752436471205413,B,649.867300000551,Incorrect
11,411,405,B,38.25921782103063,12.611022916027906,1.9129608910515317,0.19809348473622898,B,401.37309999954596,Correct
11,411,406,A,53.78639076748613,67.30004494137908,2.6893195383743067,1.0571466338704971,A,491.0280000003695,Correct
11,411,407,B,59.86042609615532,27.07147383055957,2.9930213048077663,0.42523771653967146,B,425.3889999999956,Correct
11,411,408,A,54.56449824774923,76.93614065862363,2.728224912387461,1.208510071443415,A,396.98519999910786,Correct
11,411,409,A,64.90870585048772,85.81033493374981,3.2454352925243857,1.3479055891497398,A,417.13769999842043,Correct
11,411,410,A,17.690899887254922,47.97538740702388,0.884544994362746,0.7535956231551525,B,486.689600000318,Incorrect
11,411,411,A,53.408727255518066,78.82915861670764,2.6704363627759036,1.2382455279945663,A,563.1393999992724,Correct
11,411,412,B,55.93774413826825,34.65519634376824,2.7968872069134125,0.5443625512114708,B,681.4899000000878,Correct
11,411,413,A,31.05696893074474,47.1886577897328,1.552848446537237,0.7412377032249367,A,639.5563000005495,Correct
11,411,414,A,45.44280976481699,53.27766516827482,2.2721404882408494,0.8368836074653451,A,820.0038000013592,Correct
11,411,415,B,40.23739357888792,20.07347611167506,2.0118696789443957,0.3153134254222429,B,685.9691999998176,Correct
11,411,416,A,33.4083855263467,55.64136173309346,1.6704192763173351,0.8740124662820934,A,614.2236999985471,Correct
11,411,417,A,25.6645181461923,46.47206025297272,1.283225907309615,0.7299814154396065,A,638.2742999994662,Correct
11,411,418,A,37.59567422367749,61.52534637071082,1.8797837111838747,0.9664378808389626,A,457.8423000002658,Correct
11,411,419,A,28.415197387600998,47.60539669588984,1.4207598693800498,0.7477838226551766,A,526.8168999991758,Correct
11,411,420,A,61.60883409140683,76.03788584595316,3.080441704570341,1.1944003178407285,A,622.8577999991103,Correct
11,411,421,B,63.303675411843805,34.79136880634465,3.16518377059219,0.5465015432517272,B,531.8411000007472,Correct
11,411,422,A,13.634851709542705,33.777415574256196,0.6817425854771352,0.5305744031266637,A,501.22820000069623,Correct
11,411,423,B,49.60631754104952,20.171309140360812,2.480315877052476,0.31685018304323087,B,648.5557000014524,Correct
11,411,424,B,70.87214143150725,41.98233288858068,3.5436070715753623,0.6594569429166312,B,942.3631000008754,Correct
11,411,425,A,17.913563523826273,41.293863295819065,0.8956781761913136,0.648642487842432,A,529.4400000002497,Correct
11,411,426,A,26.021481235485687,45.30780445679465,1.3010740617742842,0.7116933281587449,A,477.01900000174646,Correct
11,411,427,A,30.439949953450714,47.8678456868754,1.5219974976725357,0.7519063617652881,A,494.97389999851293,Correct
11,411,428,A,54.06444906197659,78.46182725818333,2.7032224530988294,1.2324755005077008,A,603.940999999395,Correct
11,411,429,A,27.834683833727098,59.15308090522718,1.3917341916863548,0.9291744220453219,A,410.8488000001671,Correct
11,411,430,B,55.39237210744293,23.303267237286477,2.7696186053721465,0.3660468657864945,B,500.79899999946065,Correct
11,411,431,A,63.45736954123427,88.07873126373305,3.1728684770617135,1.383537475378267,A,687.0517999996082,Correct
11,411,432,B,79.82770235010115,61.16586549576304,3.9913851175050574,0.960791168459753,B,3043.183499999941,Correct
11,411,433,B,59.322708836251635,47.042026543598574,2.966135441812582,0.7389344249967266,B,4453.181500000937,Correct
11,411,434,B,54.10966329580083,39.51688457283832,2.7054831647900413,0.6207297713339236,B,494.58360000062385,Correct
11,411,435,A,55.42412934146789,70.82643162805788,2.7712064670733945,1.112538986413432,A,607.1300999992673,Correct
11,411,436,A,51.297807809223265,61.23216512608954,2.564890390461163,0.9618326006176,A,757.7775999998266,Correct
11,411,437,A,66.85783733126465,82.05797976243223,3.3428918665632326,1.288963731950385,A,489.0863000000536,Correct
11,411,438,B,63.99179807223175,45.995011203006364,3.199589903611588,0.7224879464857251,B,714.4872000008036,Correct
11,411,439,B,63.095452245204356,38.17892566086312,3.1547726122602175,0.5997131618905921,B,580.433199998879,Correct
11,411,440,B,65.22313005181483,42.45116148794312,3.261156502590742,0.6668212853343801,B,504.8795999991853,Correct
11,411,441,B,83.7092224108023,64.83356249299517,4.185461120540115,1.018403218170242,B,660.7464999997319,Correct
11,411,442,A,61.96554459170393,73.3973977235976,3.0982772295851966,1.1529236274053123,A,654.1352999993251,Correct
11,411,443,A,44.16657415360159,59.546524352391415,2.2083287076800793,0.935354617261393,A,670.7139000009192,Correct
11,411,444,A,18.634959382751067,34.3796090515071,0.9317479691375533,0.5400336361475193,A,758.4368000007089,Correct
11,411,445,B,66.8671304788115,42.488614266639125,3.3433565239405754,0.6674095922064197,B,1093.9281999999366,Correct
11,411,446,A,39.97112793963376,56.20145864687493,1.998556396981688,0.8828104480302642,A,781.938000000082,Correct
11,411,447,A,29.739193041257252,57.63896737474526,1.4869596520628625,0.9053907823250075,A,457.2593000011693,Correct
11,411,448,B,79.72036518146022,53.818558016627875,3.9860182590730115,0.8453799324591711,B,657.0226999992883,Correct
11,411,449,B,60.510949167039705,40.48704028901303,3.0255474583519852,0.6359689416877865,B,799.6664000002056,Correct
11,411,450,B,82.63365075919337,58.002730035500406,4.1316825379596684,0.9111047528384004,B,582.2871999989729,Correct
11,411,451,B,72.87741648238593,48.18371954274359,3.643870824119296,0.7568680966905711,B,689.3307000009372,Correct
11,411,452,B,50.930119546906816,33.06676474286987,2.546505977345341,0.5194115259709099,B,332.9526999987138,Correct
11,411,453,B,60.72212521573328,49.770774318116196,3.0361062607866636,0.781797494806347,B,797.2499000006792,Correct
11,411,454,A,32.61929287179469,42.4876002458044,1.6309646435897347,0.6673936640043951,A,583.4654999998747,Correct
11,411,455,B,86.66516805300091,59.444188326979585,4.333258402650046,0.933747126733236,B,596.7213999992964,Correct
11,411,456,A,55.50363489063943,77.96966286421504,2.7751817445319715,1.2247446002854543,A,611.3568000000669,Correct
11,411,457,A,41.94782654215874,58.93808129970978,2.0973913271079367,0.925797216139231,A,481.72640000120737,Correct
11,411,458,B,52.544857963485214,31.843022706004607,2.627242898174261,0.5001890310063852,B,484.4742999994196,Correct
11,411,459,B,39.07885933245474,17.34720727134219,1.9539429666227368,0.2724892946197403,B,422.7225000013277,Correct
11,411,460,B,47.80106870579178,33.405242257746934,2.390053435289589,0.5247283183416255,B,415.28810000090743,Correct
11,411,461,A,39.4762911176685,56.48133048635191,1.973814555883425,0.8872066646045019,A,482.3137000003044,Correct
11,411,462,B,30.553893741426457,14.706525048250768,1.5276946870713228,0.23100955525709446,B,465.7805999995617,Correct
11,411,463,A,27.816028361675265,46.29730431546612,1.3908014180837631,0.7272363555923971,A,476.301800001238,Correct
11,411,464,B,79.06619216952029,66.14947899520641,3.9533096084760144,1.039073586250664,B,581.6713999993226,Correct
11,411,465,A,50.80803994005788,59.424019070761084,2.540401997002894,0.933430308797414,A,466.41880000061064,Correct
11,411,466,B,37.64407732023278,23.670309275719926,1.8822038660116391,0.37181234864400026,B,553.8555000002816,Correct
11,411,467,B,42.24849981804556,31.390309360214204,2.112424990902278,0.49307782639979936,B,402.7158999997482,Correct
11,411,468,B,58.886438048952755,41.30354759008746,2.944321902447638,0.6487946083810758,B,503.6772999992536,Correct
11,411,469,A,43.773302985171085,73.32841059757982,2.1886651492585543,1.1518399801638635,A,509.2125999999553,Correct
11,411,470,A,48.756566711372244,71.04051781000422,2.437828335568612,1.1159018442956206,A,542.3460999991221,Correct
11,411,471,A,37.05891800982215,46.71073374611947,1.8529459004911075,0.7337304899029888,A,548.9498999995703,Correct
11,411,472,B,42.15020648501269,20.71782984863032,2.1075103242506343,0.32543491025390175,B,470.0622000000294,Correct
11,411,473,B,63.428874436155084,38.00968935707977,3.171443721807754,0.5970548042471597,B,436.4631999997073,Correct
11,411,474,A,40.50299644148068,61.15061949464664,2.025149822074034,0.9605516848342333,A,533.3014999996522,Correct
11,411,475,B,49.35010598556189,21.60003634715469,2.4675052992780944,0.3392925775274684,B,541.6100999991613,Correct
11,411,476,B,50.74359329274691,25.826126054408906,2.5371796646373452,0.4056758394160748,B,514.0248000006977,Correct
11,411,477,B,35.23751171123898,17.619550988264976,1.7618755855619492,0.27676725972142013,B,493.37000000014086,Correct
11,411,478,A,32.93631594717736,60.34763759337699,1.6468157973588682,0.9479384746242618,A,473.505899999509,Correct
11,411,479,B,42.90871448918671,27.868109935941497,2.145435724459335,0.43775124722093267,B,800.7075999994413,Correct
11,411,480,B,74.19130162194645,53.543826105263086,3.709565081097322,0.8410644536869195,B,569.8038999998971,Correct
11,411,481,B,62.559905056345414,50.992569899732906,3.127995252817271,0.8009894149233245,B,415.90700000051584,Correct
11,411,482,A,34.695639520751385,56.3190693805114,1.7347819760375693,0.8846578731141423,A,482.14569999981904,Correct
11,411,483,A,42.43835427039372,55.42664567385695,2.121917713519686,0.8706397143105674,A,474.3761000008817,Correct
11,411,484,A,31.37546101566518,43.21261914630415,1.568773050783259,0.6787822342620137,A,521.8846999996458,Correct
11,411,485,A,67.63513008293043,80.4509577916831,3.3817565041465216,1.2637206898630706,A,609.0805000003456,Correct
11,411,486,A,21.23856472412552,38.933020127209474,1.061928236206276,0.6115584500685242,A,522.725699998773,Correct
11,411,487,A,42.94017792210733,50.57977121259271,2.1470088961053664,0.7945051883086688,A,455.7291000000987,Correct
11,411,488,A,51.61871377834651,72.55238798340855,2.5809356889173256,1.1396502454453634,A,387.881999999081,Correct
11,411,489,B,48.892556083564614,37.91437476297447,2.444627804178231,0.5955576061040543,B,2672.834999999395,Correct
11,411,490,A,68.07476661885886,80.87635437839697,3.403738330942943,1.2704028038214832,A,769.9800000009418,Correct
11,411,491,A,37.431152244256225,57.93354169542625,1.8715576122128113,0.9100179449339453,A,530.560900000637,Correct
11,411,492,B,35.14273374121793,17.321218234523208,1.7571366870608967,0.27208105978401836,B,479.5723999995971,Correct
11,411,493,A,24.42099583357048,40.49439539350968,1.2210497916785241,0.6360844753990519,A,556.8115000005491,Correct
11,411,494,B,51.44888048758724,41.04225784788591,2.5724440243793616,0.644690278708282,B,523.4466000001703,Correct
11,411,495,B,81.48566860846196,62.49922404050825,4.074283430423098,0.9817355155036166,B,569.80410000142,Correct
11,411,496,B,80.95646719784486,63.073765790722106,4.047823359892243,0.990760396211879,B,425.78519999915443,Correct
11,411,497,B,70.06048202534757,56.853550338422565,3.503024101267379,0.8930534803684292,B,635.1933000005374,Correct
11,411,498,B,70.21004927387914,50.660123132183415,3.510502463693957,0.7957673533101086,B,555.4795000007289,Correct
11,411,499,A,43.54990527866997,62.179390190556745,2.1774952639334986,0.9767115771367315,A,503.66140000005544,Correct
11,411,500,A,45.780032712462194,63.754856908364,2.28900163562311,1.001458950469924,A,458.15500000026077,Correct
11,411,501,A,37.61151428961469,61.22745002809746,1.8805757144807345,0.9617585360315358,A,415.4123999996955,Correct
11,411,502,B,39.73045235980197,19.976007496876004,1.9865226179900985,0.3137823920012014,B,481.64320000068983,Correct
11,411,503,B,83.70068756762706,57.38899212957372,4.185034378381353,0.9014641803559564,B,724.1424000003462,Correct
11,411,504,B,61.644384241345406,44.47805610827248,3.0822192120672702,0.6986596715785173,B,408.8365999996313,Correct
11,411,505,A,63.2081282086816,88.26239052546,3.16040641043408,1.3864223883152926,A,568.5950999995839,Correct
11,411,506,A,53.624647318755045,80.260058742946,2.681232365937752,1.260722054617622,A,498.2371999994939,Correct
11,411,507,A,24.141083076304774,35.749283662944976,1.2070541538152386,0.5615484346330277,A,1019.3549999985407,Correct
11,411,508,A,19.09343307759808,35.49864018475097,0.9546716538799039,0.5576113360842052,A,544.8966000003566,Correct
11,411,509,B,52.05320645416822,36.91337229843274,2.602660322708411,0.5798338961599063,B,921.7432999994344,Correct
11,411,510,A,67.07014964120194,79.27828899208542,3.353507482060097,1.2453004514335206,A,1313.2239000005939,Correct
11,411,511,B,55.526293609615344,45.80626729886946,2.7763146804807675,0.7195231641724932,A,2383.8670999994065,Incorrect
11,411,512,A,50.12932508642338,70.07491230948601,2.5064662543211687,1.1007341485621511,A,645.12570000079,Correct
11,411,513,A,29.37857123880658,61.463456534322674,1.468928561940329,0.9654657175623184,A,500.30379999952856,Correct
11,411,514,A,40.55740110311915,64.59986571863806,2.0278700551559576,1.0147323178228023,A,456.18540000032226,Correct
11,411,515,B,58.019417995183154,48.76838133676435,2.9009708997591575,0.7660519426752223,B,4051.5181999999186,Correct
11,411,516,B,83.89331814944998,56.02595469450728,4.1946659074724995,0.8800536383930931,B,520.4931999996916,Correct
11,411,517,A,41.6016334897923,58.57809665134275,2.080081674489615,0.9201425905056563,A,534.5744000005652,Correct
11,411,518,B,72.56362720341303,39.87243582194353,3.6281813601706516,0.6263147572947415,B,652.7005000007193,Correct
11,411,519,B,69.9669987628528,36.92119193826027,3.4983499381426397,0.5799567267750858,B,420.4377999994904,Correct
11,411,520,B,46.411199016767426,22.72358296395819,2.3205599508383714,0.35694120651404615,B,420.98559999976715,Correct
11,411,521,A,51.92426531330146,74.99753496772507,2.596213265665073,1.1780585244597437,A,506.2542999985453,Correct
11,411,522,B,81.08484134054535,54.668998445631225,4.054242067027268,0.8587386194795343,B,480.5999999989581,Correct
11,411,523,A,53.691127343945,81.19296516948833,2.68455636719725,1.2753761144981826,A,475.6421000001865,Correct
11,411,524,B,58.05688956499028,34.671308846884436,2.9028444782495137,0.5446156458185747,B,507.40480000058596,Correct
11,411,525,B,37.316494189923375,19.11464374702405,1.8658247094961689,0.3002521218581842,B,417.76560000107565,Correct
11,411,526,A,22.282074692605093,44.35192862052035,1.1141037346302547,0.6966784656338281,A,577.2443999994721,Correct
11,411,527,A,60.15082340104692,68.65720478738511,3.0075411700523462,1.0784648508802952,A,1302.2053000004234,Correct
11,411,528,A,40.187718298841766,64.02341519781177,2.0093859149420883,1.005677454215873,A,456.7024999996647,Correct
11,411,529,B,59.59260960972558,30.19221820805049,2.979630480486279,0.4742582545899571,B,443.1690000001254,Correct
11,411,530,A,20.595779551573468,47.5129020384861,1.0297889775786735,0.7463309199741971,A,426.95370000001276,Correct
11,411,531,B,79.55014810741001,50.885241547879446,3.9775074053705004,0.799303505114801,B,434.943000000203,Correct
11,411,532,A,19.093060924629462,38.70256265936638,0.9546530462314732,0.6079384326288203,A,379.0060999999696,Correct
11,411,533,A,61.91174837149353,80.74574876981637,3.095587418574677,1.268351255719311,A,634.4261000012921,Correct
11,411,534,A,48.06360850442648,72.50948222150718,2.4031804252213242,1.1389762833134336,A,457.0791999994981,Correct
11,411,535,A,51.57029826151896,67.55177356226017,2.5785149130759475,1.0611007778007886,A,524.6884000007412,Correct
11,411,536,A,66.79043324393577,87.52375593071356,3.339521662196788,1.374819943232579,A,614.8868999989645,Correct
11,411,537,B,30.088209549176153,12.936499488715878,1.5044104774588076,0.20320605878458958,B,496.6116999985388,Correct
11,411,538,B,73.17901466392576,60.76159379462936,3.6589507331962876,0.9544408834280739,A,403.3737999998266,Incorrect
11,411,539,B,60.6823361662961,49.40554975354243,3.034116808314805,0.7760605607614696,B,648.0529000000388,Correct
11,411,540,B,59.17730188060223,44.21943430698541,2.958865094030111,0.6945972498236093,B,433.16810000033,Correct
11,411,541,B,77.71469734185581,57.37726931566449,3.8857348670927907,0.9012800388256731,B,431.3089999996009,Correct
11,411,542,B,63.41039613429199,41.710085766410536,3.1705198067145997,0.6551804951217777,B,406.17829999973765,Correct
11,411,543,B,87.52674862724895,59.87380598699892,4.3763374313624475,0.9404955451560819,B,437.9076000004716,Correct
11,411,544,A,47.15288174632309,74.86114592144688,2.3576440873161544,1.1759161303306551,A,498.64549999983865,Correct
11,411,545,B,64.50640688505995,40.44959638281053,3.2253203442529976,0.6353807741845492,B,445.12700000086625,Correct
11,411,546,A,19.214123875898874,41.266458957195184,0.9607061937949437,0.6482120214979454,A,470.2500000003056,Correct
11,411,547,B,49.706468415106414,26.128363977632986,2.485323420755321,0.4104233816122599,B,569.5747999998275,Correct
11,411,548,B,71.79985808133866,40.96161802882443,3.5899929040669325,0.6434235913925304,B,495.94360000082816,Correct
11,411,549,B,87.84194683341534,63.85587962118087,4.392097341670767,1.00304581153208,B,618.1452000000718,Correct
