subject,day,trial,cat,x,y,xt,yt,resp,rt,fb
3,103,0,B,42.179300293218006,13.659741266573299,2.1089650146609005,0.21456671406502006,B,513.4972999985621,Correct
3,103,1,B,61.39223820676295,34.532099860992545,3.069611910338147,0.5424289561816165,A,595.9844999997586,Incorrect
3,103,2,A,43.228851496291014,70.5986280402132,2.1614425748145507,1.1089606560232608,A,700.0071000002208,Correct
3,103,3,A,43.9426473960897,63.08809999126378,2.1971323698044847,0.9909855573074628,A,1005.1458999987517,Correct
3,103,4,B,77.7714162545807,58.978351478338226,3.888570812729035,0.9264297786259205,A,835.2291999981389,Incorrect
3,103,5,B,72.43621959422717,56.52103282529947,3.6218109797113582,0.887830307486342,A,1238.2849999994505,Incorrect
3,103,6,A,36.42146636805389,67.03011542929323,1.8210733184026946,1.0529065910097173,A,1390.0428999986616,Correct
3,103,7,B,61.55274782467296,31.896535445035536,3.0776373912336483,0.5010296071454503,B,956.3687999980175,Correct
3,103,8,A,23.055203210467447,53.104654702896475,1.1527601605233724,0.8341659654302112,A,803.8089000001492,Correct
3,103,9,B,55.11653380830353,26.491444700862154,2.7558266904151765,0.41612664027604396,B,607.7457999999751,Correct
3,103,10,A,22.99707631977839,36.608082556990354,1.1498538159889196,0.5750384161152476,B,852.1405999999843,Incorrect
3,103,11,B,71.45513926949161,56.13748929600064,3.5727569634745806,0.8818056198164563,A,887.5004000001354,Incorrect
3,103,12,A,53.73112375844162,60.95233895909566,2.686556187922081,0.9574371014650493,A,808.576899999025,Correct
3,103,13,B,77.01483908336235,56.289639322458726,3.850741954168117,0.8841955868432774,A,805.5875999998534,Incorrect
3,103,14,A,58.426924572602566,75.87978733537821,2.9213462286301284,1.1919169122439,A,863.5745999999926,Correct
3,103,15,B,62.29292243263993,40.71939579436841,3.114646121631996,0.6396187734310146,A,974.4586999986495,Incorrect
3,103,16,B,63.00081633843485,33.46409052248579,3.150040816921743,0.5256527047225259,A,965.9329000023718,Incorrect
3,103,17,A,51.27949896930878,71.59777692699838,2.563974948465439,1.1246552500360945,A,1632.1642000002612,Correct
3,103,18,A,62.516850421084555,84.25722328825873,3.1258425210542278,1.3235093684713422,A,852.0386999989569,Correct
3,103,19,B,34.66924760565463,23.330685738943156,1.7334623802827316,0.3664775546033799,B,1194.4435000004887,Correct
3,103,20,B,42.589336434923524,20.50078249656656,2.1294668217461763,0.3220255384202786,B,491.7810999977519,Correct
3,103,21,A,52.395939668699484,77.30145373698703,2.6197969834349744,1.2142483958596484,A,720.7687000009173,Correct
3,103,22,B,77.06548684619148,46.02812536766424,3.8532743423095734,0.7230081025678198,A,1271.9778999999107,Incorrect
3,103,23,B,77.79242624184948,51.06230539809533,3.8896213120924745,0.8020848175700738,B,763.3439999990514,Correct
3,103,24,B,77.23859943707818,50.13403714272404,3.861929971853909,0.7875036139118984,B,907.3664999996254,Correct
3,103,25,A,34.63604737957608,50.04073952158261,1.7318023689788038,0.7860380983060218,A,764.7670000005746,Correct
3,103,26,B,45.67714988372889,15.903840549965508,2.283857494186444,0.24981694317817546,A,924.1709999987506,Incorrect
3,103,27,B,69.58661974301533,60.38811514643929,3.4793309871507665,0.948574294540941,B,744.6019999988494,Correct
3,103,28,B,74.97423890623098,51.17878397226272,3.748711945311549,0.8039144587345981,B,670.7355999969877,Correct
3,103,29,B,37.45935074805077,28.15059755166867,1.8729675374025385,0.44218855231242554,A,587.1433000029356,Incorrect
3,103,30,B,38.84550522298558,19.115566725047312,1.942275261149279,0.3002666199630707,B,694.2187999993621,Correct
3,103,31,A,38.86894627783272,63.793564954511545,1.943447313891636,1.002066975036984,A,889.538999999786,Correct
3,103,32,A,23.06636703185574,43.575814515182884,1.1533183515927872,0.6844872937754501,B,1495.619400000578,Incorrect
3,103,33,B,77.21180770408176,64.68760240786463,3.8605903852040884,1.0161104825144247,A,1071.920600003068,Incorrect
3,103,34,A,54.32504109200525,62.64153912384765,2.7162520546002624,0.9839709956051869,B,555.5617999998503,Incorrect
3,103,35,B,47.836938077192706,38.86648952402736,2.3918469038596353,0.610513389797545,B,521.3603000011062,Correct
3,103,36,B,69.02709404988553,42.96302517740263,3.451354702494277,0.6748616213666071,B,788.387499997043,Correct
3,103,37,B,43.45820188748441,27.106660631780507,2.1729100943742203,0.42579042952076646,B,540.9612000003108,Correct
3,103,38,B,64.45879583786441,52.00022199238397,3.2229397918932206,0.8168175769815593,B,729.3829000009282,Correct
3,103,39,A,51.855820109339106,68.41447650078939,2.5927910054669554,1.0746520838703575,B,537.1024000014586,Incorrect
3,103,40,A,40.368849763701704,70.20927437749447,2.018442488185085,1.1028447029910335,B,615.2196999973967,Incorrect
3,103,41,B,41.81710234505714,26.961585985091045,2.090855117252857,0.4235116022994578,A,631.7954000005557,Incorrect
3,103,42,B,68.13723647889154,57.28974391568319,3.4068618239445767,0.8999051930577543,B,678.3996000012849,Correct
3,103,43,B,48.20270796735115,26.919672203073787,2.4101353983675575,0.4228532221511098,B,786.0005000002275,Correct
3,103,44,A,24.923667629769074,45.76101973476068,1.2461833814884538,0.7188124170975085,A,546.315899999172,Correct
3,103,45,A,10.82852570422359,32.01801507574274,0.5414262852111795,0.5029378047224031,A,792.9686999996193,Correct
3,103,46,A,37.406461465238586,50.65996534283242,1.8703230732619291,0.7957648747607793,B,450.6471999993664,Incorrect
3,103,47,B,40.50080232856429,22.284932346983794,2.025040116428215,0.3500508987351492,B,559.633799999574,Correct
3,103,48,A,39.98700830962841,63.324936520360495,1.9993504154814203,0.9947057768070227,A,864.1690999975253,Correct
3,103,49,A,41.74859501848262,49.79590194207635,2.0874297509241306,0.7821921986005238,B,679.647599998134,Incorrect
3,103,50,A,41.562292817797704,48.598643672429816,2.078114640889885,0.7633857096786681,A,856.5003000003344,Correct
3,103,51,B,34.921251907864416,22.64617328114709,1.7460625953932207,0.3557252580598657,A,722.1860999998171,Incorrect
3,103,52,A,39.61340485739797,61.193884720346475,1.9806702428698983,0.9612312934103059,A,735.686899999564,Correct
3,103,53,A,60.51371514918888,69.48620882985412,3.0256857574594442,1.0914868159283795,A,784.8010999987309,Correct
3,103,54,A,66.28688335299684,88.37306806275126,3.3143441676498417,1.3881609070056506,A,689.6559999986493,Correct
3,103,55,B,80.48245479863762,53.911479544550545,4.02412273993188,0.8468395404065822,A,1304.8677000006137,Incorrect
3,103,56,B,69.62261988250023,52.72554822699331,3.4811309941250115,0.8282109748320827,A,584.3440000026021,Incorrect
3,103,57,A,11.657932878795716,33.93401915988427,0.5828966439397858,0.5330343264973385,A,636.4643999986583,Correct
3,103,58,A,53.4775071182291,64.09149542549662,2.6738753559114548,1.00674685593162,B,843.4262999981001,Incorrect
3,103,59,A,65.23713022148527,82.97797536740902,3.261856511074263,1.3034149891200348,A,1227.716400000645,Correct
3,103,60,B,44.35253532626956,25.759470145398087,2.217626766313478,0.40462881084574115,B,601.4939000015147,Correct
3,103,61,A,41.87562249486056,67.98490544014822,2.093781124743028,1.067904397428832,A,652.8408999984094,Correct
3,103,62,B,60.12959169423501,34.44407887207105,3.0064795847117507,0.5410463257208291,A,1017.2768000011274,Incorrect
3,103,63,B,68.15662564401168,56.95300367613014,3.407831282200584,0.8946156897440146,A,699.7540000011213,Incorrect
3,103,64,A,41.6458041235816,51.13393039906531,2.08229020617908,0.8032099004543768,B,1250.9639999989304,Incorrect
3,103,65,A,52.58535075850256,59.505855403311834,2.629267537925128,0.9347157909031047,A,1069.1508000018075,Correct
3,103,66,B,51.877792795121785,42.97841144861918,2.5938896397560893,0.6751033083497072,A,1343.972599999688,Incorrect
3,103,67,A,24.154006061161155,38.6251167166418,1.2077003030580578,0.6067219146052509,A,527.7125000029628,Correct
3,103,68,B,56.5716979104887,41.910440020129826,2.8285848955244353,0.6583276523797776,B,1264.5325000012235,Correct
3,103,69,B,43.69702336932406,34.37827700796323,2.184851168466203,0.5400127124564609,B,485.53090000132215,Correct
3,103,70,A,49.02442709454335,64.67200740049554,2.4512213547271675,1.0158655167115078,B,486.1122999973304,Incorrect
3,103,71,B,68.05253961570568,37.280205835095316,3.402626980785284,0.5855961038792539,B,689.4366999986232,Correct
3,103,72,B,82.02216016706399,56.46809812503658,4.101108008353199,0.8869988111590124,B,450.29909999720985,Correct
3,103,73,B,88.82641427409774,66.64816721401867,4.4413207137048865,1.0469069624739258,B,1060.5160000013711,Correct
3,103,74,A,24.17060276724067,42.58234726504021,1.2085301383620335,0.6688819467022988,A,803.0997999994725,Correct
3,103,75,B,69.26506786570624,39.18568553657171,3.463253393285312,0.6155273090378675,B,418.05440000098315,Correct
3,103,76,A,39.21389083291961,71.94720861274804,1.9606945416459807,1.1301441101205079,B,1196.276200000284,Incorrect
3,103,77,A,21.806331673908325,38.14222660817827,1.090316583695416,0.5991366945190499,A,570.3572999991593,Correct
3,103,78,A,57.0563962026596,65.17113936502706,2.8528198101329796,1.023705863276228,B,573.111699999572,Incorrect
3,103,79,A,40.48618251595873,66.95742925556496,2.024309125797936,1.0517648392627057,A,927.6879999997618,Correct
3,103,80,B,44.376162174076725,31.911386909299885,2.2188081087038363,0.50126289340059,B,756.0727000018233,Correct
3,103,81,B,74.57423211732252,43.337150555726666,3.7287116058661263,0.6807383690669285,B,647.9307000008703,Correct
3,103,82,A,57.92438075717757,82.64635605947852,2.8962190378588786,1.29820592521212,A,582.5807000001078,Correct
3,103,83,A,30.54708260952676,43.78988718704257,1.527354130476338,0.6878499394416937,A,942.9094000006444,Correct
3,103,84,A,27.442633859731263,52.490672351493146,1.372131692986563,0.8245215532071988,A,598.3333000003768,Correct
3,103,85,A,54.719742035636514,68.53373043150381,2.7359871017818254,1.076525320233578,B,830.945800000336,Incorrect
3,103,86,B,41.45788723699144,19.9580946524845,2.072894361849572,0.3135010176994752,A,642.786199998227,Incorrect
3,103,87,A,32.47343344711826,56.389456763077064,1.623671672355913,0.8857635155340109,B,372.46000000232016,Incorrect
3,103,88,B,58.882797329211805,43.38561445809139,2.9441398664605902,0.6814996382650951,B,707.6479000024847,Correct
3,103,89,A,17.238764423845353,34.91095569788396,0.8619382211922677,0.5483800097513549,A,876.7752999992808,Correct
3,103,90,B,60.0951160945195,34.28888195780409,3.0047558047259746,0.5386084982922246,B,583.2456999996793,Correct
3,103,91,A,47.19349062159771,65.49208358426452,2.3596745310798855,1.0287472432830707,B,928.140899999562,Incorrect
3,103,92,B,75.08611120059761,56.95818968179904,3.7543055600298807,0.8946971513305692,B,558.5213000013027,Correct
3,103,93,A,49.82553093961847,62.12445133650488,2.4912765469809233,0.9758485996353017,B,503.89020000147866,Incorrect
3,103,94,B,35.679076844409636,22.57623078132622,1.7839538422204817,0.354626603841811,B,1013.4127999990596,Correct
3,103,95,A,32.497356815586066,40.88603441854204,1.6248678407793034,0.6422363268185555,B,885.7145999973,Incorrect
3,103,96,A,20.726936651814874,38.17487103312208,1.0363468325907437,0.5996494719469706,A,375.9107000005315,Correct
3,103,97,A,66.83614654824657,89.99386815221266,3.3418073274123286,1.4136203752755987,A,942.8221000016492,Correct
3,103,98,B,69.1191899813269,36.29425174120281,3.4559594990663447,0.5701087731885065,B,741.5058000005956,Correct
3,103,99,B,70.08336489126727,56.65575757959448,3.5041682445633633,0.8899465589780914,B,745.1035999984015,Correct
3,103,100,A,62.20769798543978,73.06530783666258,3.110384899271989,1.1477071716596794,B,553.1166000000667,Incorrect
3,103,101,A,34.38791037895473,62.42655895734903,1.7193955189477363,0.9805940950464892,A,600.5475999991177,Correct
3,103,102,B,70.0966816770121,55.83915068718994,3.504834083850605,0.8771193279078469,A,535.5079000000842,Incorrect
3,103,103,A,24.682537078415855,39.716566523638676,1.2341268539207928,0.6238663680823678,A,531.3679999999295,Correct
3,103,104,A,50.54695350739304,68.59662208701529,2.527347675369652,1.077513220048213,B,905.4233000024396,Incorrect
3,103,105,B,41.25941551698601,32.40083045110506,2.0629707758493003,0.5089510545770005,A,560.1077999999688,Incorrect
3,103,106,B,59.07760954657855,47.76162558174235,2.9538804773289273,0.7502378602555405,B,630.7473000015307,Correct
3,103,107,A,12.930480315980798,40.841827174981745,0.64652401579904,0.6415419210605331,A,503.31010000081733,Correct
3,103,108,B,47.35847567870746,23.398163631418164,2.367923783935373,0.3675374948597759,B,535.03670000282,Correct
3,103,109,A,56.80473476055239,77.87959276884997,2.8402367380276194,1.2233297825359193,A,567.3407000031148,Correct
3,103,110,A,25.6390415446052,42.122456291490266,1.28195207723026,0.661657996182515,A,471.88700000333483,Correct
3,103,111,A,60.67865006861834,77.12843692739241,3.033932503430917,1.2115306541697988,B,536.4962000021478,Incorrect
3,103,112,B,68.86824307172336,55.49242873528033,3.4434121535861677,0.871673032223059,B,466.12090000053286,Correct
3,103,113,A,22.3027430530051,51.65879573910168,1.115137152650255,0.8114544659362876,A,447.40769999771146,Correct
3,103,114,B,54.08538989516138,37.2009952198867,2.704269494758069,0.5843518664451254,B,895.1173999994353,Correct
3,103,115,B,40.798679076407616,16.365621149349685,2.039933953820381,0.2570705758711536,B,506.9886999990558,Correct
3,103,116,B,38.13809803094541,11.804054976136662,1.9069049015472703,0.18541766197800488,B,573.8074000000779,Correct
3,103,117,A,19.37924750582617,43.37918235958428,0.9689623752913086,0.6813986030980096,A,549.8202000017045,Correct
3,103,118,A,36.15367453360174,66.90471425890011,1.8076837266800867,1.0509367940314245,B,697.1383999989484,Incorrect
3,103,119,A,41.31075393082687,66.91218279722224,2.0655376965413437,1.0510541095570536,B,1160.0763999995252,Incorrect
3,103,120,B,44.114748231427264,17.9492763854328,2.2057374115713633,0.2819465741486422,A,445.0743999987026,Incorrect
3,103,121,A,48.76605420154023,66.36747804251893,2.438302710077011,1.042497907278297,B,528.3731999988959,Incorrect
3,103,122,A,52.45660164356263,81.19846242154203,2.6228300821781314,1.2754624651315165,B,638.4447999989789,Incorrect
3,103,123,B,45.03610670857513,22.21119549257321,2.2518053354287564,0.3488926429345736,B,681.506700002501,Correct
3,103,124,B,31.674959379398217,15.16679940629605,1.5837479689699108,0.23823952796644857,A,821.9037999988359,Incorrect
3,103,125,B,64.76133816449749,37.37412798377811,3.2380669082248743,0.58707142954081,B,573.1287999988126,Correct
3,103,126,A,17.63741190198205,38.92232841636892,0.8818705950991024,0.6113905050673692,A,544.4637999971746,Correct
3,103,127,A,51.502884404670496,68.77889828449597,2.575144220233525,1.0803764078628606,A,1274.6752000020933,Correct
3,103,128,B,83.01419841401545,60.464743236254336,4.150709920700773,0.9497779657610488,B,735.3749000030803,Correct
3,103,129,B,55.63290520808803,42.35714266702795,2.7816452604044013,0.665344441148949,B,580.6089999969117,Correct
3,103,130,A,47.58996530572067,59.13628242752555,2.3794982652860335,0.9289105521746271,B,471.92770000037854,Incorrect
3,103,131,A,55.59845049729105,68.99035745591597,2.7799225248645523,1.083698000760197,B,750.0457999994978,Incorrect
3,103,132,A,31.697859825429354,49.41196495537443,1.5848929912714678,0.7761613305162031,A,1045.5222999989928,Correct
3,103,133,B,35.10841643467654,17.755081773777658,1.7554208217338272,0.2788961723219296,B,648.2896999987133,Correct
3,103,134,B,83.51061632386997,62.98771047693613,4.175530816193498,0.9894086425039169,B,1079.7119999988354,Correct
3,103,135,B,69.35381786820471,45.7046853362279,3.4676908934102357,0.7179275184346334,B,572.446599999239,Correct
3,103,136,A,52.51098685831995,67.60307555000438,2.6255493429159973,1.0619066275398477,A,821.5670000026876,Correct
3,103,137,A,13.75226043237933,31.124257591194812,0.6876130216189665,0.48889869498466987,A,639.2874999983178,Correct
3,103,138,B,60.645124527931145,47.730189053427225,3.0322562263965573,0.7497440564234948,B,635.424600000988,Correct
3,103,139,B,84.67761020984524,66.52786332683138,4.233880510492262,1.0450172334329964,B,861.9175999992876,Correct
3,103,140,A,20.229742013021056,47.82207612331504,1.0114871006510529,0.7511874151420922,A,564.8421999976563,Correct
3,103,141,A,46.91720552972052,61.31186696553708,2.345860276486026,0.9630845541840299,A,628.5850999993272,Correct
3,103,142,B,54.24589428305244,45.22890385704487,2.712294714152622,0.7104539604360561,B,578.126099997462,Correct
3,103,143,A,22.989051890225824,46.14797359396612,1.1494525945112912,0.7248906741042986,A,477.16099999888684,Correct
3,103,144,A,32.57089710114081,51.716392863346925,1.6285448550570405,0.8123591994482717,A,693.6851000027673,Correct
3,103,145,A,59.67743593201995,70.18083236276328,2.9838717966009973,1.1023979368683696,B,666.7010000019218,Incorrect
3,103,146,B,51.39803330750172,31.292471116325665,2.569901665375086,0.4915409868585975,B,557.7316000017163,Correct
3,103,147,A,23.341494672002508,43.71673276081822,1.1670747336001255,0.6867008324016737,A,563.2882999998401,Correct
3,103,148,B,51.055386832563684,30.404544513608666,2.552769341628184,0.47759346839848416,B,1118.339600001491,Correct
3,103,149,A,28.48200928738956,57.25961251219389,1.424100464369478,0.8994318900785326,A,598.6257000004116,Correct
3,103,150,A,19.29226415396423,35.48768910777376,0.9646132076982115,0.5574393169693028,A,457.4075999989873,Correct
3,103,151,B,72.00246967818492,54.87755003884257,3.600123483909246,0.8620145402451705,B,656.6039999997884,Correct
3,103,152,B,46.09168467629698,38.03194193605603,2.304584233814849,0.5974043469403361,B,794.5173999978579,Correct
3,103,153,B,42.479226554282235,15.39403306331182,2.123961327714112,0.24180890590409396,B,530.85419999843,Correct
3,103,154,B,44.352732475238525,28.627702663840175,2.2176366237619263,0.44968290188936627,B,462.71929999784334,Correct
3,103,155,A,42.928714903004945,64.64324268156079,2.1464357451502476,1.0154136815630677,A,764.2635000011069,Correct
3,103,156,B,85.44078295641894,59.59495536507795,4.272039147820947,0.9361153698297026,B,787.9847000003792,Correct
3,103,157,B,81.73109848296073,60.65772673583388,4.086554924148037,0.9528093434837644,B,446.1884000011196,Correct
3,103,158,A,47.317348659566946,61.57604671080365,2.3658674329783476,0.9672342799188136,A,585.5375999999524,Correct
3,103,159,B,43.220488667803245,22.54859553825613,2.1610244333901623,0.3541925104587652,A,530.9520000009798,Incorrect
3,103,160,A,66.74883335177225,88.0265330339441,3.3374416675886125,1.3827175475020903,A,816.1822000001848,Correct
3,103,161,A,48.6597093020102,70.06355658719144,2.4329854651005096,1.1005557732934672,A,1995.7774999966205,Correct
3,103,162,A,12.623730729401242,40.464271576911614,0.6311865364700622,0.635611291594439,A,535.6938999975682,Correct
3,103,163,A,29.391238239285315,61.911591208322385,1.4695619119642658,0.9725050005606002,A,598.5884000001533,Correct
3,103,164,A,15.03408443713925,37.13137061029285,0.7517042218569625,0.5832582056350798,A,566.6135999999824,Correct
3,103,165,B,56.20991258945557,49.09780161810071,2.8104956294727788,0.7712264643541712,B,1063.1776999980502,Correct
3,103,166,B,41.72065897944718,26.176751243963267,2.0860329489723592,0.4111834470144124,B,583.5213999998814,Correct
3,103,167,A,47.1895992234206,66.06428662887426,2.35947996117103,1.037735387689609,B,653.290600002947,Incorrect
3,103,168,A,62.31966658760874,73.11633447832956,3.1159833293804367,1.1485086962726712,A,649.9911000028078,Correct
3,103,169,B,53.237915610694,34.22259939561336,2.6618957805347003,0.537567334240027,A,1027.095699999336,Incorrect
3,103,170,B,63.66601205091308,42.78614210825726,3.1833006025456543,0.6720831486137495,B,421.89739999957965,Correct
3,103,171,A,36.03435856675053,54.38780498839222,1.8017179283375264,0.8543216429820365,B,511.55500000095344,Incorrect
3,103,172,A,28.661239142362437,45.93372735923073,1.433061957118122,0.7215253021187789,A,575.3022999997484,Correct
3,103,173,B,47.86780513703119,26.803987951372015,2.3933902568515593,0.4210360581746982,B,812.3035999997228,Correct
3,103,174,B,61.386596585139316,47.79856456173864,3.069329829256966,0.7508180963964778,B,588.8818999992509,Correct
3,103,175,A,52.68276033944669,82.37956711467339,2.6341380169723347,1.294015214266826,A,569.5885999994061,Correct
3,103,176,A,37.661516241252414,58.7886288641682,1.8830758120626205,0.9234496227714385,B,1057.30179999955,Incorrect
3,103,177,B,49.51916955041202,37.0943251720518,2.475958477520601,0.5826762972519445,B,839.6855999999389,Correct
3,103,178,A,67.93145456264659,84.23075174398008,3.3965727281323295,1.3230935544261675,A,767.9915000007895,Correct
3,103,179,A,18.50569344593929,31.68203025598709,0.9252846722969644,0.49766016751509307,A,519.9647999979788,Correct
3,103,180,B,50.51646316276716,42.7971105213801,2.525823158138358,0.6722554400441908,B,663.9771000009205,Correct
3,103,181,B,31.82364055943585,16.922100514655334,1.5911820279717928,0.26581173330074626,A,527.1983000020555,Incorrect
3,103,182,A,50.77726745744053,58.661502278077656,2.5388633728720267,0.9214527230267484,B,954.8267999998643,Incorrect
3,103,183,B,66.24773414871652,42.479876734762826,3.312386707435826,0.6672723433766543,B,558.1265999971947,Correct
3,103,184,B,49.90553270423679,33.93192691642052,2.4952766352118396,0.5330014616138623,B,433.4500000004482,Correct
3,103,185,A,59.5224427895505,80.88436877331306,2.9761221394775252,1.2705286936424398,A,600.9663999975601,Correct
3,103,186,A,40.71137435494276,59.7944975963483,2.035568717747138,0.9392497718689019,A,648.1090000015683,Correct
3,103,187,B,79.52018302791998,52.543397311246586,3.976009151395999,0.8253497549383099,B,627.1462000004249,Correct
3,103,188,B,44.04586087308616,32.22400660506624,2.2022930436543082,0.5061735120985253,B,483.7561000022106,Correct
3,103,189,A,16.991450167518835,39.64836879053813,0.8495725083759418,0.6227951205958671,A,468.0152000000817,Correct
3,103,190,B,45.48941178537913,26.063435423218802,2.2744705892689567,0.4094034862644809,B,595.498900001985,Correct
3,103,191,B,73.1417757430267,52.03557796797149,3.657088787151335,0.8173729473473906,A,398.28140000099665,Incorrect
3,103,192,B,52.67974955327813,29.805939403717957,2.6339874776639065,0.46819060132031437,B,446.8559000015375,Correct
3,103,193,B,83.6803846779025,59.53063352532733,4.184019233895125,0.9351050047335729,B,546.973499996966,Correct
3,103,194,A,19.155013815666347,37.64221694908457,0.9577506907833174,0.5912825611603865,A,409.6281000020099,Correct
3,103,195,A,49.820226321830496,70.28203289098694,2.491011316091525,1.1039875910484038,B,1050.4714000016975,Incorrect
3,103,196,B,61.941357487170244,47.61786187872674,3.097067874358512,0.747979625289307,B,502.34160000036354,Correct
3,103,197,B,84.23146082134076,57.20507138937111,4.211573041067038,0.8985751601246398,B,531.3497999995889,Correct
3,103,198,A,34.68056073243531,54.61415342160721,1.7340280366217655,0.8578771158567354,A,592.0390999999654,Correct
3,103,199,B,57.449480385654326,41.671120775265386,2.8724740192827163,0.6545684344721338,B,564.4780999973591,Correct
3,103,200,A,13.620436529865277,31.326716691078932,0.6810218264932638,0.4920789150889116,A,600.037300002441,Correct
3,103,201,A,55.21315560075971,76.05675625165748,2.760657780037986,1.1946967334803835,A,844.7858999970776,Correct
3,103,202,A,14.101593226298178,42.965072579089195,0.7050796613149088,0.6748937818770944,A,478.44590000022436,Correct
3,103,203,B,67.70662470884724,34.610149375385355,3.3853312354423624,0.54365495508678,B,628.78560000172,Correct
3,103,204,A,49.41949729387436,59.59341754096282,2.470974864693718,0.9360912137449895,A,1133.8886999983515,Correct
3,103,205,A,51.30704591536441,79.40903010488807,2.565352295768221,1.2473541280310354,A,965.3963000018848,Correct
3,103,206,B,82.6311951075871,54.439382287821,4.131559755379356,0.8551318173069239,B,724.5880999980727,Correct
3,103,207,A,33.30890462018072,65.09469463230029,1.665445231009036,1.0225050722225277,A,777.0368999990751,Correct
3,103,208,B,67.33009772642619,58.743049102444374,3.366504886321309,0.9227336575485187,B,555.2666000003228,Correct
3,103,209,A,59.78100380569436,85.83381169282009,2.9890501902847184,1.3482743612188663,A,1059.8085999990872,Correct
3,103,210,B,47.0243206804124,36.78413959912268,2.35121603402062,0.577803913666126,B,970.1753999979701,Correct
3,103,211,A,32.30467580099865,41.52590039093782,1.6152337900499327,0.6522873180093589,A,894.068800000241,Correct
3,103,212,B,51.20216913012733,37.12806619649844,2.5601084565063665,0.5832063000245751,B,716.7020000015327,Correct
3,103,213,A,49.51259943191127,76.97206543702325,2.4756299715955636,1.2090743765429255,A,883.8467999994464,Correct
3,103,214,B,71.47106303861139,49.2044643595662,3.57355315193057,0.7729019187791699,B,579.8916000021563,Correct
3,103,215,A,46.23144939991058,67.63082423600294,2.311572469995529,1.062342502880247,B,1491.6284999999334,Incorrect
3,103,216,A,19.176459232047975,50.09736868799107,0.9588229616023988,0.7869276271718604,A,631.5188000007765,Correct
3,103,217,A,52.05143481979225,78.46460546421787,2.602571740989612,1.232519140466042,A,1464.6420999997645,Correct
3,103,218,A,23.124786320059176,51.01813506813235,1.1562393160029587,0.801390991649482,A,667.973700001312,Correct
3,103,219,A,22.010350249343734,48.3161756561282,1.1005175124671867,0.7589487124542319,A,476.26189999937196,Correct
3,103,220,B,53.96191570120285,40.30597067758422,2.6980957850601426,0.633124706882521,A,446.51340000200435,Incorrect
3,103,221,B,80.23722934386012,62.695512030995815,4.011861467193006,0.9848188000481346,B,499.49650000053225,Correct
3,103,222,B,39.13101604636604,19.12959609240918,1.956550802318302,0.30048699275026347,B,1105.819699998392,Correct
3,103,223,B,60.635927455265474,52.36016452462703,3.0317963727632735,0.8224715410566058,B,744.4679000000178,Correct
3,103,224,B,54.67833174295833,46.55353288622759,2.7339165871479163,0.7312611845701171,B,641.2810999972862,Correct
3,103,225,A,42.03045483212634,64.48895571042145,2.101522741606317,1.0129901474876877,B,1475.2645999978995,Incorrect
3,103,226,A,64.67357593654114,78.35890983804727,3.2336787968270575,1.2308588774525713,B,570.143899996765,Incorrect
3,103,227,B,81.99883144017187,55.80878441331082,4.099941572008594,0.8766423355931691,B,530.7355999975698,Correct
3,103,228,A,56.90650429473891,85.89440365470139,2.8453252147369454,1.3492261375304309,A,1244.6811000008893,Correct
3,103,229,A,42.334320225760116,49.61099280200192,2.116716011288006,0.7792876526203266,A,737.9197000009299,Correct
3,103,230,B,56.39452911809216,26.232588229055217,2.819726455904608,0.41206053232522977,B,571.5939999972761,Correct
3,103,231,A,22.034467187073204,53.34383573384772,1.1017233593536602,0.8379230122787833,A,624.0717000000586,Correct
3,103,232,B,53.66752069423158,41.74600188669412,2.683376034711579,0.6557446642199195,B,603.0938000003516,Correct
3,103,233,B,81.29772986382626,59.304460879684584,4.064886493191313,0.9315522931236019,B,665.4387999988103,Correct
3,103,234,A,25.355585409064364,38.22576798779144,1.2677792704532183,0.6004489594413673,A,593.2270999983302,Correct
3,103,235,B,48.29643871337786,41.08556132282346,2.414821935668893,0.6453704881019756,B,691.1710999993375,Correct
3,103,236,A,21.371812373657423,41.30953897200126,1.068590618682871,0.6488887207881021,A,416.14430000117864,Correct
3,103,237,A,30.81781428134967,46.19190867923125,1.5408907140674837,0.7255808048098175,A,1188.5862000017369,Correct
3,103,238,A,44.49984271401008,62.51548664641123,2.224992135700504,0.9819909679197818,B,964.5893000015349,Incorrect
3,103,239,A,48.31966969152367,57.45335140189525,2.4159834845761834,0.9024751334415348,A,924.0662999982305,Correct
3,103,240,A,51.71795914757212,60.34397040555742,2.585897957378606,0.9478808705726954,A,808.5172999999486,Correct
3,103,241,A,23.58756148540466,39.70544737057131,1.1793780742702331,0.6236917088344149,A,610.7374999992317,Correct
3,103,242,A,50.73015450038315,61.5727015064954,2.5365077250191574,0.9671817335724157,B,809.5941999999923,Incorrect
3,103,243,A,31.549275784288596,57.58982835843271,1.5774637892144299,0.9046189084617466,A,635.5515000032028,Correct
3,103,244,A,54.66217047117432,78.52952481623353,2.733108523558716,1.233538891262883,A,824.5931999990717,Correct
3,103,245,B,80.76198553159585,67.21368796440919,4.038099276579793,1.055790141648323,B,690.2652000026137,Correct
3,103,246,B,37.199929154188894,14.051714427231051,1.8599964577094448,0.22072381407465388,A,652.7386000016122,Incorrect
3,103,247,A,59.60727007302695,86.27177849279408,2.9803635036513474,1.3551539276254392,A,908.1745000003139,Correct
3,103,248,B,53.000854193612724,34.4856801033501,2.650042709680636,0.5416997963336618,B,773.0865000012273,Correct
3,103,249,B,50.44899119073696,22.877063918640324,2.522449559536848,0.35935207971252286,B,500.7886999992479,Correct
3,103,250,A,60.21246785469276,72.62515395428483,3.010623392734638,1.1407932506430447,A,710.4217000014614,Correct
3,103,251,B,51.431054783476455,37.34486870674297,2.5715527391738227,0.5866118258918954,B,577.7627999996184,Correct
3,103,252,A,40.12734580761651,72.24249559567893,2.006367290380825,1.1347824672018896,A,613.379200000054,Correct
3,103,253,A,18.481297404063927,33.120158145879486,0.9240648702031963,0.5202502275841357,A,509.13109999964945,Correct
3,103,254,A,52.13902077790754,79.47235077237423,2.6069510388953767,1.24834876675001,A,871.8948999994609,Correct
3,103,255,A,32.13718328546464,59.950872930285826,1.6068591642732317,0.9417061098704056,A,744.166899999982,Correct
3,103,256,B,46.435750154476885,23.7399526885003,2.3217875077238443,0.372906304813809,B,879.3727999982366,Correct
3,103,257,A,22.62497752833124,47.0701641689693,1.131248876416562,0.7393764097824973,A,505.8716000021377,Correct
3,103,258,B,32.17335744978584,10.173315671394167,1.608667872489292,0.15980206887950915,A,633.3353999980318,Incorrect
3,103,259,B,48.3856516257567,27.95500962958044,2.419282581287835,0.43911626441660917,B,478.3516999996209,Correct
3,103,260,A,50.98524336729399,65.8703883140997,2.5492621683646997,1.034689640083413,A,494.6008000006259,Correct
3,103,261,B,79.6512062261103,59.661795209549794,3.982560311305515,0.9371652876515018,B,552.0022000018798,Correct
3,103,262,A,16.512958502649187,45.6321177291525,0.8256479251324593,0.7167876291282502,A,518.9559999998892,Correct
3,103,263,B,31.797070869770835,16.492372552079296,1.5898535434885417,0.25906158224939135,A,609.2040999974415,Incorrect
3,103,264,B,84.49876461824908,69.44628421534095,4.224938230912454,1.09085968155012,B,515.6473999995796,Correct
3,103,265,B,47.527203904942745,26.00341619876972,2.376360195247137,0.4084607064914639,B,754.0343000000576,Correct
3,103,266,A,40.48667243393747,67.77638461173798,2.024333621696874,1.0646289599155618,A,555.6536000003689,Correct
3,103,267,B,58.78735222156984,48.74584181993751,2.9393676110784916,0.7656978927728291,B,523.9751000008255,Correct
3,103,268,A,25.02776410434646,44.0389098382266,1.251388205217323,0.6917615780993798,A,578.0756000021938,Correct
3,103,269,A,23.915117403318902,41.101777637363334,1.1957558701659452,0.6456252133751096,A,543.0711000008159,Correct
3,103,270,A,54.919973167206344,69.51725426422439,2.745998658360317,1.0919744764711052,B,485.71400000219,Incorrect
3,103,271,B,55.19327991983543,41.89894512541783,2.759663995991772,0.6581470909958727,B,568.7303000013344,Correct
3,103,272,A,38.067015626684146,52.8684125992621,1.9033507813342072,0.8304550831439793,A,746.6554000020551,Correct
3,103,273,A,27.2441492561534,56.773997317175514,1.3622074628076701,0.8918038644328261,A,582.8177000003052,Correct
3,103,274,A,32.49914843313154,65.58937447340755,1.624957421656577,1.0302754849960354,A,464.5134999991569,Correct
3,103,275,B,70.95597869845284,61.242299205121945,3.5477989349226418,0.9619917863587956,B,646.5907999991032,Correct
3,103,276,A,51.878547307840535,59.12945429321999,2.593927365392027,0.928803296091767,B,890.7513999984076,Incorrect
3,103,277,A,34.13815376595012,63.59817448449677,1.706907688297506,0.9989977887110845,A,614.639100000204,Correct
3,103,278,A,28.888412885585687,48.617605936944614,1.4444206442792844,0.7636835682331435,A,531.861100000242,Correct
3,103,279,A,50.66982549687301,80.847621029642,2.5334912748436507,1.2699514614346747,A,678.9635999994061,Correct
3,103,280,A,21.758043548409347,45.780228989614024,1.0879021774204674,0.7191141553671495,A,524.1863000010198,Correct
3,103,281,A,39.42527432149697,58.905904086135465,1.9712637160748485,0.9252917776503408,A,632.9225999979826,Correct
3,103,282,B,72.97378941792059,45.45408177080843,3.648689470896029,0.7139910468342074,B,473.209499999939,Correct
3,103,283,B,50.07737470195535,19.009636336752802,2.5038687350977678,0.29860266931478097,B,507.6879000007466,Correct
3,103,284,A,47.5912690376489,68.04705299037053,2.379563451882445,1.0688806088649172,A,534.7760999975435,Correct
3,103,285,A,64.03532140669013,83.85903330157656,3.2017660703345063,1.3172546147868736,B,538.0205000001297,Incorrect
3,103,286,B,48.427531674028764,24.96898192156007,2.4213765837014383,0.3922118508619473,B,662.2328000012203,Correct
3,103,287,A,22.692153274119523,42.571236848673465,1.134607663705976,0.6687074246901183,A,520.9852000007231,Correct
3,103,288,B,40.83443267090871,30.38783615275982,2.0417216335454356,0.4773310140800029,B,628.6060999991605,Correct
3,103,289,A,28.133646319113367,44.09722072604024,1.4066823159556685,0.6926775233832779,A,623.9562000009755,Correct
3,103,290,B,85.26846129113281,60.76611474670359,4.26342306455664,0.9545118983771921,B,549.4560999977693,Correct
3,103,291,A,49.03091987894041,56.22084313570802,2.4515459939470206,0.8831149388688225,B,655.9960000013234,Incorrect
3,103,292,A,62.463149355727055,80.10981918181295,3.1231574677863527,1.2583620971099512,A,1243.5766000016883,Correct
3,103,293,B,84.65865766174281,63.07967074579948,4.232932883087141,0.9908531510293332,B,848.8297000003513,Correct
3,103,294,A,25.933528411845025,45.02065280402433,1.2966764205922514,0.7071827605446978,A,548.4388999975636,Correct
3,103,295,B,82.91727616694769,55.39153841414226,4.145863808347384,0.8700882507645307,B,560.3133999975398,Correct
3,103,296,B,45.12405814606589,22.828172202730524,2.2562029073032948,0.3585840904349047,A,638.7068000003637,Incorrect
3,103,297,A,24.88792369488219,40.98347472526213,1.2443961847441094,0.6437669155773322,A,526.9937000011851,Correct
3,103,298,B,72.6729391006248,60.66227388006183,3.6336469550312405,0.9528807698582712,B,709.5839000030537,Correct
3,103,299,B,79.76472538336182,63.89801232757836,3.9882362691680906,1.0037076305365509,B,700.2451999978803,Correct
3,103,300,B,53.355897015533806,27.83516122254398,2.6677948507766907,0.4372336900411583,B,886.213099998713,Correct
3,103,301,B,68.57331690809174,46.6799637331069,3.428665845404587,0.7332471556688331,B,523.4275000002526,Correct
3,103,302,B,51.80230853384921,38.33095092514804,2.59011542669246,0.6021011691577798,B,562.9334000004746,Correct
3,103,303,B,77.09906189314626,51.312793650718994,3.8549530946573127,0.8060194778413389,B,531.1801999996533,Correct
3,103,304,A,21.31108788978693,41.27555172711229,1.0655543944893464,0.6483548503938071,A,501.7173999985971,Correct
3,103,305,A,60.00259335657986,83.91307879516759,3.000129667828993,1.3181035594149997,A,1277.1764999997686,Correct
3,103,306,A,36.71059771515074,62.9510690471721,1.835529885757537,0.9888330802710984,A,601.3284000000567,Correct
3,103,307,A,13.432376219100458,34.24860220862716,0.671618810955023,0.5379757854717113,A,648.5075000018696,Correct
3,103,308,A,56.549135024026356,69.34163579306768,2.8274567512013173,1.0892158679770023,B,1451.0219999974652,Incorrect
3,103,309,A,62.972406917133625,73.09417797412314,3.1486203458566813,1.1481606627184504,B,564.4719999982044,Incorrect
3,103,310,A,41.762911431604195,61.6363454546755,2.0881455715802097,0.968181450372656,A,672.8211999979976,Correct
3,103,311,B,46.56818759159716,37.48727506170458,2.328409379579858,0.5888487396847549,B,818.2616000012786,Correct
3,103,312,B,75.2455362000281,51.3963388736237,3.7622768100014046,0.8073318031339385,B,564.7887000013725,Correct
3,103,313,B,86.1182951677323,62.12534996463501,4.305914758386615,0.9758627152529613,B,465.975700000854,Correct
3,103,314,A,46.87412993270072,69.40876691634723,2.343706496635036,1.090270361195614,A,589.6187999969698,Correct
3,103,315,A,17.594691828142633,46.69451738974668,0.8797345914071316,0.733475763972745,A,511.2888000003295,Correct
3,103,316,A,18.0588848126919,46.95520303516997,0.902944240634595,0.7375706045155357,A,454.768999999942,Correct
3,103,317,B,54.32139971782545,41.9919193756055,2.7160699858912727,0.6596075271026857,B,615.2894000006199,Correct
3,103,318,A,60.48748668875552,69.21920127719932,3.024374334437776,1.087292671099013,A,765.6820000011066,Correct
3,103,319,A,33.0487823590388,59.544386362686794,1.65243911795194,0.9353210337976454,A,633.2956000005652,Correct
3,103,320,B,68.9333160280124,39.7601521799862,3.4466658014006204,0.6245510099712841,B,610.143900001276,Correct
3,103,321,B,54.87005044856906,29.969673884430897,2.743502522428453,0.4707625365290499,B,607.1330999984639,Correct
3,103,322,A,51.8588508316201,66.95504018830067,2.592942541581005,1.0517273118818737,A,2191.9411000017135,Correct
3,103,323,B,60.530443162322854,45.01852190445454,3.026522158116143,0.7071492884525278,B,530.9457000003022,Correct
3,103,324,A,27.158410396427122,50.28295727774618,1.357920519821356,0.789842845922684,A,569.9096999996982,Correct
3,103,325,B,40.69597551171692,27.63854556865728,2.0347987755858457,0.4341452585720022,A,1279.4462999991083,Incorrect
3,103,326,A,63.926326193848965,88.36985778403456,3.1963163096924485,1.3881104800654889,A,505.4173000025912,Correct
3,103,327,A,58.13061822563212,68.27097425964635,2.9065309112816062,1.0723979559376142,B,1082.279700000072,Incorrect
3,103,328,A,23.097403751848788,52.57348979789992,1.1548701875924394,0.8258224466133015,A,506.8245999973442,Correct
3,103,329,B,62.68424112127315,41.06007887080438,3.134212056063658,0.6449702106816827,B,576.6695000020263,Correct
3,103,330,B,62.317144890543055,46.39628075105267,3.115857244527153,0.728791073806983,B,491.98990000149934,Correct
3,103,331,B,54.72365021236225,31.078270386546727,2.7361825106181126,0.4881763296632621,B,667.7101999994193,Correct
3,103,332,B,45.91416821424449,19.047711832134215,2.2957084107122245,0.29920075779764116,B,423.03399999946123,Correct
3,103,333,A,52.932855095936915,62.12828560779982,2.646642754796846,0.9759088282279619,A,536.7267000001448,Correct
3,103,334,A,42.01655713091507,51.48330430873469,2.100827856545753,0.8086978529942432,A,603.2076999981655,Correct
3,103,335,B,48.31899526363496,29.798411156984493,2.4159497631817484,0.468072347897153,B,600.1959999994142,Correct
3,103,336,A,48.206978735514355,67.5012087347326,2.410348936775718,1.0603065073473354,A,509.44170000002487,Correct
3,103,337,B,68.86731327722094,43.599841478810916,3.443365663861047,0.6848647084375595,B,608.2224999991013,Correct
3,103,338,B,33.457558049472155,11.000422069451297,1.6728779024736076,0.17279422579887613,A,548.961500000587,Incorrect
3,103,339,B,56.77552388510158,37.99699335393125,2.838776194255079,0.5968553758960532,B,875.2625999986776,Correct
3,103,340,A,53.974719803668826,70.72577473955774,2.698735990183441,1.1109578717062059,A,493.82230000264826,Correct
3,103,341,A,18.821610205617436,32.98717894731122,0.9410805102808717,0.5181613952176242,A,512.5547999996343,Correct
3,103,342,A,15.128715803086333,37.187341356695185,0.7564357901543167,0.5841373920636475,A,544.309400000202,Correct
3,103,343,A,18.374810204711952,47.805263067816355,0.9187405102355976,0.7509233162838965,A,544.5817999971041,Correct
3,103,344,A,58.36347558732504,76.92321296964771,2.9181737793662523,1.2083070037798418,A,484.21719999896595,Correct
3,103,345,A,58.511867190814186,69.79883388206868,2.9255933595407093,1.0963975187652066,B,570.0276999996277,Incorrect
3,103,346,B,82.30713813048088,52.9013243757946,4.1153569065240445,0.8309720601208348,B,464.9447000010696,Correct
3,103,347,B,58.662748381528665,32.971491657754825,2.933137419076433,0.5179149798494985,B,519.8228000008385,Correct
3,103,348,B,83.91915986820655,53.70894892485715,4.195957993410327,0.8436581968718032,B,615.8510000022943,Correct
3,103,349,B,66.63861567950762,46.651979874949525,3.331930783975381,0.7328075862528015,B,496.66090000027907,Correct
3,103,350,B,62.23462477304616,53.37871334741039,3.1117312386523075,0.8384708685514995,B,479.0551999976742,Correct
3,103,351,B,60.85761629471631,46.16991478497167,3.0428808147358155,0.7252353255266688,B,448.45790000181296,Correct
3,103,352,B,64.13954026417814,52.850967871899144,3.206977013208907,0.8301810620073429,B,446.54739999896265,Correct
3,103,353,B,66.4296711887467,34.65419621617512,3.3214835594373344,0.5443468412439749,B,404.36079999926733,Correct
3,103,354,B,66.2606697479525,35.447428752059466,3.3130334873976257,0.5568069087805882,B,366.27389999921434,Correct
3,103,355,B,44.475938742908,20.78595804961832,2.2237969371454,0.32650506553253267,B,359.1386000007333,Correct
3,103,356,B,87.07570165938986,65.49430352272691,4.353785082969494,1.028782113994895,A,676.3919000004535,Incorrect
3,103,357,B,53.74443679586341,27.66653328179165,2.68722183979317,0.4345848885418708,B,315.5708999984199,Correct
3,103,358,B,44.80855315254631,31.318580642705676,2.2404276576273157,0.4919511143399182,B,454.9234999976761,Correct
3,103,359,A,51.76020102252048,75.42402752963845,2.588010051126024,1.1847578539563324,A,540.6997999998566,Correct
3,103,360,A,15.792943235022264,43.86083908048409,0.7896471617511132,0.6889644491776645,A,536.0499999987951,Correct
3,103,361,B,33.629190871287804,10.263182583773933,1.68145954356439,0.1612136950381745,B,1453.2829000017955,Correct
3,103,362,B,38.00434726930452,27.039795474019478,1.9002173634652257,0.42474011407875056,B,661.9013999988965,Correct
3,103,363,A,61.94596829762209,80.5432525857578,3.097298414881104,1.265170453098219,A,741.9855999978608,Correct
3,103,364,B,68.85240305283091,36.15621663297078,3.442620152641546,0.5679405227787105,B,488.38980000073207,Correct
3,103,365,A,10.526649460856486,35.00909482652351,0.5263324730428244,0.5499215755791734,A,516.815900002257,Correct
3,103,366,A,22.321309612803596,46.48241449874225,1.1160654806401797,0.7301440595518217,A,677.6429000019561,Correct
3,103,367,B,68.29774688987213,48.9635905739661,3.4148873444936068,0.7691182822027517,B,905.8020000011311,Correct
3,103,368,B,45.6985109056603,16.89999055523575,2.284925545283015,0.2654644308703276,A,580.3100000011909,Incorrect
3,103,369,A,26.916297075935617,42.621623178251994,1.345814853796781,0.6694988913043446,A,666.0932000013418,Correct
3,103,370,B,48.95939371218479,37.52051340494164,2.4479696856092397,0.5893708463594101,B,574.2656000002171,Correct
3,103,371,B,81.630916402722,66.70270997415236,4.0815458201361,1.0477637181466382,B,911.4298000022245,Correct
3,103,372,A,47.55398681409553,76.68717980795353,2.3776993407047766,1.2045994035459315,A,1191.1498000008578,Correct
3,103,373,A,42.69452885997163,53.24979230607731,2.1347264429985815,0.8364457815697739,B,569.3621999998868,Incorrect
3,103,374,A,65.35776844104662,78.20964904202357,3.267888422052331,1.2285142943512863,B,460.6934999974328,Incorrect
3,103,375,B,31.433490145290452,13.999708440301728,1.5716745072645226,0.21990690594225465,A,1034.7962000014377,Incorrect
3,103,376,B,40.47774590157883,29.48026826111044,2.0238872950789415,0.4630749709748045,B,717.250800000329,Correct
3,103,377,B,65.01626811400654,47.72655339975874,3.250813405700327,0.7496869477092151,B,582.3998000014399,Correct
3,103,378,B,51.430044210908115,40.10178324552,2.5715022105454057,0.6299173381998793,B,399.8113000016019,Correct
3,103,379,A,69.21741228464117,85.36732834017839,3.4608706142320584,1.3409468578504609,A,1444.5591999974567,Correct
3,103,380,A,58.62598947201566,70.93847612398089,2.9312994736007827,1.1142989772397667,B,496.3954000013473,Incorrect
3,103,381,B,81.55401388791822,51.99530986870106,4.0777006943959115,0.8167404175231806,B,530.8672999999544,Correct
3,103,382,B,84.33717530869063,54.71228682209316,4.216858765434532,0.8594185917069276,B,461.0968999986653,Correct
3,103,383,A,30.197474076067344,55.8516064773184,1.5098737038033674,0.877314983001658,A,508.84140000198386,Correct
3,103,384,A,20.391886165887975,48.794417208044024,1.0195943082943986,0.7664609131849324,A,583.896399999503,Correct
3,103,385,B,81.4510167338107,60.44407870295406,4.072550836690535,0.9494533680310187,B,707.5135000013688,Correct
3,103,386,B,51.47144268933635,20.98100736164519,2.573572134466817,0.3295688929612895,B,567.8999999981897,Correct
3,103,387,B,84.90675791712597,66.97070055318926,4.245337895856299,1.0519733043183064,A,682.672700000694,Incorrect
3,103,388,B,44.139704064703196,28.852891795690354,2.20698520323516,0.4532201645008101,B,887.7054000004136,Correct
3,103,389,B,35.04747110091616,13.377715772963086,1.7523735550458082,0.21013666797076563,B,823.7166999970214,Correct
3,103,390,B,74.75323476024097,47.13869729617748,3.7376617380120485,0.7404529256273212,B,440.5308999994304,Correct
3,103,391,A,38.181688631895234,46.95206937864691,1.9090844315947617,0.737521381153977,B,776.890100001765,Incorrect
3,103,392,A,41.99104143850141,63.10728683079949,2.0995520719250704,0.991286943478118,B,524.7277999988,Incorrect
3,103,393,B,47.0886664421226,25.160245955755215,2.35443332210613,0.3952162192855645,B,598.6940000002505,Correct
3,103,394,A,20.208042320252986,49.93140487434138,1.0104021160126493,0.7843206736832423,A,565.8612999977777,Correct
3,103,395,B,69.9113090972221,54.4225459721721,3.4955654548611053,0.8548673530791433,B,475.66469999947003,Correct
3,103,396,B,47.69712742419297,19.00779901306191,2.3848563712096484,0.29857380870173306,B,499.38680000195745,Correct
3,103,397,A,22.22345583236198,35.39324833571686,1.1111727916180991,0.5559558447908363,A,600.6729000000632,Correct
3,103,398,B,62.85449557152789,50.11207600690376,3.1427247785763943,0.7871586491971111,B,434.3451999993704,Correct
3,103,399,B,64.00905323664493,54.2815883825358,3.2004526618322466,0.8526531964387979,B,486.21730000013486,Correct
3,103,400,B,68.1593217547302,36.719009145543254,3.4079660877365097,0.5767808468936755,B,433.01100000098813,Correct
3,103,401,A,65.11047166499642,86.61461047790871,3.2555235832498215,1.3605391198546974,A,508.0698999991,Correct
3,103,402,B,62.71497485584018,54.91724447480504,3.135748742792009,0.8626380589872108,B,372.6163000028464,Correct
3,103,403,A,29.880540492072356,42.358103513464485,1.4940270246036178,0.6653595340894801,A,1077.7635000013106,Correct
3,103,404,A,48.937000902982454,78.41194312557849,2.4468500451491226,1.2316919223850904,A,1345.604899997852,Correct
3,103,405,B,60.177600643419915,45.90274753169521,3.008880032170996,0.7210386721258034,B,613.4889999993902,Correct
3,103,406,B,47.61902386903332,37.62468216838849,2.3809511934516663,0.5910071254693008,B,616.8185000024096,Correct
3,103,407,A,68.39786197365858,89.16752864052127,3.4198930986829286,1.4006402645790954,A,786.4979000005405,Correct
3,103,408,A,34.608968094322925,43.20986139740013,1.7304484047161464,0.6787389156435272,A,605.2596000008634,Correct
3,103,409,B,69.38667472528205,53.578947241190065,3.4693337362641024,0.8416161351999891,B,520.6135000007635,Correct
3,103,410,A,67.37110782777214,86.7185361389056,3.3685553913886066,1.362171580320234,A,672.6233000008506,Correct
3,103,411,A,45.77676021532659,54.32111208874885,2.2888380107663293,0.8532740333642055,A,698.5280999979295,Correct
3,103,412,B,49.80226796808043,19.733478016957317,2.4901133984040213,0.30997274783924395,B,583.5202000016579,Correct
3,103,413,A,33.44499685007219,60.18559108420441,1.6722498425036094,0.9453930540104796,A,542.4638000004052,Correct
3,103,414,B,56.31259658995204,46.09363343959754,2.8156298294976017,0.7240371009555022,B,522.6239999974496,Correct
3,103,415,A,36.0093647631438,46.82885325010301,1.80046823815719,0.7355859067327907,A,550.5150000026333,Correct
3,103,416,A,20.979769456620353,45.107200105984994,1.0489884728310175,0.708542242384836,A,614.2605000022741,Correct
3,103,417,B,72.35743707165838,58.81205839296538,3.6178718535829195,0.92381765294917,B,576.4588999991247,Correct
3,103,418,B,80.46943640107268,54.91225987394774,4.023471820053635,0.8625597610600391,B,559.3832000013208,Correct
3,103,419,B,75.23700496656441,46.521052965443175,3.761850248328221,0.7307509911674898,B,503.1317000029958,Correct
3,103,420,B,52.08654610531477,28.924042994999986,2.6043273052657385,0.4543378049260363,B,544.5154999979422,Correct
3,103,421,B,66.06814576581775,54.46531461252356,3.303407288290887,0.8555391613108041,B,526.3183999995817,Correct
3,103,422,A,29.911236203742046,49.02483398715277,1.4955618101871022,0.7700802914874918,A,719.1534000012325,Correct
3,103,423,B,63.595101167214665,55.53984299025514,3.1797550583607337,0.8724178135985805,B,594.1802999986976,Correct
3,103,424,B,62.32995772545649,52.98967117740152,3.1164978862728243,0.832359808435317,B,585.6200999987777,Correct
3,103,425,B,73.437828311088,41.51152760111182,3.6718914155544,0.6520615507547142,B,432.8757000002952,Correct
3,103,426,B,46.369876500002476,34.29022864748052,2.318493825000124,0.5386296520441954,A,612.7691000001505,Incorrect
3,103,427,B,72.1094686666022,47.80215099911035,3.60547343333011,0.7508744320229753,B,427.6338999989093,Correct
3,103,428,B,54.115826831394926,38.9689333234846,2.7057913415697463,0.6121225732364485,A,1101.0681000007025,Incorrect
3,103,429,B,71.33951135279426,46.98743737805651,3.5669755676397132,0.7380769403895638,B,528.4002999978838,Correct
3,103,430,B,73.04469928235054,51.81125456467634,3.6522349641175267,0.8138492835682892,B,424.6832999997423,Correct
3,103,431,A,29.982311334211943,49.88796583308394,1.499115566710597,0.7836383348187753,A,518.5090999984823,Correct
3,103,432,A,40.93209700743343,58.35104026277935,2.046604850371671,0.9165759970943491,A,617.2919000018737,Correct
3,103,433,A,46.7079709165469,66.36360299793395,2.335398545827345,1.0424370382202943,A,589.4407000014326,Correct
3,103,434,B,59.084452110955304,39.17278985472056,2.9542226055477654,0.6153247441410344,B,568.9791000004334,Correct
3,103,435,B,60.5843417374839,32.78686388482657,3.0292170868741954,0.5150148535740984,B,473.3148000013898,Correct
3,103,436,B,89.80403044080403,65.41383876393532,4.490201522040201,1.0275181765194323,B,591.3629999995464,Correct
3,103,437,B,65.02376659721618,55.225772956761055,3.2511883298608093,0.867484413048892,B,509.77969999803463,Correct
3,103,438,A,34.43361228302125,48.79230872593684,1.7216806141510625,0.7664277932254416,A,620.9495000002789,Correct
3,103,439,A,17.559173878971627,36.49894978859403,0.8779586939485813,0.5733241625979487,A,501.21930000022985,Correct
3,103,440,B,77.38812375741564,46.92312232847053,3.869406187870782,0.7370666819530911,B,483.8621000017156,Correct
3,103,441,B,55.22445030282234,45.12432522055356,2.7612225151411174,0.7088112430554384,A,682.0255999991787,Incorrect
3,103,442,A,29.528302832912765,40.16757598219175,1.4764151416456384,0.630950808090817,A,570.8162000009906,Correct
3,103,443,B,42.241712425181674,24.726891118378077,2.1120856212590837,0.38840909741805635,B,571.6692000023613,Correct
3,103,444,A,12.996500343077692,40.798393316726056,0.6498250171538845,0.6408596636104674,A,534.6862000005785,Correct
3,103,445,B,53.807389771708465,37.52683679006975,2.6903694885854232,0.5894701738607316,B,677.6189999982307,Correct
3,103,446,B,49.93601227293624,39.58708326624032,2.496800613646812,0.6218324498313401,B,558.461199998419,Correct
3,103,447,A,60.48419307661703,70.02241558823965,3.0242096538308516,1.0999095319931256,B,498.31300000005285,Incorrect
3,103,448,A,15.843043061385085,45.28955823782513,0.7921521530692544,0.7114067172213926,A,464.96530000149505,Correct
3,103,449,B,76.13447107403928,44.393929787260966,3.8067235537019646,0.6973382184182007,B,520.4352000000654,Correct
3,103,450,A,57.0440020744564,73.8691120798725,2.85220010372282,1.1603332991866422,B,489.26959999880637,Incorrect
3,103,451,B,35.66012164000774,15.853384691183749,1.7830060820003868,0.24902438440177876,A,581.1796000016329,Incorrect
3,103,452,B,79.5929768980506,56.37272290008971,3.97964884490253,0.8855006606288746,B,433.0673000004026,Correct
3,103,453,B,82.95681817932045,53.713059676605624,4.147840908966023,0.8437227684092719,B,507.8195999994932,Correct
3,103,454,A,35.236967742554185,44.06205464465987,1.7618483871277093,0.6921251358686773,A,695.9980999999971,Correct
3,103,455,B,75.40218727642679,43.43592076015817,3.7701093638213394,0.6822898478101064,B,507.83839999712654,Correct
3,103,456,A,66.61654282294472,83.8287286926667,3.3308271411472363,1.3167785911032683,B,506.4920000004349,Incorrect
3,103,457,B,75.98497327184197,60.97561950035238,3.799248663592098,0.957802791351968,B,534.3420999997761,Correct
3,103,458,B,80.27231287720389,55.3728402359417,4.013615643860194,0.8697945404681787,B,454.3556000026001,Correct
3,103,459,B,54.462799969073764,26.696695363963045,2.723139998453688,0.41935071015275494,B,967.4712000014551,Correct
3,103,460,B,70.05620979732241,57.047731206438776,3.5028104898661208,0.8961036663105663,B,562.800799998513,Correct
3,103,461,A,49.58684234066372,69.02000279008607,2.479342117033186,1.084163668580407,A,625.7502999978897,Correct
3,103,462,B,63.08909564929843,46.575691255179905,3.1544547824649216,0.7316092474156979,B,482.2978000011062,Correct
3,103,463,A,53.7205866113848,67.78389855744003,2.6860293305692404,1.0647469886986467,B,418.3013000001665,Incorrect
3,103,464,B,50.51887437797009,30.923047243142435,2.5259437188985046,0.4857380902283319,B,969.7519000001193,Correct
3,103,465,A,57.27175384692101,80.25950902551199,2.8635876923460506,1.2607134196763607,A,672.7105999998457,Correct
3,103,466,A,33.14528893515721,50.37790824500539,1.6572644467578608,0.7913343322286481,A,776.1800999978732,Correct
3,103,467,B,70.01918408906975,53.42470547791337,3.500959204453488,0.8391933112480552,B,551.9261000008555,Correct
3,103,468,A,44.97516229376889,61.89509421913362,2.2487581146884446,0.9722458664603912,A,633.011499998247,Correct
3,103,469,A,38.48639930617672,53.096652346472254,1.9243199653088363,0.8340402647094424,A,561.8857999979809,Correct
3,103,470,A,63.667122768461404,78.9907170292013,3.18335613842307,1.240783281603645,B,535.973500002001,Incorrect
3,103,471,A,24.933266221844463,55.728622627255795,1.2466633110922232,0.8753831572023236,A,457.8972999988764,Correct
3,103,472,A,20.18466975013932,48.192683857683775,1.009233487506966,0.7570089078203738,A,617.6419000003079,Correct
3,103,473,B,42.99626515212195,34.626654482207066,2.1498132576060978,0.543914216698469,A,524.4213000005402,Incorrect
3,103,474,A,40.39885128997022,68.57909123942305,2.019942564498511,1.077237846138178,A,1790.64389999985,Correct
3,103,475,A,54.757408213941964,81.04068258644037,2.737870410697098,1.2729840652773168,B,1345.6910999993852,Incorrect
3,103,476,A,42.78413469503789,50.91603476436739,2.1392067347518946,0.7997872038282956,A,1249.9821999990672,Correct
3,103,477,B,48.49371286642383,36.297798390627,2.4246856433211916,0.570164483827386,B,924.4641000004776,Correct
3,103,478,B,64.13074531137879,48.21542905966525,3.2065372655689397,0.7573661886176208,B,601.2222000026668,Correct
3,103,479,A,41.90710107678845,66.70481255242572,2.0953550538394223,1.0477967453689243,A,663.0195999969146,Correct
3,103,480,B,87.35013894276442,64.79960650262527,4.367506947138221,1.0178698387207847,B,547.1760000000359,Correct
3,103,481,B,69.85066557458032,40.65449132324379,3.4925332787290158,0.6385992563826633,B,536.7127999998047,Correct
3,103,482,B,77.40851997583371,54.55163953247015,3.870425998791686,0.8568951499824337,B,506.36410000151955,Correct
3,103,483,A,38.64304198058113,63.33504898203701,1.9321520990290566,0.9948646229835857,A,683.4983999979158,Correct
3,103,484,A,56.59457999154591,85.4975410005439,2.829728999577296,1.3429922335365043,A,886.8180999998003,Correct
3,103,485,A,36.23066640817077,46.99063547930203,1.8115333204085386,0.7381271760464557,A,908.0916000020807,Correct
3,103,486,A,55.87076288599417,79.43154940838126,2.7935381442997085,1.2477078604231262,B,535.9657000008156,Incorrect
3,103,487,A,31.692507875955144,55.994419675819984,1.584625393797757,0.8795582874778991,A,541.4715000006254,Correct
3,103,488,A,66.0085946320375,80.54789458387538,3.300429731601875,1.2652433694341396,B,635.0173999999242,Incorrect
3,103,489,B,46.71703012366231,20.411479961546352,2.3358515061831158,0.3206227774804465,B,1009.949899998901,Correct
3,103,490,A,23.808008613358275,35.1564362159395,1.190400430667914,0.5522360087119683,A,655.1861000007193,Correct
3,103,491,A,57.29281415445602,67.8988333667004,2.864640707722801,1.0665523804607175,B,690.5215000006137,Incorrect
3,103,492,A,50.17658446177995,77.15170166314431,2.5088292230889975,1.2118960957844278,A,661.8744999977935,Correct
3,103,493,B,88.11475444296559,63.85366280129284,4.405737722148279,1.0030109898067072,B,417.43270000006305,Correct
3,103,494,B,86.0779590332857,57.941163566152724,4.303897951664285,0.9101376689993498,B,591.5240999966045,Correct
3,103,495,B,48.816230707319015,22.047604015596857,2.4408115353659507,0.34632295402327956,B,957.8799000009894,Correct
3,103,496,A,30.48594210064075,47.614915722446106,1.5242971050320375,0.7479333471746691,A,572.28860000032,Correct
3,103,497,A,64.64224327697416,84.47681852264436,3.232112163848708,1.3269587623468884,B,357.80370000065886,Incorrect
3,103,498,A,38.50421005024302,64.27049523827885,1.9252105025121509,1.0095585784157732,A,593.7850999980583,Correct
3,103,499,B,56.45500395217719,34.65631103544394,2.822750197608859,0.5443800607473679,B,631.0480999964057,Correct
3,103,500,B,60.30237328147965,48.49628298535509,3.0151186640739827,0.761777831766016,B,618.405500001245,Correct
3,103,501,B,64.31614459224537,43.51049270286017,3.215807229612268,0.683461221146889,B,554.4316000014078,Correct
3,103,502,A,55.52682103936599,66.6834362111044,2.7763410519683,1.0474609665846457,B,942.572800002381,Incorrect
3,103,503,B,48.96212418603757,26.628727422317517,2.448106209301878,0.41828307222198896,B,969.6194999996806,Correct
3,103,504,B,52.451397386488786,40.83952436527788,2.622569869324439,0.6415057486102917,B,516.1051000031875,Correct
3,103,505,B,36.59207284181806,18.851234396084884,1.829603642090903,0.29611449744919743,A,785.6032999989111,Incorrect
3,103,506,B,60.84250520028738,27.95779124330401,3.042125260014369,0.4391599579028046,B,498.74800000179675,Correct
3,103,507,A,38.153520457683314,70.55705609740787,1.9076760228841658,1.1083076454726972,A,556.4726999982668,Correct
3,103,508,B,36.02304281591732,23.884853301406157,1.8011521407958662,0.3751823983188375,A,645.0432000019646,Incorrect
3,103,509,A,67.40562598691214,86.25993756707594,3.370281299345607,1.3549679307992,A,843.0861999986519,Correct
3,103,510,A,40.5341668499547,63.64440128788813,2.0267083424977352,0.9997239176407507,A,682.5532000002568,Correct
3,103,511,B,71.95490596448349,61.27987981805008,3.5977452982241744,0.9625821012462578,B,718.4453999980178,Correct
3,103,512,B,46.792675480395964,31.632624783104113,2.339633774019798,0.4968841081618116,A,1731.1795999994501,Incorrect
3,103,513,A,43.572269866428044,67.34488277751672,2.178613493321402,1.0578509449535614,A,527.3115000018151,Correct
3,103,514,A,39.91785405522603,66.47919373978463,1.9958927027613016,1.0442527333473999,A,789.1423000000941,Correct
3,103,515,A,24.951531441412452,37.35492691194129,1.2475765720706227,0.586769819809692,A,494.19789999956265,Correct
3,103,516,B,37.23122016912677,24.622305788122944,1.8615610084563385,0.38676627489204235,A,594.6794999981648,Incorrect
3,103,517,B,47.02616056290136,30.99662871626519,2.351308028145068,0.4868939053053457,B,417.59779999847524,Correct
3,103,518,A,38.40285627915722,54.28167534926997,1.920142813957861,0.8526545625090636,A,710.0122000010742,Correct
3,103,519,A,46.6074211524626,74.9960388115055,2.33037105762313,1.1780350228928034,A,1066.1878999999317,Correct
3,103,520,A,34.282550151723534,47.466907095523396,1.7141275075861768,0.7456084330996274,A,1290.2304000017466,Correct
3,103,521,A,45.77575828660687,72.2382011260542,2.2887879143303436,1.1347150098307688,B,1060.4194000006828,Incorrect
3,103,522,B,33.48414792992738,15.632803009107342,1.674207396496369,0.24555949544214017,B,955.879900000582,Correct
3,103,523,B,43.05086784746835,17.3255355349444,2.1525433923734174,0.27214887578045116,B,541.5769999999611,Correct
3,103,524,A,40.95831321427683,67.93658638730133,2.047915660713841,1.067145403521571,B,830.9865999981412,Incorrect
3,103,525,A,47.29254143937041,64.58754305207141,2.3646270719685205,1.01453875382901,B,604.205900002853,Incorrect
3,103,526,A,24.444005001472938,46.17908700977401,1.2222002500736469,0.7253794024969492,A,606.4382000004116,Correct
3,103,527,B,37.415530997621794,16.903567171926696,1.8707765498810898,0.26552061223393253,B,1231.2846000022546,Correct
3,103,528,A,54.86450033932839,64.11168502117982,2.7432250169664196,1.0070639933590064,B,634.0486999979476,Incorrect
3,103,529,A,47.271320655338904,64.52522380951827,2.363566032766945,1.013559845456099,A,763.2105000011506,Correct
3,103,530,B,80.81346637423607,56.36220430560108,4.040673318711804,0.8853354349330169,B,594.3701000032888,Correct
3,103,531,B,42.670408634215676,17.713706950242326,2.133520431710784,0.27824625811361875,A,787.7688000007765,Incorrect
3,103,532,B,55.717280978843135,49.077464171251016,2.7858640489421567,0.7709070044860924,B,805.7229000005464,Correct
3,103,533,B,71.1101574304025,41.89648913224009,3.555507871520125,0.6581085123452504,B,530.9443000005558,Correct
3,103,534,A,48.156773987193354,77.15760225118478,2.407838699359668,1.2119887820046271,A,665.8510000015667,Correct
3,103,535,B,82.9291690833401,67.33998030955443,4.146458454167004,1.0577739371668877,B,542.0419000001857,Correct
3,103,536,A,20.774138551650466,38.69221263604427,1.0387069275825234,0.6077758548426542,A,548.6648000005516,Correct
3,103,537,B,69.51591973694356,47.18372764222013,3.475795986847178,0.7411602606489021,B,459.0606999990996,Correct
3,103,538,A,69.51096771617767,87.57208023227477,3.475548385808884,1.375579019586452,A,1219.3078999989666,Correct
3,103,539,B,52.16769087837453,25.915823188973967,2.608384543918726,0.40708479871106307,B,497.6922999994713,Correct
3,103,540,B,32.3125770688325,12.570955355168103,1.615628853441625,0.19746410496200692,A,688.8852000010957,Incorrect
3,103,541,A,18.321104568527424,33.965962131613935,0.9160552284263713,0.5335360855239373,A,548.4929000012926,Correct
3,103,542,A,34.65498297124163,59.8674287882692,1.7327491485620814,0.9403953723526832,A,752.3814000014681,Correct
3,103,543,B,77.85067968952018,46.235045560178584,3.892533984476009,0.7262583973512321,B,451.4263999990362,Correct
3,103,544,A,29.556854824795412,49.47373468160021,1.4778427412397708,0.777131607106829,A,434.6140000016021,Correct
3,103,545,A,35.60385897254567,62.0935404037369,1.7801929486272838,0.9753630518388042,A,448.1481000002532,Correct
3,103,546,A,47.933206299521125,74.38723329890857,2.396660314976056,1.168471928263606,A,479.03230000156327,Correct
3,103,547,A,20.15369251683491,37.58702193268976,1.0076846258417453,0.5904155598702828,A,573.150700001861,Correct
3,103,548,B,54.593948931861505,43.1331669092448,2.7296974465930752,0.6775342014407291,A,421.41909999918425,Incorrect
3,103,549,B,75.85200796529274,59.08060695576391,3.792600398264637,0.9280360039092695,B,561.0166000005847,Correct
