subject,day,trial,cat,x,y,xt,yt,resp,rt,fb
17,417,0,A,14.870371902948339,41.29450921749546,0.7435185951474169,0.6486526339563987,A,1005.0124999997934,Correct
17,417,1,A,13.180919825738272,32.16088693356308,0.6590459912869135,0.5051820306170687,A,495.52050000056624,Correct
17,417,2,A,19.518490223034316,40.061525259761865,0.9759245111517159,0.629284967238349,A,544.0838000013173,Correct
17,417,3,B,63.036849365143354,39.18301670162356,3.1518424682571675,0.6154853870765337,B,381.3427999994019,Correct
17,417,4,A,39.47856056529376,60.216109402710096,1.9739280282646883,0.9458724346365666,A,2118.194200000289,Correct
17,417,5,A,51.78502558265957,68.60072269998786,2.5892512791329785,1.077577632326162,A,524.5592999999644,Correct
17,417,6,B,77.53778865702643,59.90909536571474,3.8768894328513217,0.9410498694206988,B,463.0873000005522,Correct
17,417,7,B,60.01975097769326,44.266851770049115,3.0009875488846633,0.6953420815916732,B,335.92379999936384,Correct
17,417,8,B,69.07138576048477,37.12875728272343,3.4535692880242386,0.5832171555816122,B,345.8864000003814,Correct
17,417,9,A,38.43666349999104,55.147899933114594,1.9218331749995519,0.8662611864538893,B,549.1937000006146,Incorrect
17,417,10,A,42.15499673203079,58.63500969708417,2.1077498366015393,0.9210365785376297,A,553.8765000001149,Correct
17,417,11,A,56.29233704394452,69.42276772220427,2.814616852197226,1.0904902853397378,A,628.6892000007356,Correct
17,417,12,A,11.395312123251724,31.30063543644999,0.5697656061625862,0.4916692316992182,A,564.69030000153,Correct
17,417,13,B,38.437830820610586,18.999437004361862,1.9218915410305295,0.2984424585762265,B,374.647399999958,Correct
17,417,14,B,50.89866630369255,41.43908464742704,2.5449333151846276,0.6509236194992118,B,356.4291000002413,Correct
17,417,15,B,72.3259708200459,52.44827745709891,3.6162985410022945,0.8238556157633055,B,473.7148000003799,Correct
17,417,16,B,69.45933042397108,47.435913933847175,3.472966521198554,0.74512159365446,B,498.25789999886183,Correct
17,417,17,B,78.8338230284617,52.8231061052994,3.9416911514230843,0.8297434104010138,B,482.0082000005641,Correct
17,417,18,B,72.09955531498372,44.48208842349163,3.6049777657491857,0.6987230110378645,B,422.19049999948766,Correct
17,417,19,A,53.82796186344575,73.16108831516048,2.6913980931722876,1.1492116878977112,A,808.9337000001251,Correct
17,417,20,B,53.79989407658719,45.586892875812524,2.6899947038293597,0.7160772387931874,B,1341.4013000001432,Correct
17,417,21,A,58.129336708069644,70.28990678648209,2.9064668354034824,1.1041112739096173,A,1089.552299999923,Correct
17,417,22,A,37.411118145056086,59.11213842278475,1.8705559072528044,0.9285312990350176,A,898.1483999996271,Correct
17,417,23,A,49.40856464851658,80.44854385155297,2.470428232425829,1.2636827717801757,A,622.8295999990223,Correct
17,417,24,A,41.46360347780515,72.620190994447,2.0731801738902575,1.1407152926522117,A,461.7429000008997,Correct
17,417,25,B,48.71079712120067,33.815373458846544,2.4355398560600334,0.5311706441835379,B,482.4503999989247,Correct
17,417,26,B,81.13901474758725,60.72590798788137,4.0569507373793625,0.9538803320864891,B,471.71240000170656,Correct
17,417,27,A,16.712370124471786,35.733173353757465,0.8356185062235894,0.561295374488075,A,506.4707000001363,Correct
17,417,28,A,18.91163150806173,32.06110547573807,0.9455815754030865,0.503614667142731,A,618.2487999994919,Correct
17,417,29,A,40.32324283067478,60.22681648013901,2.016162141533739,0.946040621015527,A,1167.7619000001869,Correct
17,417,30,A,20.665772299590962,47.433746953211774,1.0332886149795482,0.7450875548022367,A,548.4470000010333,Correct
17,417,31,A,22.307193708425565,51.157832676493236,1.1153596854212782,0.8035853565502352,A,401.71790000022156,Correct
17,417,32,A,38.75912852462403,50.56671852925802,1.9379564262312017,0.7943001572382994,A,1275.929699999324,Correct
17,417,33,A,67.91539860029914,83.10144956049938,3.3957699300149566,1.305354517209638,B,773.0268000013893,Incorrect
17,417,34,B,87.48739946259266,61.06725136201408,4.374369973129633,0.9592421412691235,B,612.8203999996913,Correct
17,417,35,B,67.38832590323103,40.86677881871938,3.3694162951615514,0.6419338605638389,B,578.0672000000777,Correct
17,417,36,B,64.51533313519622,40.07135814322862,3.2257666567598107,0.6294394218106629,B,537.266900000759,Correct
17,417,37,B,57.03659157310437,40.33422289687797,2.8518295786552184,0.6335684917054252,B,628.8342000007106,Correct
17,417,38,B,68.20913846760769,47.93832038282116,3.410456923380384,0.753013375700524,B,593.0472999989433,Correct
17,417,39,A,29.159008198471966,53.20662506966382,1.4579504099235983,0.8357677122058119,A,633.0238000009558,Correct
17,417,40,B,57.64425920797369,39.00763610956693,2.882212960398684,0.612730515178597,B,401.323299998694,Correct
17,417,41,B,84.69379969778346,61.13418217294584,4.234689984889173,0.9602934879887337,B,467.83500000128697,Correct
17,417,42,A,42.18959322985602,62.37777604199508,2.1094796614928013,0.9798278148040056,A,644.9075000000448,Correct
17,417,43,A,44.53270874240142,65.01420512522638,2.2266354371200707,1.0212407460019555,A,505.3917999994155,Correct
17,417,44,A,59.18614136503915,77.32360683152925,2.9593070682519573,1.2145963758549891,A,704.5605999992404,Correct
17,417,45,B,71.54217022815398,46.556223478842824,3.577108511407699,0.7313034483000862,B,395.0549000001047,Correct
17,417,46,A,63.42651699919922,74.51372241338977,3.1713258499599615,1.1704588146276722,A,516.4585000002262,Correct
17,417,47,B,76.39449978386752,61.220469908636275,3.8197249891933756,0.9616488925714336,B,682.7859000004537,Correct
17,417,48,A,24.078047554519696,37.136701130071046,1.2039023777259847,0.5833419372439548,A,629.0341999992961,Correct
17,417,49,A,53.38487750769275,60.64943579286757,2.6692438753846375,0.9526791096561931,A,675.137199999881,Correct
17,417,50,A,25.673913245371217,40.21056205263439,1.2836956622685607,0.6316260317063634,A,808.3913999998913,Correct
17,417,51,B,51.683673015597826,20.363599636237574,2.584183650779891,0.3198706750892387,B,496.95040000005974,Correct
17,417,52,B,71.69905340303177,58.34917979801797,3.5849526701515884,0.9165467729822161,B,525.6484000001365,Correct
17,417,53,A,30.41295623185053,62.338162795410994,1.5206478115925264,0.9792055713817387,A,596.298399999796,Correct
17,417,54,B,51.35268879582585,39.61671714229381,2.5676344397912927,0.6222979376678752,B,473.58559999884164,Correct
17,417,55,A,22.31654864619438,44.97933542983732,1.115827432309719,0.7065337487486402,A,509.71130000107223,Correct
17,417,56,B,40.86261922921624,16.177469509884133,2.0431309614608124,0.2541150968296243,B,501.7190999988088,Correct
17,417,57,B,71.80689828646638,45.86195340603247,3.590344914323319,0.7203978794983451,B,484.3735000013112,Correct
17,417,58,A,43.631184446526206,60.04158671742469,2.1815592223263103,0.9431310387066797,A,598.3513999999559,Correct
17,417,59,B,59.56917670785798,33.981479248053525,2.978458835392899,0.5337798278189948,B,463.4583000006387,Correct
17,417,60,A,20.63597458594794,52.43963077901756,1.031798729297397,0.823719794061614,A,552.574999999706,Correct
17,417,61,A,42.86338969631883,58.22674437821827,2.143169484815942,0.9146235619053067,A,549.0019999997457,Correct
17,417,62,A,12.373320042217628,35.969940128775264,0.6186660021108814,0.5650144982931253,A,491.93039999954635,Correct
17,417,63,A,52.69045258746573,60.07380928164688,2.634522629373287,0.9436371895618808,A,1076.1806000009528,Correct
17,417,64,B,58.97947059340057,40.14578730141597,2.948973529670029,0.6306085522935341,B,458.83060000051046,Correct
17,417,65,A,66.14498619516587,81.84693686854499,3.3072493097582933,1.2856486779252425,A,618.0312999986199,Correct
17,417,66,A,19.983815150446357,37.606113474186245,0.9991907575223179,0.5907154491028382,A,468.82390000064333,Correct
17,417,67,A,13.070007948648453,39.36663674910582,0.6535003974324226,0.618369684037644,A,559.0393000002223,Correct
17,417,68,B,53.36324896049475,28.67389225790579,2.6681624480247375,0.4504084463363104,B,349.36129999914556,Correct
17,417,69,A,35.48977043603498,46.41746511124643,1.774488521801749,0.7291238369587616,B,661.6890000004787,Incorrect
17,417,70,A,17.758480960670102,35.43814943218845,0.8879240480335051,0.5566611495649028,A,427.48129999927187,Correct
17,417,71,B,45.69509583842046,32.59875037499422,2.284754791921023,0.5120599734714467,B,437.42919999931473,Correct
17,417,72,A,61.406721751314095,77.39305461973892,3.0703360875657046,1.2156872591612269,A,710.5413999997836,Correct
17,417,73,A,15.91618836195385,34.82778107241199,0.7958094180976926,0.5470735057896158,A,411.805199999435,Correct
17,417,74,A,47.223984980480836,55.31793574909628,2.361199249024042,0.8689321028055652,A,1214.0640999987227,Correct
17,417,75,B,47.43048084008662,23.98741479230441,2.3715240420043306,0.37679343045057334,B,430.3395000006276,Correct
17,417,76,B,80.57240811025335,54.204543481947596,4.028620405512668,0.8514429779703753,B,364.20020000150544,Correct
17,417,77,B,77.97079059072976,59.59363022837588,3.898539529536488,0.9360945546310614,B,381.2438999993901,Correct
17,417,78,B,84.87688874807098,60.59180975577924,4.243844437403549,0.951773921982332,B,502.1262999998726,Correct
17,417,79,A,40.39543892899734,64.89444520744745,2.0197719464498674,1.0193595616125113,A,664.3325000004552,Correct
17,417,80,A,23.463761494877623,41.14461339148962,1.173188074743881,0.6462980758274801,A,469.31350000159,Correct
17,417,81,A,34.407666055881606,65.9474631678302,1.7203833027940802,1.035900329054694,A,1227.4271000005683,Correct
17,417,82,A,34.232423222442435,61.402451988481296,1.7116211611221217,0.964507460397064,A,1311.3159000004089,Correct
17,417,83,B,60.7373135909086,31.649859287978472,3.03686567954543,0.4971548271313192,B,750.2134000005753,Correct
17,417,84,A,35.210638404367366,65.87575478570362,1.7605319202183682,1.0347739364222457,A,514.1046000007918,Correct
17,417,85,A,37.359227140380455,67.13571287515992,1.8679613570190228,1.0545653118105804,A,476.01340000073833,Correct
17,417,86,A,53.4621455649233,61.02885705328827,2.673107278246165,0.9586390448779603,B,644.0251999993052,Incorrect
17,417,87,A,22.703470255797836,53.48245833958642,1.1351735127898919,0.8401004910778345,A,513.3241999992606,Correct
17,417,88,A,35.48110647684101,64.07942476799126,1.7740553238420507,1.0065572504869058,A,556.3793000001169,Correct
17,417,89,B,53.34907070882984,40.42522333905939,2.667453535441492,0.6349979233085782,B,735.4044000003341,Correct
17,417,90,A,31.730740571637135,47.473938490944676,1.5865370285818567,0.7457188820006274,A,723.8417999997182,Correct
17,417,91,B,38.23113337887675,16.444023187661564,1.9115566689438372,0.25830211220908894,B,561.9327000003977,Correct
17,417,92,B,54.17521125009044,36.98369842249879,2.7087605625045224,0.5809385763335131,B,411.03430000111985,Correct
17,417,93,B,78.03644061106533,62.28362493721839,3.9018220305532667,0.9783488927085368,B,624.0422999999282,Correct
17,417,94,B,64.48557576879716,43.96477422640323,3.2242787884398583,0.6905970586320113,B,398.12650000021677,Correct
17,417,95,A,27.207249327325236,52.403171238061496,1.3603624663662617,0.8231470889315096,A,561.4323000008881,Correct
17,417,96,B,60.15889118071171,48.55270170978618,3.0079445590355856,0.7626640550170042,B,580.529499999102,Correct
17,417,97,A,29.58740426332557,39.28734085568109,1.4793702131662787,0.6171241070564292,B,476.22640000008687,Incorrect
17,417,98,A,19.753663438211685,34.440213695437194,0.9876831719105843,0.5409856116682403,A,464.40009999969334,Correct
17,417,99,B,48.92588979405038,37.61935725372465,2.4462944897025185,0.5909234819053564,B,674.5773000002373,Correct
17,417,100,B,70.34029311839983,47.529370556001425,3.5170146559199913,0.7465896068424055,B,445.7075000009354,Correct
17,417,101,A,17.627053007526307,43.146233162991315,0.8813526503763154,0.6777394456746292,A,429.6678000009706,Correct
17,417,102,A,60.36158812966441,87.74117086131207,3.0180794064832206,1.3782350889763242,A,503.34879999900295,Correct
17,417,103,B,80.08149868228433,67.01712856963118,4.004074934114217,1.0527025938951797,B,690.3880999998364,Correct
17,417,104,A,17.86788174826339,35.58662171683102,0.8933940874131694,0.5589933467583765,A,590.0277000000642,Correct
17,417,105,A,18.339175172236985,46.1177088007893,0.9169587586118493,0.7244152758447652,A,754.708299999038,Correct
17,417,106,A,62.093882376882064,77.4023557643436,3.104694118844103,1.215833361199027,B,1617.9002999997465,Incorrect
17,417,107,B,60.300021623927805,37.460362340520994,3.0150010811963903,0.5884259956489625,B,596.966799999791,Correct
17,417,108,A,16.824699943816093,31.149360642758836,0.8412349971908045,0.489293012796551,A,562.2502000005625,Correct
17,417,109,B,68.24582333253457,51.41497214874718,3.412291166626728,0.8076244939351399,B,475.0752999989345,Correct
17,417,110,B,36.42171666111551,25.703363186224948,1.8210858330557755,0.40374748479197314,B,447.7781000005052,Correct
17,417,111,A,47.47795177421734,54.70329894290154,2.3738975887108666,0.8592774104307289,B,700.5023999990954,Incorrect
17,417,112,B,45.00365472417953,35.46553000835817,2.2501827362089766,0.557091242649632,A,503.26049999966926,Incorrect
17,417,113,B,66.46627319313531,34.88855673509008,3.3233136596567654,0.5480281676665484,B,748.49549999999,Correct
17,417,114,B,81.48021454368796,51.95873296700282,4.074010727184398,0.8161658688948492,B,483.98160000033386,Correct
17,417,115,A,50.99363165948226,75.4234088149939,2.549681582974113,1.1847481352094225,A,471.0251000014978,Correct
17,417,116,B,52.250169547719246,41.72059736517322,2.6125084773859624,0.6553456109290294,B,560.955400000239,Correct
17,417,117,B,58.02110520294549,47.36719129053834,2.9010552601472743,0.7440421008976884,B,660.3119999999763,Correct
17,417,118,A,59.23433669585129,71.77284751918188,2.9617168347925644,1.127405252467411,A,612.8594999991037,Correct
17,417,119,B,65.8384228879868,44.229318184345885,3.2919211443993395,0.6947525054061324,B,1139.7753000001103,Correct
17,417,120,A,15.908197127351428,35.16360818400949,0.7954098563675714,0.5523486657229708,A,413.7534000001324,Correct
17,417,121,A,18.426470876017458,37.48865375005069,0.9213235438008729,0.5888703960706535,A,488.2385000000795,Correct
17,417,122,B,60.92004441175021,42.104058669952714,3.0460022205875106,0.6613690070191856,B,467.5805999995646,Correct
17,417,123,A,32.332511246867114,63.68634834348567,1.6166255623433556,1.0003828204492753,A,655.1569999992353,Correct
17,417,124,A,47.50204932713976,63.66558104838647,2.3751024663569877,1.0000566085406826,A,975.7102000003215,Correct
17,417,125,A,40.20446673866623,58.330047112317246,2.0102233369333113,0.9162462374580117,A,1205.815999999686,Correct
17,417,126,B,44.0478068922419,29.695262258980627,2.202390344612095,0.46645208879617883,B,441.9729000001098,Correct
17,417,127,A,64.24656073308944,87.05263006042519,3.2123280366544718,1.3674195153675088,A,440.0722999998834,Correct
17,417,128,A,64.68602012765317,75.83420881222608,3.234301006382658,1.1912009664764192,A,629.8793000005389,Correct
17,417,129,A,48.58799930614337,57.47557400408426,2.429399965307168,0.902824205260438,A,702.9911999998149,Correct
17,417,130,A,47.5049487001385,68.5326810571656,2.375247435006925,1.076508836700019,A,1055.268199999773,Correct
17,417,131,B,67.37475330546847,54.883851192398396,3.3687376652734233,0.8621135185337712,B,563.4181000004901,Correct
17,417,132,B,58.20311615459904,35.48172357653086,2.910155807729952,0.5573456106236655,B,561.5526999990834,Correct
17,417,133,A,17.081007049887802,33.19116102380172,0.8540503524943901,0.5213655381824568,A,493.1391000009171,Correct
17,417,134,A,55.27652008796389,74.79667636735203,2.7638260043981946,1.1749034449430322,A,639.9160999990272,Correct
17,417,135,B,37.73811450834849,26.156535342049846,1.8869057254174242,0.410865896369728,B,439.09480000002077,Correct
17,417,136,B,47.69246247414095,20.12568244132291,2.3846231237070477,0.31613348053070567,B,456.22130000083416,Correct
17,417,137,B,81.61154103918918,52.289678687464416,4.080577051959459,0.8213643521155448,B,400.2299000003404,Correct
17,417,138,B,56.9002244443661,48.57971105282957,2.8450112222183055,0.7630883167854212,B,511.96579999850655,Correct
17,417,139,A,38.47956318115499,60.79048895650878,1.9239781590577494,0.9548947675694972,A,456.8139000002702,Correct
17,417,140,B,63.1280108430622,31.802442711736603,3.15640054215311,0.4995516019470098,B,340.16390000033425,Correct
17,417,141,A,58.859678036134675,67.49333340509398,2.9429839018067336,1.0601828019586492,A,498.2244000002538,Correct
17,417,142,A,66.42915001704152,80.87351606141215,3.3214575008520764,1.2703582196425427,A,531.0886000006576,Correct
17,417,143,A,44.47862896401519,76.36621581666908,2.22393144820076,1.1995577129605013,A,609.997999999905,Correct
17,417,144,A,39.30158474656274,68.76998321848772,1.9650792373281372,1.080236370333472,A,481.44609999872046,Correct
17,417,145,A,35.2198381618837,67.8607730007605,1.760991908094185,1.0659545296305688,A,503.8362999985111,Correct
17,417,146,B,33.20597524268079,17.930645234666475,1.6602987621340395,0.28165391671676515,B,422.99350000030245,Correct
17,417,147,B,63.89677644713786,34.261866036954316,3.194838822356893,0.5381841331998666,B,400.3759999995964,Correct
17,417,148,A,22.426143390025672,33.71100842031852,1.1213071695012835,0.5295312819918816,A,455.5930000005901,Correct
17,417,149,B,59.56729312777949,33.60876567699463,2.9783646563889747,0.5279252567353355,B,432.4431999993976,Correct
17,417,150,B,59.51251984657719,42.806511377610384,2.97562599232886,0.6724031083485433,B,512.4306000016077,Correct
17,417,151,B,39.99260183143522,15.597695338453484,1.999630091571761,0.2450080254410861,B,381.12770000043383,Correct
17,417,152,B,58.87025865296211,31.356902383097022,2.943512932648105,0.4925530708303494,B,385.84850000006554,Correct
17,417,153,B,50.83720288827949,38.37115881802233,2.5418601444139743,0.6027327532621308,B,416.4848999989772,Correct
17,417,154,A,17.041256671689393,44.20903486898193,0.8520628335844697,0.6944338958334433,A,431.9688999985374,Correct
17,417,155,B,52.92019522031554,37.12124467451742,2.6460097610157773,0.5830991478078659,B,658.4612000006018,Correct
17,417,156,B,54.65473178223692,28.81873517064112,2.732736589111846,0.45268363348917967,B,434.7589999997581,Correct
17,417,157,A,51.582543765954945,69.36650710209607,2.5791271882977473,1.089606545585646,A,1137.939500000357,Correct
17,417,158,A,13.279936222189768,36.96572932871074,0.6639968111094885,0.5806563184683321,A,476.9806000003882,Correct
17,417,159,B,80.17014626897121,59.26704985035376,4.00850731344856,0.930964642049057,B,495.77080000017304,Correct
17,417,160,A,49.38554047939006,64.63497982167003,2.4692770239695028,1.0152838888634155,B,952.2962999999436,Incorrect
17,417,161,B,57.39870817552633,37.16595044402559,2.8699354087763163,0.5838013843931655,B,805.8474000008573,Correct
17,417,162,B,71.61084041498827,54.596897149948006,3.5805420207494136,0.8576060549753709,B,436.4802000000054,Correct
17,417,163,B,63.42404256886433,36.59946405147318,3.1712021284432166,0.5749030369471593,B,419.9731000007887,Correct
17,417,164,B,56.96756776247908,42.16081816468057,2.8483783881239537,0.6622605830774779,B,400.3856999988784,Correct
17,417,165,A,22.070634643065773,46.335012875189854,1.1035317321532887,0.7278286802634246,A,634.9105999997846,Correct
17,417,166,B,71.45145043811173,56.636284987846345,3.572572521905587,0.8896406842221798,B,411.4415999993071,Correct
17,417,167,A,19.02716227049213,35.78932345687042,0.9513581135246065,0.5621773782452649,A,418.37409999970987,Correct
17,417,168,A,30.362136233673375,53.66512315641283,1.5181068116836687,0.8429697833108902,A,836.0394000010274,Correct
17,417,169,B,58.966809937551915,28.575712241859023,2.948340496877596,0.4488662382506011,B,533.9744000011706,Correct
17,417,170,A,33.72618178418828,42.19772611002993,1.6863090892094137,0.6628403317273212,A,521.0301000006439,Correct
17,417,171,A,57.62716405845267,85.27483998353172,2.8813582029226334,1.3394940541415419,A,522.1766000013304,Correct
17,417,172,B,50.49014983332697,42.24071409778598,2.5245074916663484,0.6635155854599561,B,594.7185999993962,Correct
17,417,173,A,30.538561499662016,60.52199294161964,1.526928074983101,0.9506772420300278,A,427.3155000009865,Correct
17,417,174,B,42.07586594822814,23.703447115946858,2.103793297411407,0.37233287662106407,B,508.4263999997347,Correct
17,417,175,A,53.78333704805555,71.82237402015116,2.6891668524027774,1.1281832129254263,B,963.6301000009553,Incorrect
17,417,176,B,64.53176567065738,49.390323288302156,3.2265882835328688,0.7758213840047747,B,414.95729999951436,Correct
17,417,177,B,71.4684766835299,58.83383120662786,3.573423834176495,0.9241596595064201,B,428.19480000071053,Correct
17,417,178,A,43.1625089050392,58.579898479753446,2.1581254452519603,0.9201708935601467,A,671.2764000003517,Correct
17,417,179,B,74.5920965168888,49.916346646616574,3.7296048258444396,0.7840841395952606,B,559.0152000004309,Correct
17,417,180,A,31.356277702801556,43.183074466135125,1.5678138851400778,0.6783181475111555,A,1106.315099999847,Correct
17,417,181,A,24.57119597098505,42.37016326292682,1.2285597985492525,0.6655489681910552,A,701.6330000005837,Correct
17,417,182,A,29.15639063096782,53.95972617862855,1.457819531548391,0.8475973967624815,A,1117.389600000024,Correct
17,417,183,B,52.87963889798229,35.20804952898878,2.6439819448991146,0.5530467487374836,B,485.9610999992583,Correct
17,417,184,B,73.3737248295533,58.51221132047024,3.6686862414776646,0.9191076661484142,B,480.18880000017816,Correct
17,417,185,B,47.672244532376794,30.71504579253328,2.3836122266188395,0.48247081108248324,B,445.98319999931846,Correct
17,417,186,A,53.46631118978605,80.59924081710271,2.6733155594893026,1.2660499141796224,A,555.2471999999398,Correct
17,417,187,A,19.705336539397656,47.3086063190646,0.9852668269698828,0.743121850317725,A,534.5503999997163,Correct
17,417,188,A,60.24776045241588,75.23151620640962,3.0123880226207937,1.1817338931623897,B,537.6191000013932,Incorrect
17,417,189,A,16.5297230917517,42.50465336306688,0.8264861545875849,0.667661533743958,A,556.4068999992742,Correct
17,417,190,B,47.97733340746454,27.56054877542639,2.398866670373227,0.4329200878089136,B,545.956699999806,Correct
17,417,191,B,57.449700106098504,45.43107315608942,2.872485005304925,0.7136296283593548,B,912.8584000009141,Correct
17,417,192,A,45.40622145132306,63.53761271719805,2.270311072566153,0.998046486694914,A,476.44709999985935,Correct
17,417,193,B,88.81904035037135,62.73779039405286,4.440952017518567,0.9854829070220638,B,551.7890999999508,Correct
17,417,194,B,68.422240235809,50.126111426824274,3.42111201179045,0.7873791170576726,B,449.2135000000417,Correct
17,417,195,A,35.01396537266678,52.25992575612907,1.750698268633339,0.8208969941630154,B,690.5871999988449,Incorrect
17,417,196,A,39.516756496860744,48.129081210072044,1.9758378248430373,0.7560098397679444,A,632.3902000003727,Correct
17,417,197,A,55.256852999549764,84.12977784684804,2.7628426499774883,1.3215074601589958,A,671.0118999999395,Correct
17,417,198,B,55.33350199958052,34.2753661086664,2.7666750999790257,0.5383961918304346,B,492.0195999984571,Correct
17,417,199,B,70.75772519971066,55.48246046161206,3.537886259985533,0.871516450946433,B,769.2841999996745,Correct
17,417,200,B,66.1647499161411,51.67968604296139,3.308237495807055,0.8117826100619725,B,501.99459999930696,Correct
17,417,201,A,17.323887790933767,41.497286801677944,0.8661943895466884,0.6518378568003006,A,432.47700000029,Correct
17,417,202,B,38.35103129048758,20.662870756750323,1.9175515645243792,0.32457161485741093,B,678.2739000009315,Correct
17,417,203,A,59.69998931340613,73.62500749704337,2.9849994656703065,1.1564989133660244,A,901.208499999484,Correct
17,417,204,B,85.70098395339582,61.8280999605346,4.2850491976697915,0.9711935231071546,B,610.4388000003382,Correct
17,417,205,B,55.082722530292365,22.67840865996332,2.7541361265146183,0.3562316102062396,B,833.1120000002556,Correct
17,417,206,B,75.43945506003986,63.55175419192591,3.771972753001993,0.9982686204604939,A,783.7079000000813,Incorrect
17,417,207,A,33.830271179867125,65.45357615271057,1.691513558993356,1.028142369962678,A,1094.0945000002102,Correct
17,417,208,A,38.78494649130277,55.531473253823435,1.9392473245651385,0.8722863420861487,A,696.5820000004896,Correct
17,417,209,A,23.815330204314787,34.58272871256341,1.1907665102157394,0.54322423232239,A,821.8561000012414,Correct
17,417,210,B,76.86074749944157,51.85949544576964,3.8430373749720785,0.8146070495565161,B,676.2192000005598,Correct
17,417,211,A,62.7868114066288,75.43056001358806,3.1393405703314397,1.1848604659742614,B,1099.9799000001076,Incorrect
17,417,212,A,46.2527178599808,57.87358400427448,2.31263589299904,0.9090761317237023,A,836.8116000001464,Correct
17,417,213,B,75.42856582065676,44.803276223767575,3.771428291032838,0.7037682172067123,B,613.9153000003716,Correct
17,417,214,B,41.31314715835623,19.855292090868655,2.0656573579178117,0.3118861988377625,B,623.344100000395,Correct
17,417,215,B,74.99561190540085,61.4043044923839,3.7497805952700425,0.9645365594603199,B,547.2089999984746,Correct
17,417,216,B,80.0148389191935,54.493623201139236,4.000741945959675,0.8559838315809466,B,484.3077000004996,Correct
17,417,217,A,45.9089438012943,64.03854425457078,2.295447190064715,1.0059151008837222,A,512.9953000014211,Correct
17,417,218,B,57.190678626025324,32.927311507275135,2.859533931301266,0.5172209996685911,B,582.5817000004463,Correct
17,417,219,B,61.46293510196438,39.39902177426576,3.0731467550982194,0.6188783868232881,B,450.7116999993741,Correct
17,417,220,A,58.78464525441767,73.73335542151659,2.939232262720884,1.1582008385838085,A,953.89189999878,Correct
17,417,221,B,57.1736895251546,43.38809087782918,2.85868447625773,0.6815385377753723,B,697.618500000317,Correct
17,417,222,B,76.37949066177423,43.808851015066374,3.8189745330887117,0.6881478225557114,B,540.6960000000254,Correct
17,417,223,A,50.5711909345364,73.03365209876966,2.52855954672682,1.1472099244916376,A,1066.4990999994188,Correct
17,417,224,A,50.29626126426571,59.320636070978246,2.5148130632132855,0.9318063724342948,A,721.6785999989952,Correct
17,417,225,A,43.82456839878897,63.64347576820973,2.1912284199394487,0.9997093796116386,A,1168.8962999996875,Correct
17,417,226,B,78.29238212722993,55.37377843486778,3.9146191063614966,0.8698092776624478,B,799.5109999992565,Correct
17,417,227,B,52.59647630204146,23.59833352185459,2.629823815102073,0.37068175614610066,B,762.8509000005579,Correct
17,417,228,B,78.39027232671535,56.82298942502858,3.9195136163357676,0.8925734306634016,B,612.5119000007544,Correct
17,417,229,A,30.273144347649115,54.422265484294186,1.5136572173824558,0.8548629471858599,A,708.2845000004454,Correct
17,417,230,B,54.887962782921306,42.29602165991667,2.7443981391460652,0.6643843546143448,B,978.0731999999261,Correct
17,417,231,B,68.37829742130334,51.48564686419907,3.418914871065167,0.808734649769431,B,965.1551000006293,Correct
17,417,232,A,63.33207859868217,80.13741679006375,3.1666039299341087,1.2587955993266382,A,611.2208999984432,Correct
17,417,233,B,60.162101608032245,48.572596969907124,3.008105080401612,0.7629765690321904,B,1236.9004000011046,Correct
17,417,234,B,86.10057816233731,64.25987266621209,4.305028908116866,1.0093917194439375,B,996.901299999081,Correct
17,417,235,B,69.54486132242558,42.773244060522,3.4772430661212788,0.6718805465536959,B,1205.7882999997673,Correct
17,417,236,A,58.38198186811792,66.92613832360148,2.919099093405896,1.0512733224528037,A,1544.8223000003054,Correct
17,417,237,B,75.93239165556571,54.54192128118957,3.7966195827782854,0.8567424960482898,B,673.3698999996705,Correct
17,417,238,A,22.68481631003306,38.81153910949338,1.134240815501653,0.6096502307044868,A,625.1800999998522,Correct
17,417,239,A,43.62942907735168,61.18857528257673,2.181471453867584,0.9611478929568452,A,749.0192000004754,Correct
17,417,240,A,63.223609080305394,85.58090319527017,3.1611804540152697,1.3443016838292,A,630.1134000004822,Correct
17,417,241,A,19.295898704456672,48.67248642068016,0.9647949352228337,0.7645456288557887,A,541.8807000005472,Correct
17,417,242,B,44.54927902082202,22.39954504885513,2.2274639510411007,0.3518512308461845,B,606.4363999994384,Correct
17,417,243,A,27.053988536635472,45.5932447101436,1.3526994268317736,0.7161770131735441,A,1489.2115000002377,Correct
17,417,244,A,60.835464705184386,74.3820588694644,3.0417732352592193,1.1683906485159645,B,1213.6677999988024,Incorrect
17,417,245,A,25.347952375999107,41.95220862340846,1.2673976187999554,0.6589837520658319,A,620.0085000000399,Correct
17,417,246,B,54.9041371780326,42.35772429103594,2.7452068589016303,0.6653535772775021,B,470.2369999995426,Correct
17,417,247,B,59.4531794696966,48.465859184845996,2.97265897348483,0.761299935825148,B,687.6551000004838,Correct
17,417,248,B,49.42325756104101,31.71366484614403,2.4711628780520503,0.49815708249527485,B,442.1356000002561,Correct
17,417,249,B,67.37383480073925,34.37405836554617,3.3686917400369625,0.5399464461763331,B,494.8350999984541,Correct
17,417,250,A,44.57907093108158,55.538475878518135,2.228953546554079,0.8723963390576325,A,573.2162999993307,Correct
17,417,251,B,45.23847113184789,17.265143452066383,2.2619235565923943,0.27120023916092834,B,530.1829999989423,Correct
17,417,252,A,57.42654589073725,78.11660502917911,2.8713272945368624,1.227052762415223,A,529.6489000011206,Correct
17,417,253,B,61.91216320845707,29.16695671238016,3.0956081604228536,0.45815348467592504,B,540.1409999994939,Correct
17,417,254,B,48.91113452258197,38.48773002423164,2.4455567261290985,0.6045638494873671,B,520.2631000011024,Correct
17,417,255,B,59.332089416527246,39.67536681990462,2.966604470826362,0.6232192046494629,B,859.0822999994998,Correct
17,417,256,B,42.40025330828836,32.648523413049915,2.1200126654144182,0.5128418065249598,B,607.7789000009943,Correct
17,417,257,B,78.79028361533912,60.053167754421196,3.9395141807669565,0.9433129532104254,B,702.9674000004889,Correct
17,417,258,A,25.723612044887844,49.0853155429531,1.286180602244392,0.7710303335443917,A,567.0021999994788,Correct
17,417,259,B,87.98825303475519,63.70459363826272,4.39941265173776,1.000669416869446,B,676.790899999105,Correct
17,417,260,B,67.9706638089815,49.078579975836575,3.3985331904490748,0.7709245315035366,B,804.0010000004258,Correct
17,417,261,B,35.45272058254208,24.64878428175679,1.7726360291271037,0.3871821980974335,B,808.4165000000212,Correct
17,417,262,A,53.412204859621305,69.96250873345761,2.6706102429810654,1.0989685173187107,A,584.4086999986757,Correct
17,417,263,B,53.9474161072004,40.96458531033339,2.69737080536002,0.6434702013414786,B,609.2630999992252,Correct
17,417,264,A,50.34483791400923,59.88348847048407,2.5172418957004616,0.9406476372510091,A,737.3105000006035,Correct
17,417,265,B,73.90065571104162,60.43028846259361,3.695032785552081,0.9492367514419805,B,596.0574000000634,Correct
17,417,266,B,45.49321508241064,23.375324054072202,2.274660754120532,0.3671787316177701,B,771.227799999906,Correct
17,417,267,B,74.64266931504515,59.61422036026198,3.732133465752258,0.9364179836664105,B,532.3919000002206,Correct
17,417,268,B,55.87463607487583,32.21618651898663,2.7937318037437917,0.5060506744736346,B,606.0368999987986,Correct
17,417,269,B,61.33241193487178,41.210699543035325,3.0666205967435887,0.64733615466848,B,620.9768999997323,Correct
17,417,270,B,35.683561125101704,10.885928189625634,1.7841780562550853,0.17099576014016962,B,739.3085000003339,Correct
17,417,271,B,41.71543090933265,18.86728964951895,2.085771545466633,0.29636669278039734,B,858.2495999999082,Correct
17,417,272,A,37.03385207193396,51.23059010333098,1.8516926035966979,0.804728227538473,B,535.2328999997553,Incorrect
17,417,273,B,61.52362220537177,44.7800218463545,3.0761811102685885,0.7034029383004887,B,564.5031000003655,Correct
17,417,274,B,62.63239308168458,41.60977158887368,3.131619654084229,0.6536047637057741,B,656.3767999996344,Correct
17,417,275,B,56.38661552817592,29.565355460512308,2.8193307764087963,0.4644115175775817,B,824.6686000002228,Correct
17,417,276,A,28.54089700413965,39.032420608175485,1.4270448502069826,0.6131198291723547,A,1358.786599999803,Correct
17,417,277,B,53.947585339784766,23.15167929796796,2.6973792669892385,0.3636657280038152,B,794.078900000386,Correct
17,417,278,A,43.32406674865109,68.18154487355405,2.1662033374325547,1.070993202425801,A,851.1983000007604,Correct
17,417,279,A,58.16711152317984,71.59781377607695,2.9083555761589923,1.124655828860067,A,890.9217999989778,Correct
17,417,280,A,30.646506922003425,43.82577053984246,1.5323253461001713,0.6884135938294054,A,496.1673999987397,Correct
17,417,281,A,63.041921310667306,78.03605081833932,3.152096065533365,1.2257874198302727,A,1047.0932999996876,Correct
17,417,282,A,62.9971500854988,86.1988709601564,3.14985750427494,1.3540086987808093,A,752.241199999844,Correct
17,417,283,B,59.64796830074419,30.263434776584333,2.9823984150372094,0.4753769218325559,B,506.7276999998285,Correct
17,417,284,B,55.500439606327234,48.85673309512914,2.7750219803163616,0.7674397688502751,A,1112.2503999995388,Incorrect
17,417,285,A,55.18958893459078,84.70904129002577,2.759479446729539,1.330606509046897,A,738.783599999806,Correct
17,417,286,B,55.0194150194002,35.027889264234645,2.75097075097001,0.5502167979163818,B,581.8321000006108,Correct
17,417,287,A,53.18672914941469,65.97119740717356,2.6593364574707348,1.0362731456144922,A,1101.8310999988898,Correct
17,417,288,A,45.645538145326526,70.44886839440353,2.2822769072663265,1.1066082370078616,A,1012.181200001578,Correct
17,417,289,B,76.59191801977398,46.06277523419651,3.829595900988699,0.723552381398548,B,607.5245000010909,Correct
17,417,290,A,33.461924449936845,60.893507939761534,1.6730962224968422,0.9565129859743329,A,807.8161000012187,Correct
17,417,291,B,85.32911386868996,66.51870907609545,4.266455693434498,1.0448734387986907,B,656.0969999991357,Correct
17,417,292,A,19.89238427958489,45.402076131535566,0.9946192139792445,0.7131741441627832,A,504.12499999947613,Correct
17,417,293,A,49.17459321157551,72.5253010931875,2.4587296605787756,1.139224765568728,A,869.6705000002112,Correct
17,417,294,B,65.63935953184802,48.12377345987622,3.2819679765924006,0.755926465822833,B,578.0993000007584,Correct
17,417,295,B,55.05536210463718,38.610400714849675,2.7527681052318593,0.6064907561896492,B,380.84969999908935,Correct
17,417,296,B,86.05609557634386,62.4253183184326,4.302804778817193,0.9805746071359609,B,474.95940000044357,Correct
17,417,297,A,22.163587885652795,48.783413781771166,1.1081793942826397,0.7662880717692168,A,525.7301000001462,Correct
17,417,298,A,46.225519639841586,56.14118603204888,2.3112759819920794,0.8818636880105133,B,1097.0849000004819,Incorrect
17,417,299,A,20.65659735592135,39.89381557499251,1.0328298677960674,0.6266505896703127,A,551.1246000005485,Correct
17,417,300,B,34.07820109656794,21.42256557497573,1.703910054828397,0.33650487315694677,A,507.2981000012078,Incorrect
17,417,301,B,63.22365207213397,42.134282240556956,3.1611826036066986,0.6618437577560631,B,1154.1966999993747,Correct
17,417,302,A,26.415582248371464,59.3970255968972,1.3207791124185733,0.9330062963014857,A,604.4391000014002,Correct
17,417,303,A,41.564353051988654,51.78947155872568,2.0782176525994327,0.8135071169109507,A,927.7493999998114,Correct
17,417,304,A,14.973159401573753,39.69272839977795,0.7486579700786876,0.6234919197083868,A,678.4037000015815,Correct
17,417,305,A,57.90521603319253,73.64007027476653,2.895260801659626,1.156735518925213,A,844.2106000002241,Correct
17,417,306,B,82.43908922167942,63.080472726293735,4.121954461083971,0.9908657485094785,B,414.155499998742,Correct
17,417,307,B,57.52293983936839,34.56996787603494,2.8761469919684197,0.5430237855709326,B,453.0878000005032,Correct
17,417,308,A,39.34056875698145,61.21358930949163,1.9670284378490723,0.9615408123728082,A,563.1635000008828,Correct
17,417,309,B,49.87937649715856,23.224494210925045,2.493968824857928,0.364809501981904,B,992.679599999974,Correct
17,417,310,B,68.88329206972018,46.157685420799126,3.4441646034860094,0.7250432271234561,B,607.0995000009134,Correct
17,417,311,A,13.004024225471685,37.480925506306704,0.6502012112735842,0.5887490011017973,A,592.6902999999584,Correct
17,417,312,B,81.98261748924544,52.912101564534495,4.099130874462272,0.8311413478056928,B,497.0298999996885,Correct
17,417,313,B,34.59250721673075,22.97973056129145,1.7296253608365375,0.3609647635641304,B,613.4509000003163,Correct
17,417,314,A,21.871172370123077,41.28767743777946,1.0935586185061539,0.648545320611565,A,792.5141000014264,Correct
17,417,315,B,31.272159461973985,10.866226939849831,1.5636079730986991,0.17068629363235863,B,487.12999999952444,Correct
17,417,316,A,59.91964632568427,83.94371478732711,2.995982316284213,1.3185847884545188,A,887.9917000012938,Correct
17,417,317,A,54.22383209226952,64.82230071496514,2.7111916046134756,1.0182263185746143,A,624.5593000003282,Correct
17,417,318,B,58.47118032829695,31.462822245939698,2.9235590164148477,0.49421685614522837,B,410.2533000004769,Correct
17,417,319,B,64.40345960766118,39.99772523810542,3.2201729803830585,0.6282827988416751,B,773.3100999994349,Correct
17,417,320,B,37.26895434266685,13.533039119689356,1.8634477171333428,0.21257648139579682,B,654.6627999996417,Correct
17,417,321,B,39.33406356060682,12.609205948754958,1.966703178030341,0.19806494388104642,B,624.8785999996471,Correct
17,417,322,A,51.35082473897853,76.05148465543903,2.5675412369489266,1.1946139274406204,A,824.0853999996034,Correct
17,417,323,A,40.51091887348882,60.80638439938485,2.025545943674441,0.9551444526023221,A,733.0664000000979,Correct
17,417,324,B,39.51444259750185,12.560589747789379,1.9757221298750922,0.19730128238205194,B,597.0899000003556,Correct
17,417,325,A,38.70647473716582,49.877113815030356,1.935323736858291,0.7834678717178067,A,557.3657999993884,Correct
17,417,326,B,61.29670785836349,45.12698296491743,3.064835392918175,0.7088529908062817,B,628.5915999997087,Correct
17,417,327,B,42.157967102034924,14.499523223961091,2.1078983551017463,0.22775797820475377,B,467.4713000003976,Correct
17,417,328,A,52.63864515880281,68.45291427438079,2.6319322579401403,1.075255863006033,A,558.7599999998929,Correct
17,417,329,A,48.36932085843473,76.37829431427045,2.4184660429217364,1.1997474415571556,A,498.4086999993451,Correct
17,417,330,A,35.478673843787185,55.935241523442144,1.7739336921893594,0.8786287192340828,A,552.7691999996023,Correct
17,417,331,A,55.45032431768237,80.38012796237426,2.7725162158841186,1.2626080975060125,A,524.6600999998918,Correct
17,417,332,B,60.92276246453011,46.98724759596935,3.046138123226506,0.7380739592995098,B,422.06420000002254,Correct
17,417,333,B,56.92697721981609,43.41233115273721,2.8463488609908048,0.6819193031232326,B,712.5474999993457,Correct
17,417,334,A,39.21561259805563,54.431717664140535,1.9607806299027815,0.8550114216796884,A,602.1999000004143,Correct
17,417,335,A,19.57170825617895,40.13384268161761,0.9785854128089475,0.6304209266444918,A,591.741500000353,Correct
17,417,336,B,69.26666779876702,38.2449446578226,3.4633333899383505,0.6007501858698185,B,648.8583000009385,Correct
17,417,337,A,20.318907871641656,43.43261444125254,1.0159453935820828,0.6822379122741847,A,520.8849999999074,Correct
17,417,338,A,14.892117852622121,42.60986531160684,0.7446058926311061,0.6693141991669731,A,757.8851000016584,Correct
17,417,339,B,80.72159013220379,56.130091784476136,4.036079506610189,0.8816894199771552,B,656.0934000008274,Correct
17,417,340,B,77.00780838786451,62.00650391099033,3.850390419393226,0.9739958858077701,B,543.5675999997329,Correct
17,417,341,A,46.285633993132485,72.6171290929199,2.314281699656624,1.140667196415494,A,538.3721999987756,Correct
17,417,342,B,59.23460415453994,48.841881991606115,2.961730207726997,0.767206488261647,B,708.3095000016328,Correct
17,417,343,A,41.76559475447363,72.56520788033228,2.0882797377236817,1.1398516199153403,A,549.9595000001136,Correct
17,417,344,A,60.970764438722696,88.18664372389594,3.048538221936135,1.3852325603386597,A,767.047299999831,Correct
17,417,345,A,38.657997659278855,71.6054067778144,1.9328998829639428,1.1247750994524524,A,869.722699999329,Correct
17,417,346,A,22.930422659336088,45.03147077787076,1.1465211329668044,0.7073526888805111,B,1020.0800000002346,Incorrect
17,417,347,A,62.12924847836229,78.402132682742,3.106462423918115,1.2315378203093725,A,856.2625999984448,Correct
17,417,348,A,44.60143441497012,69.05925679309739,2.2300717207485063,1.084780269017829,A,822.3342000001139,Correct
17,417,349,B,60.297511802022335,52.610347576059446,3.014875590101117,0.8264014072387696,B,724.388499998895,Correct
17,417,350,B,53.9399882410771,30.100079019878148,2.6969994120538554,0.47281093560660725,B,549.5408000006137,Correct
17,417,351,B,68.75198329388175,58.54115720726334,3.4375991646940873,0.9195623470749185,B,726.8973000009282,Correct
17,417,352,B,65.40013484349379,53.85032300388032,3.2700067421746892,0.8458788957121393,A,1815.2203999998164,Incorrect
17,417,353,A,53.707898701900824,73.05378179228428,2.685394935095041,1.1475261209779606,A,1547.715299999254,Correct
17,417,354,B,62.31170753166587,46.652888771549556,3.1155853765832933,0.7328218631672091,B,1117.6298999998835,Correct
17,417,355,A,42.40193785985527,57.139227617938005,2.120096892992764,0.8975408885815451,A,962.5986000010016,Correct
17,417,356,B,42.93641120617477,23.390453810778535,2.1468205603087385,0.36741638928036613,B,1058.860500001174,Correct
17,417,357,B,49.813695874439695,25.51388981626899,2.490684793721985,0.40077124405645054,B,739.7578000000067,Correct
17,417,358,B,76.26353427381358,53.84132508984433,3.8131767136906785,0.8457375568089739,B,1251.48050000098,Correct
17,417,359,A,50.494253034219795,77.02449720083277,2.52471265171099,1.209897972762919,A,473.0152000011003,Correct
17,417,360,A,60.24933427969226,86.03161424590778,3.0124667139846135,1.3513814364570742,A,505.8629999984987,Correct
17,417,361,B,38.74964778511995,29.707737334783097,1.9374823892559974,0.466648046828649,B,492.9249000015261,Correct
17,417,362,B,69.60705854599112,51.346441816315064,3.4803529272995557,0.8065480219905558,B,506.7202999998699,Correct
17,417,363,B,83.95955948250494,58.64171840872789,4.197977974125247,0.9211419587337043,B,401.0775000006106,Correct
17,417,364,B,39.62664613047407,28.739059461415206,1.9813323065237034,0.45143209037531123,B,400.2777999994578,Correct
17,417,365,A,16.19721281701026,43.96095219671363,0.8098606408505131,0.690537022330038,A,483.57880000003206,Correct
17,417,366,B,32.351540711849935,13.008981136919115,1.6175770355924968,0.20434459785216638,B,596.149000000878,Correct
17,417,367,A,21.146135910094642,41.13971222490242,1.0573067955047322,0.6462210884827582,A,697.1389999998792,Correct
17,417,368,B,66.0760719967628,42.94172031243487,3.3038035998381408,0.6745269653302648,B,614.4244000006438,Correct
17,417,369,B,77.47533039205457,48.38329173136226,3.8737665196027287,0.7600029692986973,B,955.6649000005564,Correct
17,417,370,A,18.770708972716037,33.17510968099633,0.9385354486358018,0.5211134042792684,A,692.2400000003108,Correct
17,417,371,A,26.071458500985287,59.023186965775736,1.3035729250492643,0.9271340528156894,A,878.148499999952,Correct
17,417,372,A,67.19647264647854,83.94419319330454,3.359823632323927,1.3185923032380393,A,696.6850999997405,Correct
17,417,373,A,43.099588588736076,63.28641574567642,2.154979429436804,0.9941006938932322,A,855.3456000008737,Correct
17,417,374,A,36.659207204114786,48.102377448921516,1.8329603602057392,0.7555903780686758,A,1103.0505000017001,Correct
17,417,375,A,26.82304519452294,37.590500101747466,1.341152259726147,0.5904701948220811,A,513.2544000007329,Correct
17,417,376,A,66.19603880449077,84.43260701220898,3.309801940224538,1.3262642895649488,A,587.2423000000708,Correct
17,417,377,B,41.97295436238346,19.19710130937841,2.098647718119173,0.30154736221881107,B,504.4773999998142,Correct
17,417,378,B,77.17858210178716,47.37678293943176,3.8589291050893575,0.7441927661661853,B,448.80150000062713,Correct
17,417,379,B,75.152592368908,44.72189030560885,3.7576296184454003,0.7024898101937468,B,414.859599999545,Correct
17,417,380,A,41.88069499280748,60.94581145490155,2.094034749640374,0.9573345676689368,A,863.7283000007301,Correct
17,417,381,A,34.54832091780706,53.52575584230464,1.7274160458903531,0.8407806066601261,A,733.2389000002877,Correct
17,417,382,A,43.95962425094272,51.99907008387072,2.197981212547136,0.8167994828449452,A,560.0319000004674,Correct
17,417,383,A,60.11316929273407,83.94683682332297,3.0056584646367037,1.3186338292812627,A,1196.162500000355,Correct
17,417,384,A,45.839833194284495,62.08395765755103,2.291991659714225,0.9752125264137106,A,488.61139999826264,Correct
17,417,385,A,27.69745119611528,43.8553329663918,1.384872559805764,0.6888779593397537,A,1025.7538000005297,Correct
17,417,386,B,73.68760350344783,61.858852082779734,3.6843801751723912,0.9716765763137923,B,755.6624999997439,Correct
17,417,387,A,21.738481350061722,53.312692338433806,1.086924067503086,0.8374338129675823,A,617.7887000012561,Correct
17,417,388,B,45.28576233910133,19.106560685425755,2.2642881169550666,0.30012515342350554,B,407.544699999562,Correct
17,417,389,B,62.02994009402632,46.526625721478155,3.1014970047013164,0.7308385278145884,B,556.8237000006775,Correct
17,417,390,B,80.30865778044083,65.42116838498664,4.015432889022041,1.0276333099376744,B,837.1036000007734,Correct
17,417,391,B,74.46123294884929,57.024256549582766,3.723061647442464,0.8957349272629443,B,875.5005000002711,Correct
17,417,392,B,89.58441647623535,67.09575534008012,4.479220823811767,1.0539376603172692,B,413.4429000005184,Correct
17,417,393,B,62.64246755408866,48.15866901240945,3.132123377704433,0.7564746038802397,B,1235.5360999990808,Correct
17,417,394,A,51.709943909957694,59.44068542671978,2.5854971954978847,0.9336921033046238,B,490.7344000002922,Incorrect
17,417,395,B,76.02640331224165,60.0748576977938,3.8013201656120827,0.9436536580442063,B,474.1417999994155,Correct
17,417,396,B,45.6030272719457,21.532947359407387,2.280151363597285,0.33823874617224997,B,581.2171999987186,Correct
17,417,397,B,56.97232764965129,28.236833691015928,2.8486163824825645,0.44354314642166204,B,615.4282999996212,Correct
17,417,398,B,40.55982555268536,15.356750905633092,2.027991277634268,0.24122327914072664,B,694.0942000001087,Correct
17,417,399,A,55.869878064231784,72.77860265982862,2.7934939032115893,1.1432036172732407,A,811.0727999992378,Correct
17,417,400,B,74.54893302348381,42.550863330172035,3.7274466511741906,0.6683873982098589,B,702.1414999999251,Correct
17,417,401,A,39.94284782940356,58.79667573161209,1.997142391470178,0.9235760226696692,A,972.7809999985766,Correct
17,417,402,A,62.908945141803486,72.36312136448076,3.1454472570901744,1.1366772523473967,A,655.5650999998761,Correct
17,417,403,B,75.51060699326756,46.0380098975304,3.775530349663378,0.7231633683998783,B,650.8835999993607,Correct
17,417,404,B,35.3249647297232,19.074305756979264,1.76624823648616,0.2996184941922578,B,350.75159999905736,Correct
17,417,405,A,55.737652209121045,83.15737183055612,2.7868826104560522,1.3062329421735492,A,477.9374999998254,Correct
17,417,406,B,62.494201688027815,31.938665831989386,3.124710084401391,0.501691389716186,B,442.9262000012386,Correct
17,417,407,B,77.85516216217044,48.214664148371874,3.8927581081085223,0.7573541734191215,B,435.2607999990141,Correct
17,417,408,A,11.61489326292245,33.41851881606689,0.5807446631461225,0.5249368660320402,A,494.2594999993162,Correct
17,417,409,B,42.02262640524076,17.069423335918387,2.101131320262038,0.2681258747656769,B,500.0769999987824,Correct
17,417,410,A,20.977671982091103,44.62132940359658,1.048883599104555,0.7009102032387463,A,482.9847000000882,Correct
17,417,411,A,27.56854355235405,43.76358653066225,1.3784271776177024,0.6874368096973487,A,594.7443999993993,Correct
17,417,412,A,27.925953718329737,51.61960308750638,1.3962976859164868,0.8108388292046551,A,436.10740000076476,Correct
17,417,413,B,73.59792923478568,59.68933770500834,3.679896461739284,0.9375979241584722,B,883.8833999998315,Correct
17,417,414,A,21.96502970744728,51.32527382732978,1.098251485372364,0.8062155159971187,A,510.93930000024557,Correct
17,417,415,B,69.75633222385741,48.39735700476596,3.4878166111928706,0.7602239060966762,B,629.818699999305,Correct
17,417,416,B,59.98538725462716,34.421126613427234,2.9992693627313582,0.5406857924851356,B,589.5889999992505,Correct
17,417,417,A,47.60004895433177,71.70212877529475,2.3800024477165884,1.1262944050360764,A,673.7415000006877,Correct
17,417,418,A,33.616927266115724,65.08318518419736,1.6808463633057864,1.0223242822344927,A,667.9192999999941,Correct
17,417,419,A,11.353329385023116,36.901190496758204,0.5676664692511558,0.5796425448666654,A,413.35109999999986,Correct
17,417,420,B,81.42138999447091,60.076518741179186,4.071069499723546,0.9436797496526902,B,486.173700001018,Correct
17,417,421,A,12.103378667092791,38.79569036833376,0.6051689333546395,0.6094012792605081,A,404.0316000009625,Correct
17,417,422,B,37.9418062441725,24.49437375286388,1.8970903122086247,0.3847567231813991,B,562.652499998876,Correct
17,417,423,B,85.51500234327341,68.63826173665802,4.27575011716367,1.078167294135291,B,595.2188999999635,Correct
17,417,424,A,16.7387392320535,37.21232787796474,0.8369369616026751,0.5845298794219435,A,558.2505000002129,Correct
17,417,425,A,43.1402624648159,61.66300076430345,2.157013123240795,0.9686001509971875,A,769.0526000005775,Correct
17,417,426,B,57.63455947461444,39.21747175518261,2.8817279737307224,0.6160266057922344,B,615.6397000013385,Correct
17,417,427,B,61.18191943262721,51.26576150042696,3.0590959716313604,0.805280698552139,B,460.9218999994482,Correct
17,417,428,A,49.85533050546284,61.565492851322496,2.492766525273142,0.9670685002817483,A,756.6502999998193,Correct
17,417,429,B,42.75038862268606,33.106043289361104,2.1375194311343026,0.5200285119364125,B,516.39410000098,Correct
17,417,430,A,54.297041092617874,70.43608218595179,2.7148520546308936,1.1064073917151651,A,515.5931999997847,Correct
17,417,431,B,77.60855837351346,55.720375601988586,3.880427918675673,0.8752536132323565,B,503.17290000020876,Correct
17,417,432,B,60.21802897613304,32.99927603969026,3.010901448806652,0.5183514159003629,B,594.2557999987912,Correct
17,417,433,B,42.745468903381564,21.08188166331169,2.137273445169078,0.3311534227865469,B,795.6598999990092,Correct
17,417,434,B,86.6788695040014,60.190153617101174,4.33394347520007,0.9454647221096308,B,526.4192999984516,Correct
17,417,435,B,61.91700984763297,54.67724467972106,3.0958504923816488,0.8588681510217164,B,418.8804000004893,Correct
17,417,436,A,54.70087328794722,81.79908585118153,2.735043664397361,1.2848970359021634,A,478.7178999995376,Correct
17,417,437,A,41.14052737589687,68.29590807830758,2.0570263687948436,1.0727896154452745,A,494.77010000009614,Correct
17,417,438,B,78.62215911442946,46.74712612164479,3.931107955721473,0.734302140000974,B,561.7985999997472,Correct
17,417,439,A,11.363658125561376,34.82179298671831,0.5681829062780688,0.546979445159494,A,520.1778999999078,Correct
17,417,440,A,34.640065468057784,49.01920982150822,1.7320032734028894,0.7699919473001343,A,578.1195999988995,Correct
17,417,441,A,33.15944370240384,66.32853906053754,1.657972185120192,1.0418862551796417,A,462.84410000043863,Correct
17,417,442,B,44.71052042139686,26.143590158321054,2.235526021069843,0.41066255389921913,B,365.9864999990532,Correct
17,417,443,B,71.72869445654824,55.969174605761374,3.586434722827412,0.8791617388447217,B,623.658800001067,Correct
17,417,444,A,57.200901250971555,71.76649775694445,2.860045062548578,1.1273055106354253,A,542.0410999995511,Correct
17,417,445,A,39.479480317358565,70.51406840257297,1.9739740158679282,1.107632396341257,A,510.0516000002244,Correct
17,417,446,A,20.891798023459863,47.63366792280925,1.0445899011729933,0.7482279060491667,A,503.1812999986869,Correct
17,417,447,B,59.88457511846087,37.60331830349815,2.994228755923044,0.590671542664342,B,600.8454999991955,Correct
17,417,448,A,35.090469554347365,53.479857748703054,1.7545234777173682,0.8400596410917636,A,638.9175999993313,Correct
17,417,449,A,52.77949017353754,60.896375925559546,2.6389745086768768,0.9565580361899011,A,655.5241000005481,Correct
17,417,450,A,41.83718675769504,57.863750818862286,2.0918593378847516,0.9089216724084406,A,564.2047000001185,Correct
17,417,451,B,51.54891986904041,22.758324157992263,2.5774459934520206,0.3574869199138181,B,647.5384000004851,Correct
17,417,452,A,55.33628841604471,78.93750661279158,2.7668144208022354,1.2399474543372087,A,467.1452999991743,Correct
17,417,453,A,52.932084330163505,73.46534807464042,2.646604216508175,1.1539909890235371,A,623.551699998643,Correct
17,417,454,A,46.323817039954115,60.74980303663638,2.316190851997706,0.9542556746346188,A,580.5302999997366,Correct
17,417,455,A,48.68081185045387,59.415574490601074,2.4340405925226936,0.9332976616424473,A,538.6410999999498,Correct
17,417,456,B,69.94592306793862,56.21971399083964,3.497296153396931,0.8830972023027055,B,578.3408999996027,Correct
17,417,457,A,16.413644024101213,45.865259223514514,0.8206822012050607,0.7204498071579235,A,478.27309999956924,Correct
17,417,458,B,36.161715436715546,20.232844361894983,1.8080857718357775,0.3178167760427747,B,569.8229000008723,Correct
17,417,459,A,50.04288076898614,71.26396898798924,2.502144038449307,1.1194118071915893,A,666.9445999996242,Correct
17,417,460,B,85.25274741229977,56.16253742747837,4.262637370614988,0.8821990749456391,B,536.7777999999817,Correct
17,417,461,A,18.199472004780624,42.987657437779504,0.9099736002390313,0.6752485440078136,A,473.64249999918684,Correct
17,417,462,A,28.260021496253792,42.37440560261301,1.4130010748126896,0.6656156067070159,A,699.8440000006667,Correct
17,417,463,A,64.39627993578523,87.16280809324752,3.2198139967892616,1.3691501878600167,A,657.9484000012599,Correct
17,417,464,A,51.85864571745762,82.10385421695634,2.592932285872881,1.289684326196987,A,507.5864999998885,Correct
17,417,465,B,51.42644739512386,43.354912704402494,2.571322369756193,0.6810173762458883,B,523.0864000004658,Correct
17,417,466,A,50.58429781897186,71.77490829359272,2.529214890948593,1.12743762303616,A,403.0806000009761,Correct
17,417,467,A,24.259621067811516,53.26430665263871,1.2129810533905756,0.8366737723924186,A,434.02989999958663,Correct
17,417,468,B,74.51733015043521,59.668681711958165,3.7258665075217605,0.9372734605783771,B,574.1821000010532,Correct
17,417,469,B,77.18770263982137,58.66028594983289,3.859385131991069,0.9214336169873577,B,456.65569999982836,Correct
17,417,470,A,55.046441799044885,67.51125001768166,2.7523220899522443,1.0604642354510623,A,551.8324000004213,Correct
17,417,471,B,74.08428313374338,49.825355301656224,3.7042141566871694,0.7826548508909222,B,609.7988000001351,Correct
17,417,472,A,59.24001284821249,83.65505297321162,2.962000642410624,1.3140504992815332,A,501.64480000057665,Correct
17,417,473,B,79.92501630106517,58.66065679973633,3.9962508150532585,0.9214394422840191,B,458.12069999919913,Correct
17,417,474,B,46.70874798134947,28.609601125088865,2.3354373990674735,0.4493985635835673,B,472.20519999973476,Correct
17,417,475,A,20.65569101355304,33.07425905117404,1.0327845506776518,0.5195292462904704,A,509.97409999945376,Correct
17,417,476,B,50.57161712292441,27.7174485101116,2.5285808561462204,0.4353846630780998,B,443.52489999982936,Correct
17,417,477,A,41.09343640357315,50.3018264276278,2.0546718201786573,0.7901392418359221,B,553.001199999926,Incorrect
17,417,478,A,27.553933042263495,43.27621285416182,1.3776966521131748,0.6797811618891146,A,556.6631999990932,Correct
17,417,479,A,25.73199003343893,40.09491573876767,1.2865995016719465,0.6298094636560714,A,399.9932999995508,Correct
17,417,480,B,56.27747615192794,30.170388187964054,2.813873807596397,0.47391534943630076,B,436.9609000004857,Correct
17,417,481,B,69.93374443708365,55.33147531640249,3.4966872218541822,0.8691447818314751,A,819.06650000019,Incorrect
17,417,482,B,60.007915635311406,39.74159064069675,3.00039578176557,0.624259445993929,B,399.2190999997547,Correct
17,417,483,A,38.12830473970651,48.53808109955245,1.9064152369853253,0.7624343950084977,B,1118.9634000002115,Incorrect
17,417,484,B,76.35072670899393,57.00700517409025,3.8175363354496965,0.8954639432903864,B,566.1510000009002,Correct
17,417,485,B,63.01685675215487,54.841330328836214,3.150842837607744,0.8614456023708148,B,577.7357999995729,Correct
17,417,486,B,82.88758354305872,60.045535313639554,4.144379177152937,0.9431930631109826,B,532.7746000002662,Correct
17,417,487,A,36.26549087415468,58.47290097531849,1.813274543707734,0.9184901806907201,B,707.1685000009893,Incorrect
17,417,488,A,55.49578477654582,73.70041740926173,2.7747892388272906,1.1576834494971895,A,559.3068999987736,Correct
17,417,489,A,18.06988706657938,47.642816734164185,0.903494353328969,0.7483716152418752,A,467.737599999964,Correct
17,417,490,B,61.345533377884934,50.672956117886386,3.0672766688942463,0.7959689333781491,B,661.4136999996845,Correct
17,417,491,B,48.983025193699184,42.10559370203025,2.449151259684959,0.6613931192466744,B,782.2352000002866,Correct
17,417,492,B,43.93424822188592,32.01336995271616,2.196712411094296,0.5028648393005266,B,673.8540999995166,Correct
17,417,493,B,65.9136502240984,41.05744525589752,3.2956825112049204,0.6449288419554637,B,892.3651999994036,Correct
17,417,494,A,54.29631181902913,64.65291362354246,2.7148155909514564,1.0155655923644824,A,1135.6894000000466,Correct
17,417,495,A,18.09487713951424,36.22122326668725,0.9047438569757119,0.5689616445933017,A,1028.1087000003026,Correct
17,417,496,A,13.827659765788123,38.512346637735064,0.6913829882894063,0.6049505263480601,A,1553.6700000011479,Correct
17,417,497,B,75.6583809928362,54.66600716383599,3.7829190496418104,0.8586916325349706,B,535.7167000001937,Correct
17,417,498,B,58.29723020965228,33.036588244299175,2.9148615104826137,0.518937514639806,B,593.7125000000378,Correct
17,417,499,A,51.401101381827615,81.68451931933981,2.570055069091381,1.2830974290282573,A,514.5602000011422,Correct
17,417,500,B,47.22087081740435,31.198465363554213,2.3610435408702175,0.49006434794708764,B,698.824400000376,Correct
17,417,501,B,51.34619423615372,23.804031108235847,2.5673097118076864,0.3739128462772833,B,505.18710000142164,Correct
17,417,502,B,42.168908343579105,19.03153785764391,2.1084454171789555,0.2989466976004507,B,424.96310000024096,Correct
17,417,503,A,40.39402759337994,64.72453348408669,2.019701379668997,1.0166905945031668,A,579.4341999990138,Correct
17,417,504,A,40.10455959970812,57.31416437237867,2.005227979985406,0.9002887886945135,A,851.1878999997862,Correct
17,417,505,B,77.95474788336045,65.45168263961989,3.897737394168023,1.0281126267286023,B,601.004300000568,Correct
17,417,506,A,48.91389791837289,73.03228050738328,2.4456948959186446,1.1471883795845217,A,458.39819999855536,Correct
17,417,507,B,71.35995897994181,38.51294693209681,3.5679979489970903,0.6049599557498445,B,581.6861000002973,Correct
17,417,508,B,43.17929539018811,16.72723512127274,2.1589647695094056,0.2627507948592981,B,469.9650999991718,Correct
17,417,509,B,54.92655946703833,39.953705110351436,2.7463279733519164,0.6275913322918651,B,402.6885000002949,Correct
17,417,510,A,51.97571573625195,80.32368552500586,2.598785786812597,1.261721501773076,A,616.7590000004566,Correct
17,417,511,A,68.01113991209235,85.62444929892621,3.4005569956046173,1.3449857044258915,A,537.1097999995982,Correct
17,417,512,A,42.80089160093042,63.92499937280655,2.140044580046521,1.004131542051706,A,414.3394000002445,Correct
17,417,513,B,63.408370017030926,40.41374848380398,3.170418500851546,0.6348176767037211,B,716.1582999997336,Correct
17,417,514,B,70.46474633533178,49.85348234005115,3.523237316766589,0.7830966693768658,B,390.9399999993184,Correct
17,417,515,B,77.11534274070175,63.891891360772156,3.8557671370350874,1.003611482614795,B,438.38789999972505,Correct
17,417,516,B,35.86832904497247,22.713620093841747,1.7934164522486236,0.35678471011621377,B,484.17850000078033,Correct
17,417,517,B,75.05299787528972,49.56049842392677,3.7526498937644863,0.7784944887842842,B,392.895300001328,Correct
17,417,518,B,53.68651827193225,22.24334429118558,2.684325913596613,0.34939763508228544,B,404.2028999992908,Correct
17,417,519,A,38.750955573260875,65.70916173965699,1.9375477786630437,1.0321570989742495,A,447.338399999353,Correct
17,417,520,B,39.09778167078667,13.965539145525469,1.9548890835393333,0.2193701759150174,B,546.3528000000224,Correct
17,417,521,A,27.185949864959504,51.259115925193925,1.359297493247975,0.8051763101004841,A,462.21540000078676,Correct
17,417,522,A,45.079077773310246,64.31085018441752,2.2539538886655124,1.0101924724273994,A,523.4651999999187,Correct
17,417,523,B,82.77790392784095,65.06735217591896,4.138895196392047,1.0220755779220343,B,591.6130000005069,Correct
17,417,524,B,55.55546445114533,46.76992085414922,2.7777732225572667,0.7346601988218563,B,796.0325999993074,Correct
17,417,525,B,79.6290703946982,66.03464571583018,3.9814535197349104,1.037269789316284,B,505.30369999978575,Correct
17,417,526,A,23.772804120640096,37.005067930378814,1.188640206032005,0.5812742477783467,A,431.6655000002356,Correct
17,417,527,B,60.937038164362775,42.65832627913426,3.0468519082181387,0.670075422264823,B,574.8409000007086,Correct
17,417,528,B,42.83757277284076,19.75754804195621,2.141878638642038,0.31035083890778514,B,537.3274000012316,Correct
17,417,529,A,40.057399289696434,59.421852066597154,2.002869964484822,0.9333962695756055,A,456.57329999994545,Correct
17,417,530,A,30.656185259935604,48.26895457038897,1.5328092629967802,0.7582069653739671,A,844.4438000005903,Correct
17,417,531,B,67.82429347602152,56.99850379306995,3.391214673801076,0.8953304039095926,B,943.4633000000758,Correct
17,417,532,B,86.43674174998593,64.48815695178965,4.321837087499296,1.0129776006164397,B,426.24869999963266,Correct
17,417,533,A,50.31205435589274,78.98239995962243,2.515602717794637,1.240652637380203,A,460.5303999996977,Correct
17,417,534,B,42.31742764115015,34.457951891329785,2.1158713820575072,0.5412642425977608,B,482.29799999899114,Correct
17,417,535,B,51.96554454267438,35.814783352866634,2.598277227133719,0.5625773013563791,B,422.44749999917985,Correct
17,417,536,A,39.23404698148777,71.60746573670649,1.9617023490743888,1.1248074415030995,A,491.7132999999012,Correct
17,417,537,B,80.02728134435482,52.756924967608185,4.001364067217741,0.8287038395211289,B,543.2911999996577,Correct
17,417,538,B,82.83930232826515,62.364855714495945,4.141965116413258,0.9796248627742394,B,501.6928999993979,Correct
17,417,539,A,52.49542843647065,60.67092738396209,2.6247714218235325,0.9530166987796755,B,447.6085999995121,Incorrect
17,417,540,A,13.510492308992763,39.03711777683269,0.6755246154496382,0.6131936121250854,A,435.49200000052224,Correct
17,417,541,A,15.900172908592154,41.130177638046376,0.7950086454296077,0.6460713195426485,A,385.8479999998963,Correct
17,417,542,A,26.507115512841352,47.378574828068295,1.3253557756420675,0.7442209130870683,A,468.3504999993602,Correct
17,417,543,A,62.595808779022924,87.32858297205014,3.129790438951146,1.3717541735669971,B,426.45620000075724,Incorrect
17,417,544,A,29.857876767056986,59.88199817676431,1.4928938383528492,0.9406242277720006,A,539.7984000010183,Correct
17,417,545,B,72.60846924553915,41.04859984696686,3.6304234622769576,0.644789898596891,B,454.3415999996796,Correct
17,417,546,B,75.6572860616233,53.536034233957814,3.7828643030811646,0.8409420592586678,B,719.4698000002973,Correct
17,417,547,A,42.47953768210841,53.04185389480094,2.1239768841054203,0.8331794926434488,B,506.22239999938756,Incorrect
17,417,548,A,48.9039816297399,77.97427645402468,2.4451990814869955,1.2248170703847174,A,717.2613000002457,Correct
17,417,549,A,68.67620281015674,82.02413934054249,3.4338101405078367,1.288432167846369,A,425.43509999995877,Correct
