subject,day,trial,cat,x,y,xt,yt,resp,rt,fb
14,414,0,A,31.507910470182715,51.48056262878871,1.5753955235091357,0.8086547867863593,B,636.4451999997982,Incorrect
14,414,1,B,44.09281453916174,30.52587433163368,2.204640726958087,0.479499312723328,A,952.0591999998942,Incorrect
14,414,2,B,68.01293097954922,43.793258782756105,3.400646548977461,0.6879029003433164,B,643.167899999753,Correct
14,414,3,A,27.483460175674104,39.75836075646511,1.3741730087837052,0.6245228703564175,A,1033.8104000002204,Correct
14,414,4,A,22.993273534431996,42.19351841312779,1.1496636767215997,0.6627742373789396,A,555.7230000003983,Correct
14,414,5,A,11.143235905562413,36.0487335729857,0.5571617952781207,0.5662521828205379,A,498.9153000005899,Correct
14,414,6,B,61.980696495286914,52.091044128030774,3.0990348247643458,0.8182442077522162,B,495.1069999997344,Correct
14,414,7,B,54.214893705924496,43.599567398105776,2.710744685296225,0.6848604031879107,B,474.9615000000631,Correct
14,414,8,B,61.84301568769607,34.038897051297745,3.092150784384803,0.5346817445632813,B,481.62740000043414,Correct
14,414,9,B,65.3036536149296,49.40258595291951,3.26518268074648,0.7760140054901512,B,574.5587000001251,Correct
14,414,10,B,44.11283205059848,29.36421568964034,2.205641602529924,0.4612520214450011,A,797.7893999996013,Incorrect
14,414,11,A,12.288075256186623,32.82068308609029,0.6144037628093312,0.5155460843453002,A,483.32459999983257,Correct
14,414,12,A,13.06692813481278,38.35532184327509,0.653346406740639,0.6024839866445258,A,543.2097000002614,Correct
14,414,13,B,76.04586965405697,60.60158480659767,3.8022934827028485,0.9519274681215303,B,527.8091999998651,Correct
14,414,14,B,34.52412338107011,14.216473707302715,1.7262061690535058,0.22331184679407332,A,558.9749000000666,Incorrect
14,414,15,A,26.58423136735927,50.45283330986829,1.3292115683679635,0.7925112523953631,B,805.6182999998782,Incorrect
14,414,16,B,48.367760213333405,40.09794577209811,2.4183880106666704,0.6298570593083266,B,864.6539000001212,Correct
14,414,17,B,40.106880014468054,28.082265760424136,2.0053440007234027,0.44111519904552327,A,541.6209000004528,Incorrect
14,414,18,B,57.08174838914832,48.51723450961943,2.854087419457416,0.7621069375395679,B,593.5349999999744,Correct
14,414,19,A,63.80105504921733,85.92733831053405,3.1900527524608666,1.3497434738944927,B,748.8612999995894,Incorrect
14,414,20,B,39.72755279014455,22.467522740172008,1.9863776395072277,0.35291902192443,A,886.7915000000721,Incorrect
14,414,21,A,28.106971970039616,39.386795567945846,1.4053485985019807,0.6186863380235084,A,729.2759000001752,Correct
14,414,22,A,59.8877578423336,86.88326074795165,2.9943878921166798,1.3647590684284565,B,538.4332000003269,Incorrect
14,414,23,B,54.350953809345114,46.70106736264814,2.717547690467256,0.7335786507064872,A,690.1714000005086,Incorrect
14,414,24,A,44.285961940897444,52.33497151672829,2.214298097044872,0.8220758102139232,B,638.0462000006446,Incorrect
14,414,25,A,28.46705951868998,52.05528377436622,1.423352975934499,0.8176824854304042,A,3516.396799999711,Correct
14,414,26,A,19.245930103385728,32.402144028028175,0.9622965051692864,0.5089716881950584,A,758.683099999871,Correct
14,414,27,A,59.25286677193574,86.89886784558736,2.962643338596787,1.3650042241448377,B,647.4914000000354,Incorrect
14,414,28,B,80.86483336942658,59.36977501777601,4.043241668471329,0.9325782452056198,A,852.4797999998555,Incorrect
14,414,29,B,61.65272215639159,42.5555997075068,3.0826361078195794,0.6684617970510566,B,509.32840000041324,Correct
14,414,30,A,43.91526210853665,55.95617992764174,2.1957631054268325,0.8789576189181397,A,661.0579000007419,Correct
14,414,31,A,52.56891337675873,66.45529135773401,2.6284456688379363,1.0438772756081323,B,647.2858000006454,Incorrect
14,414,32,B,73.31517010023614,53.66255439162326,3.6657585050118073,0.8429294332479317,A,576.1462999998912,Incorrect
14,414,33,B,36.7217791743391,13.899897073871806,1.8360889587169549,0.2183390726646496,A,775.0870999998369,Incorrect
14,414,34,A,67.97016729666593,88.50455250081689,3.3985083648332965,1.3902262597290924,B,499.4957999997496,Incorrect
14,414,35,A,48.069350832427816,71.80563983131495,2.4034675416213904,1.1279203529018684,B,1146.9406999995044,Incorrect
14,414,36,A,39.96349249836257,51.378659905440706,1.9981746249181285,0.807054102551105,A,492.3436999997648,Correct
14,414,37,A,62.84847128336144,84.4969913583824,3.142423564168072,1.327275636509672,B,550.2872999995816,Incorrect
14,414,38,A,49.50192595324178,58.38225332649633,2.475096297662089,0.9170662907526957,B,673.925799999779,Incorrect
14,414,39,B,54.90223566310569,33.60188983189877,2.7451117831552847,0.5278172512131337,B,672.7838999995583,Correct
14,414,40,B,46.09352344397501,20.99986988767074,2.3046761721987505,0.32986518482723953,B,534.9071999999069,Correct
14,414,41,B,65.13876528969189,45.22653387261832,3.2569382644845946,0.7104167328077382,B,606.6467000000557,Correct
14,414,42,B,42.63805851505492,15.194635243535,2.131902925752746,0.23867677227533057,B,656.3143999992462,Correct
14,414,43,B,45.5001510046944,34.974417765569605,2.27500755023472,0.5493768695794691,B,553.4354000001258,Correct
14,414,44,A,22.07482873478106,48.87683385830312,1.103741436739053,0.7677555108998697,A,495.78550000023824,Correct
14,414,45,B,69.02495385454768,57.719786889886876,3.451247692727384,0.9066602923001852,B,685.6277999995655,Correct
14,414,46,A,66.76239401400578,87.00918259015478,3.338119700700289,1.3667370441004159,A,710.4380999999194,Correct
14,414,47,B,47.79868740039727,35.55753785201713,2.389934370019864,0.55853649847819,B,546.586199999183,Correct
14,414,48,B,34.79278702797223,18.68405440827447,1.7396393513986115,0.2934884403415353,B,557.6523999998244,Correct
14,414,49,B,61.631327668500106,50.88674259129681,3.081566383425005,0.7993270834496644,B,754.6401999998125,Correct
14,414,50,B,79.74114231621759,55.71540423170598,3.987057115810879,0.8751755231305658,B,1172.3001999998814,Correct
14,414,51,B,62.56140940008783,51.813806410767555,3.128070470004392,0.8138893678729553,B,709.462199999507,Correct
14,414,52,A,16.012436136281607,43.26824968911424,0.8006218068140804,0.6796560767850508,A,547.2446000003401,Correct
14,414,53,B,57.984185116206625,42.004528828589955,2.8992092558103315,0.6598055959269944,B,600.2428000001601,Correct
14,414,54,B,56.17106059760588,36.848281212441485,2.808553029880294,0.5788114477720848,B,640.4670000001715,Correct
14,414,55,B,54.15693582707558,40.63755950255194,2.707846791353779,0.6383332919651763,B,576.5909000001557,Correct
14,414,56,B,59.293007247881114,29.77179382185971,2.9646503623940554,0.4676542437747222,B,630.8797000001505,Correct
14,414,57,A,36.930513120826035,48.77143442566738,1.846525656041302,0.766099900483565,A,553.928199999973,Correct
14,414,58,B,47.25340154311885,21.386016915340775,2.3626700771559426,0.33593076815390815,B,424.05409999992116,Correct
14,414,59,B,47.762624038206845,21.507633643811836,2.3881312019103422,0.33784111925749966,B,483.61060000024736,Correct
14,414,60,A,13.448228750053122,30.831112337178634,0.6724114375026561,0.48429398010241015,A,471.5144000001601,Correct
14,414,61,A,42.792120701002005,69.42482409323665,2.1396060350501003,1.0905225867403796,B,507.38900000033027,Incorrect
14,414,62,B,33.84471936997858,11.27920759376715,1.6922359684989288,0.17717337857446547,A,675.96229999981,Incorrect
14,414,63,A,27.76062301155679,44.639986036660765,1.3880311505778393,0.701203260945622,B,664.385900000525,Incorrect
14,414,64,B,66.07577666637113,37.02955663104114,3.303788833318556,0.5816589153888303,B,591.3141000000905,Correct
14,414,65,A,34.40765802208613,58.50336111341931,1.7203829011043066,0.9189686474211444,A,695.0725000006059,Correct
14,414,66,A,35.76232741543128,54.97722973638536,1.7881163707715642,0.8635803052727328,B,413.96869999971386,Incorrect
14,414,67,A,67.9218989806073,81.48275253422905,3.3960949490303647,1.2799280837790452,B,658.4219999995184,Incorrect
14,414,68,A,55.3066968434173,84.18598168290644,2.765334842170865,1.3223903079513188,B,490.1497999999265,Incorrect
14,414,69,B,71.91790471200643,56.75399478617594,3.5958952356003215,0.8914896654106188,B,528.2462000004671,Correct
14,414,70,A,28.570452238381485,46.65620086086718,1.4285226119190741,0.7328738893445506,A,595.0170999994953,Correct
14,414,71,A,68.43030654981578,81.7494999225381,3.421515327490789,1.2841181419564254,B,582.2984999995242,Incorrect
14,414,72,A,28.644247100114953,46.351437340352895,1.4322123550057477,0.7280866751589014,A,507.8937999996924,Correct
14,414,73,B,54.540291651062816,24.024785730214887,2.727014582553141,0.37738045177055995,B,643.0362999999488,Correct
14,414,74,A,17.82218554364696,44.90695575313759,0.8911092771823479,0.7053968114456947,A,581.0219999993933,Correct
14,414,75,B,86.18734613249904,61.789949240982494,4.309367306624952,0.9705942530057842,B,490.5224000003727,Correct
14,414,76,A,43.0404220339652,69.38687173777501,2.15202110169826,1.089926432534856,B,1029.0241000002425,Incorrect
14,414,77,A,51.23093602148685,78.20005688499876,2.5615468010743423,1.2283636211010802,A,935.2452000002813,Correct
14,414,78,B,73.05644881857948,57.95124873933591,3.6528224409289742,0.9102960865292622,B,447.0002000007298,Correct
14,414,79,B,56.04414939615095,35.39921425158867,2.8022074698075476,0.5560495571782104,B,581.925799999226,Correct
14,414,80,A,44.222852028212166,58.343729768865146,2.2111426014106086,0.9164611641244744,A,606.2256999994133,Correct
14,414,81,A,25.563744741941427,55.09281006453409,1.2781872370970715,0.8653958368217907,A,718.2329000006575,Correct
14,414,82,B,49.56120371677292,29.20870370124193,2.478060185838646,0.45880924484351315,B,489.29730000054406,Correct
14,414,83,A,49.613279408327614,57.42194840828174,2.480663970416381,0.9019818563713503,B,653.7484999998924,Incorrect
14,414,84,B,59.00973556326233,50.94961984372783,2.9504867781631168,0.8003147570212406,B,597.1920000001774,Correct
14,414,85,A,51.48449052770155,77.13654642906484,2.574224526385078,1.2116580379241904,A,669.7432999999364,Correct
14,414,86,B,66.92804718016255,44.94704712748688,3.3464023590081275,0.7060265652813351,B,437.22080000043206,Correct
14,414,87,B,57.57801688526137,26.053357915005606,2.878900844263068,0.40924518913563546,A,289.6142999998119,Incorrect
14,414,88,B,73.07422834139712,54.568811369243946,3.6537114170698555,0.8571648845637199,B,391.7202000002362,Correct
14,414,89,B,66.78598735755139,48.542797502325435,3.3392993678775698,0.7625084800900127,B,578.7881999995079,Correct
14,414,90,B,35.55675114632085,14.23416183805072,1.7778375573160423,0.22358969130214162,A,576.5781000000061,Incorrect
14,414,91,A,60.50606215997667,79.32919498710714,3.0253031079988335,1.2461000809334402,B,518.6721999998554,Incorrect
14,414,92,B,71.85926370628903,43.815601994635976,3.5929631853144515,0.6882538666948133,A,431.23470000045927,Incorrect
14,414,93,B,71.25141832182241,40.42998089092178,3.5625709160911208,0.635072654758478,B,435.1305999998658,Correct
14,414,94,A,44.730121368915626,56.361334753648265,2.2365060684457814,0.8853217760428824,B,557.3463000000629,Incorrect
14,414,95,A,28.54819548201148,55.827976096897025,1.4274097741005738,0.8769437978539912,B,1259.4254000005094,Incorrect
14,414,96,B,51.36896693176,32.125975502935546,2.5684483465879997,0.5046336431471398,B,513.7930999999298,Correct
14,414,97,B,39.978541603328345,31.419740969077587,1.9989270801664174,0.49354013703074195,B,1179.1879000002154,Correct
14,414,98,A,55.90077444061166,69.54365149455808,2.7950387220305832,1.0923891231955625,B,574.5325999996567,Incorrect
14,414,99,B,71.09986151120515,47.08167927516048,3.5549930755602577,0.7395572886475751,B,603.5184000002118,Correct
14,414,100,A,17.068231676276056,40.34718351811373,0.8534115838138028,0.6337720766677264,A,545.5611999996108,Correct
14,414,101,A,40.164022897990144,47.97819229177042,2.008201144899507,0.7536396821817221,B,565.4859999995097,Incorrect
14,414,102,A,56.11098487503148,70.22983823050455,2.8055492437515737,1.1031677192387637,B,571.8467000006058,Incorrect
14,414,103,B,74.28127219605747,63.24862314862037,3.7140636098028734,0.9935070491668755,B,609.6485000007306,Correct
14,414,104,B,80.35495178151618,63.38871016234521,4.017747589075809,0.995707530832782,B,547.0447999996395,Correct
14,414,105,B,52.25990981349892,34.561836040963456,2.6129954906749457,0.5428960510043287,B,1020.4101999997874,Correct
14,414,106,A,42.03550095147309,51.605041120435814,2.1017750475736547,0.8106100903608018,A,1237.0061999999962,Correct
14,414,107,B,32.77731821921007,18.691813548767286,1.6388659109605037,0.2936103206353873,B,774.3876999993518,Correct
14,414,108,B,83.92932578301931,54.34527394629581,4.196466289150965,0.8536535669350386,B,567.2273000000132,Correct
14,414,109,B,83.77008858371808,60.58919561789921,4.188504429185904,0.9517328592005351,B,578.3244000003833,Correct
14,414,110,A,47.54115148315967,65.34427521840449,2.3770575741579836,1.0264254749014456,B,721.4915000004112,Incorrect
14,414,111,B,33.799393305584005,13.897356872559303,1.6899696652792002,0.21829917127573964,A,742.7690000004077,Incorrect
14,414,112,B,40.417726103964156,24.34036259519703,2.020886305198208,0.38233752157391393,B,440.45179999920947,Correct
14,414,113,A,31.166914942683093,46.509945838116764,1.5583457471341546,0.730576520819434,B,507.7393999999913,Incorrect
14,414,114,A,49.42040908516472,74.09695235430509,2.471020454258236,1.163912205848389,B,500.616500000433,Incorrect
14,414,115,B,61.397937166807026,31.74468166202704,3.069896858340351,0.4986442934998539,B,539.2393000001903,Correct
14,414,116,A,29.910309782270012,40.06820830414653,1.4955154891135007,0.6293899442540615,A,473.2782999999472,Correct
14,414,117,A,20.288513526465433,44.70925704329039,1.0144256763232717,0.702291367373294,A,504.5079999999871,Correct
14,414,118,A,35.4446203181022,61.18971578243383,1.7722310159051102,0.9611658078867077,A,862.5932999993893,Correct
14,414,119,A,11.50940139537088,35.108688885805584,0.575470069768544,0.5514859954040822,A,441.6476000005787,Correct
14,414,120,B,84.5158637974249,61.155344972831486,4.225793189871245,0.9606259124719845,B,570.7911999998032,Correct
14,414,121,A,21.32126345030539,45.31686227989365,1.0660631725152696,0.7118356081112714,A,597.8279000000839,Correct
14,414,122,A,66.89163703516266,83.4489962516037,3.344581851758133,1.3108137678674021,B,585.971999999856,Incorrect
14,414,123,A,26.090299560318872,47.68047941976745,1.3045149780159437,0.7489632193239036,A,444.21369999963645,Correct
14,414,124,A,47.9509382366836,63.83948349741847,2.39754691183418,1.0027882618222834,B,681.4096999996764,Incorrect
14,414,125,B,45.198693709530524,20.97144686272602,2.259934685476526,0.32941871699544384,B,589.3569999998363,Correct
14,414,126,A,66.97180433780275,79.61689182819745,3.348590216890137,1.2506192123455917,B,570.5963999998858,Incorrect
14,414,127,A,17.949035991727477,38.55005813517262,0.8974517995863738,0.6055428971645888,A,558.2100000001446,Correct
14,414,128,A,68.05835803771045,85.54879261918146,3.4029179018855222,1.3437972920794858,B,762.0583000007173,Incorrect
14,414,129,A,52.829113756555195,76.25114217285625,2.6414556878277597,1.19775014039038,A,659.7608000001856,Correct
14,414,130,B,70.17995660934291,52.543148720983595,3.5089978304671456,0.8253458500915899,B,680.1910999993197,Correct
14,414,131,A,38.549984360893966,68.09901289602357,1.9274992180446984,1.069696793154321,A,849.0553000001455,Correct
14,414,132,B,53.157200615467765,42.95592756016037,2.657860030773388,0.6747501322556757,B,844.3700999996508,Correct
14,414,133,B,42.67228518382707,15.847135470107307,2.1336142591913534,0.24892622186665675,B,823.9534000003914,Correct
14,414,134,B,57.874002100080304,26.155394970221508,2.893700105004015,0.41084798345093665,B,460.94259999972564,Correct
14,414,135,B,87.73644201903697,65.19796196829424,4.386822100951849,1.0241271917430994,B,715.8707999997205,Correct
14,414,136,A,43.41245535091147,59.1516270907785,2.1706227675455736,0.9291515855813635,A,674.2366999997103,Correct
14,414,137,A,22.29702356082824,33.83166759100524,1.1148511780414119,0.5314265918129698,A,500.42240000038873,Correct
14,414,138,A,47.33331200996019,55.64315964811585,2.3666656004980093,0.8740407078652238,A,786.2821999997323,Correct
14,414,139,A,15.891877560184895,41.25825712946253,0.7945938780092447,0.6480831874891909,A,504.6071999995547,Correct
14,414,140,A,25.832098966306248,36.937726840336516,1.2916049483153125,0.5802164564095386,A,681.1797000000297,Correct
14,414,141,B,68.04104689408922,37.10851805113057,3.402052344704461,0.5828992384751801,B,547.1477000000959,Correct
14,414,142,A,64.60760846694659,77.1114227892742,3.2303804233473294,1.211263396713202,A,818.901000000551,Correct
14,414,143,B,57.23952363635548,35.252168635149545,2.861976181817774,0.5537397700364717,A,820.5578999995851,Incorrect
14,414,144,A,12.556924269079943,35.05451239106669,0.6278462134539972,0.5506349930147374,A,522.3718000006556,Correct
14,414,145,B,61.94602897194818,50.43507490662923,3.097301448597409,0.7922323040495866,B,516.5938000000097,Correct
14,414,146,A,68.63777326368327,88.42413971923216,3.4318886631841634,1.3889631387096861,A,688.2126000000426,Correct
14,414,147,A,60.62783203409416,79.30691543916429,3.031391601704708,1.2457501146127274,B,528.4975999993549,Incorrect
14,414,148,A,52.19583979488827,66.61268159760368,2.609791989744414,1.0463495557147386,B,723.2087000002139,Incorrect
14,414,149,B,34.2589687524912,12.310738295493259,1.71294843762456,0.19337662494694077,A,480.7918000005884,Incorrect
14,414,150,B,38.32341589479886,25.437987906415636,1.9161707947399433,0.3995789796445067,B,751.7136999995273,Correct
14,414,151,B,64.89991125919263,37.40064458433476,3.244995562959632,0.5874879513283449,B,566.6393000001335,Correct
14,414,152,B,47.84809853156407,30.311296325880026,2.3924049265782035,0.4761287292908398,B,505.6787000003169,Correct
14,414,153,A,41.107402957693374,54.13570723531733,2.055370147884669,0.8503617007368035,B,475.07339999992837,Incorrect
14,414,154,B,80.53959331763181,52.99709903295924,4.026979665881591,0.8324764849175774,B,526.1280999993687,Correct
14,414,155,A,21.99965095675726,51.609365911636274,1.099982547837863,0.8106780240221201,A,561.4675999995598,Correct
14,414,156,A,32.8590139498594,53.46622205783241,1.64295069749297,0.8398454521604342,A,820.2355000003081,Correct
14,414,157,B,64.52333725114693,44.6927269524358,3.2261668625573465,0.7020317133133344,B,626.2864999998783,Correct
14,414,158,A,46.16450653386029,62.76991043595751,2.308225326693014,0.9859874474604671,A,733.9277999999467,Correct
14,414,159,B,33.290491450838246,10.365855265401137,1.6645245725419124,0.16282647374979645,A,824.9563999997918,Incorrect
14,414,160,B,41.734722592216116,33.71288551217971,2.086736129610806,0.5295607672818877,B,584.1200000004392,Correct
14,414,161,A,26.251858768317167,42.17031186208055,1.3125929384158583,0.6624097097275139,A,581.9482000006246,Correct
14,414,162,A,36.55840136465094,46.61737937914275,1.827920068232547,0.7322640829356158,A,721.5979000002335,Correct
14,414,163,A,43.98508331295389,51.67759105894638,2.1992541656476945,0.8117497021300176,B,551.112699999976,Incorrect
14,414,164,B,84.87806462106326,64.7105626981631,4.243903231053163,1.0164711419110546,B,658.9604000000691,Correct
14,414,165,A,25.259060957554613,37.50557627357237,1.2629530478777307,0.589136214448533,A,557.2148999999627,Correct
14,414,166,A,44.34125527508939,57.9799939172066,2.2170627637544693,0.9107476147273857,A,1123.5805999995137,Correct
14,414,167,A,14.30768435085987,39.398235856611194,0.7153842175429935,0.6188660416576385,A,539.8939999995491,Correct
14,414,168,A,32.80328045872536,55.35935217212504,1.6401640229362682,0.869582670457191,A,668.9888000000792,Correct
14,414,169,A,54.25227535859123,71.443900347836,2.7126137679295614,1.1222381623828144,A,844.1935999999259,Correct
14,414,170,B,55.24313413191813,25.08426106711769,2.7621567065959067,0.3940226514459271,B,566.677100000561,Correct
14,414,171,B,84.92569068180028,59.17706373484313,4.246284534090014,0.9295511434519907,B,622.9876999996122,Correct
14,414,172,A,39.30972984242489,64.02559305253563,1.9654864921212447,1.005711663877878,A,843.1177000002208,Correct
14,414,173,A,37.75884438225624,62.282118032329116,1.8879422191128123,0.9783252223018876,A,984.3965000000026,Correct
14,414,174,B,34.39472216850942,11.717888947317437,1.719736108425471,0.18406416916236748,B,561.4969999996902,Correct
14,414,175,B,59.27179154310798,33.31093402261914,2.963589577155399,0.523246928048373,B,964.8556000001918,Correct
14,414,176,B,46.149425499217195,30.241809704137403,2.3074712749608595,0.47503723598889297,A,526.5276999998605,Incorrect
14,414,177,A,42.61479598552783,68.44248810053054,2.1307397992763915,1.075092089050168,B,483.797400000185,Incorrect
14,414,178,A,63.34113552576388,85.73625446568501,3.167056776288194,1.3467419358785055,B,514.9728999995205,Incorrect
14,414,179,A,51.88902261214829,76.6248525853423,2.5944511306074145,1.2036203698225614,B,659.8119000000224,Incorrect
14,414,180,B,68.40991111793036,46.148160488022164,3.4204955558965184,0.724893609829266,B,625.6217000000106,Correct
14,414,181,A,51.4574371257889,69.26710850771902,2.572871856289445,1.0880451961162858,B,508.1264000000374,Incorrect
14,414,182,A,16.968265016213522,31.723283600390857,0.8484132508106761,0.4983081735336674,B,899.5586000000912,Incorrect
14,414,183,A,36.907807866066356,56.74015364901607,1.8453903933033178,0.8912722493365249,A,618.7655999992785,Correct
14,414,184,A,23.533686907613216,34.63755499269728,1.1766843453806608,0.5440854415168512,B,647.1960999997464,Incorrect
14,414,185,A,56.04880301988062,76.06335306332797,2.802440150994031,1.1948003559557892,B,556.130299999495,Incorrect
14,414,186,A,29.2555898274639,46.68578181856564,1.4627794913731949,0.7333385459415087,B,648.5934000002089,Incorrect
14,414,187,B,45.67127277010298,29.70865751828923,2.2835636385051488,0.46666250103736306,B,452.4827000004734,Correct
14,414,188,B,47.96380133396295,40.201088078432534,2.3981900666981475,0.6314772148675993,B,506.5994000005958,Correct
14,414,189,A,45.89358662790913,77.7494575054783,2.2946793313954568,1.2212856225990123,B,448.3986000004734,Incorrect
14,414,190,A,65.20113878524268,84.38214307417152,3.260056939262134,1.3254716038799006,B,472.6987999993071,Incorrect
14,414,191,B,71.5268400241232,57.07116137667856,3.57634200120616,0.8964717065640545,B,850.043899999946,Correct
14,414,192,A,52.33205231034802,76.91949312559969,2.6166026155174005,1.208248572606173,B,827.7251999998043,Incorrect
14,414,193,A,31.97212006114833,49.21664057634597,1.5986060030574165,0.7730931823450891,A,582.4972000000344,Correct
14,414,194,A,53.56958121580895,73.14023284498899,2.6784790607904476,1.1488840909383213,B,467.53290000015113,Incorrect
14,414,195,A,25.425556484911233,47.273491123945156,1.2712778242455616,0.7425702621226419,B,573.7502000001768,Incorrect
14,414,196,A,45.22812289033445,54.38971324621342,2.261406144516722,0.8543516178257977,B,480.2438999995502,Incorrect
14,414,197,B,51.366486998338694,37.971635869468464,2.5683243499169346,0.5964570614615441,B,513.3508999997503,Correct
14,414,198,B,79.80293035847775,54.99689593483103,3.9901465179238875,0.8638892211955377,B,479.9872999992658,Correct
14,414,199,B,60.01625606893877,34.99121909795356,3.000812803446939,0.5496407842914088,B,597.7988999993613,Correct
14,414,200,B,58.16651986273563,36.034948019281245,2.9083259931367813,0.56603563984932,B,395.0323999997636,Correct
14,414,201,B,69.39617541181718,40.71621509152761,3.469808770590859,0.639568811067625,B,450.2415999995719,Correct
14,414,202,A,44.85347835950101,56.19755574149367,2.2426739179750506,0.882749141335897,B,511.75530000000435,Incorrect
14,414,203,B,31.775023195963826,13.254150802236808,1.5887511597981914,0.20819571394939212,B,751.227600000675,Correct
14,414,204,A,38.97236430415352,65.54248355147777,1.9486182152076763,1.029538924116762,B,929.4796000003771,Incorrect
14,414,205,A,69.90877962153839,87.4012525032013,3.4954389810769193,1.3728956638930188,B,837.8894000006767,Incorrect
14,414,206,A,16.838828328233685,42.86845770159958,0.8419414164116843,0.6733761589303502,A,706.6383999999744,Correct
14,414,207,A,61.470483608379055,80.45847400567932,3.0735241804189526,1.2638387542764373,B,777.5276000002123,Incorrect
14,414,208,B,38.488830447084084,24.949737253298697,1.924441522354204,0.3919095563197938,B,351.0537000001932,Correct
14,414,209,B,85.08662965447124,64.89810189558357,4.254331482723562,1.019417000735436,B,1039.0346999993199,Correct
14,414,210,A,49.097080672914785,56.820735828391356,2.454854033645739,0.8925380312502033,B,791.6600999997172,Incorrect
14,414,211,A,61.56525195366332,84.90464586655938,3.078262597683166,1.3336790585501297,B,425.32519999986107,Incorrect
14,414,212,B,55.510226236664536,40.899407586334334,2.775511311833227,0.642446392047013,B,534.0392999996766,Correct
14,414,213,B,64.52318538831446,52.393055606335516,3.226159269415723,0.8229881929599259,B,557.4977999995099,Correct
14,414,214,B,63.08046981319286,47.90679635814168,3.154023490659643,0.7525181974788009,B,705.3506000002017,Correct
14,414,215,B,83.92687945462202,65.97665805421869,4.196343972731102,1.0363589212576965,B,502.3193999995783,Correct
14,414,216,B,87.23049235636208,68.89258811418516,4.361524617818104,1.082162243531558,B,668.9905000002909,Correct
14,414,217,B,72.26372390959813,39.305993122214765,3.6131861954799063,0.6174170961740043,B,391.4900999998281,Correct
14,414,218,B,60.920125495756594,41.60618711783907,3.0460062747878296,0.6535484589664277,B,618.2756999996855,Correct
14,414,219,B,44.38587509077634,36.5736252965867,2.2192937545388167,0.5744971627345129,B,269.32510000006005,Correct
14,414,220,A,50.93391942356524,79.84480108710993,2.546695971178262,1.2541992026130142,B,358.9621999999508,Incorrect
14,414,221,A,10.301007113553617,32.65163038804049,0.5150503556776809,0.5128906107739862,A,671.2960999993811,Correct
14,414,222,A,49.79196203340453,69.19670349984817,2.4895981016702264,1.0869392768387707,B,459.15620000050694,Incorrect
14,414,223,A,27.28686690524951,56.825954186355425,1.3643433452624754,0.8926200010254217,A,2071.596099999624,Correct
14,414,224,B,42.18294636722137,14.106322351369379,2.1091473183610687,0.22158159334115765,B,1650.0840000007884,Correct
14,414,225,A,42.34967165833441,53.245127663335495,2.1174835829167207,0.8363725095329272,A,526.7978000001676,Correct
14,414,226,A,53.6532688706436,69.55808250613939,2.68266344353218,1.092615804995401,A,782.5694000002841,Correct
14,414,227,A,32.13819156582014,41.56242493896315,1.6069095782910068,0.6528610442681192,A,471.67669999998907,Correct
14,414,228,A,21.304396400095243,44.298726366536414,1.0652198200047622,0.6958427665824763,A,536.5198999998029,Correct
14,414,229,A,50.08485654995948,59.46299325716722,2.504242827497974,0.9340425138858797,B,505.06599999971513,Incorrect
14,414,230,B,74.7760067269198,44.99755995056294,3.7388003363459905,0.7068200188507741,A,576.5422000004037,Incorrect
14,414,231,A,18.374569451632293,32.02439688165184,0.9187284725816147,0.5030380498952064,A,503.7368000002971,Correct
14,414,232,B,38.69932112653023,17.174031475201858,1.9349660563265116,0.2697690555750702,B,497.65949999982695,Correct
14,414,233,B,40.623956414400034,27.045233909477275,2.0311978207200014,0.4248255408231568,A,1491.338199999518,Incorrect
14,414,234,A,27.132555786409526,41.40639836565737,1.3566277893204761,0.6504101845858081,B,605.5971999994654,Incorrect
14,414,235,A,48.748689611046785,62.12524774182034,2.4374344805523394,0.9758611095407433,B,482.2715000000244,Incorrect
14,414,236,B,49.26351411698378,37.21036529849765,2.463175705849189,0.5844990512957638,A,553.1753000004755,Incorrect
14,414,237,B,81.47772025877504,51.09311754947818,4.073886012938752,0.8025688137122019,B,443.42479999977513,Correct
14,414,238,B,71.7805421717891,39.325326865269226,3.5890271085894545,0.6177207898997356,B,527.836400000524,Correct
14,414,239,B,44.11332969094799,34.915555387766815,2.2056664845473994,0.5484522615110787,B,585.489800000687,Correct
14,414,240,A,61.457099641354574,85.2385467354074,3.072854982067729,1.3389239611331305,B,474.07750000002125,Incorrect
14,414,241,B,70.83470791983426,55.73767732356926,3.5417353959917133,0.8755253880394178,B,457.52230000016425,Correct
14,414,242,B,71.08736216603648,45.37246501856629,3.554368108301824,0.7127090138879386,B,401.04620000056457,Correct
14,414,243,B,81.83635021130999,62.99772756308439,4.0918175105655,0.9895659905251858,B,423.64050000014686,Correct
14,414,244,A,62.640678963616296,84.03790253511664,3.132033948180815,1.3200642861370873,B,514.4517999997333,Incorrect
14,414,245,B,72.99426330254882,46.395112074368704,3.649713165127441,0.7287727162765592,B,587.8407000000152,Correct
14,414,246,B,34.53705871169098,19.30355253948889,1.726852935584549,0.30321949423121447,B,555.003399999805,Correct
14,414,247,A,14.824604870102068,41.66537441259267,0.7412302435051034,0.6544781708183464,A,577.3988000000827,Correct
14,414,248,A,17.475534487838953,36.93496850610856,0.8737767243919476,0.5801731285968051,A,649.4134000004124,Correct
14,414,249,A,18.153905994278613,35.838757297726644,0.9076952997139307,0.5629538832016281,A,683.8627999995879,Correct
14,414,250,A,33.78595187198718,52.26291103898554,1.689297593599359,0.8209438868764695,A,524.9794000001202,Correct
14,414,251,A,47.69398604201437,75.31755265874939,2.384699302100719,1.1830853505954475,B,554.0112000007866,Incorrect
14,414,252,A,34.623046538789445,55.320208179386086,1.7311523269394724,0.8689677980570867,A,450.8506000001944,Correct
14,414,253,A,61.327927568573784,81.14596992680367,3.0663963784286894,1.2746379149523235,B,416.9104000002335,Incorrect
14,414,254,A,39.53200721520843,64.10995099419044,1.9766003607604217,1.0070367553267516,A,483.7116999997306,Correct
14,414,255,B,80.26879494084824,49.16125158901973,4.013439747042412,0.7722231341667195,B,658.0556999997498,Correct
14,414,256,A,14.23952018430051,32.51963407665077,0.7119760092150256,0.5108172175631718,A,533.4069000000454,Correct
14,414,257,A,66.2561221869499,79.22663125499747,3.3128061093474948,1.2444890135968376,B,653.9648000007219,Incorrect
14,414,258,B,52.80945368410893,26.74795574150049,2.6404726842054465,0.4201559062802144,B,575.8858999997756,Correct
14,414,259,A,60.67923066646074,77.39124257339084,3.033961533323037,1.2156587956037515,B,498.6952999997811,Incorrect
14,414,260,A,44.40688506067518,51.700761365607775,2.2203442530337587,0.8121136604559619,A,536.4620999998806,Correct
14,414,261,A,54.60543974156526,81.20099973862064,2.730271987078263,1.2755023212149867,B,591.9292999997197,Incorrect
14,414,262,A,68.86931780359485,84.25470764150589,3.443465890179743,1.3234698527845534,A,504.0116999998645,Correct
14,414,263,B,65.18569786823566,50.862595784527144,3.259284893411783,0.7989477862958884,B,554.7386999996888,Correct
14,414,264,A,31.871263646555597,45.81907525005872,1.59356318232778,0.7197243509993118,A,646.3516000003438,Correct
14,414,265,B,55.416026844053114,23.95858260644964,2.7708013422026556,0.37634053553423197,B,561.7050000000745,Correct
14,414,266,A,30.62402804461319,39.608763689129404,1.5312014022306597,0.6221730051177154,A,573.8393000001452,Correct
14,414,267,B,41.16567922949359,29.6918472781211,2.0582839614746797,0.4663984464022766,A,548.5511000006227,Incorrect
14,414,268,B,32.94104410698393,13.594085778435023,1.6470522053491965,0.21353540006900473,B,481.4789000001838,Correct
14,414,269,B,47.45836246070776,24.51089865405082,2.372918123035388,0.38501629572225,B,497.7945999999065,Correct
14,414,270,A,50.33394244453503,74.58103229304132,2.5166971222267516,1.1715161157448089,B,453.0700000004799,Incorrect
14,414,271,A,52.9324717642092,60.12266975545991,2.64662358821046,0.9444046880897905,A,718.2166000002326,Correct
14,414,272,B,42.378126016760305,21.15351159993124,2.118906300838015,0.3322785831998522,B,450.0834999998915,Correct
14,414,273,B,38.29205668135411,24.24243347308599,1.9146028340677055,0.3807992545209312,A,494.7855000000345,Incorrect
14,414,274,B,43.538981559705896,27.307422381151934,2.1769490779852947,0.42894398770550207,B,382.76130000031117,Correct
14,414,275,B,42.71052830504407,18.075130396652767,2.1355264152522038,0.2839234843340095,B,467.525599999135,Correct
14,414,276,B,61.633982790916804,28.77777326613502,3.0816991395458397,0.45204020539781264,B,522.1316999995906,Correct
14,414,277,B,55.08729187374673,31.6707857780888,2.7543645936873364,0.49748353966929937,B,373.1913000001441,Correct
14,414,278,B,63.075479045348914,49.40008301567052,3.1537739522674455,0.775974689443782,B,394.72509999995964,Correct
14,414,279,B,50.954339545923,36.12340416497836,2.54771697729615,0.5674251057367548,B,454.03560000067955,Correct
14,414,280,B,59.32238778320825,30.50530018811279,2.9661193891604127,0.47917613483263244,B,347.02760000072885,Correct
14,414,281,A,40.52598018264176,57.769533229625814,2.0262990091320883,0.9074417059775194,A,542.6525000002584,Correct
14,414,282,A,59.953434720451455,81.48527199619501,2.997671736022573,1.279967659395062,B,518.8936000004105,Incorrect
14,414,283,A,36.45287103486275,48.296237495070216,1.8226435517431379,0.7586355245527024,A,652.1695000001273,Correct
14,414,284,A,47.67156030726882,73.62295573446323,2.3835780153634407,1.1564666843547813,B,477.02380000009725,Incorrect
14,414,285,A,34.50802618290833,59.270634191862996,1.7254013091454166,0.9310209447538238,A,478.40160000032483,Correct
14,414,286,B,36.39240746795158,21.16626347429502,1.819620373397579,0.33247888917395607,B,485.0820000001477,Correct
14,414,287,A,46.00714897384894,65.53224860056365,2.3003574486924467,1.0293781538837536,B,500.2602000004117,Incorrect
14,414,288,B,86.34794485246276,64.00167803852268,4.317397242623138,1.0053360077162103,A,951.0866999999052,Incorrect
14,414,289,B,72.55622766874406,54.79133902676213,3.6278113834372028,0.8606603408341181,B,830.2430999992794,Correct
14,414,290,B,83.52210362376863,63.98238693776625,4.176105181188432,1.0050329838141299,B,1022.5109000002703,Correct
14,414,291,B,69.93898190451061,40.347439256480556,3.496949095225531,0.6337760937965986,B,348.84929999952874,Correct
14,414,292,A,46.36121525157393,66.13052097622003,2.3180607625786966,1.0387757943847926,A,458.9746000001469,Correct
14,414,293,B,58.43743398403294,39.54285093004033,2.921871699201647,0.6211376499190552,A,743.1268999998792,Incorrect
14,414,294,A,17.491550960845373,36.51285456164369,0.8745775480422686,0.5735425782622621,B,335.14800000011746,Incorrect
14,414,295,A,61.45794404495368,78.37163988447725,3.072897202247684,1.2310588405542926,A,611.5347000004476,Correct
14,414,296,B,40.822924183012255,26.806802413799673,2.0411462091506127,0.42108026764713097,B,419.86069999984466,Correct
14,414,297,B,60.76900993127988,52.06551237065932,3.038450496563994,0.817843155845259,A,2743.7438000006296,Incorrect
14,414,298,B,84.02179278920259,64.60844333410817,4.20108963946013,1.0148670546915335,B,491.0703999994439,Correct
14,414,299,B,32.32238927513069,13.827927737712582,1.6161194637565344,0.21720858097584184,B,332.76050000040414,Correct
14,414,300,A,41.0628021911395,72.7080641656853,2.053140109556975,1.142095601198261,B,2003.1314000007114,Incorrect
14,414,301,B,41.67518184129072,29.188990789153884,2.083759092064536,0.4584995951445298,B,431.80780000056984,Correct
14,414,302,A,51.72034210755298,81.3220655177351,2.5860171053776493,1.2774040180263222,B,1025.2259999997477,Incorrect
14,414,303,A,63.92442841727905,88.33098453499105,3.196221420863953,1.3874998604974076,B,464.9583000000348,Incorrect
14,414,304,B,55.23593372679393,33.95772365156407,2.7617966863396965,0.5334066757819304,A,326.49420000052487,Incorrect
14,414,305,A,40.42770597919964,67.76876541434422,2.0213852989599816,1.0645092778427692,B,834.1059000003952,Incorrect
14,414,306,B,74.05421615225983,47.453162011441385,3.7027108076129913,0.7453925258237526,B,462.51889999984996,Correct
14,414,307,B,84.1016459637679,59.00163672918801,4.205082298188395,0.9267955424909539,B,949.4277000003422,Correct
14,414,308,A,56.314423282761936,82.28287642186363,2.815721164138097,1.2924964004158181,B,280.4825000002893,Incorrect
14,414,309,B,37.834574587289424,18.699800314233823,1.8917287293644711,0.2937357764539654,A,551.1307999995552,Incorrect
14,414,310,B,35.216119975025656,10.87706252664534,1.760805998751283,0.17085649863172916,B,345.3425000006973,Correct
14,414,311,A,64.27296462438957,80.98289526207012,3.2136482312194787,1.2720763441087557,B,458.4642999998323,Incorrect
14,414,312,B,52.67130256962493,34.52525411993702,2.633565128481246,0.5423214235325744,A,623.7056999998458,Incorrect
14,414,313,A,19.08674873514771,40.60740422299992,0.9543374367573856,0.6378596139416384,B,324.178199999551,Incorrect
14,414,314,B,55.06082341996051,24.12628037035536,2.7530411709980256,0.37897472584978015,B,644.1887000000861,Correct
14,414,315,B,33.95447047641063,16.063012764636092,1.6977235238205313,0.25231721447949906,A,529.6947000006185,Incorrect
14,414,316,A,33.222945725550176,66.30021047131228,1.6611472862775087,1.0414412707406586,B,518.3876999999484,Incorrect
14,414,317,A,44.78430843997962,56.70576598269155,2.239215421998981,0.890732089137029,A,561.4489999998113,Correct
14,414,318,B,74.83784104050436,52.378378183573176,3.741892052025218,0.8227576405423068,B,555.6969000008394,Correct
14,414,319,B,75.08836796720098,61.46579901182304,3.7544183983600488,0.96550251311285,B,661.1051999998381,Correct
14,414,320,A,38.70018907303798,71.15329175773132,1.9350094536518991,1.1176732933240996,B,558.7637999997241,Incorrect
14,414,321,B,76.23582401599265,49.54192066353692,3.8117912007996324,0.7782026700064798,B,514.1303999998854,Correct
14,414,322,B,53.033134650850805,25.75717505750339,2.6516567325425404,0.40459275968939457,B,406.2293999995745,Correct
14,414,323,B,80.176987716834,52.23478279909339,4.0088493858417005,0.8205020495174515,B,537.5603000002229,Correct
14,414,324,A,66.67478623382098,87.69936136496392,3.3337393116910494,1.377578346943436,B,451.80679999975837,Incorrect
14,414,325,B,57.66590632102333,25.339001357749076,2.8832953160511665,0.3980241025740315,B,592.7848999999696,Correct
14,414,326,B,59.51016908590745,52.00322707915686,2.975508454295373,0.8168647807742049,B,930.9735000006185,Correct
14,414,327,B,68.52761375199101,46.130430879215425,3.4263806875995506,0.7246151137853747,B,636.0828000006222,Correct
14,414,328,A,31.87618256110705,49.045618024031164,1.5938091280553524,0.7704067663753373,A,555.0203000002512,Correct
14,414,329,B,76.46955495747851,44.14908188638507,3.8234777478739255,0.6934921565850077,B,460.1516000002448,Correct
14,414,330,B,54.60376220761659,35.246370920408786,2.7301881103808294,0.5536486997462857,B,498.76320000021224,Correct
14,414,331,B,77.94760883360071,58.81064002063029,3.8973804416800357,0.9237953732086299,B,428.76429999978427,Correct
14,414,332,B,41.3954309491604,15.837392343132965,2.06977154745802,0.24877317718602884,B,487.2185999993235,Correct
14,414,333,A,35.12755844084955,63.004888135145066,1.7563779220424776,0.9896784685280924,B,540.9993000002942,Incorrect
14,414,334,B,72.1831891084264,52.013747070876505,3.60915945542132,0.8170300284177162,B,532.7809000000343,Correct
14,414,335,B,46.5920090874541,39.439537103293254,2.329600454372705,0.6195148001234407,B,484.82180000064545,Correct
14,414,336,B,47.11815363932075,22.032165362798168,2.3559076819660376,0.3460804442322111,B,490.9127000000808,Correct
14,414,337,B,64.0315857367493,56.21588982473561,3.2015792868374655,0.8830371324420131,B,541.9595000003028,Correct
14,414,338,B,37.429971337850944,12.812269093912061,1.871498566892547,0.20125465230624842,A,664.1583000000537,Incorrect
14,414,339,B,75.25037753705666,62.981378096719,3.7625188768528335,0.9893091737080676,B,397.137400000247,Correct
14,414,340,A,28.17390263910991,41.779181718161055,1.4086951319554957,0.6562658517938387,A,556.8592999998145,Correct
14,414,341,A,56.09807725833451,84.76866916113843,2.8049038629167256,1.3315431414560808,B,453.1592000003002,Incorrect
14,414,342,A,36.43210577273372,68.7921391849081,1.8216052886366862,1.0805843954401693,B,529.6020000005228,Incorrect
14,414,343,A,48.787199628277,79.3389887138764,2.43935998141385,1.2462539204337881,B,734.8835000002509,Incorrect
14,414,344,B,52.999724846670105,43.42612849886733,2.6499862423335054,0.6821360313294397,B,512.2448000001896,Correct
14,414,345,A,47.87234612007763,78.62477220256275,2.3936173060038812,1.2350350337087106,B,443.85849999980564,Incorrect
14,414,346,B,30.79766699985753,14.852969728047935,1.5398833499928763,0.23330990290813491,A,673.9668999998685,Incorrect
14,414,347,B,64.016743069193,33.37440867533249,3.2008371534596503,0.5242439855616401,B,409.4436000004862,Correct
14,414,348,B,77.14567745846523,61.66112010295165,3.8572838729232615,0.9685706096377541,B,634.5427000005657,Correct
14,414,349,B,39.79322352713454,19.332435825669773,1.9896611763567273,0.30367319182960145,B,565.6005999999252,Correct
14,414,350,A,30.545921577907965,47.159242265185895,1.5272960788953984,0.7407756452458464,A,585.712400000375,Correct
14,414,351,B,68.37418889713769,52.13230624798473,3.4187094448568844,0.8188923516168104,B,477.053500000693,Correct
14,414,352,B,53.58794088364944,43.75620646275129,2.6793970441824717,0.6873208838616883,B,394.05380000061996,Correct
14,414,353,A,25.827484863734718,57.17567716699548,1.2913742431867359,0.8981134367592735,A,569.5193000001382,Correct
14,414,354,B,63.691697309187774,36.09959177429908,3.1845848654593887,0.5670510615786426,B,833.5099000005357,Correct
14,414,355,B,60.51717368244136,34.59010224021557,3.0258586841220683,0.5433400554239055,B,419.2371999997704,Correct
14,414,356,B,50.226842628226734,38.96083524040374,2.511342131411337,0.6119953688448736,B,423.3414999998786,Correct
14,414,357,A,52.85506014303429,78.94763921339772,2.6427530071517147,1.2401066168553387,B,385.3104000008898,Incorrect
14,414,358,B,57.968566713624405,27.784372189088497,2.8984283356812206,0.4364358977692248,A,542.5897999994049,Incorrect
14,414,359,B,74.252751034116,59.19586264341367,3.7126375517058,0.9298464360172943,B,865.6529999998384,Correct
14,414,360,B,57.29454449095789,31.478675041324465,2.8647272245478943,0.4944658712728266,B,617.9356000002372,Correct
14,414,361,A,42.30353029572439,71.37632108270661,2.1151765147862194,1.1211766297684866,B,447.42479999968054,Incorrect
14,414,362,B,67.77883061075828,37.979930187561344,3.388941530537914,0.5965873483054798,B,681.951300000037,Correct
14,414,363,A,52.241961986882224,74.34910309711744,2.612098099344111,1.1678729804544714,B,551.2000999997326,Incorrect
14,414,364,B,66.54059323165352,52.941118493000985,3.327029661582676,0.8315971446521933,B,454.38169999943057,Correct
14,414,365,A,34.751685181932544,60.67038193663265,1.7375842590966273,0.95300813091306,A,721.1730999997599,Correct
14,414,366,A,23.79855177511888,43.25043378127115,1.189927588755944,0.6793762251590663,A,642.8259000003891,Correct
14,414,367,A,32.5074283058493,43.33952441256068,1.6253714152924652,0.6807756575228806,A,470.17939999932423,Correct
14,414,368,A,37.025685244626516,54.05740044455503,1.8512842622313257,0.8491316605438786,A,635.9919000005902,Correct
14,414,369,A,23.386520447033057,36.297127032929055,1.1693260223516528,0.5701539381653271,A,509.65739999992365,Correct
14,414,370,B,59.44144688501477,44.20353022573929,2.972072344250739,0.6943474290995847,B,543.8776000000871,Correct
14,414,371,A,67.55450731925933,80.70622486672016,3.377725365962966,1.2677304157012699,B,605.6851000003007,Incorrect
14,414,372,A,67.0295430830574,84.09072150061093,3.3514771541528705,1.3208939645069226,B,744.4499000002907,Incorrect
14,414,373,A,37.958683135119365,65.56674744044726,1.8979341567559684,1.0299200603934324,A,620.8859999997003,Correct
14,414,374,A,61.09623618170973,76.64105824922271,3.0548118090854866,1.2038749277955272,B,594.7206000000733,Incorrect
14,414,375,A,44.512739054189815,53.80738589546839,2.2256369527094906,0.8452044411903726,A,649.8959999998988,Correct
14,414,376,B,61.57025532977961,31.4955895388482,3.0785127664889806,0.4947315635786253,B,639.6907000007559,Correct
14,414,377,B,45.75398996510544,23.85894716615441,2.287699498255272,0.37477546569788855,B,590.588399999433,Correct
14,414,378,A,56.397991888686114,75.79514587278335,2.8198995944343057,1.1905873672585146,A,957.2791000000507,Correct
14,414,379,B,44.51306078065029,27.50475217386214,2.2256530390325144,0.43204363684106595,B,649.974399999337,Correct
14,414,380,A,18.933829302294264,45.89845347593301,0.9466914651147132,0.7209712212556203,A,536.3353000002462,Correct
14,414,381,A,31.225018164582856,55.60478883337339,1.5612509082291428,0.873437980516688,A,680.63390000043,Correct
14,414,382,A,32.69896796931848,40.8237396576243,1.634948398465924,0.641257803002274,B,673.7755000003744,Incorrect
14,414,383,B,75.64114295241862,50.733385049049026,3.7820571476209306,0.7969181488091733,B,583.0255000000761,Correct
14,414,384,A,17.65373501836666,45.001288670814205,0.882686750918333,0.7068785894515175,A,530.0188000001071,Correct
14,414,385,B,86.87729866147987,69.33047659830672,4.343864933073993,1.089040579755597,B,618.8883999993777,Correct
14,414,386,A,21.662290342089406,34.73199072053348,1.0831145171044703,0.5455688344608842,A,479.32349999973667,Correct
14,414,387,A,27.489236197010506,51.65373514553832,1.3744618098505255,0.8113749743184806,A,550.5467000002682,Correct
14,414,388,B,68.1866996391374,55.16681854346945,3.40933498195687,0.8665583592904238,B,598.2500999998592,Correct
14,414,389,A,33.29036507239528,64.16518367777115,1.664518253619764,1.007904348291628,A,741.4406000007148,Correct
14,414,390,B,68.29057998997477,48.44206218169235,3.4145289994987387,0.7609261333737233,B,494.849300000169,Correct
14,414,391,B,79.20861685667144,65.93481592728787,3.960430842833572,1.0357016666648144,B,912.7889999999752,Correct
14,414,392,A,35.94693095525222,50.35299718593323,1.797346547762611,0.7909430302277769,B,1297.0916999993278,Incorrect
14,414,393,B,57.92322717811767,37.49515345640313,2.8961613589058834,0.5889724932192901,A,851.0507000000871,Incorrect
14,414,394,B,73.69603484361011,44.42240662181414,3.6848017421805053,0.6977855314893494,B,588.9816999997493,Correct
14,414,395,B,55.58771706145443,24.426511409779565,2.7793858530727213,0.3836907439889537,B,596.9924000000901,Correct
14,414,396,B,59.662124169500906,38.92160611378743,2.9831062084750455,0.6113791591649509,B,534.4142000003558,Correct
14,414,397,A,52.14520498200925,76.66107221122087,2.6072602491004626,1.2041893063754405,A,556.4692000007199,Correct
14,414,398,A,26.142054566125843,43.908788739399846,1.3071027283062921,0.689717640658624,A,499.6677000008276,Correct
14,414,399,B,58.1020955669918,36.85308665751775,2.90510477834959,0.5788869315268289,B,550.9791000004043,Correct
14,414,400,B,49.833659154137294,42.51640438915294,2.491682957706865,0.6678461184300785,B,648.935100000017,Correct
14,414,401,A,27.616013329593645,52.66958207500641,1.3808006664796824,0.827331860572424,A,612.8250000001572,Correct
14,414,402,B,46.90646232916838,33.613913853085045,2.345323116458419,0.5280061240962607,B,500.82990000009886,Correct
14,414,403,B,53.09464122801431,28.485617504305765,2.6547320614007157,0.44745103342247905,B,485.7090999994398,Correct
14,414,404,A,30.90154252401902,54.47448828552507,1.545077126200951,0.8556832610293439,A,645.9468000002744,Correct
14,414,405,B,87.73952224418072,61.78000744377437,4.386976112209036,0.9704380876204215,B,493.68049999975483,Correct
14,414,406,A,29.99160077955786,54.69424587533064,1.499580038977893,0.8591352051778628,B,523.7991000003603,Incorrect
14,414,407,A,13.212104288309536,40.35397457690787,0.6606052144154768,0.6338787503698152,A,619.560499999352,Correct
14,414,408,B,58.688446473842156,48.086608038524055,2.934422323692108,0.7553426727493951,B,461.78580000014335,Correct
14,414,409,A,50.17120172907165,69.14517265786488,2.508560086453582,1.0861298322657307,B,585.0762999998551,Incorrect
14,414,410,B,49.92360919279981,38.468630365783646,2.4961804596399904,0.6042638327540357,A,600.0253000001976,Incorrect
14,414,411,A,55.20428493139748,84.74095166860948,2.760214246569874,1.3311077561015563,B,486.88880000008794,Incorrect
14,414,412,A,37.11529055608502,70.08593966438492,1.8557645278042512,1.1009073658478459,B,498.2585999996445,Incorrect
14,414,413,A,56.49375222727144,70.84972076806912,2.824687611363572,1.1129048113692708,A,602.2636999996394,Correct
14,414,414,B,41.68995282625953,28.023225946727834,2.0844976413129763,0.4401878038206352,B,444.4653999998991,Correct
14,414,415,B,50.63914604699088,21.41446504477566,2.531957302349544,0.3363776303261132,B,725.8707000000868,Correct
14,414,416,B,81.13891443315055,64.81499607619095,4.056945721657527,1.018111577577064,B,569.1907999998875,Correct
14,414,417,A,44.76861154047142,55.394582833221754,2.238430577023571,0.8701360723876037,B,606.1958000000232,Incorrect
14,414,418,A,40.47167330373688,64.38765995181829,2.0235836651868437,1.0113989974323505,B,506.07119999949646,Incorrect
14,414,419,A,35.295209145268224,59.031439820442245,1.764760457263411,0.9272636883536466,B,465.0023999993209,Incorrect
14,414,420,B,33.97998146884838,18.419391527469042,1.6989990734424192,0.2893311255314541,A,589.145500000086,Incorrect
14,414,421,B,72.03645499979562,41.86332540225369,3.6018227499897812,0.6575875776927959,B,420.33360000004905,Correct
14,414,422,B,64.94342480857105,34.39692885710185,3.247171240428553,0.5403056950176097,B,392.75629999974626,Correct
14,414,423,A,65.87569529264165,86.40562954765139,3.2937847646320826,1.357256455078514,B,457.3312000002261,Incorrect
14,414,424,B,54.27856996983751,25.706382836776804,2.7139284984918755,0.4037949173519238,A,631.9651000003432,Incorrect
14,414,425,B,66.81804788978431,33.527162688453885,3.3409023944892158,0.5266434399887827,B,465.8911000005901,Correct
14,414,426,A,32.2453309050462,45.48860411002206,1.6122665452523102,0.7145333224704989,A,643.012199999248,Correct
14,414,427,B,76.29077816602135,61.12749578825809,3.814538908301068,0.9601884585036631,B,483.05859999982204,Correct
14,414,428,A,24.829712456563747,55.56796445300279,1.2414856228281874,0.8728595445024616,B,481.3967000000048,Incorrect
14,414,429,B,81.97508761424211,55.14127455471362,4.098754380712106,0.8661571152533305,B,483.30559999976686,Correct
14,414,430,B,61.74545560886672,51.6944261286299,3.087272780443336,0.8120141467862195,B,1016.8650999994497,Correct
14,414,431,B,35.6378320722548,12.955792708431431,1.7818916036127401,0.20350911597120197,B,462.70889999959763,Correct
14,414,432,B,50.304621528095694,22.46006669443745,2.5152310764047847,0.3528019026319074,B,584.3437000003178,Correct
14,414,433,A,22.309309412895907,41.94325012892672,1.1154654706447955,0.6588430323635766,A,596.2572999997064,Correct
14,414,434,B,85.22155828654434,62.42600818721991,4.261077914327217,0.9805854435695317,B,580.5432999995901,Correct
14,414,435,A,20.589263182897827,44.033995142435444,1.0294631591448913,0.6916843782384191,A,509.67860000037035,Correct
14,414,436,A,39.19193268440582,55.149003713414004,1.959596634220291,0.8662785245942883,B,567.0612999992954,Incorrect
14,414,437,A,29.07938616536873,51.00546850121704,1.4539693082684366,0.8011920256816453,A,604.0437000001475,Correct
14,414,438,A,62.20510309267357,79.0850062001394,3.1102551546336783,1.242264372437306,B,472.99109999948996,Incorrect
14,414,439,A,30.58921131387983,44.81164781956609,1.5294605656939917,0.7038997179260096,B,456.43049999944196,Incorrect
14,414,440,B,52.86778796650219,31.935789165379056,2.6433893983251098,0.5016462031427368,B,364.6491999998034,Correct
14,414,441,A,31.00417165868833,58.52550635965454,1.5502085829344165,0.9193165041355673,B,466.7010000002847,Incorrect
14,414,442,A,42.90864529585738,52.8579609021093,2.145432264792869,0.8302909082690154,B,392.79530000021623,Incorrect
14,414,443,A,61.92665102685913,77.43830351421798,3.0963325513429565,1.2163980271336194,B,507.2838000005504,Incorrect
14,414,444,B,40.442089684448504,21.67250506314687,2.022104484222425,0.34043091345634896,A,617.3433999992994,Incorrect
14,414,445,A,42.70405901436565,66.72884238739101,2.1352029507182824,1.0481742051338938,B,473.4406999996281,Incorrect
14,414,446,B,63.912430294908994,37.49779407888754,3.19562151474545,0.5890139720202796,A,665.7162000001335,Incorrect
14,414,447,A,11.886529319882428,35.17380710445632,0.5943264659941214,0.5525088699907224,A,535.7708999999886,Correct
14,414,448,A,68.08247629986224,83.6128768303291,3.404123814993112,1.3133879979783505,B,539.3846999995731,Incorrect
14,414,449,A,46.60477124526184,61.029637162111484,2.330238562263092,0.9586512987987004,A,951.5421999994942,Correct
14,414,450,A,22.391061680273904,42.91100090068467,1.1195530840136951,0.6740444259388797,A,542.4736000004486,Correct
14,414,451,B,71.43773159638056,47.76793722171329,3.571886579819028,0.7503370032643645,B,509.65240000004997,Correct
14,414,452,A,22.1880382855814,52.55190501015767,1.1094019142790699,0.8254833935602998,A,491.46790000031615,Correct
14,414,453,B,73.1308526118101,59.40057236795269,3.656542630590505,0.9330620088509453,B,562.3664999993707,Correct
14,414,454,B,88.2995533514349,66.2121378202662,4.414977667571745,1.040057828773116,B,469.9969000002966,Correct
14,414,455,B,42.34354434451932,34.04798319851272,2.1171772172259664,0.5348244694299813,B,449.8721999998452,Correct
14,414,456,A,33.39086377278914,45.66493787502863,1.669543188639457,0.7173031667741213,A,481.587700000091,Correct
14,414,457,A,48.86435498390301,72.85631893867408,2.4432177491951506,1.144424381726667,A,534.5929000004617,Correct
14,414,458,B,82.28295625035435,56.30175168323,4.114147812517717,0.8843858473613608,B,476.41680000015185,Correct
14,414,459,B,56.34343744061807,43.91932216140284,2.8171718720309036,0.6898830992645327,A,762.1754000001602,Incorrect
14,414,460,A,35.30653828460215,52.63612140364622,1.7653269142301073,0.8268062615757772,A,1099.3117999996684,Correct
14,414,461,A,50.30374163577167,62.270485457316965,2.5151870817885835,0.9781424982408851,A,636.1715000002732,Correct
14,414,462,A,44.66689338043324,65.11291462908211,2.233344669021662,1.0227912712627187,A,540.2098999993541,Correct
14,414,463,B,73.59352920085315,48.52539697987186,3.6796764600426575,0.7622351533224689,B,517.052799999874,Correct
14,414,464,A,22.96492495929625,47.693000553743225,1.1482462479648126,0.7491599008364683,A,469.59030000016355,Correct
14,414,465,B,58.07886325394064,26.886464353932062,2.9039431626970322,0.42233159447658414,B,463.2492999999158,Correct
14,414,466,A,44.869040771521064,53.22334059056842,2.2434520385760535,0.8360302789941859,B,551.026200000706,Incorrect
14,414,467,B,56.41699273471045,43.7158630534785,2.8208496367355225,0.6866871710707276,B,460.5574000006527,Correct
14,414,468,B,81.11676149094194,61.714319481047454,4.055838074547097,0.9694062635147606,B,563.9789999995628,Correct
14,414,469,A,56.5821941698328,84.25131961153053,2.8291097084916403,1.3234166337341497,B,545.7914999997229,Incorrect
14,414,470,B,55.44856475284883,35.863193877951815,2.772428237642442,0.5633377321061994,A,438.7603000004674,Incorrect
14,414,471,A,37.05300147159298,68.03263052937658,1.852650073579649,1.0686540613773907,B,515.2434000001449,Incorrect
14,414,472,A,27.945545086881893,56.103161766241634,1.3972772543440948,0.8812664042399224,A,530.4316000001563,Correct
14,414,473,B,57.97950792507602,45.26457750201371,2.898975396253801,0.7110143207408604,B,585.8987999999954,Correct
14,414,474,B,68.56457274126547,58.61047629716952,3.428228637063273,0.9206512087929323,B,540.624299999763,Correct
14,414,475,B,63.230339063286785,38.318671810276,3.1615169531643392,0.6019082892724068,B,457.3576000002504,Correct
14,414,476,B,45.33353578558803,35.44662129680315,2.2666767892794017,0.5567942253030814,A,374.29489999976795,Incorrect
14,414,477,A,27.556668688133946,56.99012177952594,1.3778334344066974,0.8951987395487319,B,428.16860000039014,Incorrect
14,414,478,A,35.00442462294722,59.85610526845071,1.750221231147361,0.9402175029193104,A,561.1447000001135,Correct
14,414,479,B,47.11892616989886,32.68810030633029,2.3559463084949432,0.5134634789108676,B,486.39509999975417,Correct
14,414,480,A,53.91963322922,62.22316420958387,2.6959816614609995,0.9773991778197002,B,442.5615000000107,Incorrect
14,414,481,A,25.186646390087557,39.24911610927656,1.259332319504378,0.6165236741439801,A,574.6754000010696,Correct
14,414,482,A,32.209102041606116,43.540660541690386,1.6104551020803057,0.6839350964511075,B,520.3875000006519,Incorrect
14,414,483,B,61.7607449441923,34.49908653534834,3.088037247209615,0.5419103840750445,B,525.6432999995013,Correct
14,414,484,A,23.84511105810065,56.38310179749112,1.1922555529050325,0.8856636919680179,A,532.7922000014951,Correct
14,414,485,B,45.98117207866011,24.117209567878373,2.2990586039330054,0.37883224201766086,B,478.4847000009904,Correct
14,414,486,B,42.81663450338044,14.993601329026394,2.140831725169022,0.2355189389306174,B,456.6965000012715,Correct
14,414,487,A,25.514454457265437,41.40203150383256,1.2757227228632717,0.6503415900806677,B,662.7984999995533,Incorrect
14,414,488,A,43.49219957864984,54.82661250606203,2.1746099789324917,0.8612144153512937,B,492.6209999994171,Incorrect
14,414,489,A,68.0061335542818,86.85634284704078,3.4003066777140902,1.3643362430296984,B,585.3259000014077,Incorrect
14,414,490,B,52.028179347590694,21.622763796667716,2.601408967379535,0.33964957946959323,A,668.34899999958,Incorrect
14,414,491,A,35.55807334885742,56.09866132090043,1.777903667442871,0.8811957114098135,B,415.66319999947154,Incorrect
14,414,492,B,58.74316270620891,47.211406640302,2.9371581353104457,0.7415950413340657,B,307.57619999894814,Correct
14,414,493,A,50.40420244061044,73.27922351934309,2.520210122030522,1.1510673513456633,B,351.1787999996159,Incorrect
14,414,494,B,65.75511018099053,36.80493466929662,3.2877555090495263,0.5781305618645728,B,446.6589000003296,Correct
14,414,495,A,22.864363215675,53.5244354280825,1.14321816078375,0.8407598656420261,A,923.345999999583,Correct
14,414,496,B,58.27798925434289,43.418365926455394,2.9138994627171444,0.6820140971271282,B,407.50350000053004,Correct
14,414,497,B,87.17147052853412,67.73578987669077,4.358573526426706,1.063991299308568,B,491.6769999999815,Correct
14,414,498,A,20.28089606665202,34.00202253129513,1.014044803332601,0.5341025209575571,A,645.5965000004653,Correct
14,414,499,B,80.60460024388826,65.6893672477119,4.030230012194413,1.0318461678218684,B,549.3403000000399,Correct
14,414,500,B,82.5406790841145,54.063881620767624,4.127033954205725,0.8492334666217589,B,447.5553000011132,Correct
14,414,501,B,72.05289649646932,52.39836788247732,3.6026448248234657,0.8230716379984304,B,465.2096999998321,Correct
14,414,502,A,22.509862072652727,34.78959367165933,1.1254931036326363,0.5464736595012947,A,463.3092000003671,Correct
14,414,503,A,33.75897590901678,63.57916839643282,1.6879487954508392,0.9986992417779086,A,493.97160000080476,Correct
14,414,504,A,38.77298116471447,59.392850248015684,1.9386490582357236,0.9329407100746241,A,567.6036000004387,Correct
14,414,505,B,61.15942366418592,46.679539966464056,3.057971183209296,0.7332404991579732,B,601.0387999995146,Correct
14,414,506,A,50.7094495438416,77.80365363657377,2.53547247719208,1.222136933435525,B,458.4359999989829,Incorrect
14,414,507,A,28.62228891367181,47.045772218045734,1.4311144456835905,0.7389932619133562,A,496.246800001245,Correct
14,414,508,A,52.05116861909568,59.27816008410948,2.602558430954784,0.9311391611927903,B,414.8635999990802,Incorrect
14,414,509,A,53.401069738555705,77.66839195685489,2.670053486927785,1.2200122479389395,A,597.7957000013703,Correct
14,414,510,B,55.05359109334596,31.320179402886072,2.752679554667298,0.4919762276061062,B,472.2727999997005,Correct
14,414,511,A,33.72485402300772,59.04417621584829,1.686242701150386,0.9274637511848507,B,549.5513000005303,Incorrect
14,414,512,B,59.594775053004696,51.88960700525206,2.979738752650235,0.8150800408268067,A,485.283599999093,Incorrect
14,414,513,A,55.5054435131657,77.03812771813858,2.775272175658285,1.2101120804280818,B,630.1246999992145,Incorrect
14,414,514,B,63.348543512708176,33.05497071791218,3.1674271756354084,0.5192262658600931,B,561.4229000002524,Correct
14,414,515,B,52.74426346168336,27.44954889928699,2.6372131730841684,0.43117650583176903,B,435.6588999999076,Correct
14,414,516,B,72.98309930670021,48.70171361628275,3.6491549653350104,0.7650047285707395,B,442.04379999973753,Correct
14,414,517,A,54.31737652426699,65.59176202518509,2.7158688262133497,1.0303129885716573,B,372.8071999994427,Incorrect
14,414,518,A,25.927687503576845,42.66732632363858,1.2963843751788422,0.6702167946333066,A,477.1242999995593,Correct
14,414,519,B,46.60572139966515,20.644882204052085,2.3302860699832575,0.32428905133238345,B,511.8478000003961,Correct
14,414,520,B,71.5223690884748,54.81645540863507,3.5761184544237405,0.861054868038002,A,440.4214000005595,Incorrect
14,414,521,B,46.10821068632167,29.552123010639384,2.3054105343160836,0.46420366274103286,B,578.4079999993992,Correct
14,414,522,A,64.31916516583416,82.8345358612016,3.2159582582917086,1.301161846625356,B,429.72110000118846,Incorrect
14,414,523,B,38.11521299832411,21.26699457737205,1.9057606499162056,0.33406116964103,B,598.5568999985844,Correct
14,414,524,B,54.014460489944405,21.876958156663413,2.7007230244972202,0.3436424551393254,B,483.5347999996884,Correct
14,414,525,A,28.92945561870711,46.45720161757748,1.4464727809353553,0.7297480165406063,A,660.9456000005594,Correct
14,414,526,A,44.32082720535213,55.92124648766491,2.2160413602676066,0.8784088857261605,B,431.67950000133715,Incorrect
14,414,527,A,24.381326587896197,36.214089161780656,1.2190663293948099,0.5688495823354793,B,510.3696999995009,Incorrect
14,414,528,A,25.061212810005536,48.07273444228075,1.2530606405002769,0.7551247468092112,A,530.2615000000515,Correct
14,414,529,B,32.50996292593236,15.50416939728693,1.6254981462966183,0.24353892339264152,B,631.7675999998755,Correct
14,414,530,B,81.27340271481934,57.599728689862744,4.063670135740967,0.9047744225041903,B,527.8034999992087,Correct
14,414,531,B,70.52731687987306,45.09306804248147,3.526365843993653,0.7083202564504223,B,422.94690000017,Correct
14,414,532,B,33.08615623397545,21.408606397847883,1.6543078116987726,0.3362856029153718,A,662.9854999991949,Incorrect
14,414,533,B,64.18139833302703,41.84072516215958,3.209069916651351,0.6572325739515508,B,367.8509999990638,Correct
14,414,534,A,41.921723738207106,51.150529153239724,2.0960861869103553,0.8034706330752424,B,531.1887999996543,Incorrect
14,414,535,B,71.21113174609667,42.742168083168885,3.5605565873048333,0.6713924062429175,B,452.8413999996701,Correct
14,414,536,B,56.99355940751716,26.029469874426518,2.849677970375858,0.4088699566716759,B,426.09210000046005,Correct
14,414,537,A,53.614195914278945,78.13942659526477,2.6807097957139474,1.2274112427370136,B,379.4934999987163,Incorrect
14,414,538,B,31.653137470753936,16.277959009966924,1.582656873537697,0.2556935822057394,A,551.9375000003492,Incorrect
14,414,539,A,27.622846124234023,37.31225224376634,1.3811423062117012,0.5860994876895279,B,504.45380000019213,Incorrect
14,414,540,B,76.61374939486643,63.389614969998064,3.8306874697433217,0.9957217435181575,B,451.28249999834225,Correct
14,414,541,A,23.96857340424477,49.21301737705242,1.1984286702122384,0.7730362692636734,B,520.8131999988836,Incorrect
14,414,542,A,57.05025075699993,81.1224577728049,2.852512537849997,1.2742685869009605,B,810.1676000005682,Incorrect
14,414,543,A,43.038825503204954,57.63573531421338,2.151941275160248,0.9053400132368927,A,497.1258999994461,Correct
14,414,544,B,81.0411035064612,65.52215025787203,4.052055175323059,1.0292195294876867,B,662.3674999991636,Correct
14,414,545,A,13.749876419581149,39.74966867729265,0.6874938209790574,0.6243863354960544,A,481.41600000053586,Correct
14,414,546,A,48.28436628713801,73.7845513298922,2.414218314356901,1.1590050220320416,B,540.7529000003706,Incorrect
14,414,547,A,47.03747892583086,59.43455572991558,2.3518739462915432,0.9335958182523797,A,608.0511000000115,Correct
14,414,548,B,55.585621800698576,32.604624703412014,2.7792810900349285,0.5121522472064574,B,480.63469999942754,Correct
14,414,549,B,65.42792883371584,37.233343444387025,3.271396441685792,0.5848599911673598,B,693.3490999999776,Correct
