subject,day,trial,cat,x,y,xt,yt,resp,rt,fb
12,112,0,B,60.82402590269955,53.73759058914914,3.041201295134978,0.8441080990824348,A,584.5377999976336,Incorrect
12,112,1,A,51.48359185229288,63.70922492748468,2.5741795926146445,1.0007421649904278,B,760.5074000020977,Incorrect
12,112,2,A,35.93806730380425,45.384926202378935,1.7969033651902127,0.7129047537055427,A,569.9571999975888,Correct
12,112,3,A,42.037646926457086,60.954636928672215,2.101882346322854,0.9574731978867487,A,565.2668999973685,Correct
12,112,4,A,27.096545566176964,43.106862340016306,1.3548272783088482,0.6771210102335087,A,594.8103000009723,Correct
12,112,5,B,73.66164064901284,59.89626628606324,3.683082032450642,0.9408483507087714,A,700.7701000002271,Incorrect
12,112,6,B,73.18207954928488,53.03785050071083,3.6591039774642438,0.8331166074761344,A,456.0825000007753,Incorrect
12,112,7,A,67.70001616643043,84.77212279617507,3.3850008083215215,1.3315973910283772,B,1083.4309999991092,Incorrect
12,112,8,B,55.257427863323315,41.66431922030084,2.7628713931661655,0.6544615958965856,A,1053.3824000012828,Incorrect
12,112,9,B,33.26634831736067,19.268837374591406,1.6633174158680335,0.30267418969616394,A,887.5982000026852,Incorrect
12,112,10,B,55.27391283522966,37.131034305028706,2.763695641761483,0.5832529229643438,B,577.842699996836,Correct
12,112,11,B,71.58116693193898,43.65970125230435,3.579058346596949,0.6858049835608223,B,587.1826000002329,Correct
12,112,12,A,47.48758826907622,71.26504368492067,2.374379413453811,1.1194286884915123,B,1409.0486999994027,Incorrect
12,112,13,A,58.532869734546765,70.66917099387076,2.926643486727338,1.1100687421481266,B,908.1038999975135,Incorrect
12,112,14,B,70.78660973717425,49.48271823808896,3.539330486858712,0.7772727204821697,B,950.0502999981109,Correct
12,112,15,B,45.688172974392934,31.633835651742206,2.2844086487196464,0.49690312844190093,A,608.0137999997532,Incorrect
12,112,16,B,59.39814631429439,37.273278050745354,2.9699073157147193,0.5854872824971564,B,561.8032000020321,Correct
12,112,17,B,57.02272644323137,34.37778435193134,2.851136322161569,0.5400049738336082,B,623.489099998551,Correct
12,112,18,B,61.0762711583729,42.35686182112153,3.053813557918645,0.6653400296317669,B,557.8576999978395,Correct
12,112,19,B,42.49017555745225,27.0534890620007,2.124508777872612,0.42495521245576606,B,1997.0169000007445,Correct
12,112,20,A,40.25903635505353,54.54384515500943,2.0129518177526764,0.8567727161875843,B,829.6356999999261,Incorrect
12,112,21,A,17.812693976604574,47.81282455726663,0.8906346988302287,0.7510420918824324,A,647.5778999993054,Correct
12,112,22,A,66.99888786000668,79.83124069884438,3.349944393000334,1.25398619653224,B,842.0589999986987,Incorrect
12,112,23,B,76.39634690136546,58.03326053318284,3.819817345068273,0.9115843247745485,B,846.2288000009721,Correct
12,112,24,A,53.55149625944982,79.71489548535,2.677574812972491,1.2521586501922686,A,1080.4782999985036,Correct
12,112,25,A,37.00095912144713,63.11607807005687,1.8500479560723564,0.9914250359414526,A,1001.253699996596,Correct
12,112,26,A,38.29981817449195,50.396585641600005,1.9149909087245975,0.7916277160882972,A,686.0273999991477,Correct
12,112,27,B,80.85989314206157,57.48218532995046,4.042994657103078,0.9029280557242968,B,694.026400000439,Correct
12,112,28,B,74.65988127007908,50.51641206268789,3.7329940635039542,0.7935099451092753,B,446.8778000009479,Correct
12,112,29,B,36.72668895069179,20.130251894219633,1.8363344475345895,0.3162052573289621,B,1069.536099999823,Correct
12,112,30,A,42.120636407405804,66.61025990680724,2.10603182037029,1.0463115158846619,A,1204.9957999988692,Correct
12,112,31,B,67.46305562436245,55.2149131976849,3.373152781218123,0.8673138283522249,B,665.7018000005337,Correct
12,112,32,A,38.44999893405794,54.84387496061597,1.9224999467028967,0.8614855733533417,A,878.9299000018218,Correct
12,112,33,A,23.09770970646007,54.70233038543006,1.1548854853230035,0.859262196365544,B,775.5217000012635,Incorrect
12,112,34,B,44.22289640718368,22.37198023648098,2.211144820359184,0.35141824378592346,B,652.2199000028195,Correct
12,112,35,B,58.31321918562142,42.216176605783545,2.915660959281071,0.6631301514368945,B,683.4215999988373,Correct
12,112,36,B,65.13069995141825,42.821364993748084,3.2565349975709124,0.6726364284052306,B,697.5072000022919,Correct
12,112,37,A,46.329274494732964,58.110443348876636,2.316463724736648,0.9127967096083834,B,538.9073000005737,Incorrect
12,112,38,B,81.66191698216306,54.812127955737054,4.083095849108153,0.8609868925668362,B,527.8906999992614,Correct
12,112,39,A,25.519851172865643,58.372881945125,1.275992558643282,0.9169190854383449,A,821.9759999992675,Correct
12,112,40,B,74.77862423540195,56.75538150594615,3.7389312117700975,0.8915114479538321,B,1464.749300001131,Correct
12,112,41,A,22.658604310031667,49.525309697369956,1.1329302155015832,0.7779417455600839,A,1375.4072000010638,Correct
12,112,42,B,60.75027215469448,51.88931920509474,3.037513607734724,0.815075520072507,B,1336.2637999998697,Correct
12,112,43,B,34.64536490626089,13.763004591650535,1.7322682453130442,0.21618877058225958,A,2026.732099999208,Incorrect
12,112,44,B,80.49584834353784,62.409314409929266,4.024792417176892,0.9803232183290471,B,1837.2713999997359,Correct
12,112,45,A,49.26011003075425,74.02841396896791,2.4630055015377126,1.1628356074090682,A,821.269799998845,Correct
12,112,46,B,49.21698494014017,39.50544431281285,2.4608492470070087,0.6205500681496675,A,2643.107100000634,Incorrect
12,112,47,A,22.526912781503604,44.64327171394262,1.12634563907518,0.7012548722436757,A,948.7886000024446,Correct
12,112,48,A,43.934320979384054,60.31475212225322,2.1967160489692024,0.9474219108518006,B,1017.481199996837,Incorrect
12,112,49,A,52.18249559846417,63.44958525751386,2.6091247799232087,0.9966637545916239,B,744.96729999737,Incorrect
12,112,50,B,42.8924094721165,25.150052173035643,2.144620473605825,0.39505609572104394,A,1904.4204999991052,Incorrect
12,112,51,A,65.04800010198124,87.63062326821165,3.2524000050990622,1.3764986114445423,A,1785.0072000001092,Correct
12,112,52,B,58.09599632643721,25.38356912025636,2.9047998163218605,0.39872417135043053,A,1083.5165999997116,Incorrect
12,112,53,A,26.448509447073896,42.33724941439677,1.3224254723536948,0.6650319586673384,A,1172.0888000018022,Correct
12,112,54,B,58.4835458937991,31.68350736928661,2.924177294689955,0.49768336995654444,B,958.8648999997531,Correct
12,112,55,B,48.91041796854998,38.15348092396837,2.4455208984274988,0.5993134768980866,B,537.0794000009482,Correct
12,112,56,A,61.85840514972526,73.98283625445961,3.0929202574862633,1.1621196743437348,B,723.5789999976987,Incorrect
12,112,57,A,35.31214070997894,48.36482782743129,1.765607035498947,0.7597129389739666,B,732.4205999975675,Incorrect
12,112,58,B,31.785149412714112,16.092810084024812,1.5892574706357054,0.25278526967794046,A,886.6634999976668,Incorrect
12,112,59,B,72.2370168018404,49.19257833283075,3.61185084009202,0.7727152135078075,B,619.9176000009174,Correct
12,112,60,B,64.3208003706323,55.86429040542626,3.216040018531615,0.8775142216784696,B,454.6972999996797,Correct
12,112,61,A,15.466313535927554,37.3166112740621,0.7733156767963777,0.5861679591772976,A,1182.6780999981565,Correct
12,112,62,B,35.50164865632337,20.36571121203486,1.7750824328161685,0.31990384364429997,A,731.1597999978403,Incorrect
12,112,63,A,49.61757111619639,62.84233535077686,2.480878555809819,0.9871250953621337,B,730.6207999972685,Incorrect
12,112,64,B,64.09720218845848,35.5941131445531,3.204860109422924,0.5591110218298595,B,713.8001999992412,Correct
12,112,65,B,79.38519038709222,59.293138503454465,3.969259519354611,0.9313744416536732,B,713.5301000016625,Correct
12,112,66,A,66.75620160101019,84.22038899269832,3.337810080050509,1.3229307767096787,B,500.87949999942794,Incorrect
12,112,67,B,50.89771722623021,22.68951144655165,2.544885861311511,0.35640601237014097,B,629.1323999976157,Correct
12,112,68,B,67.30619185722107,58.333748467075964,3.365309592861053,0.9163043782026036,B,539.238800000021,Correct
12,112,69,B,46.4353055498263,21.153388615524104,2.321765277491315,0.3322766513653024,B,44.3561000029149,Correct
12,112,70,B,40.37737611523802,23.663669561814036,2.018868805761901,0.3717080522618569,B,323.25459999992745,Correct
12,112,71,B,75.44011196084463,64.452553959859,3.772005598042232,1.012418350126964,B,1.0790999986056704,Correct
12,112,72,A,52.01928620906117,80.08343944934381,2.6009643104530586,1.2579477252413076,B,651.5882999992755,Incorrect
12,112,73,B,77.854459642223,46.39660418614848,3.89272298211115,0.7287961543135874,B,608.0107000016142,Correct
12,112,74,B,81.7957512987399,60.42551502736362,4.089787564936995,0.949161770496726,B,469.80339999936405,Correct
12,112,75,B,80.21358607233137,62.293671560129525,4.010679303616569,0.9785067046921918,B,418.26230000151554,Correct
12,112,76,B,60.38405245883772,51.12147097884716,3.019202622941886,0.8030141883392501,B,1011.0998999989533,Correct
12,112,77,B,62.75861538955766,55.43630293835782,3.1379307694778835,0.870791410266616,B,342.13639999870793,Correct
12,112,78,A,44.70388644618625,55.63295645943142,2.235194322309313,0.873880436552153,A,648.6533000024792,Correct
12,112,79,B,39.72865590879715,29.653709395773305,1.9864327954398575,0.4657993779472402,A,700.802699997439,Incorrect
12,112,80,B,46.14254734768351,20.27688893276967,2.3071273673841755,0.31850862654422685,A,968.4269999997923,Incorrect
12,112,81,B,36.88594025083947,20.334774086300367,1.8442970125419733,0.31941788440964664,B,698.9281000023766,Correct
12,112,82,B,75.56429007119532,42.86078806814203,3.778214503559766,0.6732556846097203,B,487.8945000018575,Correct
12,112,83,A,40.701169901778414,67.31418018724138,2.035058495088921,1.0573686697932856,A,749.9940999987302,Correct
12,112,84,A,63.510134786923444,87.15780468165937,3.1755067393461722,1.3690715944545757,B,792.2182000002067,Incorrect
12,112,85,B,56.436423953338135,33.033956204865895,2.8218211976669068,0.5188961706610683,A,411.2745999991603,Incorrect
12,112,86,A,47.03215660476219,70.32724390135577,2.3516078302381094,1.1046977639385844,A,557.2098000011465,Correct
12,112,87,B,73.85872497501725,43.759895578711095,3.6929362487508626,0.6873788323596762,B,799.6789999997418,Correct
12,112,88,B,88.70977792193227,62.47850762182141,4.435488896096614,0.9814101027598402,B,526.0807999984536,Correct
12,112,89,A,44.98507171177259,68.9051147193183,2.2492535855886295,1.0823590109848615,A,825.4194000001007,Correct
12,112,90,A,27.24352500552109,50.171255478154734,1.3621762502760544,0.7880882381577379,A,707.6243000010436,Correct
12,112,91,A,58.80462619142412,69.07126114705504,2.940231309571206,1.0849688329688512,A,833.6978000006638,Correct
12,112,92,A,15.865535865683963,41.06256819379274,0.7932767932841982,0.6450093128757459,A,791.5409999986878,Correct
12,112,93,A,41.3433368227138,70.93190209835416,2.0671668411356903,1.1141957126866993,A,512.6445999994758,Correct
12,112,94,B,50.65562332990875,36.37697375593305,2.5327811664954374,0.5714081675573399,A,803.9740999993228,Incorrect
12,112,95,A,15.701434922229986,40.17929796965161,0.7850717461114993,0.631134936639264,A,942.2014999981911,Correct
12,112,96,B,52.469180883688,29.169705783120897,2.6234590441844,0.4581966669781415,B,529.5341999990342,Correct
12,112,97,A,24.534079322202174,56.71050880746871,1.2267039661101087,0.8908065892544149,A,861.6855000000214,Correct
12,112,98,A,15.220986384766665,42.44682311031143,0.7610493192383332,0.6667531382578992,A,536.7432999992161,Correct
12,112,99,A,53.81464170894966,77.64351508793894,2.690732085447483,1.219621482995786,B,976.9978000003903,Incorrect
12,112,100,B,67.29160216727568,52.632485437535976,3.3645801083637843,0.8267491479536739,B,710.553600001731,Correct
12,112,101,B,72.85151222268638,39.92676690480734,3.642575611134319,0.627168187948674,B,537.3517000007269,Correct
12,112,102,A,60.42482519441924,75.03928926414821,3.021241259720962,1.1787143994142373,B,446.02039999881526,Incorrect
12,112,103,A,44.86899662605617,73.95266783203115,2.243449831302809,1.1616457898723764,B,556.3946000002034,Incorrect
12,112,104,A,27.50071029880059,43.52526963621723,1.3750355149400295,0.6836933366732748,A,814.0702999990026,Correct
12,112,105,B,59.72268600468821,34.454819891691756,2.98613430023441,0.5412150452624914,B,771.0836000005656,Correct
12,112,106,B,72.10955010246147,49.64979135028996,3.6054775051230736,0.7798970987916849,B,646.9570999979624,Correct
12,112,107,B,60.58444896363296,45.52857781873044,3.029222448181648,0.7151612280185737,B,454.67769999959273,Correct
12,112,108,B,46.8746714013081,39.0239423584192,2.343733570065405,0.6129866531366065,B,466.53000000151224,Correct
12,112,109,A,54.56420269155088,80.25232261661449,2.728210134577544,1.2606005358293706,B,706.0371999978088,Incorrect
12,112,110,A,28.44424924659655,60.730106589599956,1.4222124623298273,0.9539462835680615,A,725.6302999994659,Correct
12,112,111,A,58.584613447381564,79.96626664434805,2.929230672369078,1.2561071791244316,A,583.045299998048,Correct
12,112,112,B,54.49306417691378,36.12476338996291,2.7246532088456887,0.5674464563928848,A,810.0953000030131,Incorrect
12,112,113,B,47.75675889766682,34.421034290669574,2.387837944883341,0.5406843422826495,B,919.0479999997478,Correct
12,112,114,B,52.34372339105934,31.587456734892918,2.6171861695529675,0.49617461011962505,B,1246.252100001584,Correct
12,112,115,B,57.6411519233626,35.458956188479625,2.88205759616813,0.5569879813284496,B,433.8683999994828,Correct
12,112,116,B,74.45597001873074,42.53054280027287,3.7227985009365367,0.6680682040726176,B,414.0039000012621,Correct
12,112,117,A,29.517878025490127,42.8463049387009,1.4758939012745063,0.673028184144454,A,756.6564999979164,Correct
12,112,118,B,62.33411645056814,50.56437577810824,3.1167058225284068,0.7942633573892928,B,825.0956000010774,Correct
12,112,119,B,32.93417739477429,10.707390848879442,1.6467088697387142,0.16819130214977115,A,706.4691999985371,Incorrect
12,112,120,A,49.06197468333071,67.33581308124431,2.4530987341665353,1.0577084784976631,A,913.9654999999038,Correct
12,112,121,B,70.08355276569075,43.514353220194174,3.5041776382845375,0.6835218620113669,B,640.5876999997417,Correct
12,112,122,B,87.90261413418735,66.37031141720789,4.3951307067093675,1.0425424138238353,B,497.43429999944055,Correct
12,112,123,A,25.018523702370917,44.87272239869989,1.2509261851185458,0.7048590751716487,A,672.6225000020349,Correct
12,112,124,A,22.929575411238222,38.468360967347934,1.146478770561911,0.604259601053303,A,663.8042000013229,Correct
12,112,125,A,38.84229077712715,60.568580662875895,1.9421145388563574,0.9514090402442587,A,1188.7984000022698,Correct
12,112,126,A,37.48134287237583,56.36559177345564,1.8740671436187915,0.8853886451536476,A,864.4101999998384,Correct
12,112,127,A,60.7976128179929,70.11694073588149,3.039880640899645,1.101394329540181,B,1219.9844999995548,Incorrect
12,112,128,A,52.2208497618763,74.16831745414316,2.611042488093815,1.165033206215259,A,789.6645000000717,Correct
12,112,129,A,25.061052128081926,54.43575152051381,1.2530526064040963,0.8550747853474281,A,659.4599000018206,Correct
12,112,130,B,78.35664675324358,50.05673054587535,3.917832337662179,0.786289284728229,B,678.5669999990205,Correct
12,112,131,A,16.235860693360063,35.595589427235694,0.8117930346680032,0.5591342112240109,A,646.000599997933,Correct
12,112,132,B,35.89625768265082,10.810949215901005,1.794812884132541,0.16981799317503465,A,624.795499999891,Incorrect
12,112,133,B,83.60556107224869,60.576837492157054,4.180278053612435,0.9515387382153168,B,633.0684999993537,Correct
12,112,134,A,59.515249335768914,72.82938932553513,2.9757624667884452,1.1440013723526603,B,569.0683999964676,Incorrect
12,112,135,B,39.055476246420696,18.096757827879234,1.952773812321035,0.28426320722929493,A,948.7106999986281,Incorrect
12,112,136,B,87.3973407631403,62.78413669382107,4.369867038157015,0.9862109129964282,B,587.8885999991326,Correct
12,112,137,B,68.17912940811527,52.415347159966565,3.4089564704057636,0.823338347865548,B,508.7371000008716,Correct
12,112,138,A,66.74974271614951,80.82613837501079,3.337487135807476,1.2696140126848299,B,538.2726999996521,Incorrect
12,112,139,A,20.834276634574806,41.5678698526971,1.0417138317287402,0.6529465727730492,A,641.2001999997301,Correct
12,112,140,A,29.92594520215649,47.08207202698798,1.4962972601078246,0.7395634579788547,A,555.1448999976856,Correct
12,112,141,A,24.994738880762462,35.82921024635165,1.2497369440381232,0.5628039184693123,A,903.7936000022455,Correct
12,112,142,B,74.76175391610319,42.593881716810216,3.7380876958051594,0.6690631294470178,B,1062.4733000004198,Correct
12,112,143,A,27.53182449799979,48.50722225925347,1.3765912248999894,0.7619496654785899,A,769.5413000001281,Correct
12,112,144,A,60.3361583056888,87.87619815545031,3.01680791528444,1.3803560927528182,A,660.8721999982663,Correct
12,112,145,B,43.30559508394668,20.123051323874115,2.165279754197334,0.3160921510344664,A,1597.9761000016879,Incorrect
12,112,146,B,41.605757260258926,23.174589860641376,2.0802878630129467,0.36402560628073727,A,1348.0258000017784,Incorrect
12,112,147,A,33.69587560140504,64.06782117611931,1.6847937800702522,1.006374981692005,B,522.1590000001015,Incorrect
12,112,148,B,55.05924524861944,30.014492123142247,2.7529622624309718,0.47146653977646197,A,684.3869999975141,Incorrect
12,112,149,A,66.16893272701434,84.6797774890166,3.308446636350717,1.3301468343355645,B,470.341099997313,Incorrect
12,112,150,B,58.036800658764406,49.0724603111757,2.90184003293822,0.7708284040358315,B,353.1289000020479,Correct
12,112,151,B,43.92713223657023,15.219300805087077,2.1963566118285116,0.2390642180101739,B,453.5178000005544,Correct
12,112,152,A,41.87309539168838,59.119308059366446,2.0936547695844188,0.9286439194230873,A,877.8191000019433,Correct
12,112,153,A,54.34049451901532,66.97978641826094,2.7170247259507665,1.05211602475311,B,625.7033000001684,Incorrect
12,112,154,B,34.01916735698174,20.480950762256544,1.700958367849087,0.3217140222661972,A,583.8021999988996,Incorrect
12,112,155,A,19.199049928924882,32.057234527157604,0.959952496446244,0.503553862424617,A,519.8253999988083,Correct
12,112,156,A,46.14373228672591,65.63932520068771,2.3071866143362953,1.0310601091853593,A,555.4025000019465,Correct
12,112,157,B,60.34276945958209,52.71945613445284,3.0171384729791044,0.8281152804662318,A,580.0057999986166,Incorrect
12,112,158,A,46.158100732861634,70.04329113248593,2.3079050366430818,1.1002374442753446,B,417.5422000007529,Incorrect
12,112,159,B,76.64219418076561,49.484001033328596,3.8321097090382805,0.7772928705826743,B,510.5130999982066,Correct
12,112,160,A,31.33220527775786,58.50591350207067,1.5666102638878932,0.9190087402483255,A,686.5098999987822,Correct
12,112,161,B,78.38352772187864,60.78851260016194,3.9191763860939317,0.9548637230365966,B,548.3496000015293,Correct
12,112,162,B,45.713771167844676,36.868836081741456,2.2856885583922337,0.5791343229040263,A,3831.666400001268,Incorrect
12,112,163,A,37.19938493971795,53.089996045033786,1.8599692469858977,0.8339357077709465,A,760.7996000006096,Correct
12,112,164,A,47.77953865788282,74.82919789658561,2.388976932894141,1.1754142919296506,B,2199.6990000006917,Incorrect
12,112,165,B,76.8338158011367,45.36203507248385,3.8416907900568344,0.712545180677989,B,459.8910999993677,Correct
12,112,166,B,67.27722306911342,48.04835845822861,3.363861153455671,0.7547418497471,B,505.3915999997116,Correct
12,112,167,A,33.06324871311509,59.45045101584747,1.6531624356557544,0.9338455008199312,A,704.5546000008471,Correct
12,112,168,A,43.16760377312081,73.0111316264048,2.1583801886560408,1.1468561737389538,A,714.5588999992469,Correct
12,112,169,B,49.21290921338346,33.2464219901051,2.460645460669173,0.5222335754113016,A,878.7128999974811,Incorrect
12,112,170,B,38.02924145869346,19.797447704069413,1.9014620729346732,0.3109775813346629,A,728.6607999994885,Incorrect
12,112,171,A,49.85041695461787,72.47948314997286,2.4925208477308933,1.1385050589997,B,863.8303999978234,Incorrect
12,112,172,A,64.25982513996144,87.18106881084407,3.212991256998072,1.3694370265412699,B,975.592200000392,Incorrect
12,112,173,B,42.38221726315701,25.430499539510116,2.1191108631578506,0.399461352652218,B,736.9775000006484,Correct
12,112,174,B,75.20432504368328,49.439840811670386,3.7602162521841644,0.7765992034429626,B,448.7306000009994,Correct
12,112,175,B,75.30435355467715,49.43589946945577,3.7652176777338577,0.776537292984229,B,411.2301000022853,Correct
12,112,176,B,60.13698557890834,40.73633602198817,3.0068492789454173,0.6398848699042166,B,481.5976000027149,Correct
12,112,177,B,79.86279762382662,52.08860009436104,3.9931398811913312,0.8182058169611062,B,566.8454000006022,Correct
12,112,178,B,66.8726020447863,46.71707116866533,3.343630102239315,0.7338300379035527,B,2519.1401000010956,Correct
12,112,179,B,35.9111199552912,18.661191123344924,1.79555599776456,0.29312930470167736,B,427.27820000072825,Correct
12,112,180,A,41.487393822272146,60.25200351534303,2.074369691113607,0.9464362580393402,B,429.5129000020097,Incorrect
12,112,181,A,10.481527742464959,34.746849155279335,0.524076387123248,0.5458022302080914,A,666.226800000004,Correct
12,112,182,A,55.05003055633929,80.01779732614092,2.7525015278169644,1.2569166211812066,A,811.9067000006908,Correct
12,112,183,B,35.95572535782463,23.221722091064553,1.7977862678912317,0.36476595762496095,A,615.2260000017122,Incorrect
12,112,184,B,49.01774183602663,19.44583841730468,2.4508870918013317,0.3054545155734928,B,1103.8079999998445,Correct
12,112,185,A,20.981635366824012,43.1589083057722,1.0490817683412006,0.6779385463518472,A,1692.5131999996665,Correct
12,112,186,B,49.02118358924078,33.06771843381556,2.451059179462039,0.5194265065132536,B,729.213599999639,Correct
12,112,187,B,41.85328026741995,23.011345394838923,2.0926640133709977,0.3614613682082164,B,818.8975999983086,Correct
12,112,188,A,26.527341968316946,41.78011437752387,1.326367098415847,0.6562805019728514,A,3076.2807999999495,Correct
12,112,189,B,76.86025569283325,62.783796999181575,3.843012784641662,0.9862055770855087,B,748.8537000026554,Correct
12,112,190,B,78.85140576698163,48.870353410862755,3.942570288349082,0.7676537162695166,B,518.0059999984223,Correct
12,112,191,B,75.5617637366849,53.283245607988256,3.778088186834245,0.8369712648073826,B,414.2882999985886,Correct
12,112,192,A,31.70285685712345,46.78458829719593,1.5851428428561725,0.7348905944784687,A,647.6676000020234,Correct
12,112,193,A,17.456264256656127,44.03409737603266,0.8728132128328063,0.6916859841200089,A,660.6494000006933,Correct
12,112,194,A,64.26139568330318,87.57275977131553,3.213069784165159,1.3755896937607435,B,864.2620000027819,Incorrect
12,112,195,A,48.93257020618915,63.45444429550123,2.4466285103094574,0.9967400801818472,B,818.4779999974126,Incorrect
12,112,196,A,15.307956882688952,41.674490822220775,0.7653978441344477,0.6546213710459202,A,610.7788999979675,Correct
12,112,197,A,64.63649382935472,87.45995397677041,3.231824691467736,1.3738177444836166,A,1069.8222999999416,Correct
12,112,198,B,76.6502688336103,49.31436908961282,3.832513441680515,0.774628298241716,B,745.4380999988643,Correct
12,112,199,A,25.205020915094913,52.84033770891513,1.2602510457547456,0.8300140837976575,A,714.2438000009861,Correct
12,112,200,B,37.526110311285876,24.379777938707527,1.876305515564294,0.38295665634197046,A,715.6947000003129,Incorrect
12,112,201,A,39.216945042233434,72.17159922376679,1.9608472521116715,1.1336688295960626,A,895.8529000010458,Correct
12,112,202,B,60.720135031594204,30.602440668292505,3.03600675157971,0.4807020139271263,B,1168.670099999872,Correct
12,112,203,A,35.10387481731263,50.697401932448464,1.7551937408656315,0.7963529273353456,A,650.6200999974681,Correct
12,112,204,A,53.471363624179865,72.15324640697774,2.6735681812089935,1.133380544224077,A,608.46440000023,Correct
12,112,205,A,32.6266495045423,51.33548093176919,1.6313324752271148,0.806375848818725,A,588.5888000011619,Correct
12,112,206,A,63.01562434172493,76.007504945012,3.150781217086246,1.193923095764698,A,786.6963000014948,Correct
12,112,207,B,45.562003915245306,29.675923845200117,2.2781001957622653,0.46614832170285425,A,772.3360000018147,Incorrect
12,112,208,A,65.01954434016737,83.70753457851067,3.250977217008369,1.3148748784098137,A,463.4172000005492,Correct
12,112,209,B,75.10561386273902,56.07249647332923,3.755280693136951,0.8807847149452536,A,503.9697000029264,Incorrect
12,112,210,A,51.30714841137629,67.30945573302985,2.565357420568814,1.0572944582400698,A,370.46660000123666,Correct
12,112,211,B,31.160468397841857,17.62034569211011,1.5580234198920928,0.2767797429002284,A,415.7639000004565,Incorrect
12,112,212,B,44.45629048567331,15.678500688810143,2.2228145242836654,0.24627731291634225,B,1886.3629000006767,Correct
12,112,213,A,42.99626049824181,50.18117039079224,2.1498130249120906,0.7882439812412528,B,675.0943000006373,Incorrect
12,112,214,A,44.44512528189702,67.68212107596044,2.222256264094851,1.0631482717580611,A,492.75610000040615,Correct
12,112,215,B,48.45061497345245,29.41335823706946,2.4225307486726226,0.46202395077491126,A,2242.287600001873,Incorrect
12,112,216,B,46.38080487554049,35.59208067518566,2.3190402437770246,0.5590790958756926,B,776.9850000004226,Correct
12,112,217,A,33.61407331403768,62.06656179309903,1.6807036657018841,0.9749392728138843,A,692.0051000015519,Correct
12,112,218,A,19.630550446117777,34.624914510747416,0.9815275223058889,0.5438868852906935,A,616.1472000021604,Correct
12,112,219,A,56.64613642872979,74.81666671981193,2.8323068214364895,1.1752174526651857,B,673.5196000008727,Incorrect
12,112,220,A,56.166146312382196,75.24874182198474,2.8083073156191096,1.1820044724991114,A,785.267200000817,Correct
12,112,221,A,58.859601471209544,83.5870654364803,2.942980073560477,1.3129825535518793,A,482.4001999986649,Correct
12,112,222,B,77.83361662871876,61.78979866235285,3.891680831435938,0.9705918877222007,A,623.4033000000636,Incorrect
12,112,223,A,29.42597048392591,49.92408343166281,1.4712985241962955,0.784205668730579,A,902.571300001,Correct
12,112,224,B,59.8311307294947,46.04096423492619,2.991556536474735,0.7232097750231727,A,3006.85280000107,Incorrect
12,112,225,A,45.62492998355153,65.48879066707106,2.2812464991775765,1.0286955182607511,A,853.2283999993524,Correct
12,112,226,B,65.6099080604723,38.09213063007261,3.2804954030236155,0.5983497887350944,A,2502.3394000018016,Incorrect
12,112,227,B,53.00506297844128,28.739206728264314,2.6502531489220638,0.4514344036375676,A,6769.971000001533,Incorrect
12,112,228,A,18.920481752921567,43.82721190238929,0.9460240876460785,0.6884362346993467,A,742.4434999993537,Correct
12,112,229,B,58.566840052688754,31.016279678089305,2.928342002634438,0.4872025818918588,A,466.5741999997408,Incorrect
12,112,230,B,48.396315086427585,30.460398688451328,2.4198157543213794,0.47847082372527433,B,690.6243999983417,Correct
12,112,231,B,38.278609711838,26.224268942801267,1.9139304855919,0.4119298532823371,B,478.48919999887585,Correct
12,112,232,B,80.47742250784106,58.04512994730214,4.023871125392053,0.9117707690955466,B,557.1249999993597,Correct
12,112,233,B,56.0677799337082,26.590372074636594,2.8033889966854098,0.4176805878294875,B,396.3188999987324,Correct
12,112,234,A,48.608624836250236,73.6774107259346,2.430431241812512,1.15732206136057,B,387.7942000035546,Incorrect
12,112,235,A,21.61637255441296,46.52236290462929,1.080818627720648,0.7307715676441086,A,554.6960000028776,Correct
12,112,236,B,33.87483872277388,22.821519992999868,1.693741936138694,0.35847959776880484,A,383.1285000014759,Incorrect
12,112,237,B,83.89533305068302,68.99259037554762,4.194766652534151,1.0837330753797514,B,5490.453299997171,Correct
12,112,238,B,81.91258002727332,57.19665579112703,4.095629001363665,0.8984429682165439,B,520.5600999979652,Correct
12,112,239,A,45.347352962375126,73.33248134221373,2.267367648118756,1.1519039232710462,A,622.9310999988229,Correct
12,112,240,A,32.000121212719165,43.11279077376364,1.6000060606359583,0.6772141338530484,A,583.4892000020773,Correct
12,112,241,B,32.712761259067044,12.937816507468469,1.635638062953352,0.20322674646677846,A,491.67279999892344,Incorrect
12,112,242,B,80.14764593393554,54.74613683830836,4.007382296696777,0.8599503065182555,B,382.14570000127424,Correct
12,112,243,B,32.50317871762567,19.25064025575921,1.6251589358812837,0.30238835002196535,A,784.3623000007938,Incorrect
12,112,244,A,48.43260856722601,71.10173053448129,2.4216304283613006,1.1168633715232374,B,589.3270000015036,Incorrect
12,112,245,A,21.195427821221337,52.951574892504546,1.0597713910610667,0.8317613933915101,A,576.1074999973061,Correct
12,112,246,B,82.75302206395597,52.9152264151923,4.137651103197799,0.8311904328450436,B,536.127999999735,Correct
12,112,247,B,68.44108350322806,59.97459840241818,3.422054175161403,0.9420787887151755,B,482.90340000312426,Correct
12,112,248,A,23.966512685906064,53.268768843358714,1.1983256342953033,0.836743864320343,A,588.3272000028228,Correct
12,112,249,A,49.47097963696379,71.76929133769855,2.4735489818481895,1.1273493920992967,A,676.0506999999052,Correct
12,112,250,B,80.37980789851811,50.474354145567524,4.018990394925905,0.7928493008920223,A,481.02360000120825,Incorrect
12,112,251,B,62.16324734001035,30.73838578812508,3.1081623670005176,0.4828374348759133,B,490.4239999996207,Correct
12,112,252,B,35.582130362291096,18.506000200742992,1.7791065181145547,0.2906915713899271,A,645.7354000012856,Incorrect
12,112,253,B,36.863631178041146,21.05358592227689,1.8431815589020573,0.33070895432573283,B,1189.5143000001553,Correct
12,112,254,A,17.85302152331418,46.284987119698506,0.892651076165709,0.7270428775337152,A,561.9167000004381,Correct
12,112,255,A,42.536576593902375,61.748033726094356,2.1268288296951186,0.9699358456375641,B,737.9439000033017,Incorrect
12,112,256,B,57.69578270672597,30.7432624451981,2.8847891353362987,0.4829140372260866,B,736.0205999975733,Correct
12,112,257,B,65.858723959523,32.53098940123038,3.2929361979761502,0.5109955865845639,B,594.2609999983688,Correct
12,112,258,A,41.73382495405239,52.2232054952563,2.0866912477026194,0.8203201936540365,B,405.00239999892074,Incorrect
12,112,259,A,47.993358348144284,67.67363396375264,2.399667917407214,1.0630149565112499,B,417.47839999879943,Incorrect
12,112,260,A,35.11445706512935,45.99491097620805,1.7557228532564677,0.7224863721268587,A,594.2998999998963,Correct
12,112,261,A,61.354355930792046,84.08738632873843,3.0677177965396023,1.3208415757496574,B,584.9452000002202,Incorrect
12,112,262,A,35.60170714586232,52.74911552250689,1.7800853572931161,0.828581169044335,A,887.8546000014467,Correct
12,112,263,B,59.84602651547942,33.854019140969285,2.9923013257739712,0.5317776891387868,B,702.7804999997898,Correct
12,112,264,A,37.356987796089335,61.92453526689684,1.8678493898044666,0.9727083253572258,A,721.551399998134,Correct
12,112,265,A,44.57723982982863,62.68500082724889,2.2288619914914314,0.9846536904457761,B,1414.788000001863,Incorrect
12,112,266,A,43.164973663181286,59.470891980535356,2.1582486831590644,0.9341665867424099,A,924.3505000013101,Correct
12,112,267,A,54.76647028282429,68.22453967487927,2.7383235141412143,1.0716685631857303,B,5166.006200000993,Incorrect
12,112,268,A,29.961366330845678,50.17010228637811,1.4980683165422841,0.7880701238636697,A,544.256299999688,Correct
12,112,269,A,56.09511723553087,73.3788830491222,2.8047558617765436,1.1526327995787342,B,604.9354999995558,Incorrect
12,112,270,A,58.75579933175828,69.91136757165191,2.937789966587914,1.0981651938275867,A,668.9739000030386,Correct
12,112,271,A,30.138780633787015,56.99570217570222,1.5069390316893507,0.8952863962068894,B,772.4553999978525,Incorrect
12,112,272,A,41.69091788418809,52.17348479595938,2.084545894209404,0.8195391827358239,A,640.6095999991521,Correct
12,112,273,B,50.117109663600665,33.09425703292565,2.5058554831800333,0.5198433738532579,A,689.9914000023273,Incorrect
12,112,274,A,37.61389154499263,46.286950806223636,1.8806945772496317,0.7270737230495216,A,1326.1626000021352,Correct
12,112,275,B,48.61623140029958,26.91641725018095,2.430811570014979,0.42280209347063025,B,680.9261999987939,Correct
12,112,276,B,79.74146036594951,56.57731518383457,3.987073018297475,0.8887143887068448,B,621.9199000006483,Correct
12,112,277,A,37.906824648107055,55.99817822697474,1.895341232405353,0.8796173266613787,B,566.1791000020457,Incorrect
12,112,278,A,25.9387039296386,44.28750067020218,1.2969351964819298,0.695666433756801,A,580.5685999985144,Correct
12,112,279,B,42.166057032181065,23.790441461234572,2.108302851609053,0.3736993806013628,B,700.0458000002254,Correct
12,112,280,A,32.94857215449258,50.019325595776586,1.647428607724629,0.785701729146038,B,586.1341000018001,Incorrect
12,112,281,B,32.60056216396405,14.020564753229714,1.6300281081982024,0.22023451613963227,A,626.4177999983076,Incorrect
12,112,282,A,40.29939378415813,51.03711163580228,2.0149696892079065,0.801689074877393,B,586.1390999998548,Incorrect
12,112,283,B,59.6776271899742,44.820496489086736,2.98388135949871,0.70403871250181,B,690.9684999991441,Correct
12,112,284,A,22.963304814802253,41.66034012465872,1.1481652407401126,0.6543990924083996,A,818.4526000004553,Correct
12,112,285,A,63.67175292486953,88.07974300177833,3.1835876462434767,1.3835533677223188,B,626.2225999998918,Incorrect
12,112,286,B,71.86721561412213,57.454478145462275,3.5933607807061065,0.902492832288098,B,535.7263000005332,Correct
12,112,287,A,33.5314669285323,52.598646448610594,1.676573346426615,0.8262176063586095,A,913.9692999997351,Correct
12,112,288,A,47.77531766395441,66.31050830193142,2.3887658831977205,1.0416030286857636,B,617.4551000003703,Incorrect
12,112,289,B,69.94154616922191,46.4750507776926,3.4970773084610953,0.7300283904920584,B,617.1521999967808,Correct
12,112,290,B,76.39484822967347,47.55109899963258,3.8197424114836735,0.7469309164368334,B,2598.1750000028114,Correct
12,112,291,A,46.243368972021216,59.40611187188389,2.312168448601061,0.9331490231752191,B,4677.905100001226,Incorrect
12,112,292,A,68.12107428910639,85.70175835563393,3.4060537144553193,1.346200072248936,B,607.8862000031222,Incorrect
12,112,293,B,69.31146545604584,51.28783024599086,3.465573272802292,0.8056273535968264,B,457.55470000221976,Correct
12,112,294,B,38.26944577028114,19.374287136722717,1.913472288514057,0.30433059068633656,A,3994.1157000030216,Incorrect
12,112,295,A,57.56379134684677,82.47980628742172,2.8781895673423383,1.2955897675103667,A,748.920600002748,Correct
12,112,296,A,59.66025126078687,81.61969379178694,2.9830125630393436,1.2820791520226313,A,480.79970000253525,Correct
12,112,297,B,88.45083039714815,66.85609353637334,4.422541519857408,1.0501730615079126,A,444.36339999811025,Incorrect
12,112,298,B,71.36700669007108,53.29896283214947,3.5683503345035543,0.8372181503871812,B,2545.6286999979056,Correct
12,112,299,A,28.140191253989364,60.27115559185082,1.4070095626994683,0.9467370981536296,A,832.0196999993641,Correct
12,112,300,A,27.230140803345385,45.1770708445504,1.3615070401672693,0.7096397693797258,A,579.0593000019726,Correct
12,112,301,A,22.577717624459023,36.21079635311301,1.1288858812229512,0.5687978590178796,A,504.9026999986381,Correct
12,112,302,B,37.037051737600045,22.3039865656556,1.8518525868800024,0.3503502017021453,B,790.9452000021702,Correct
12,112,303,A,30.1136879731341,43.08463668771895,1.5056843986567048,0.6767718905036155,A,1751.7659000004642,Correct
12,112,304,B,34.47112223236017,22.921798243842815,1.7235561116180087,0.36005476484962007,A,6418.296600000758,Incorrect
12,112,305,A,28.654314519593747,54.87261854889701,1.4327157259796874,0.8619370765822492,A,684.0531000016199,Correct
12,112,306,B,65.90597404191787,55.270140802526996,3.2952987020958937,0.8681813415404613,B,600.7006999971054,Correct
12,112,307,A,47.66514574725506,76.58995294774483,2.383257287362753,1.2030721675971154,B,481.0274000010395,Incorrect
12,112,308,A,50.582019251312346,62.270686723817235,2.529100962565617,0.9781456597276785,B,677.1583000008832,Incorrect
12,112,309,A,33.74815918078645,53.87551662994328,1.6874079590393225,0.8462746362649227,A,643.5579999997572,Correct
12,112,310,B,65.59468308355869,35.93915968714137,3.279734154177935,0.5645310002465689,B,522.9885000007926,Correct
12,112,311,B,34.99782810851279,15.960215944177115,1.7498914054256398,0.25070248579966753,A,575.7005999985267,Incorrect
12,112,312,A,15.53416327216473,38.53995490822301,0.7767081636082365,0.6053841960467765,A,540.3949999999895,Correct
12,112,313,A,46.355181488275,72.93135725813701,2.31775907441375,1.1456030808924793,B,533.2644000009168,Incorrect
12,112,314,B,50.16899648067832,20.19804237516789,2.508449824033916,0.31727010771361386,B,453.2825000023877,Correct
12,112,315,B,46.06548311127384,24.783122173350982,2.303274155563692,0.38929237276408873,B,509.28750000093714,Correct
12,112,316,A,19.959880149141924,40.721376011848385,0.9979940074570962,0.6396498786144527,A,674.0125000033004,Correct
12,112,317,B,63.90409806846842,33.953410339024586,3.195204903423421,0.5333389224269968,B,668.2089999994787,Correct
12,112,318,A,21.74229479585386,34.75043689563845,1.087114739792693,0.5458585863018672,A,517.3266999991029,Correct
12,112,319,A,43.495870559665335,74.05789370699536,2.1747935279832666,1.163298674051152,A,872.1176999970339,Correct
12,112,320,A,32.42856899604754,48.23455893519998,1.621428449802377,0.7576666799998408,A,1051.1558999969566,Correct
12,112,321,A,40.799639811697794,67.4111014574025,2.0399819905848897,1.0588911055448593,A,525.9330999979284,Correct
12,112,322,B,63.082386620276516,37.347455011756566,3.154119331013826,0.5866524514760486,B,648.9944999993895,Correct
12,112,323,A,33.445486508392854,56.15980055071124,1.6722743254196428,0.8821560841859122,A,541.1120999997365,Correct
12,112,324,A,67.94568730480644,82.79207475221959,3.397284365240322,1.30049486908515,A,594.4128999981331,Correct
12,112,325,A,12.431331612022444,31.290715025245287,0.6215665806011222,0.49151340224441176,B,705.0590999970154,Incorrect
12,112,326,A,55.11372981820561,70.82758286671495,2.7556864909102807,1.1125570700279699,B,584.4888000028732,Incorrect
12,112,327,A,22.64917051610498,37.25380392409949,1.132458525805249,0.5851813836311279,A,608.8049999998475,Correct
12,112,328,A,62.558060087748345,88.05971427492071,3.1279030043874174,1.3832387572165357,A,669.5144000004802,Correct
12,112,329,B,36.28140761615198,13.843592570001647,1.8140703808075989,0.21745464358603708,A,747.578300000896,Incorrect
12,112,330,B,61.522355587049496,49.3461823236214,3.0761177793524745,0.7751280193529575,A,596.4485999975295,Incorrect
12,112,331,A,28.42569059098443,56.19031331255127,1.4212845295492216,0.8826353775280991,B,569.6858999981487,Incorrect
12,112,332,B,44.13769921151378,17.791535840879025,2.206884960575689,0.2794687914689253,A,1339.0780000008817,Incorrect
12,112,333,B,33.13285675301668,13.651584363667894,1.6566428376508342,0.21443858573380176,A,835.6696000009833,Incorrect
12,112,334,A,50.62143543043094,63.69285075242772,2.5310717715215474,1.0004849600500902,B,792.6700999996683,Incorrect
12,112,335,A,40.2978048801697,53.56431367756734,2.0148902440084853,0.8413862717201243,B,446.71960000050603,Incorrect
12,112,336,B,45.99276988505619,37.553273441712726,2.2996384942528096,0.5898854398136669,A,1079.0176000009524,Incorrect
12,112,337,A,31.61127938344619,62.92427311603845,1.5805639691723092,0.9884121707691206,A,833.2386000001861,Correct
12,112,338,B,64.1393754477705,53.72426876366831,3.206968772388525,0.8438988403371198,B,356.0332999986713,Correct
12,112,339,B,77.6808066470541,61.1468920433426,3.884040332352705,0.9604931341660664,B,514.6285999981046,Correct
12,112,340,A,16.134813501502737,32.083746923914674,0.8067406750751368,0.5039703181790223,A,688.7557999980345,Correct
12,112,341,A,37.669408474844765,47.1942899375374,1.8834704237422384,0.741326172795771,A,626.4301000010164,Correct
12,112,342,B,54.06474737344622,34.291927171402804,2.703237368672311,0.5386563323955763,A,482.7134000006481,Incorrect
12,112,343,B,66.33801239153095,41.03278294778669,3.3169006195765474,0.6445414473255561,B,436.38219999775174,Correct
12,112,344,B,85.97606551478283,63.15241903504075,4.298803275739141,0.9919958784845411,B,374.331600000005,Correct
12,112,345,A,31.024321627793558,58.84972398110894,1.5512160813896778,0.9244093026241944,A,806.9009999999253,Correct
12,112,346,B,39.880825992958194,29.691152224962426,1.9940412996479098,0.4663875285327909,A,670.3629000003275,Incorrect
12,112,347,A,52.1566275779992,66.92703567788435,2.60783137889996,1.0512874180609173,A,379.3349000006856,Correct
12,112,348,A,60.01685227015257,84.8956066444305,3.0008426135076287,1.3335370707809584,B,1092.1883000009984,Incorrect
12,112,349,A,58.97203856474229,76.94661819732805,2.9486019282371148,1.2086746522365226,B,1550.1377999971737,Incorrect
12,112,350,A,29.655554106432756,47.651980301393166,1.4827777053216378,0.7485155562193115,A,869.871000002604,Correct
12,112,351,A,18.153968534477077,42.34657064033986,0.9076984267238538,0.6651783761420648,A,501.882000000478,Correct
12,112,352,B,62.53876160270449,39.59531315918915,3.1269380801352247,0.6219617246874795,B,1189.9483000015607,Correct
12,112,353,B,68.72401600718955,44.34083825856281,3.4362008003594777,0.6965042586355707,B,436.2895000012941,Correct
12,112,354,B,70.13501884044705,44.18543471550031,3.5067509420223524,0.6940631854894358,B,453.1333999984781,Correct
12,112,355,B,42.615240238079735,21.90530553509775,2.130762011903987,0.3440877347185146,A,795.5299999994168,Incorrect
12,112,356,A,51.50131911746778,80.42610307549711,2.575065955873389,1.263330272894186,B,1287.056200002553,Incorrect
12,112,357,B,69.09438707216174,45.82024120156922,3.4547193536080867,0.719742665722811,B,1362.4181000013778,Correct
12,112,358,A,23.114195007674276,45.390740535617866,1.155709750383714,0.7129960850384875,A,762.7250000005006,Correct
12,112,359,B,79.60995327899306,63.409156637328614,3.980497663949653,0.9960287033107802,B,653.218300001754,Correct
12,112,360,B,50.14433399063462,18.834950231209987,2.507216699531731,0.2958587063854934,B,628.1278000024031,Correct
12,112,361,B,39.41971170123756,28.707572890233052,1.970985585061878,0.4509375004717483,B,1282.22580000147,Correct
12,112,362,B,48.11376933945756,29.40306623043602,2.405688466972878,0.46186228431275966,B,495.7603000002564,Correct
12,112,363,A,47.60491184854099,58.36759694696896,2.38024559242705,0.9168360688814386,B,806.1311000019487,Incorrect
12,112,364,A,38.34137770813806,46.68002444143338,1.917068885406903,0.7332481092729954,B,937.7331000032427,Incorrect
12,112,365,B,66.33821579172016,35.43265621574572,3.3169107895860077,0.5565748623227974,B,598.1428999984928,Correct
12,112,366,A,55.629638465598426,73.73900217632905,2.7814819232799213,1.1582895376009856,B,518.713999997999,Incorrect
12,112,367,A,40.013584092331094,69.39293964149014,2.0006792046165547,1.0900217469435267,A,568.1170999996539,Correct
12,112,368,B,46.81919459167098,22.298332484354937,2.340959729583549,0.3502613876007606,A,721.5151000018523,Incorrect
12,112,369,A,45.679546461761156,62.3604505003453,2.283977323088058,0.9795556658321737,B,310.5121999979019,Incorrect
12,112,370,B,43.850022299618175,27.65861705018323,2.1925011149809084,0.4344605406665452,B,488.7450999995053,Correct
12,112,371,B,78.4361882579718,51.74389160535357,3.9218094128985905,0.8127911486776266,A,376.4759999976377,Incorrect
12,112,372,A,51.27584236802547,62.78457340949059,2.5637921184012735,0.9862177729101235,A,478.5587000005762,Correct
12,112,373,B,67.81769315953387,58.68617629368006,3.3908846579766934,0.9218403015575036,B,295.38010000032955,Correct
12,112,374,A,57.74427116959366,85.34585923744302,2.887213558479683,1.340609621973298,A,898.7164000027406,Correct
12,112,375,B,84.18455505051615,61.4997994915764,4.209227752525808,0.9660365913999085,B,849.3693999989773,Correct
12,112,376,A,38.77541370243465,60.65044714712989,1.9387706851217326,0.9526949959717966,A,604.4111999981396,Correct
12,112,377,B,68.06186571779652,42.93190317122195,3.403093285889826,0.674372758036696,B,1108.7069999994128,Correct
12,112,378,A,56.64081093850194,66.41521139047077,2.8320405469250973,1.0432477009545806,B,617.1117999983835,Incorrect
12,112,379,A,49.645446939001815,74.05055114670932,2.482272346950091,1.1631833373838862,B,1169.3845999980113,Incorrect
12,112,380,A,53.40615064069608,69.5452951771086,2.670307532034804,1.0924149421006901,B,685.5414999990899,Incorrect
12,112,381,B,65.51696946255454,32.16606282149694,3.275848473127727,0.5052633332746128,B,532.2488999991037,Correct
12,112,382,A,51.55766533374559,78.1574174361904,2.5778832666872797,1.2276938422054327,B,1079.2884000002232,Incorrect
12,112,383,B,58.00735372141705,29.83006481145366,2.9003676860708527,0.46856956233885116,A,594.8846000028425,Incorrect
12,112,384,A,23.079405448214594,49.7225601417301,1.1539702724107297,0.7810401482946798,A,629.9137999994855,Correct
12,112,385,B,82.82350226035628,63.60207324375993,4.141175113017814,0.9990590302783805,B,567.602999999508,Correct
12,112,386,B,78.8020247793626,47.55356466648946,3.9401012389681296,0.7469696470412521,B,612.5725000019884,Correct
12,112,387,B,64.8271532053766,47.14524924714981,3.24135766026883,0.740555843432528,B,430.8210000017425,Correct
12,112,388,B,49.26273081421239,24.266684093290714,2.4631365407106194,0.381180182372332,B,1004.067900001246,Correct
12,112,389,A,49.18911396581959,77.8795727962974,2.4594556982909794,1.2233294688077971,A,646.8610000010813,Correct
12,112,390,A,51.69024401591727,73.06840562901057,2.584512200795864,1.1477558316680936,A,642.698499999824,Correct
12,112,391,B,82.27534648106732,68.20070668035395,4.1137673240533665,1.0712941953831614,A,608.5363000020152,Incorrect
12,112,392,A,17.528310742834456,34.201389117058746,0.8764155371417229,0.5372341639635883,A,690.7264000001305,Correct
12,112,393,A,62.382433582849764,85.27096871743521,3.1191216791424883,1.3394332444358976,A,622.6286000019172,Correct
12,112,394,B,49.36498318175946,33.02312654077805,2.468249159087973,0.5187260586953722,A,552.5904999994964,Incorrect
12,112,395,A,49.636094757471184,75.24224545889129,2.4818047378735595,1.1819024278662644,A,355.63030000048457,Correct
12,112,396,B,84.52357686066784,68.90026996739378,4.226178843033392,1.082282909799589,B,706.5387000002374,Correct
12,112,397,A,52.536644510403065,79.19057763421733,2.626832225520153,1.2439226846459468,B,517.5908999990497,Incorrect
12,112,398,B,52.4247354207297,29.631547992581908,2.621236771036485,0.46545126743994353,A,557.0508999990125,Incorrect
12,112,399,B,72.67561017844524,55.80340462251489,3.6337805089222623,0.8765578300369575,B,486.45530000067083,Correct
12,112,400,A,26.455211144980428,54.88741310608397,1.3227605572490213,0.8621694689431076,A,534.7302999980457,Correct
12,112,401,B,78.60969383444453,52.67187097193997,3.9304846917222265,0.8273678144813803,B,832.6861999994435,Correct
12,112,402,B,65.3567199836115,38.54368206301814,3.2678359991805745,0.6054427420573923,B,449.82820000223,Correct
12,112,403,A,36.71061594497848,55.401921190514486,1.835530797248924,0.8702513430344049,B,934.2503000007127,Incorrect
12,112,404,B,37.35615619935548,11.183180014396438,1.8678078099677742,0.17566498088500024,A,620.8918000011181,Incorrect
12,112,405,B,59.648665461280096,43.96488835547265,2.982433273064005,0.6905988513672416,B,758.2771999987017,Correct
12,112,406,B,47.21984075006811,17.75661515541732,2.3609920375034052,0.27892025862440123,B,443.25649999882444,Correct
12,112,407,B,55.380992765158325,47.88405311711885,2.7690496382579166,0.7521609474842201,B,466.7302000016207,Correct
12,112,408,B,72.09074521406188,53.74621795314778,3.6045372607030943,0.8442436173992246,B,504.5444999996107,Correct
12,112,409,B,61.50339866808959,44.713878465035116,3.0751699334044793,0.7023639604963059,B,468.7144999988959,Correct
12,112,410,A,19.540378247396607,45.834317550766855,0.9770189123698303,0.7199637764989545,A,507.057499999064,Correct
12,112,411,A,13.668216398764486,35.59732173725409,0.6834108199382243,0.5591614222861486,A,546.774499998719,Correct
12,112,412,B,80.60798300033309,64.50094434098528,4.030399150016654,1.0131784644562176,B,481.1477000002924,Correct
12,112,413,A,11.191328319513403,32.435380487395456,0.5595664159756701,0.5094937652779563,A,606.694800000696,Correct
12,112,414,A,55.952583864620046,83.76933493445105,2.797629193231002,1.3158456361308712,A,727.801000000909,Correct
12,112,415,B,83.81220162098063,67.87600589913103,4.190610081049032,1.0661938074386375,B,554.0166999999201,Correct
12,112,416,A,56.70680665173934,83.86534846854791,2.835340332586967,1.3173538131976907,B,511.2662999999884,Incorrect
12,112,417,B,66.5176815494187,38.80365547881305,3.325884077470935,0.609526394923342,B,412.27020000224,Correct
12,112,418,A,24.04483467558745,38.84286224995785,1.2022417337793725,0.6101422534443394,A,703.5958000014944,Correct
12,112,419,B,40.66227795847662,15.151618162272694,2.0331138979238315,0.23800106154296788,B,568.7523999986297,Correct
12,112,420,B,53.067497727973056,33.98973159202017,2.653374886398653,0.5339094553348974,B,831.0759000014514,Correct
12,112,421,B,69.13115942277682,45.80579237015928,3.456557971138841,0.7195157040097588,B,495.65249999795924,Correct
12,112,422,A,46.874805319940535,60.861457772207366,2.343740265997027,0.9560095431196604,B,495.6425999989733,Incorrect
12,112,423,A,54.01089852435497,79.03320795594263,2.7005449262177486,1.2414507275201188,B,951.9686000021466,Incorrect
12,112,424,A,36.91785006615758,66.79015427342797,1.8458925033078788,1.0491372899876512,A,525.4940000013448,Correct
12,112,425,B,67.63493478815474,43.61209024221581,3.381746739407737,0.6850571115632014,B,640.5431999992288,Correct
12,112,426,B,49.753004492900985,18.66261640858761,2.487650224645049,0.29315169302991584,B,682.7630000007048,Correct
12,112,427,A,25.493693602849973,51.17436756405063,1.2746846801424987,0.8038450859566262,A,697.4087999988114,Correct
12,112,428,B,47.88897455359056,23.925251023701794,2.394448727679528,0.37581696425676625,B,492.73119999998016,Correct
12,112,429,B,74.09684826986204,53.03076335649846,3.704842413493102,0.8330052828751718,A,755.101899998408,Incorrect
12,112,430,A,14.081997514207323,37.9502174244127,0.7040998757103663,0.5961206213133514,A,553.7232000024233,Correct
12,112,431,A,32.49244234971761,54.67007098961225,1.6246221174858804,0.8587554669609917,B,689.4907000023522,Incorrect
12,112,432,A,62.584829468930174,74.9649272502292,3.1292414734465086,1.1775463236310666,B,492.7726999994775,Incorrect
12,112,433,B,74.73749089556162,61.482004954032035,3.736874544778081,0.9657570754577915,B,368.69210000077146,Correct
12,112,434,B,68.76672663569462,48.607989510292256,3.4383363317847313,0.7635325137565192,B,472.7089999978489,Correct
12,112,435,B,36.40395607730143,12.135294665243315,1.8201978038650715,0.19062076284737903,B,649.8191999999108,Correct
12,112,436,B,83.94943103669212,58.153897253583665,4.197471551834606,0.9134792819473705,B,737.027200000739,Correct
12,112,437,B,66.79215643345565,48.58169691256637,3.3396078216727823,0.7631195105972222,B,435.4979999989155,Correct
12,112,438,B,70.61047812011476,59.589032260047134,3.530523906005738,0.9360223299134462,B,478.01560000152676,Correct
12,112,439,A,39.526687850851154,51.75208474816179,1.9763343925425576,0.8129198462639073,A,1148.0685000024096,Correct
12,112,440,B,62.651373012951524,35.87046418584194,3.1325686506475763,0.5634519338354841,B,959.6832999995968,Correct
12,112,441,A,30.75749137000171,60.665608557335425,1.5378745685000854,0.9529331508463953,A,699.8380000004545,Correct
12,112,442,B,51.31554375376612,43.144915377523304,2.565777187688306,0.6777187459489026,B,781.8001000014192,Correct
12,112,443,B,40.93884842574791,20.811301540118997,2.0469424212873957,0.326903160150399,B,585.6906000008166,Correct
12,112,444,A,15.289783052497718,33.07230132879807,0.7644891526248858,0.5194984944592999,A,704.0452999972331,Correct
12,112,445,A,18.94930778315972,45.25087647898904,0.9474653891579861,0.7107991055744557,A,646.3917000000947,Correct
12,112,446,B,58.40062157112049,36.48885371637766,2.920031078556024,0.5731655738664234,B,1800.8759999975155,Correct
12,112,447,A,34.96586863471841,43.11525466966257,1.7482934317359207,0.6772528366393248,B,1810.864800001582,Incorrect
12,112,448,A,41.70636603511839,55.215934435005224,2.0853183017559194,0.8673298699105405,A,733.624399999826,Correct
12,112,449,A,28.315523793558924,49.67030039691839,1.4157761896779462,0.780219254142785,A,3722.9014999975334,Correct
12,112,450,A,34.90017805961258,68.09539038985648,1.745008902980629,1.0696398909605105,A,552.7235000008659,Correct
12,112,451,B,66.6783915485906,54.63535603793855,3.33391957742953,0.8582101657752526,B,646.2296999998216,Correct
12,112,452,B,48.01493218528536,32.68268345430618,2.400746609264268,0.5133783911982449,A,986.4044999994803,Incorrect
12,112,453,B,51.99935270046102,20.488602968776906,2.599967635023051,0.3218342228451378,A,761.0218000008899,Incorrect
12,112,454,B,47.96152400760557,20.732310050754666,2.3980762003802782,0.32566236473698346,A,724.0970000020752,Incorrect
12,112,455,B,61.81273003929205,30.762285428783876,3.0906365019646023,0.4832128495534988,B,441.61659999736,Correct
12,112,456,A,26.545187233410395,48.87400733614143,1.3272593616705197,0.7677111119935778,A,607.1787000000768,Correct
12,112,457,B,71.88174927615553,56.87478848329573,3.594087463807776,0.8933870883679762,B,677.5287999989814,Correct
12,112,458,B,74.29653671395333,60.839567498172606,3.7148268356976666,0.9556656914991971,B,388.7103999986721,Correct
12,112,459,A,44.28096468901675,55.91022280524424,2.2140482344508374,0.8782357261276191,A,652.7229999992414,Correct
12,112,460,A,47.529789319001935,67.89024910036775,2.3764894659500966,1.0664175391204818,A,517.3040000008768,Correct
12,112,461,A,20.58278078378354,51.07539927029667,1.029139039189177,0.8022904956336475,A,519.2263999997522,Correct
12,112,462,B,77.53063932790761,47.07253779623554,3.87653196639538,0.7394136946324072,B,565.8689000010781,Correct
12,112,463,B,55.99215937140981,34.913139338548326,2.7996079685704904,0.5484143102987012,B,509.0593999993871,Correct
12,112,464,B,46.41429015299748,37.44914839312092,2.320714507649874,0.5882498473751135,B,733.6555000001681,Correct
12,112,465,A,22.487798617352766,39.30906855634714,1.1243899308676384,0.6174654049803886,A,539.7130999990623,Correct
12,112,466,B,51.87945292279445,23.17698553383851,2.5939726461397226,0.3640632374273199,B,616.6737000021385,Correct
12,112,467,B,75.1806262945976,53.20481114161341,3.7590313147298797,0.8357392190906253,B,507.4969000015699,Correct
12,112,468,A,45.10717436560552,51.730151174427974,2.255358718280276,0.8125753144933616,B,441.3065999979153,Incorrect
12,112,469,B,37.35361354115534,17.666994187538663,1.867680677057767,0.2775124957529252,A,833.6023000010755,Incorrect
12,112,470,A,34.010997482006495,51.87612029978086,1.7005498741003249,0.8148681921526593,A,735.7007999999041,Correct
12,112,471,A,27.129899941385215,55.28763638382034,1.3564949970692606,0.8684561614887687,A,532.3748999981035,Correct
12,112,472,A,30.180455408741125,51.04830511345291,1.5090227704370562,0.8018649016131696,A,571.2569999996049,Correct
12,112,473,B,55.72307142166612,27.671537113090967,2.786153571083306,0.4346634885401195,B,895.1813999992737,Correct
12,112,474,B,74.88995431613309,61.65672755880434,3.744497715806654,0.9685016117156354,B,518.3458999999857,Correct
12,112,475,A,60.83932728255222,87.56380994346686,3.041966364127611,1.375449110193642,B,439.18869999833987,Incorrect
12,112,476,B,43.36002926327008,22.314715221939895,2.168001463163504,0.35051872704097353,A,732.1785999993153,Incorrect
12,112,477,A,36.85845249196836,66.23339166411101,1.842922624598418,1.040391683371533,B,458.8159999984782,Incorrect
12,112,478,A,45.6684056733254,74.60534241874558,2.28342028366627,1.1718979783064105,B,496.08530000114115,Incorrect
12,112,479,B,57.65649229397583,43.65353419471654,2.8828246146987913,0.6857081116467616,B,693.3455999969738,Correct
12,112,480,A,59.506631673209235,81.68564144470257,2.9753315836604615,1.2831150553322377,B,544.6417999992264,Incorrect
12,112,481,B,70.4093454787803,56.74323553564284,3.520467273939015,0.8913206594984541,B,429.66840000008233,Correct
12,112,482,A,61.822721499924654,83.70966343996666,3.091136074996233,1.3149083184873667,B,474.3298999965191,Incorrect
12,112,483,B,43.62792488227801,24.786588882817206,2.1813962441139005,0.3893468277090449,B,342.793800002255,Correct
12,112,484,B,47.72378259473884,31.315989186138445,2.3861891297369424,0.49191040783534973,B,683.7821000008262,Correct
12,112,485,A,63.98021187240372,73.91589553014737,3.199010593620186,1.161068171905108,B,473.8677999994252,Incorrect
12,112,486,B,84.93996815922735,55.55311709356708,4.246998407961367,0.8726263227258193,B,341.9962999978452,Correct
12,112,487,A,21.72864941424203,34.01783783235997,1.0864324707121016,0.5343509471257551,A,566.2583999983326,Correct
12,112,488,B,61.814722805223944,35.21227824722395,3.0907361402611975,0.5531131732881922,B,744.7950999994646,Correct
12,112,489,A,37.224685327493134,57.19652360742973,1.8612342663746568,0.8984408918798822,B,3047.990499999287,Incorrect
12,112,490,B,79.89268851731292,60.68334848015182,3.9946344258656463,0.9532118089023717,B,525.5356999987271,Correct
12,112,491,B,74.7981284269038,60.86251668001631,3.7399064213451902,0.9560261764046275,B,348.7292999998317,Correct
12,112,492,A,35.28220038694167,53.97057067308648,1.7641100193470833,0.8477677416830859,B,283.61950000180514,Incorrect
12,112,493,A,31.349249513679084,57.26791285285403,1.5674624756839541,0.8995622715247334,B,272.0679999983986,Incorrect
12,112,494,B,40.201388290641916,29.439413757995837,2.010069414532096,0.46243322994055003,B,1093.0324000000837,Correct
12,112,495,A,32.929542522564645,46.720436602328725,1.6464771261282323,0.733882902011918,B,308.2192000001669,Incorrect
12,112,496,A,50.05029557159793,61.09733798900693,2.5025147785798962,0.9597147409007838,B,303.8702999983798,Incorrect
12,112,497,B,56.19962512678876,26.374137589939103,2.809981256339438,0.41428398448659554,B,427.45730000024196,Correct
12,112,498,A,63.30364792564051,81.9521487474097,3.1651823962820256,1.2873013422538013,B,336.14920000036363,Incorrect
12,112,499,A,52.02307231026158,80.68038860377993,2.6011536155130788,1.2673245806320235,A,592.160000000149,Correct
12,112,500,A,31.666774240593725,59.1765127237933,1.5833387120296862,0.9295424881906598,A,322.39389999813284,Correct
12,112,501,B,72.66281403609584,51.14055430128097,3.6331407018047917,0.8033139484670709,A,571.4570999989519,Incorrect
12,112,502,A,45.97560177800944,65.76549230257362,2.298780088900472,1.033041937387407,B,260.6278999992355,Incorrect
12,112,503,A,43.23538070248652,66.3937976598566,2.161769035124326,1.0429113348606636,A,668.5993999999482,Correct
12,112,504,B,86.13420820686386,58.22071067147067,4.306710410343193,0.9145287846613455,B,647.6884000003338,Correct
12,112,505,B,71.62726833082698,59.14240922744237,3.5813634165413486,0.9290067917226708,B,451.0217000024568,Correct
12,112,506,A,67.66693344890568,89.74294263037929,3.3833466724452843,1.409678846395649,B,485.1648000003479,Incorrect
12,112,507,A,22.989925285828203,48.79767104262812,1.1494962642914102,0.7665120242990593,B,68.42609999876004,Incorrect
12,112,508,B,38.177210101944084,14.134757766271022,1.908860505097204,0.2220282557939416,A,568.5755999984394,Incorrect
12,112,509,A,35.781362637346234,56.41032886016804,1.7890681318673116,0.8860913736684409,B,361.69860000154586,Incorrect
12,112,510,B,46.63197154286154,36.65581608347985,2.3315985771430774,0.5757882125959943,B,367.7611999992223,Correct
12,112,511,B,52.45286078116138,30.06730065109746,2.6226430390580684,0.472296054193817,B,512.0692999989842,Correct
12,112,512,B,70.76994992583082,53.9952091809664,3.5384974962915408,0.848154762459841,B,341.0584999983257,Correct
12,112,513,A,55.24607594759418,70.13798688768323,2.762303797379709,1.1017249217196143,B,293.90670000066166,Incorrect
12,112,514,A,14.45397668398224,38.83445482112072,0.722698834199112,0.610010189860988,A,586.6071999989799,Correct
12,112,515,A,26.552539054141736,42.72332296818327,1.327626952707087,0.6710963878689431,B,1038.2064999976137,Incorrect
12,112,516,B,57.16276079237679,45.14528887825482,2.858138039618839,0.7091405394205716,B,1030.499399999826,Correct
12,112,517,B,65.59563587206264,42.87263439115155,3.2797817936031324,0.6734417662164142,B,545.2745999973558,Correct
12,112,518,A,41.32287717476147,50.80355606032256,2.0661438587380734,0.7980203924767328,B,691.7771000007633,Incorrect
12,112,519,A,53.52010075401086,68.10023562838103,2.676005037700543,1.0697159997892787,B,478.52640000201063,Incorrect
12,112,520,A,19.27258533543188,37.21879025931004,0.9636292667715941,0.5846313902707388,A,529.3326999999408,Correct
12,112,521,A,40.637136928001176,63.85919731779451,2.031856846400059,1.0030979257886212,A,614.8518000009062,Correct
12,112,522,A,12.01973111325998,31.70829263839216,0.600986555662999,0.49807269605324067,A,508.1352999986848,Correct
12,112,523,A,13.097031768281482,39.665222952186184,0.6548515884140741,0.6230598651479469,A,475.56039999835775,Correct
12,112,524,A,42.497582858750455,56.26482575467729,2.1248791429375227,0.8838058162320198,B,642.2137000008661,Incorrect
12,112,525,B,55.06448581067188,43.110920236161775,2.7532242905335944,0.6771847515171069,A,987.3293999989983,Incorrect
12,112,526,B,69.36630617675472,40.648132463755424,3.4683153088377363,0.6384993716513941,B,634.795199999644,Correct
12,112,527,A,45.240729698275636,66.94126647921806,2.2620364849137817,1.0515109549655406,B,659.9396000019624,Incorrect
12,112,528,B,57.30671318272121,46.564188056253705,2.8653356591360604,0.7314285555895012,B,428.49009999918053,Correct
12,112,529,A,43.733820788393984,62.429040644791655,2.1866910394196992,0.9806330773016803,A,533.6053999999422,Correct
12,112,530,A,27.847156659699024,58.44317335801348,1.392357832984951,0.9180232203700494,A,577.7680999999575,Correct
12,112,531,B,59.03476334196557,47.765149795842284,2.9517381670982785,0.7502932184811706,B,739.1739999984566,Correct
12,112,532,B,62.95502903853191,34.0024551182118,3.1477514519265957,0.5341093160169542,B,476.85120000096504,Correct
12,112,533,B,49.346666133755875,29.057607314387557,2.467333306687794,0.45643582834888496,B,443.45830000020214,Correct
12,112,534,B,79.20764411604722,50.94188540938852,3.960382205802361,0.8001932648107402,B,460.8725999969465,Correct
12,112,535,A,35.7372244233254,57.75056971367829,1.7868612211662702,0.9071438277655846,B,302.28990000250633,Incorrect
12,112,536,A,61.22433362348637,78.67896259037563,3.0612166811743187,1.2358862543299511,B,218.38170000046375,Incorrect
12,112,537,A,45.30681143096967,52.11529394220453,2.2653405715484833,0.818625122942512,B,406.30199999941397,Incorrect
12,112,538,A,37.31264000520816,58.19777016380655,1.8656320002604079,0.9141684360096096,A,698.1735999979719,Correct
12,112,539,B,53.525942438876186,42.17772414235877,2.6762971219438096,0.6625261415538558,A,667.5566000012623,Incorrect
12,112,540,B,55.231913255269006,36.34835315640603,2.76159566276345,0.5709585962312628,A,771.3316999979725,Incorrect
12,112,541,A,41.32417201181834,48.56366423280002,2.066208600590917,0.7628362539258297,A,780.7050000010349,Correct
12,112,542,A,55.95780620706442,70.95382261180389,2.797890310353221,1.1145400393067821,B,324.9824000013177,Incorrect
12,112,543,B,50.36900261845206,42.79160850846982,2.5184501309226026,0.6721690146274963,A,533.0160000012256,Incorrect
12,112,544,B,58.93453501124972,32.01339218977506,2.9467267505624863,0.5028651885994309,B,755.1215999992564,Correct
12,112,545,A,58.14650158937579,85.82265715153564,2.9073250794687895,1.3480991460940992,B,346.040800002811,Incorrect
12,112,546,A,62.18173384048278,85.82340324548254,3.109086692024139,1.3481108657104117,A,644.2236000002595,Correct
12,112,547,B,52.330725819002616,44.99151591671775,2.6165362909501306,0.7067250793891436,B,1045.0769999988552,Correct
12,112,548,A,24.620281206292006,41.07873298000231,1.2310140603146003,0.6452632287437601,A,591.0112000019581,Correct
12,112,549,B,56.359937076005394,41.157649345420914,2.8179968538002695,0.6465028441129955,B,580.2579000010155,Correct
