subject,day,trial,cat,x,y,xt,yt,resp,rt,fb
15,315,0,A,15.422468089307007,34.72165689114685,0.7711234044653503,0.5454065110484618,A,729.8836000009032,Correct
15,315,1,A,48.43616633779871,75.47081424467234,2.4218083168899356,1.1854927779575126,A,1134.009600000354,Correct
15,315,2,B,63.56147738637254,48.93986519138936,3.1780738693186272,0.7687456047647181,B,558.8840000000346,Correct
15,315,3,A,62.2131473367615,84.32947057825132,3.1106573668380753,1.3246442262487546,A,843.002499999784,Correct
15,315,4,A,44.79373629074181,53.3986612985168,2.2396868145370905,0.8387842102347499,B,1425.6788000002416,Incorrect
15,315,5,A,48.146306244936234,71.64815881974008,2.4073153122468116,1.1254466469566506,A,1237.6042999985657,Correct
15,315,6,B,54.25999127990446,45.509757660546164,2.7129995639952234,0.7148656016651184,B,1726.9689000004291,Correct
15,315,7,A,58.93585972369381,82.84784243629082,2.94679298618469,1.3013708658180798,A,799.2644000005384,Correct
15,315,8,B,59.8708054668524,49.69396725030269,2.99354027334262,0.7805910122064136,B,733.0631999993784,Correct
15,315,9,B,70.4819850449427,42.97711091052412,3.524099252247135,0.6750828795450816,B,585.5191000009654,Correct
15,315,10,A,31.52609332348935,41.855868464166704,1.5763046661744675,0.6574704443832341,A,581.6597000011825,Correct
15,315,11,B,68.44231060550533,59.90208390774849,3.422115530275266,0.9409397336965101,B,489.27870000261464,Correct
15,315,12,B,57.34893179996681,46.680651601871666,2.867446589998341,0.7332579606861233,B,458.3931000015582,Correct
15,315,13,B,45.921378611467375,20.389445161086627,2.296068930573369,0.32027665564420854,B,663.9331000005768,Correct
15,315,14,A,50.34994126328924,64.82067743401912,2.5174970631644618,1.0182008201371409,A,584.7678999998607,Correct
15,315,15,B,43.65340476807785,18.25425533762999,2.1826702384038925,0.28673717232725315,B,561.6235999987111,Correct
15,315,16,A,25.07319467710631,47.429923764779595,1.2536597338553157,0.7450275002987775,A,535.4305999971984,Correct
15,315,17,B,72.70895543970505,50.53919918969662,3.6354477719852527,0.7938678844633107,B,595.8401999996568,Correct
15,315,18,A,46.23634629415686,54.97360085856268,2.3118173147078434,0.8635233029931902,A,980.1640000005136,Correct
15,315,19,A,44.04575873769109,58.00322587354271,2.202287936884554,0.911112541444156,A,568.0218000015884,Correct
15,315,20,B,55.675653510889866,43.83648154296004,2.783782675544493,0.688581841872939,B,578.7970999990648,Correct
15,315,21,A,54.67166320319849,71.9384735477622,2.7335831601599243,1.1300069000405668,A,762.8036999994947,Correct
15,315,22,B,88.19516356256239,64.73444176560243,4.4097581781281185,1.0168462334252644,B,807.0019999977376,Correct
15,315,23,A,14.439828508599938,33.48182538325325,0.7219914254299968,0.5259312832640234,A,569.2187000022386,Correct
15,315,24,A,44.103724788122975,74.6003466972118,2.2051862394061486,1.171819505696061,A,718.7353999979678,Correct
15,315,25,A,37.19240190259565,55.85934082904188,1.8596200951297823,0.8774364739144318,B,512.6956999993126,Incorrect
15,315,26,A,18.59747440845519,39.85552794168694,0.9298737204227595,0.6260491689327321,A,669.117900000856,Correct
15,315,27,A,33.79503487895677,64.82144186702304,1.6897517439478384,1.0182128278226872,A,834.3894999998156,Correct
15,315,28,A,16.718540900508597,41.980592669677776,0.8359270450254299,0.6594296076220261,A,564.6059999999125,Correct
15,315,29,A,56.383866478182355,77.33782372967528,2.819193323909118,1.2148196943688512,A,1911.0690000015893,Correct
15,315,30,B,69.04583047278781,40.103563376538176,3.4522915236393907,0.6299453004325251,B,1189.1934999985097,Correct
15,315,31,A,39.299931462410456,72.40388690025745,1.9649965731205228,1.1373175958859751,A,666.2003000019467,Correct
15,315,32,A,33.2727345143225,56.345765710139474,1.663636725716125,0.8850772180793294,A,1215.460700001131,Correct
15,315,33,A,39.59125608170605,54.39613191701309,1.9795628040853024,0.8544524420709481,A,1051.0567999990599,Correct
15,315,34,A,28.744842760879127,41.352014901865765,1.4372421380439564,0.6495559311341855,A,735.7503999992332,Correct
15,315,35,A,66.10298979349815,84.55725748181109,3.305149489674908,1.3282222945627915,A,919.1973999986658,Correct
15,315,36,B,58.684533713396306,30.550906738918805,2.9342266856698154,0.47989252085747114,B,642.2595000003639,Correct
15,315,37,A,51.40948358258129,75.62421578168727,2.5704741791290644,1.18790240366619,A,664.6340000006603,Correct
15,315,38,A,11.418252798276999,32.86923664035008,0.5709126399138499,0.5163087617921414,A,605.343700000958,Correct
15,315,39,B,40.22550192033799,14.643861991588597,2.0112750960168997,0.23002524626478763,B,614.1867000005732,Correct
15,315,40,A,18.00265116556677,42.17967836567571,0.9001325582783386,0.6625568384219357,A,557.3584999983723,Correct
15,315,41,B,54.95072479083724,31.055752494977614,2.747536239541862,0.4878226194496228,B,566.7920999985654,Correct
15,315,42,B,43.72415019077379,19.002234420941924,2.1862075095386895,0.2984864002931112,B,435.4955999988306,Correct
15,315,43,A,50.81303578722539,73.68757531098456,2.5406517893612692,1.1574817262891686,A,645.1773000007961,Correct
15,315,44,A,54.29130621991567,71.38726851963263,2.7145653109957832,1.1213485917055988,B,626.9614000011643,Incorrect
15,315,45,A,38.25849049974862,65.95289297308894,1.912924524987431,1.0359856202362505,A,599.1247999991174,Correct
15,315,46,B,68.18270589558598,52.7706148438142,3.4091352947792988,0.828918879593716,B,726.8586999998661,Correct
15,315,47,B,84.1495905244724,61.59946080334056,4.2074795262236195,0.9676020676243355,B,773.5351000010269,Correct
15,315,48,A,29.5255111293085,45.84380662091667,1.476275556465425,0.7201128304643147,A,1512.8490999995847,Correct
15,315,49,B,31.648593616888853,11.491895535401575,1.5824296808444427,0.18051427294919467,B,621.2621000013314,Correct
15,315,50,B,66.68849175307231,44.002789548731904,3.3344245876536154,0.6911942019187695,B,571.363900002325,Correct
15,315,51,B,47.825550626900615,32.60816855313014,2.3912775313450307,0.5122079138676567,B,1006.9385999995575,Correct
15,315,52,B,78.00836640362036,59.88304556153411,3.900418320181018,0.9406406800534922,B,728.9127000003646,Correct
15,315,53,B,44.53977212095683,17.394121177323413,2.2269886060478417,0.27322621653164936,B,632.0764999982202,Correct
15,315,54,B,85.53952008350676,60.207374153403684,4.276976004175338,0.945735221661325,B,596.5755999968678,Correct
15,315,55,A,61.715899154992,83.59918165845512,3.0857949577496004,1.3131728747216058,A,653.6897999976645,Correct
15,315,56,A,30.456894300178444,59.76887778996467,1.5228447150089222,0.9388473368912957,A,547.7443999989191,Correct
15,315,57,B,68.55423944311693,42.74673205328722,3.427711972155846,0.6714640969178922,B,636.0408000000461,Correct
15,315,58,A,63.33786395411029,73.18168108757413,3.166893197705514,1.1495351584103701,A,596.0773000006157,Correct
15,315,59,B,80.01527055118582,64.61231033521871,4.000763527559291,1.014927797402935,A,601.3066999985313,Incorrect
15,315,60,B,80.36051504376326,56.17706660159146,4.018025752188163,0.8824272986789212,B,693.1869000000006,Correct
15,315,61,B,67.17897556935657,44.071386546008014,3.3589487784678282,0.6922717210322742,B,683.5606999993615,Correct
15,315,62,A,48.087783835699575,73.3829443140341,2.4043891917849787,1.152696593778792,A,660.0933000008808,Correct
15,315,63,A,38.112817617655786,58.74913636158283,1.9056408808827894,0.922829275991468,A,581.5406000001531,Correct
15,315,64,A,44.780456305696454,65.64035156316935,2.2390228152848226,1.0310762312495205,A,801.4112999990175,Correct
15,315,65,A,35.89594574943216,60.2268860447234,1.7947972874716078,0.9460417137334634,A,1075.1092999998946,Correct
15,315,66,A,25.408156960621373,36.30172875451234,1.2704078480310685,0.5702262218389267,A,787.6553000023705,Correct
15,315,67,B,62.36911424661716,33.82836502233058,3.1184557123308583,0.5313747151855384,B,787.0911999998498,Correct
15,315,68,B,47.023861954311926,23.58303651410677,2.3511930977155964,0.3704414713102884,A,1402.0032999978866,Incorrect
15,315,69,A,37.194976357385265,67.17146194505243,1.8597488178692632,1.0551268568873151,A,1201.4828999999736,Correct
15,315,70,B,76.66587058330849,58.31224968525831,3.8332935291654247,0.9159666761275063,B,937.815799999953,Correct
15,315,71,A,17.56840350052876,42.58819854045648,0.878420175026438,0.6689738583216082,A,694.5154999993974,Correct
15,315,72,A,12.925958953021219,40.622411757075454,0.646297947651061,0.6380953517356395,A,599.3624000002455,Correct
15,315,73,B,54.74613226183155,43.2768709348239,2.7373066130915777,0.679791498995982,B,894.2815000009432,Correct
15,315,74,B,65.10076262848473,31.735285104471146,3.2550381314242367,0.4984966927189207,B,804.8758999975689,Correct
15,315,75,B,34.96983322318962,11.092020033067513,1.748491661159481,0.17423304324677855,B,577.8805000009015,Correct
15,315,76,B,66.15095909034527,37.98080659461682,3.3075479545172635,0.5966011148753149,B,690.1434999999765,Correct
15,315,77,B,88.05487483400879,60.78586487244594,4.402743741700439,0.9548221326268902,B,611.5409000012733,Correct
15,315,78,B,55.45797540128995,25.811511707262333,2.772898770064497,0.4054462777879114,B,588.4348999970825,Correct
15,315,79,B,75.04535920667018,53.979638363994745,3.7522679603335094,0.8479101766387983,B,733.2682000014756,Correct
15,315,80,A,39.004221343678125,55.52655093378145,1.9502110671839064,0.8722090224637363,A,599.2019000004802,Correct
15,315,81,A,47.91995680270023,65.83474239612767,2.3959978401350113,1.0341297153132558,A,668.7329999986105,Correct
15,315,82,B,42.48322798582706,23.06259172978054,2.124161399291353,0.36226634375509636,B,601.9986999999674,Correct
15,315,83,A,64.68662129824601,84.75989249765941,3.2343310649123005,1.331405277948537,A,853.8866999988386,Correct
15,315,84,A,25.70975462715184,58.5753121795436,1.2854877313575919,0.9200988521249146,A,651.9694000016898,Correct
15,315,85,A,44.21532204570546,57.64356746263974,2.210766102285273,0.9054630403366832,B,770.5973000010999,Incorrect
15,315,86,A,45.21761387228105,53.18390242566391,2.2608806936140526,0.8354107857485106,A,860.0330000008398,Correct
15,315,87,A,43.183702919941425,66.2242374388183,2.1591851459970712,1.0402478891368887,A,750.2566999974078,Correct
15,315,88,A,66.32221124625391,88.72339668926733,3.3161105623126956,1.393663856202676,A,670.5013000027975,Correct
15,315,89,A,50.23646505172904,67.03312021564415,2.5118232525864523,1.0529537900833454,A,781.7133999997168,Correct
15,315,90,A,37.92141006251826,67.52193254739097,1.896070503125913,1.0606320362353452,A,703.6643999999797,Correct
15,315,91,B,35.85936932527787,13.675167273173042,1.7929684662638934,0.21480902521005996,B,599.4062999998278,Correct
15,315,92,A,62.24005257911974,73.88974719775615,3.1120026289559872,1.1606574348603886,B,848.2309999999416,Incorrect
15,315,93,B,44.328554737695754,30.889530087217466,2.216427736884788,0.48521160397421637,B,700.4072000017914,Correct
15,315,94,A,48.208147875441,60.11394562529907,2.41040739377205,0.9442676497736792,A,785.6729000013729,Correct
15,315,95,A,54.438919207705965,80.62323084219034,2.7219459603852982,1.266426748612496,A,797.8282000003674,Correct
15,315,96,B,57.77512762768347,29.218989001707975,2.8887563813841735,0.4589708059654337,B,904.6272000014142,Correct
15,315,97,B,57.27245830575224,37.07636692608786,2.8636229152876123,0.5823942097839859,B,677.8640999982599,Correct
15,315,98,B,50.6163547577184,26.03162651673245,2.53081773788592,0.4089038331297996,B,783.8240999990376,Correct
15,315,99,B,46.703780113709826,34.37951480696785,2.3351890056854914,0.5400321557577585,B,671.8196000001626,Correct
15,315,100,B,52.13500567631069,31.395466303316077,2.6067502838155345,0.4931588314726184,B,588.7767000021995,Correct
15,315,101,A,52.076184288872106,81.86059526556028,2.603809214443605,1.285863223523858,A,568.7519999992219,Correct
15,315,102,A,46.649643100335986,78.59303354881654,2.3324821550167996,1.2345364841014907,A,596.8499000009615,Correct
15,315,103,B,49.6378115703222,18.579095714917766,2.4818905785161096,0.2918397530416363,B,754.9173999977938,Correct
15,315,104,A,17.692266787186956,37.63274567544549,0.8846133393593477,0.591133786741963,A,782.2779999987688,Correct
15,315,105,B,67.86507343857457,53.01319613336227,3.3932536719287283,0.8327293375794287,B,879.6567999997933,Correct
15,315,106,B,59.830416306100304,46.21097066832284,2.991520815305015,0.7258802298342821,A,1053.4537000021373,Incorrect
15,315,107,A,53.223107684851946,73.63208887034364,2.6611553842425972,1.1566101473177117,A,659.5637999998871,Correct
15,315,108,A,49.257146536132964,59.29002056908116,2.462857326806648,0.9313254652550654,A,774.3392000011227,Correct
15,315,109,B,84.29854559688751,63.60046003416393,4.2149272798443755,0.9990336900413032,B,636.9770999990578,Correct
15,315,110,A,32.326855435630996,55.09251850716721,1.6163427717815497,0.8653912570493812,A,669.5255000013276,Correct
15,315,111,A,42.64694106955818,53.000019481753434,2.132347053477909,0.8325223592199625,A,603.334100000211,Correct
15,315,112,B,75.70021865344728,43.003111192337165,3.785010932672364,0.6754912910167572,B,680.3399999989779,Correct
15,315,113,A,21.09276430941809,52.05432711387096,1.0546382154709044,0.817667458242485,A,583.5147999969195,Correct
15,315,114,B,50.67623091079614,35.572381229908586,2.533811545539807,0.5587696577128813,B,579.6833999993396,Correct
15,315,115,A,25.920511034767635,44.50810620202515,1.2960255517383816,0.6991316973473825,A,662.184900000284,Correct
15,315,116,A,49.633158497550504,56.30011505229305,2.4816579248775255,0.8843601392227199,B,1014.2091999987315,Incorrect
15,315,117,B,37.28884960482216,27.18237416644096,1.8644424802411081,0.4269797349420995,A,1313.2563999970444,Incorrect
15,315,118,A,55.68157569579254,65.71007771350965,2.7840787847896267,1.0321714870578815,A,793.5059000010369,Correct
15,315,119,B,74.33084503917101,56.51939648097512,3.71654225195855,0.8878046038498012,B,836.6132999981346,Correct
15,315,120,A,18.34534429046156,36.574316359899456,0.917267214523078,0.5745080179316456,A,711.9386999984272,Correct
15,315,121,B,51.19040700323834,24.054684683218703,2.559520350161917,0.37785010342609393,B,919.6785000021919,Correct
15,315,122,B,33.13024647182884,16.73950341019498,1.656512323591442,0.2629435046910492,A,823.3934999989287,Incorrect
15,315,123,A,23.78055291788424,34.772334273645626,1.189027645894212,0.5462025495112683,A,715.5629000008048,Correct
15,315,124,A,56.919068243268605,76.89859740380918,2.8459534121634302,1.20792034337583,A,1060.6912000002922,Correct
15,315,125,B,60.55005032990644,51.52426279904625,3.0275025164953218,0.8093412274555678,B,1611.0095999974874,Correct
15,315,126,B,41.804202720250984,15.731133515541408,2.0902101360125496,0.2471040674253253,B,627.6198000014119,Correct
15,315,127,B,36.98798693750378,25.882369253197773,1.8493993468751888,0.4065593055167223,A,1933.5766000003787,Incorrect
15,315,128,B,58.35983522128604,50.7705784917772,2.917991761064302,0.797502382041356,B,632.0741999988968,Correct
15,315,129,A,50.92483157511238,72.59667939437975,2.5462415787556187,1.1403459733019847,A,719.8112000005494,Correct
15,315,130,B,45.085673967939776,37.63629664802997,2.2542836983969887,0.5911895652888854,A,1111.2987999986217,Incorrect
15,315,131,B,85.00614559160927,62.93286659495462,4.250307279580463,0.9885471568202797,B,706.9031999999424,Correct
15,315,132,A,33.29045768199314,48.13445057787931,1.6645228840996569,0.7560941816002331,A,640.9877999976743,Correct
15,315,133,B,62.24427841474883,34.79760866305094,3.1122139207374415,0.5465995586916669,B,768.1836999981897,Correct
15,315,134,A,35.9627919957716,49.049449031257936,1.79813959978858,0.7704669436961346,A,604.012399999192,Correct
15,315,135,B,71.95855627504484,41.38298580660579,3.597927813752242,0.6500424209682171,B,654.8333000027924,Correct
15,315,136,A,47.49808859871342,69.53561302828936,2.374904429935671,1.0922628552626827,A,582.260099999985,Correct
15,315,137,A,20.072073346101945,35.49510392859915,1.0036036673050972,0.5575557887024665,A,724.6565999994345,Correct
15,315,138,B,47.06413780317412,22.37344518928411,2.353206890158706,0.35144125521074426,B,699.8431000029086,Correct
15,315,139,A,62.68144489938091,83.9058957357387,3.1340722449690452,1.317990728181339,A,617.6445000019157,Correct
15,315,140,A,28.853544565975287,38.57911294181588,1.4426772282987645,0.6059992890000984,A,807.4732999994012,Correct
15,315,141,A,49.611138788843974,56.84220834419376,2.4805569394421987,0.8928753207396979,A,812.703399999009,Correct
15,315,142,B,47.69627230702187,40.68655217716117,2.3848136153510935,0.6391028670983367,B,847.48910000053,Correct
15,315,143,A,21.48313633480118,50.802079441847525,1.074156816740059,0.7979971978079661,A,607.2400999983074,Correct
15,315,144,B,34.42214743793297,19.841556555680853,1.7211073718966485,0.3116704415555669,B,671.5249000008043,Correct
15,315,145,A,60.26698985468582,83.27908646069659,3.0133494927342905,1.308144831112968,A,648.9298000014969,Correct
15,315,146,A,11.996876923609115,37.227469473642465,0.5998438461804557,0.5847677230506673,A,700.8405000015046,Correct
15,315,147,B,48.10138018536511,41.148485733034526,2.4050690092682556,0.6463589024262284,A,822.5008999979764,Incorrect
15,315,148,B,80.39779612251445,67.2488364769863,4.019889806125723,1.0563422531928073,B,629.9426999976276,Correct
15,315,149,A,12.126470628978868,34.92067760053175,0.6063235314489434,0.5485327210410409,A,586.955200000375,Correct
15,315,150,A,31.07021507029208,63.48390071377624,1.553510753514604,0.9972027805181163,A,756.0528000030899,Correct
15,315,151,A,59.537493522844805,71.63292762847722,2.9768746761422404,1.1252073959637667,B,610.9838999982458,Incorrect
15,315,152,B,74.83850068145344,61.52619533401902,3.7419250340726715,0.9664512163234238,B,919.9235999985831,Correct
15,315,153,A,27.36980921356851,47.46805235830704,1.3684904606784256,0.7456264228453653,A,2012.6347000004898,Correct
15,315,154,B,67.32391309556391,50.78702607775994,3.3661956547781955,0.7977607401178193,B,995.5871999991359,Correct
15,315,155,B,60.27719542828448,35.37531353606952,3.013859771414224,0.5556741256167579,B,887.7296999999089,Correct
15,315,156,A,40.61854571741294,51.42070858716307,2.030927285870647,0.8077146016990655,A,822.6434999996854,Correct
15,315,157,B,80.16371972625723,63.060369714634504,4.008185986312862,0.9905499711407602,B,814.3769000016619,Correct
15,315,158,A,30.221246305664604,59.01931178939373,1.51106231528323,0.927073181687424,A,1592.9079000015918,Correct
15,315,159,A,26.68054309841318,38.71957257448909,1.334027154920659,0.6082056237507587,A,909.6288000000641,Correct
15,315,160,A,40.033252919952695,51.26185920937331,2.001662645997635,0.8052194015076073,A,1290.3120999981184,Correct
15,315,161,B,45.84344271381836,33.260754899898316,2.2921721356909184,0.5224587162318564,A,884.0091999991273,Incorrect
15,315,162,A,40.40342927209343,63.84065939335257,2.0201714636046715,1.002806732752423,A,735.8858000006876,Correct
15,315,163,A,60.46534213176355,82.23879023020596,3.0232671065881775,1.2918038961366354,A,2036.2847999967926,Correct
15,315,164,B,40.52722106627091,21.597054529417946,2.026361053313545,0.3392457392439879,B,645.4084999968472,Correct
15,315,165,B,38.4257705737014,25.649458356737462,1.92128852868507,0.40290074971041867,B,546.9770000017888,Correct
15,315,166,B,86.07342857437422,63.36832021546558,4.303671428718712,0.9953872462961613,B,545.0299999974959,Correct
15,315,167,A,56.49436556728665,72.56652987430665,2.8247182783643323,1.1398723857481303,B,519.6695000013278,Incorrect
15,315,168,A,66.64383350564998,84.22821527182401,3.332191675282499,1.3230537116147099,B,617.1102000007522,Incorrect
15,315,169,B,36.79445676734052,19.85129915906892,1.839722838367026,0.3118234780117208,B,743.4659999998985,Correct
15,315,170,A,61.74585739755264,86.56027926528859,3.087292869877632,1.3596856871625573,A,796.4281999993545,Correct
15,315,171,A,54.908518887277275,72.4920683919399,2.7454259443638636,1.138702747518236,A,617.9786000029708,Correct
15,315,172,B,64.4240694512553,56.41210687730076,3.2212034725627654,0.8861193026962515,B,961.7109999999229,Correct
15,315,173,B,79.37482506594048,55.53247180704369,3.9687412532970243,0.8723020273234537,B,1053.3140000006824,Correct
15,315,174,B,59.84040161971122,44.64778785696514,2.992020080985561,0.7013258116523863,B,2716.199400001642,Correct
15,315,175,B,47.33059671483588,32.02487339255782,2.366529835741794,0.5030455349110144,B,829.6492999979819,Correct
15,315,176,B,34.665420105052604,20.250976604954655,1.7332710052526301,0.3181015966507216,B,519.5922000020801,Correct
15,315,177,B,58.278426289432936,41.446801602083085,2.9139213144716467,0.6510448371394894,B,572.8147000008903,Correct
15,315,178,A,41.65288726381078,56.80480028816576,2.082644363190539,0.8922877163696844,A,888.4348000028695,Correct
15,315,179,A,28.462861914176138,48.87738188405562,1.4231430957088067,0.7677641192682598,A,778.6823999995249,Correct
15,315,180,B,67.73980633886914,56.808966617631796,3.386990316943457,0.8923531609198991,B,2000.1940000001923,Correct
15,315,181,B,58.027232580838785,27.33998345044738,2.9013616290419395,0.42945545578596006,B,1578.4631999995327,Correct
15,315,182,B,78.08671119682104,55.144779513986244,3.9043355598410523,0.8662121710248404,B,794.7497999994084,Correct
15,315,183,A,34.501538223946866,59.88375592248789,1.7250769111973432,0.9406518383772612,A,2643.3050999985426,Correct
15,315,184,B,42.200162565721925,24.992860573226864,2.1100081282860965,0.39258693584521753,A,640.586000001349,Incorrect
15,315,185,B,56.743782516520106,35.41705301702845,2.837189125826005,0.556329767850484,B,616.0244000020612,Correct
15,315,186,A,52.519174761833426,62.50964285208736,2.625958738091671,0.9818991738131969,A,1696.3451999981771,Correct
15,315,187,A,39.78441103494587,68.02057174199643,1.9892205517472934,1.0684646423881676,A,684.493000000657,Correct
15,315,188,B,44.74381347343585,33.53479132277023,2.2371906736717926,0.5267632702964085,A,2647.8224999991653,Incorrect
15,315,189,B,39.36700713898411,22.747560109330117,1.9683503569492051,0.35731783863281863,B,3192.116199999873,Correct
15,315,190,B,48.56229252092835,36.085681324936026,2.4281146260464173,0.5668325567510071,B,534.4721999972535,Correct
15,315,191,A,27.887019601513234,59.38446156402736,1.3943509800756617,0.932808940934669,A,488.4353000015835,Correct
15,315,192,B,70.20750276295627,45.993442879254985,3.5103751381478134,0.7224633113138462,B,666.1213999977917,Correct
15,315,193,B,56.871002259052965,49.100319511316386,2.843550112952648,0.7712660153283156,B,671.1079999986396,Correct
15,315,194,A,63.94565406072476,83.92427251485145,3.1972827030362385,1.3182793899526255,B,620.6290000009176,Incorrect
15,315,195,A,44.68342383737703,67.26860395310302,2.2341711918688514,1.056652759981549,A,1805.1850000010745,Correct
15,315,196,B,53.15127389268264,38.05259967852429,2.657563694634132,0.5977288380002261,B,801.6397999999754,Correct
15,315,197,A,23.48003341991231,35.87077076855548,1.1740016709956154,0.563456749625487,A,1265.3997000015806,Correct
15,315,198,B,72.40735651776527,53.018322229561825,3.6203678258882634,0.8328098581102393,B,1526.9265999995696,Correct
15,315,199,A,39.273117351278636,66.85997296349281,1.963655867563932,1.0502339994066061,A,598.099099999672,Correct
15,315,200,B,58.80129518990454,48.48212884932931,2.940064759495227,0.7615554991172336,A,1126.1180000001332,Incorrect
15,315,201,B,58.945102527990045,40.574112992299206,2.9472551263995026,0.6373366765126468,B,1147.1354999994219,Correct
15,315,202,A,24.38725743999299,43.9885536832751,1.2193628719996494,0.6909705854670865,A,607.2606000016094,Correct
15,315,203,B,71.97407393053558,41.965565581593495,3.5987036965267793,0.659193562674374,B,859.4411999984004,Correct
15,315,204,B,58.9347495746103,39.54457488078076,2.9467374787305154,0.6211647296739614,B,911.8787000006705,Correct
15,315,205,B,59.50948154305321,30.120653428423466,2.9754740771526604,0.4731341176602969,B,602.9215999988082,Correct
15,315,206,A,38.90354111680821,55.14386282458918,1.9451770558404107,0.8661977717014633,A,645.9685999980138,Correct
15,315,207,B,60.81060062390197,52.71971181335823,3.0405300311950985,0.8281192966610861,B,1011.4787999991677,Correct
15,315,208,A,48.26862330938589,55.90328625941656,2.4134311654692944,0.8781267671205515,A,1303.12110000159,Correct
15,315,209,A,33.04156396834829,52.474556506107824,1.6520781984174147,0.8242684060998541,A,1327.7082999993581,Correct
15,315,210,A,34.499221264673324,42.24046592496798,1.7249610632336663,0.663511687170447,A,1199.3992000025173,Correct
15,315,211,B,78.87150247703893,57.357427988553766,3.9435751238519465,0.9009683719882305,B,1044.6912000006705,Correct
15,315,212,A,61.431383105711944,81.51272187364705,3.071569155285597,1.2803988410617881,B,758.3421999988786,Incorrect
15,315,213,A,54.33610766768082,79.65650256920847,2.7168053833840413,1.2512414164104093,A,1083.0343999987235,Correct
15,315,214,A,53.815670532090586,72.50893230834673,2.6907835266045295,1.1389676452977082,A,1043.3606000005966,Correct
15,315,215,A,22.203112802472706,41.82334559783169,1.1101556401236352,0.6569595763934752,A,590.1487000010093,Correct
15,315,216,B,80.4999396137933,58.99999083388513,4.024996980689665,0.9267696888279934,B,706.8454999971436,Correct
15,315,217,B,78.39817309905696,49.10869384956698,3.9199086549528483,0.7713975591259494,B,550.3959000016039,Correct
15,315,218,B,67.85210662086361,53.52657507155357,3.39260533104318,0.8407934750830763,B,418.2863999994879,Correct
15,315,219,A,13.47343725037397,36.632640421245064,0.6736718625186984,0.5754241701449,A,633.7899999998626,Correct
15,315,220,A,51.61050641853987,79.20586693376197,2.5805253209269936,1.2441628484015865,A,1183.6144000008062,Correct
15,315,221,B,68.49379484765169,54.17192474190256,3.424689742382584,0.850930603999901,B,2006.1893999991298,Correct
15,315,222,A,46.00806055085936,53.89489513575418,2.300403027542968,0.8465790331223881,A,1062.793299999612,Correct
15,315,223,B,77.7808589264894,52.55507888549941,3.88904294632447,0.825533248677585,B,662.0048000004317,Correct
15,315,224,A,56.356623907392766,74.8934330296546,2.8178311953696387,1.1764232950404103,A,620.3669999995327,Correct
15,315,225,B,74.55970276725434,52.819149488101644,3.727985138362717,0.8296812600034059,A,758.0096999990928,Incorrect
15,315,226,A,20.726249395869214,49.032128051634054,1.0363124697934607,0.770194866384438,A,596.685600001365,Correct
15,315,227,A,58.65325485165208,81.72129289364527,2.932662742582604,1.2836750669826786,B,1103.7307000005967,Incorrect
15,315,228,A,27.411614133823058,54.10303715089521,1.370580706691153,0.8498485202507402,A,590.3465000010328,Correct
15,315,229,B,77.15808217405225,47.61340328138195,3.8579041087026127,0.7479095898059884,B,906.7538999988756,Correct
15,315,230,B,50.20760220160576,37.62258124763353,2.510380110080288,0.5909741242832532,B,6077.01299999826,Correct
15,315,231,A,59.34392955807051,86.6842097001299,2.9671964779035256,1.361632381880826,B,1313.1882999987283,Incorrect
15,315,232,A,29.588161891274257,53.26498690747281,1.479408094563713,0.8366844578103654,A,781.1006000010821,Correct
15,315,233,A,17.698704176135795,43.81640356031299,0.8849352088067897,0.6882664576590248,A,589.6529999990889,Correct
15,315,234,B,40.48640444744851,26.593932400939085,2.0243202223724253,0.417736513304269,A,1727.9185999977926,Incorrect
15,315,235,A,35.62380216488235,58.23050923048734,1.7811901082441175,0.9146827000664584,A,2926.8138999977964,Correct
15,315,236,B,52.3963354765267,41.670300659392964,2.619816773826335,0.6545555521221341,B,829.156800002238,Correct
15,315,237,B,48.94646927578344,41.30078442417326,2.4473234637891723,0.6487512046723923,B,1753.8867000002938,Correct
15,315,238,A,31.79271570083654,47.59211971350704,1.589635785041827,0.7475752683035982,A,1482.7067000005627,Correct
15,315,239,B,42.5151245992472,26.44547686510132,2.1257562299623602,0.4154045792004057,B,1158.0910999982734,Correct
15,315,240,A,48.55802269943827,66.9685804842517,2.427901134971913,1.0519400023533096,A,1553.9375999978802,Correct
15,315,241,B,61.04767140596085,43.62898914174578,3.0523835702980424,0.6853225588562869,B,1129.3955000001006,Correct
15,315,242,B,68.59566848936005,39.26623983750466,3.4297834244680026,0.6167926530379977,B,2059.3537999993714,Correct
15,315,243,B,62.61175723522946,42.91902001052047,3.130587861761473,0.6741703898216221,B,808.3449000005203,Correct
15,315,244,B,60.19452581896661,52.5036500917212,3.0097262909483304,0.8247254070740021,B,916.5154000002076,Correct
15,315,245,A,58.56744169446618,85.4009678657452,2.9283720847233092,1.3414752662824154,A,589.0880999977526,Correct
15,315,246,A,43.015787743470135,60.51999893053514,2.1507893871735067,0.9506459201771568,A,1530.3013999982795,Correct
15,315,247,B,39.70077788481686,29.976002174564318,1.985038894240843,0.4708619410780146,A,1198.7904000015988,Incorrect
15,315,248,B,53.04302101451883,23.814159242601328,2.6521510507259416,0.374071938639869,B,1845.1547000004211,Correct
15,315,249,A,61.685956395614696,73.05413364782328,3.084297819780735,1.1475316479118427,A,1055.6484000007913,Correct
15,315,250,B,70.77653943248102,41.07688642003125,3.538826971624051,0.6452342230475625,B,1619.2411000010907,Correct
15,315,251,B,74.85598815962835,46.35549575011705,3.7427994079814173,0.728150424510403,B,4287.142099998164,Correct
15,315,252,B,59.96220061654885,38.18838342299609,2.9981100308274424,0.5998617240707738,B,1132.1500999983982,Correct
15,315,253,A,61.04764638365697,74.31580601281219,3.0523823191828483,1.1673499510772747,A,1808.0097000020032,Correct
15,315,254,B,76.14319070511534,55.29174610359132,3.8071595352557672,0.8685207168159728,B,5265.4120000006515,Correct
15,315,255,A,38.803885064521644,60.769941619911144,1.940194253226082,0.9545720107609673,A,1687.8090999998676,Correct
15,315,256,A,19.093043475444606,32.52603868762374,0.9546521737722302,0.5109178209570807,A,685.5973999990965,Correct
15,315,257,A,28.76029974327786,46.08942875946539,1.438014987163893,0.7239710539944331,A,539.1710000003513,Correct
15,315,258,B,55.30461676273602,28.694027383500483,2.765230838136801,0.4507247281495473,B,707.9962999996496,Correct
15,315,259,B,85.7585055149017,68.24257534398743,4.287925275745085,1.0719518668135941,B,8256.126199998107,Correct
15,315,260,B,39.31791084748359,14.996403033188447,1.9658955423741793,0.2355629479966826,A,876.5966999999364,Incorrect
15,315,261,B,51.83200120189136,21.123095280315646,2.5916000600945677,0.33180080476858426,B,572.9172999999719,Correct
15,315,262,A,52.53910208737469,81.69754766673456,2.6269551043687343,1.2833020778305761,A,616.5293000012753,Correct
15,315,263,A,55.684454661451866,80.5113509508343,2.7842227330725935,1.2646693433886531,A,830.591000001732,Correct
15,315,264,B,43.820348913551314,20.545503574660085,2.1910174456775655,0.32272801547227475,B,716.1613999996916,Correct
15,315,265,A,30.613663139495007,49.96013892794842,1.5306831569747503,0.7847720271418409,A,2754.7706000004837,Correct
15,315,266,B,44.62881851953032,34.56797132062145,2.231440925976516,0.5429924237518351,B,778.8215000000491,Correct
15,315,267,A,55.954304578375954,66.8134502618161,2.797715228918798,1.0495032225175425,B,831.5250000014203,Incorrect
15,315,268,A,34.477265093422844,42.6322227978647,1.723863254671142,0.6696653897398752,A,821.6037999991386,Correct
15,315,269,A,39.928773205057134,55.90617000599864,1.9964386602528565,0.8781720649059368,A,598.1867000009515,Correct
15,315,270,B,54.1728048717989,30.082267719842037,2.7086402435899455,0.47253115635988563,B,602.3177000024589,Correct
15,315,271,B,64.86722241160756,36.07111430605268,3.243361120580378,0.5666037385534638,B,666.0400000000664,Correct
15,315,272,B,59.534529804094824,40.343409791927634,2.9767264902047414,0.6337127991154119,B,753.5610999984783,Correct
15,315,273,A,19.94382272828007,34.583431969762415,0.9971911364140036,0.54323527906064,A,628.8826000018162,Correct
15,315,274,B,34.348262911708815,16.902728429062538,1.7174131455854407,0.26550743729183107,A,999.3923000001814,Incorrect
15,315,275,B,71.02562350799779,41.721847767358454,3.5512811753998896,0.6553652522006251,B,620.0955999993312,Correct
15,315,276,B,51.376753925693116,28.49367722247397,2.568837696284656,0.4475776351794152,B,1721.0489000026428,Correct
15,315,277,A,35.885038367036515,50.96696199120461,1.7942519183518257,0.8005871668367932,A,1267.555899998115,Correct
15,315,278,A,23.06008169536857,36.94073281835527,1.1530040847684284,0.5802636742018414,A,556.9460999977309,Correct
15,315,279,B,37.60370445082647,22.71546743595564,1.8801852225413234,0.35681372809828205,B,1620.1494999986608,Correct
15,315,280,A,29.060705864307074,58.63974456216381,1.4530352932153536,0.9211109536243792,A,749.5522999997775,Correct
15,315,281,A,41.180489488109416,54.120167943583446,2.0590244744054704,0.8501176101130379,B,6950.133999998798,Incorrect
15,315,282,A,40.850676452360354,51.54706204551432,2.0425338226180174,0.8096993571816253,A,802.8491000004578,Correct
15,315,283,B,76.11892731774998,62.852747403477764,3.805946365887499,0.9872886475035034,A,507.40769999902113,Incorrect
15,315,284,A,39.141946619040816,70.30358552168914,1.957097330952041,1.1043261389798018,A,618.8676000019768,Correct
15,315,285,A,42.66838422803012,57.85846191894825,2.133419211401506,0.9088385945628632,A,5836.001199997554,Correct
15,315,286,A,36.62630723637486,66.10383327470858,1.831315361818743,1.038356584949745,A,580.3220000016154,Correct
15,315,287,B,38.17801743325687,23.806790933869365,1.9089008716628433,0.3739561975169604,A,889.5952999992005,Incorrect
15,315,288,A,15.843559715600897,34.38091168587056,0.7921779857800447,0.540054097880252,A,2073.32740000129,Correct
15,315,289,B,35.77278337453581,12.62210466200657,1.7886391687267906,0.19826755639500662,B,678.8357000004908,Correct
15,315,290,A,54.428294777041685,80.90019238748174,2.721414738852084,1.2707772503925676,A,510.88890000028186,Correct
15,315,291,B,60.7124509666261,35.41571383312629,3.0356225483313053,0.5563087319989398,B,9494.587000001047,Correct
15,315,292,A,35.8582466514029,65.43681690759269,1.792912332570145,1.0278791163559677,A,552.060399997572,Correct
15,315,293,A,57.85834707828494,67.48035815757319,2.892917353914247,1.0599789872472,B,563.0778000013379,Incorrect
15,315,294,A,31.337732649934885,57.18177420722296,1.566886632496744,0.8982092088432099,A,1321.7416000006779,Correct
15,315,295,B,38.31985095203699,15.467606302241975,1.9159925476018491,0.2429645916387129,A,2724.2511000004015,Incorrect
15,315,296,A,26.549059179629175,42.29145259958155,1.3274529589814588,0.6643125839824318,A,578.0403000026126,Correct
15,315,297,A,68.74143269371004,88.25665235313636,3.4370716346855024,1.3863322533152076,B,738.6839999999211,Incorrect
15,315,298,B,42.81935414321921,27.18072393074918,2.1409677071609603,0.42695381310046954,A,844.8635999993712,Incorrect
15,315,299,B,51.81488519987272,41.65070213249825,2.590744259993636,0.6542476991815662,A,1020.3203999990365,Incorrect
15,315,300,B,42.46334833030623,34.561687417220156,2.1231674165153116,0.5428937164280282,A,1228.9047000012943,Incorrect
15,315,301,A,69.08428165125886,88.5481310032345,3.454214082562943,1.3909107892443404,B,594.1648999978497,Incorrect
15,315,302,B,62.082012195458226,41.342634291988475,3.1041006097729116,0.6494085808588022,A,1690.4471000016201,Incorrect
15,315,303,A,60.76044429473514,78.64717469527024,3.0380222147367566,1.2353869312412702,B,936.5524999993795,Incorrect
15,315,304,B,73.37846700350524,51.44870165378815,3.668923350175262,0.8081543157613693,A,3310.914800000319,Incorrect
15,315,305,A,64.96588663284328,78.57447954420888,3.2482943316421644,1.2342450384786405,B,1693.3119999994233,Incorrect
15,315,306,B,70.58080955952242,47.24029926644716,3.529040477976121,0.7420488856442685,B,1311.1969999990833,Correct
15,315,307,B,74.56588938526329,53.97748289240565,3.7282944692631643,0.8478763185702516,A,1217.2051999987161,Incorrect
15,315,308,B,71.0129466752878,40.42696186112354,3.55064733376439,0.6350252319493024,B,2957.3400000008405,Correct
15,315,309,B,77.68420518536212,64.27860687028873,3.8842102592681056,1.0096859956334272,B,7085.642999998527,Correct
15,315,310,A,48.37022925822217,70.13650393240091,2.418511462911108,1.1017016275125118,A,1105.821900000592,Correct
15,315,311,B,41.3766939159382,25.347273683842857,2.06883469579691,0.3981540439684531,A,806.2487000024703,Incorrect
15,315,312,A,33.745478530554074,62.61035887254164,1.6872739265277037,0.9834812173629867,A,1777.0170000003418,Correct
15,315,313,B,84.9028833623355,63.547240149661576,4.245144168116775,0.9981977140504158,B,9500.638999998046,Correct
15,315,314,A,64.4610018505604,88.56548903837727,3.223050092528019,1.3911834486227668,A,823.7331000018457,Correct
15,315,315,B,64.00854564171547,44.75280227605942,3.2004272820857738,0.7029753742901242,B,909.567300001072,Correct
15,315,316,B,78.3449458486822,51.361883550788924,3.91724729243411,0.8067905801884646,B,537.7184000026318,Correct
15,315,317,A,17.33794833910337,46.1663233466276,0.8668974169551685,0.7251789113450811,A,570.2736999992339,Correct
15,315,318,A,26.145198026903497,58.35574164876324,1.3072599013451747,0.9166498462926925,A,509.90729999830364,Correct
15,315,319,A,61.122360239100125,79.44854450355112,3.056118011955006,1.2479748187537896,A,1020.2462999986892,Correct
15,315,320,B,43.9517598129852,31.307044146825554,2.19758799064926,0.49176989948639244,B,1941.057299998647,Correct
15,315,321,B,42.6733041608054,20.404338148214027,2.13366520804027,0.3205105941389558,A,1091.9924000008905,Incorrect
15,315,322,A,64.45760603161824,88.90499372304197,3.222880301580912,1.3965163757387764,A,1840.4435999982525,Correct
15,315,323,A,68.69972635822144,86.91047717524296,3.434986317911072,1.3651865830686334,A,604.280599996855,Correct
15,315,324,A,51.44753606154963,63.387815815509754,2.572376803077481,0.9956934824655418,A,775.6468000006862,Correct
15,315,325,B,88.51532732444394,66.08579984699438,4.425766366222197,1.0380733165296152,B,9050.424900000507,Correct
15,315,326,A,62.25111052249326,87.08242263843128,3.1125555261246634,1.367887496088486,A,869.2652999998245,Correct
15,315,327,B,58.554176250470704,48.60067257168327,2.9277088125235355,0.7634175795536157,B,7551.775600000838,Correct
15,315,328,A,67.30749474952373,83.58830521782356,3.365374737476186,1.3130020279916794,B,1107.6611000025878,Incorrect
15,315,329,A,49.13976313250321,59.702657827027124,2.456988156625161,0.937807156145868,A,754.8309999983758,Correct
15,315,330,B,83.4890342558628,63.05661583891094,4.17445171279314,0.990491005398782,B,774.7189000001526,Correct
15,315,331,B,64.74151114875907,42.60203510436734,3.2370755574379535,0.6691912025592746,B,524.0183000023535,Correct
15,315,332,A,49.02014476428279,59.92585791517975,2.4510072382141397,0.9413131749319722,A,1418.4091999995871,Correct
15,315,333,B,67.7848454768577,57.4118418294175,3.3892422738428847,0.901823102601786,A,926.4876999986882,Incorrect
15,315,334,A,49.61582615799372,75.74785037193467,2.480791307899686,1.1898444512684443,A,2101.4193999981217,Correct
15,315,335,B,49.75930724635251,35.406328928279166,2.4879653623176257,0.556161314258328,B,3423.9359999992303,Correct
15,315,336,B,41.108555015213156,27.64368250199415,2.0554277507606575,0.4342259493321676,A,1135.4190000020026,Incorrect
15,315,337,B,67.09866797575732,51.553884647956586,3.3549333987878662,0.80980652637018,B,762.4713000004704,Correct
15,315,338,A,16.0777954771223,45.63266912238721,0.8038897738561149,0.7167962903929272,A,599.7215999996115,Correct
15,315,339,B,44.09841597236806,17.894065055612632,2.204920798618403,0.2810793166078524,A,879.7011999995448,Incorrect
15,315,340,B,66.41480471816124,42.95990713373336,3.3207402359080618,0.6748126432511824,B,2367.7473999996437,Correct
15,315,341,B,48.67453036130637,19.017097534865968,2.4337265180653187,0.2987198695406775,B,1734.9482999998145,Correct
15,315,342,A,18.42267414466187,36.732859095315476,0.9211337072330934,0.5769984013959606,A,563.3555999993405,Correct
15,315,343,A,18.33062317767108,45.161766589794695,0.9165311588835539,0.7093993707081799,A,572.5066000013612,Correct
15,315,344,A,38.68515464913458,46.864978552883,1.934257732456729,0.7361533616619025,A,824.133799997071,Correct
15,315,345,A,18.71561166033857,45.894662448792,0.9357805830169285,0.7209116719405415,A,763.9975999991293,Correct
15,315,346,B,34.931013976630396,19.189209633112277,1.7465506988315198,0.3014234000579001,B,971.6923999985738,Correct
15,315,347,A,32.415092153806626,59.01579312787202,1.6207546076903312,0.9270179106814888,A,5214.7848999993585,Correct
15,315,348,B,67.31119358834724,57.25719667026437,3.3655596794173617,0.8993939421222424,B,6000.492999999551,Correct
15,315,349,A,57.647730937366575,78.93370474507319,2.8823865468683287,1.2398877347387385,B,2133.4956000027887,Incorrect
15,315,350,A,62.24219430238122,74.63317642503499,3.112109715119061,1.1723351938548043,A,1037.7543999966292,Correct
15,315,351,B,88.15827492340398,63.472369650248176,4.407913746170198,0.9970216509957772,B,832.8129000001354,Correct
15,315,352,B,65.36806286429633,56.59898567222514,3.268403143214817,0.8890547879424824,B,1558.0967999994755,Correct
15,315,353,A,43.28496786731213,62.239533142263035,2.1642483933656065,0.97765630041296,A,1180.7426000013947,Correct
15,315,354,B,73.12060964417024,58.09179512708485,3.6560304822085126,0.9125037840254655,B,664.8994999995921,Correct
15,315,355,B,89.27752341850957,65.81696178105238,4.463876170925479,1.0338504180647718,B,4642.027699999744,Correct
15,315,356,A,52.13837531137878,61.15117028675435,2.606918765568939,0.9605603366564296,A,800.3801999984717,Correct
15,315,357,B,84.47697386917665,61.85086599315908,4.223848693458832,0.9715511311113766,B,2947.1680000024207,Correct
15,315,358,B,54.209452686963076,28.13584869241771,2.7104726343481538,0.44195687777306736,A,599.629600001208,Incorrect
15,315,359,B,51.42368219098341,19.94539017001967,2.5711841095491708,0.3133014561555794,B,645.4274999996414,Correct
15,315,360,B,67.14058919535393,55.59046436072934,3.357029459767696,0.8732129722265626,B,6159.933500002808,Correct
15,315,361,B,59.842962706997184,35.25059922956431,2.992148135349859,0.5537151178711862,B,876.9212999977753,Correct
15,315,362,A,37.86728182504421,70.61372548943096,1.8933640912522105,1.109197806201013,A,564.1317999979947,Correct
15,315,363,B,67.52562682400409,48.011556715664796,3.376281341200205,0.7541637693267111,B,593.1488999995054,Correct
15,315,364,A,42.99418520198414,58.87264755710382,2.1497092600992067,0.9247693853138922,A,614.9318000025232,Correct
15,315,365,A,56.85376230222231,83.2613421782519,2.8426881151111156,1.3078661045761106,A,626.2502999998105,Correct
15,315,366,A,39.16808442692089,70.78264310969682,1.9584042213460446,1.1118511579754586,A,506.8018000019947,Correct
15,315,367,B,60.79836990663017,40.21101813084648,3.0399184953315084,0.6316331957661664,B,626.2964000015927,Correct
15,315,368,B,44.57625376791975,34.446321895122125,2.228812688395988,0.5410815590445245,B,1459.6791000003577,Correct
15,315,369,A,19.197592704340355,43.74854853345495,0.9598796352170177,0.6872005933895929,A,613.9142000029096,Correct
15,315,370,B,59.31732132981189,52.449036168877704,2.9658660664905945,0.8238675335800577,B,1484.5335000027262,Correct
15,315,371,A,46.31200462229421,76.56025150794424,2.3156002311147104,1.2026056184717226,A,2203.7256000003254,Correct
15,315,372,A,33.145263668060764,52.88627714320475,1.657263183403038,0.8307356987440293,A,615.6420000006619,Correct
15,315,373,A,18.305751312925153,33.09082300387551,0.9152875656462577,0.5197894322510771,A,696.4642999992066,Correct
15,315,374,A,29.298924243793355,47.746851278998555,1.464946212189668,0.7500057860507313,A,707.7322000004642,Correct
15,315,375,A,44.71957813758206,62.548130292220165,2.235978906879103,0.9825037331090803,A,558.2585999982257,Correct
15,315,376,B,44.14820655958427,21.956145092021995,2.207410327979213,0.3448863206112394,B,628.6639000027208,Correct
15,315,377,A,41.88235841119256,64.02200831568214,2.0941179205596283,1.0056553549630582,A,574.8973000008846,Correct
15,315,378,A,56.660415425348404,82.22567967454493,2.83302077126742,1.2915979560098896,B,3568.5571000030905,Incorrect
15,315,379,A,51.5735585483997,66.97218202409249,2.578677927419985,1.051996575208837,A,7257.650999999896,Correct
15,315,380,A,45.72671440676793,73.96139930321394,2.2863357203383967,1.1617829435009905,A,755.126800002472,Correct
15,315,381,B,66.44345722937865,41.824089979250715,3.3221728614689323,0.6569712691094627,B,640.1030999986688,Correct
15,315,382,B,85.19671626960734,56.76336380815144,4.259835813480367,0.8916368336636665,B,604.250399999728,Correct
15,315,383,B,72.13994674159508,58.237011656397414,3.6069973370797537,0.9147848399338064,A,424.387500002922,Incorrect
15,315,384,B,39.86724552018451,25.35958559804278,1.9933622760092253,0.3983474390644636,B,1616.3973000002443,Correct
15,315,385,A,49.080569955522925,61.80740249862153,2.454028497776146,0.9708684081356841,B,1613.1036000006134,Incorrect
15,315,386,A,17.9830308001028,37.659622177386865,0.89915154000514,0.5915559618472293,A,809.8524999986694,Correct
15,315,387,A,54.14349555724142,67.48920233710163,2.707174777862071,1.0601179112943677,B,1003.5233000016888,Incorrect
15,315,388,A,37.71007656983213,54.69992657450193,1.8855038284916066,0.8592244373917819,A,1081.610199998977,Correct
15,315,389,A,53.21524424175796,69.41000014608731,2.6607622120878975,1.0902897327230718,A,776.5403000012157,Correct
15,315,390,B,62.15079898827591,42.266721883766884,3.1075399494137956,0.6639241148068249,B,756.6750000005413,Correct
15,315,391,B,68.20452564208357,59.11685363677424,3.4102262821041784,0.928605365443165,B,1038.3235000008426,Correct
15,315,392,A,29.756159743380444,60.02150631497266,1.4878079871690222,0.9428156164825574,A,596.173899997666,Correct
15,315,393,A,66.82218043944637,88.11707598719906,3.3411090219723185,1.3841397928859906,A,732.1783999977924,Correct
15,315,394,A,57.62615421599688,69.0460319806997,2.8813077107998435,1.0845725341504604,A,646.9369999977062,Correct
15,315,395,B,36.929215001212995,16.84747045673962,1.8464607500606496,0.2646394470923214,B,1571.9183000001067,Correct
15,315,396,B,72.07484621925776,60.71925372926749,3.6037423109628883,0.9537758072366069,B,1477.2975000014412,Correct
15,315,397,B,47.126545174306386,35.030184673571426,2.3563272587153192,0.5502528541219287,B,3528.400600000168,Correct
15,315,398,B,39.062879391011585,24.028916505661265,1.9531439695505792,0.37744533783953976,A,5088.956899999175,Incorrect
15,315,399,B,42.26120760055421,27.31443249242846,2.11306038002771,0.42905410227593793,B,652.9159000019717,Correct
15,315,400,A,53.34909700846284,69.90482951816406,2.6674548504231423,1.0980624943235557,A,669.6926999975403,Correct
15,315,401,B,65.10814383462541,56.789704100999316,3.255407191731271,0.892050586016188,B,1575.0929999994696,Correct
15,315,402,B,56.96371718225103,46.95224470497941,2.8481858591125513,0.737524135173568,B,606.5525000012713,Correct
15,315,403,A,29.69865743780793,58.93168475479022,1.4849328718903965,0.9256967394465928,A,605.2366999974765,Correct
15,315,404,A,29.055241755631087,48.15369898917314,1.4527620877815541,0.7563965349378028,A,742.0892000009189,Correct
15,315,405,A,44.9851500337314,71.9244220378179,2.24925750168657,1.1297861794385027,A,660.4305999971984,Correct
15,315,406,A,67.22130573903706,87.23609886935353,3.3610652869518534,1.3703014366789696,A,4766.068099997938,Correct
15,315,407,B,68.2051587200384,48.8072350436783,3.41025793600192,0.7666622552762503,B,976.6028000012739,Correct
15,315,408,B,81.79940706307151,56.12028611142166,4.089970353153576,0.8815353928249979,B,1130.825799999002,Correct
15,315,409,A,45.97794429730829,62.3131468087632,2.2988972148654145,0.9788126211823638,A,825.7472999976017,Correct
15,315,410,B,47.252496784714424,35.55849145056132,2.362624839235721,0.5585514775690946,B,966.1687999978312,Correct
15,315,411,A,63.50920988556807,82.71219312224743,3.1754604942784033,1.2992400913757636,B,5218.645699998888,Incorrect
15,315,412,A,50.33980404595734,74.71423663577404,2.516990202297867,1.1736084846675854,A,6734.79210000005,Correct
15,315,413,B,46.40764321922905,36.84880421958158,2.3203821609614526,0.5788196631490303,B,1303.1072999983735,Correct
15,315,414,B,62.00449198835233,53.623674813233805,3.1002245994176167,0.8423187142587167,B,786.7224999972677,Correct
15,315,415,B,65.50927017653233,46.22221898644456,3.275463508826616,0.7260569180021644,B,843.5871999972733,Correct
15,315,416,B,71.04201468429632,51.68126529375577,3.552100734214816,0.8118074168754413,B,649.9370999990788,Correct
15,315,417,A,21.724111501788496,46.48399567584877,1.0862055750894248,0.7301688966237311,A,582.3678000015207,Correct
15,315,418,B,54.2827110585851,45.94122677843986,2.714135552929255,0.7216431027202467,A,1017.9821999990963,Incorrect
15,315,419,B,83.59435508853751,57.60897463426333,4.179717754426876,0.9049196574592121,B,1086.1325000005309,Correct
15,315,420,B,57.85038699941843,46.31525334970593,2.8925193499709216,0.727518298362931,B,984.3579000007594,Correct
15,315,421,A,26.968443013138177,51.03274614037354,1.3484221506569087,0.8016205018355519,A,554.0096000004269,Correct
15,315,422,B,55.17278578909762,38.654425472503675,2.7586392894548806,0.6071822954657585,B,861.0813999985112,Correct
15,315,423,A,51.437990913119044,64.34993702926903,2.571899545655952,1.0108064471505869,A,807.5790000002598,Correct
15,315,424,B,84.73520682620838,66.00368939219997,4.2367603413104185,1.03678352852179,B,599.8485999989498,Correct
15,315,425,A,47.73941398838757,55.98663511876455,2.3869706994193787,0.8794360079416151,A,758.804400000372,Correct
15,315,426,B,47.1296903426301,25.5866274651036,2.356484517131505,0.4019138043725415,B,781.1527000012575,Correct
15,315,427,A,33.673260696650104,50.06830127757958,1.6836630348325052,0.7864710373568223,A,540.0353000004543,Correct
15,315,428,A,64.58534616542866,87.8299993390209,3.229267308271433,1.3796304034413223,B,719.9602000000596,Incorrect
15,315,429,B,64.91886378903978,53.31767085864913,3.245943189451989,0.8375120153802535,A,1014.3150000003516,Incorrect
15,315,430,B,63.03397229267387,52.308679993050916,3.151698614633694,0.8216628239257407,B,679.7219000000041,Correct
15,315,431,B,45.54797690610252,21.031178176224774,2.277398845305126,0.3303569742738287,B,563.0189000003156,Correct
15,315,432,B,57.758980415024695,41.64211296365217,2.8879490207512344,0.6541127808328296,B,976.844799999526,Correct
15,315,433,A,46.57209020682213,75.52246972564332,2.3286045103411066,1.186304180355193,A,857.6747000006435,Correct
15,315,434,B,60.608415367587455,47.331166234401174,3.0304207683793725,0.74347622063916,B,997.8202999991481,Correct
15,315,435,B,58.15424584210674,25.86936188916309,2.907712292105337,0.40635498632025263,B,846.1257000017213,Correct
15,315,436,B,58.951839869558626,52.09335929850766,2.947591993477931,0.818280574365026,B,750.4325000008976,Correct
15,315,437,B,57.74907102507059,45.44002005133245,2.8874535512535293,0.7137701658611946,B,650.5980000001728,Correct
15,315,438,B,44.70029728139772,24.442023383592783,2.235014864069886,0.3839344055038251,B,940.8604000018386,Correct
15,315,439,B,48.843204937612896,21.30880577163761,2.4421602468806447,0.33471793834474245,B,4122.338599998329,Correct
15,315,440,A,43.25697231034671,69.40658941233443,2.1628486155173356,1.0902361570425647,A,4775.336399998196,Correct
15,315,441,A,31.637332818969554,60.5850471317033,1.5818666409484776,0.9516676949317523,A,1103.093000001536,Correct
15,315,442,B,76.94320165764447,53.587705684057056,3.8471600828822234,0.8417537124988281,B,957.7551999973366,Correct
15,315,443,B,68.05365925248461,59.55796503668675,3.4026829626242305,0.9355343271100641,B,748.6525999993319,Correct
15,315,444,B,74.87275575775476,54.55304897697914,3.743637787887738,0.8569172894850092,B,1005.804000000353,Correct
15,315,445,B,36.519706662362864,13.159754930643789,1.8259853331181433,0.20671294706576293,B,843.8790000000154,Correct
15,315,446,A,37.17032955251978,44.48305089536296,1.858516477625989,0.6987381295106657,A,798.0511999994633,Correct
15,315,447,A,45.37172909827821,75.34028847340747,2.26858645491391,1.1834424839369633,A,827.6054000016302,Correct
15,315,448,A,44.38360941329686,71.98127014450597,2.219180470664843,1.1306791474102114,A,679.2401999991853,Correct
15,315,449,B,57.70590329107937,35.21006165172866,2.8852951645539684,0.5530783550875723,A,1461.0415999995894,Incorrect
15,315,450,A,34.13388871186736,51.422697747559965,1.706694435593368,0.807745847357514,A,1474.552700001368,Correct
15,315,451,B,63.568196794686884,36.70783965102512,3.178409839734344,0.5766053968840631,B,784.9387999995088,Correct
15,315,452,B,84.27425974949888,57.40332205559575,4.213712987474944,0.9016892743075428,B,679.5793999990565,Correct
15,315,453,B,57.91508166255066,44.071015362404694,2.8957540831275335,0.6922658904938674,A,1337.520900000527,Incorrect
15,315,454,B,73.53814424845609,40.852231752376525,3.6769072124228046,0.6417053557800689,B,888.7317999979132,Correct
15,315,455,B,66.24757937298051,56.107230347455115,3.3123789686490257,0.8813303133641764,A,6111.106899999868,Incorrect
15,315,456,B,58.12154672153855,40.98957244191522,2.9060773360769274,0.6438626982865375,B,1620.6449999990582,Correct
15,315,457,B,50.920265798910336,19.486211503701185,2.546013289945517,0.3060886945316228,B,2990.881800000352,Correct
15,315,458,B,58.83607076986533,34.02431477087907,2.9418035384932666,0.5344526866381019,A,862.3507000011159,Incorrect
15,315,459,B,60.718886744944534,43.0868214715465,3.0359443372472263,0.6768062090077273,B,1027.3426000021573,Correct
15,315,460,B,73.2477478166057,52.370117281863145,3.6623873908302844,0.8226278786016856,B,741.8375000015658,Correct
15,315,461,B,62.178717206615694,53.144112071487726,3.1089358603307846,0.8347857603266925,A,1036.7243000000599,Incorrect
15,315,462,A,30.218802892963986,49.98101953117541,1.5109401446481994,0.785100018890343,A,679.8137999976461,Correct
15,315,463,B,52.83360515364247,42.98006952388173,2.6416802576821237,0.675129353335027,B,1439.5585999991454,Correct
15,315,464,A,53.89093240966949,78.8157517633442,2.6945466204834747,1.2380349336343945,A,697.2239999995509,Correct
15,315,465,B,52.96553379677698,33.13268868472668,2.6482766898388492,0.520447056828075,B,602.9002999966906,Correct
15,315,466,A,47.77999675663662,77.45929853895957,2.388999837831831,1.21672781621107,A,615.5983000026026,Correct
15,315,467,B,65.50271468113617,53.57880276078123,3.275135734056809,0.841613865707034,B,1440.9927999986394,Correct
15,315,468,B,76.29692876614197,48.03736067676772,3.8148464383070984,0.7545690969998833,B,651.2213999994856,Correct
15,315,469,B,86.33885616168533,64.16311773012603,4.316942808084266,1.0078718964619047,B,827.2075999993831,Correct
15,315,470,A,67.78361619849917,80.20621281999644,3.389180809924959,1.2598762448378016,B,468.9168000004429,Incorrect
15,315,471,A,25.385235752002494,49.35695481946645,1.2692617876001249,0.7752972333219956,A,521.0757999993803,Correct
15,315,472,A,28.41133771614053,61.09623029658463,1.4205668858070266,0.959697341308902,A,474.19629999785684,Correct
15,315,473,A,30.55536322926008,40.95720591541144,1.527768161463004,0.643354286077105,A,453.7761000028695,Correct
15,315,474,B,67.7763012843402,56.41547653232416,3.3888150642170105,0.8861722331135848,B,743.7413000006927,Correct
15,315,475,B,49.85635204354661,32.27940191408388,2.4928176021773307,0.5070436595777911,B,720.0364000018453,Correct
15,315,476,B,45.83835757679372,16.627694878347242,2.291917878839686,0.2611872203797416,B,694.9429000014788,Correct
15,315,477,B,48.346363654156754,19.526958593767404,2.4173181827078376,0.30672874832565883,B,537.4412999990454,Correct
15,315,478,B,43.67655409573991,22.7393637678831,2.1838277047869954,0.35718909080243727,B,603.0716999994183,Correct
15,315,479,B,38.40257127209213,21.470679876554396,1.9201285636046066,0.33726065083880746,B,506.59169999926235,Correct
15,315,480,A,16.414549709867334,45.715181561241025,0.8207274854933666,0.7180923927515919,A,555.691300000035,Correct
15,315,481,B,43.10662724110041,27.180250189831188,2.1553313620550205,0.42694637159553117,A,912.9319999992731,Incorrect
15,315,482,A,49.80939987531103,76.2294007034179,2.4904699937655517,1.1974086261870514,A,2168.705800002499,Correct
15,315,483,A,61.67498199662916,82.11093104509585,3.0837490998314583,1.2897954887534562,A,567.9140000029292,Correct
15,315,484,A,61.65902192579432,83.93070301544995,3.082951096289716,1.3183804000198214,A,630.797400001029,Correct
15,315,485,B,42.446189456237136,23.294287680717513,2.122309472811857,0.3659058152417468,B,821.9916000016383,Correct
15,315,486,A,22.827896635283597,54.093259509893365,1.1413948317641798,0.8496949334250361,A,511.4047999995819,Correct
15,315,487,B,42.99031322059494,32.984733108456666,2.149515661029747,0.5181229760707374,B,1894.3212999984098,Correct
15,315,488,A,35.952111995099344,58.17779532352753,1.7976055997549674,0.9138546719522236,A,1730.7221000010031,Correct
15,315,489,A,56.296306737012934,64.38014072652746,2.8148153368506468,1.0112808857176785,B,682.7216999990924,Incorrect
15,315,490,A,55.63313657059291,82.92219717768847,2.7816568285296457,1.302538827364752,A,745.1161999997566,Correct
15,315,491,A,67.94552528678797,86.3104176736473,3.3972762643393986,1.355760870458985,A,1485.244399998919,Correct
15,315,492,A,60.39603721441432,77.72183939159157,3.019801860720716,1.2208517982805493,A,563.9225999984774,Correct
15,315,493,A,26.501424313122044,47.2436322573027,1.3250712156561022,0.7421012401421996,A,566.170999998576,Correct
15,315,494,A,34.372079370541485,55.06254178752957,1.7186039685270742,0.8649203838384194,A,455.55140000215033,Correct
15,315,495,B,47.24885134996962,17.174951235007256,2.362442567498481,0.2697835031283087,B,686.1511999995855,Correct
15,315,496,A,54.3100046688821,74.40340721077622,2.7155002334441054,1.1687259874771223,A,482.3504999985744,Correct
15,315,497,A,16.76813801408915,33.527838708092915,0.8384069007044574,0.526654058880441,A,603.488799999468,Correct
15,315,498,B,43.76730705608983,34.4524840743303,2.1883653528044915,0.541178354329177,B,662.2173999967345,Correct
15,315,499,A,37.580181185753446,64.31388254796009,1.8790090592876723,1.010240104682541,A,544.7303000000829,Correct
15,315,500,B,63.28317383231781,30.915954468699717,3.1641586916158904,0.48562667718791785,B,538.445900001534,Correct
15,315,501,B,83.18320914847396,59.36656456644782,4.159160457423698,0.9325278155540829,B,1449.0480999993451,Correct
15,315,502,A,38.19162862353699,59.30720105380327,1.9095814311768495,0.9315953356780058,A,702.0302000019001,Correct
15,315,503,B,56.46817356459955,27.246279302494003,2.8234086782299777,0.42798355447185393,B,738.4870999994746,Correct
15,315,504,B,66.37306320726749,36.835925645216726,3.3186531603633744,0.5786173669759636,B,809.9150999987614,Correct
15,315,505,B,88.32099564704751,69.64816391977672,4.416049782352376,1.0940308005319412,B,1733.8032000006933,Correct
15,315,506,B,66.76527912658901,37.93700554149284,3.3382639563294503,0.5959130895417458,B,942.6652000001923,Correct
15,315,507,A,12.491179639431,34.14049260002716,0.6245589819715499,0.53627760371091,A,558.9607000001706,Correct
15,315,508,A,33.974852708175554,54.50739305627503,1.6987426354087776,0.8562001279596246,A,1675.1277999974263,Correct
15,315,509,B,73.80504856316696,53.63240229584852,3.690252428158348,0.8424558052350504,B,2059.6760000007635,Correct
15,315,510,B,52.6375959706902,36.24166833781672,2.63187979853451,0.5692827950196141,B,791.5431000001263,Correct
15,315,511,A,46.081048538896496,71.93425548854505,2.304052426944825,1.129940642921322,A,559.3026999995345,Correct
15,315,512,A,33.69827642078074,52.931178985435366,1.6849138210390373,0.831441015232451,A,465.77850000176113,Correct
15,315,513,B,72.96998209195544,63.0553272348329,3.6484991045977724,0.9904707640532572,B,3144.422900000791,Correct
15,315,514,A,21.761628530945654,35.13760042517802,1.0880814265472827,0.5519401368025644,A,711.9377000017266,Correct
15,315,515,B,44.13620646543308,24.032746046911903,2.206810323271654,0.37750549213283785,B,2599.6287999987544,Correct
15,315,516,B,56.09982922628016,42.009758277585085,2.8049914613140077,0.6598877399197215,B,1536.2247000011848,Correct
15,315,517,A,50.37200915711106,67.4795905527795,2.5186004578555528,1.0599669297392964,A,748.6838999975589,Correct
15,315,518,B,54.95599946830181,36.790877508186675,2.7477999734150904,0.5779097524942061,B,658.4865000004356,Correct
15,315,519,B,33.056051471995445,10.808296388774515,1.6528025735997722,0.16977632266397555,B,1036.964300001273,Correct
15,315,520,A,26.02148563479542,44.879878943632,1.301074281739771,0.7049714899165677,A,520.0395000028948,Correct
15,315,521,B,41.28617443024496,28.072840467353153,2.064308721512248,0.4409671468881746,B,3549.2964000004577,Correct
15,315,522,A,50.152363374790255,75.39133938979185,2.5076181687395125,1.1842443898563244,A,894.9596000020392,Correct
15,315,523,A,24.895155185330992,43.19770004314863,1.2447577592665495,0.6785478855376561,A,526.1733999977878,Correct
15,315,524,B,72.96845913294783,59.17361758282372,3.6484229566473916,0.9294970114226541,B,654.74770000219,Correct
15,315,525,B,30.577301111130684,11.38094669653032,1.5288650555565342,0.1787714926635834,B,1117.3813999994309,Correct
15,315,526,A,24.375073099500952,41.549854835499836,1.2187536549750475,0.6526635935446431,A,581.6631000016059,Correct
15,315,527,B,69.21187115080372,54.773072577343015,3.4605935575401863,0.860373412117607,B,639.0500999987125,Correct
15,315,528,B,70.00601358626214,45.534661376431046,3.5003006793131073,0.7152567883194733,B,579.7760999994352,Correct
15,315,529,A,36.457663591030894,59.01322954289836,1.8228831795515448,0.9269776419828882,A,632.4875999998767,Correct
15,315,530,A,23.692801619706966,34.52275366211143,1.1846400809853483,0.5422821464328968,A,2875.477800000226,Correct
15,315,531,B,74.22528448187066,55.18038607080731,3.7112642240935325,0.8667714775114839,B,616.7934999975841,Correct
15,315,532,A,41.665336162950176,58.578216803711015,2.083266808147509,0.9201444778546435,A,1323.8372999985586,Correct
15,315,533,A,45.00549108948579,52.52132213541406,2.2502745544742893,0.8250029988871991,A,658.1794999983686,Correct
15,315,534,B,57.88643004921751,44.572191925723715,2.8943215024608753,0.7001383535412397,A,384.30439999865484,Incorrect
15,315,535,A,63.34323667239802,83.39963767272182,3.167161833619901,1.310038445123367,A,1467.0732999984466,Correct
15,315,536,A,53.256689647308676,75.92734329710662,2.662834482365434,1.1926639195439017,A,677.8592000009667,Correct
15,315,537,A,49.50536787445478,74.59479243820233,2.4752683937227387,1.1717322595995594,A,1925.865999997768,Correct
15,315,538,A,37.26188679663381,63.249055476743976,1.8630943398316904,0.9935138401611607,A,567.810799999279,Correct
15,315,539,A,51.36300720469163,66.52903852989765,2.568150360234581,1.0450356934795937,A,559.2494000011357,Correct
15,315,540,B,66.24642446084518,45.19263530401939,3.3123212230422587,0.7098842553373501,B,720.4060000003665,Correct
15,315,541,A,50.75186555019537,78.17037322423539,2.5375932775097683,1.2278973512481508,A,551.059699999314,Correct
15,315,542,A,26.623676598525094,49.80373035933793,1.3311838299262546,0.7823151670913151,A,840.43489999749,Correct
15,315,543,A,23.41366799475126,40.009519908284915,1.1706833997375632,0.6284680690876122,A,579.2178999981843,Correct
15,315,544,A,38.77457596338348,56.488841584303216,1.9387287981691739,0.887324648655223,A,1049.0487999995821,Correct
15,315,545,A,66.17568814064205,86.5384554941929,3.3087844070321024,1.3593428801678185,A,912.2480000005453,Correct
15,315,546,B,41.31418383126801,14.340324756146508,2.0657091915634003,0.22525729452000853,B,788.6655000002065,Correct
15,315,547,A,42.77760336175966,50.85085529503165,2.138880168087983,0.7987633671181453,A,608.7971000015386,Correct
15,315,548,A,36.47405259455556,44.85294044967543,1.8237026297277779,0.704548341043004,A,2306.1963000000105,Correct
15,315,549,A,19.65921638248023,48.53803376983053,0.9829608191240115,0.7624336515549643,A,627.2839999983262,Correct
