subject,day,trial,cat,x,y,xt,yt,resp,rt,fb
17,517,0,B,58.01995414198553,43.7505140477343,2.9009977070992767,0.6872314676156956,B,1670.8516000001055,Correct
17,517,1,B,36.14545217239515,25.554523138976066,1.8072726086197577,0.401409510796988,B,513.6466999999811,Correct
17,517,2,B,55.79447214848331,46.89906193577581,2.789723607424165,0.7366887421884298,B,1329.079800000045,Correct
17,517,3,A,38.013800745082726,57.13880503374859,1.9006900372541364,0.8975342506446202,A,515.5999999999494,Correct
17,517,4,A,44.215313501355524,70.00294504680613,2.210765675067776,1.0996036894434806,A,304.0401999999176,Correct
17,517,5,B,68.50445021891885,38.40933198561505,3.4252225109459427,0.6033323759764985,B,481.6774000000805,Correct
17,517,6,A,35.41414581186066,51.21786499946463,1.770707290593033,0.8045283420743595,A,538.2977000001574,Correct
17,517,7,A,32.73700353329812,48.48621683835475,1.6368501766649062,0.761619713098685,A,488.05160000006254,Correct
17,517,8,B,64.49772852167736,41.70442275685477,3.224886426083868,0.6550915407756897,B,343.55279999999766,Correct
17,517,9,A,25.577724086355595,36.166952839318355,1.2788862043177798,0.5681091667136553,A,487.2958999999355,Correct
17,517,10,A,52.28533398629998,59.221585715881936,2.6142666993149994,0.9302504930947646,B,767.0415999998568,Incorrect
17,517,11,A,46.35268983157309,70.00332626680313,2.317634491578654,1.0996096776331905,A,673.5281999999643,Correct
17,517,12,B,57.82218011003109,48.13922217275862,2.8911090055015545,0.7561691336373269,A,1263.6026999998649,Incorrect
17,517,13,A,13.684941049172018,32.37003545405368,0.6842470524586008,0.5084673278944809,A,655.340600000045,Correct
17,517,14,A,55.557198584680194,62.825233964732924,2.7778599292340096,0.9868564674183246,B,896.1950999998862,Incorrect
17,517,15,A,68.77100575025082,85.08238308966708,3.438550287512541,1.3364709483220525,A,582.5887000000876,Correct
17,517,16,A,57.894509538563625,66.84835664343528,2.894725476928181,1.0500515306778337,A,870.6076999999368,Correct
17,517,17,B,58.75213208500767,32.68276495756521,2.937606604250384,0.513379671448444,B,409.1006999999536,Correct
17,517,18,A,23.1801497289822,49.51112651888181,1.15900748644911,0.7777189567133694,A,543.7440999999126,Correct
17,517,19,B,36.130389482605864,21.414060549910822,1.8065194741302932,0.3363712765356342,B,453.28760000006696,Correct
17,517,20,A,63.26569438159562,76.62895945480234,3.163284719079781,1.2036848803771858,A,538.5091999999077,Correct
17,517,21,B,58.58746680292202,32.298498289536106,2.929373340146101,0.5073436247419456,B,479.24799999987044,Correct
17,517,22,A,35.42785117880849,47.628453519711215,1.7713925589404242,0.7481459983968384,A,810.5694000000767,Correct
17,517,23,A,50.25662849019822,78.65241903906687,2.5128314245099106,1.235469309200992,A,645.3271999998833,Correct
17,517,24,B,79.27744503069927,51.66081597425299,3.9638722515349634,0.8114861997158371,B,481.5207999999984,Correct
17,517,25,A,68.07261747911991,80.83762167435057,3.4036308739559957,1.269794391929054,A,565.3815000000577,Correct
17,517,26,A,24.65132735964636,54.35095735220708,1.232566367982318,0.8537428416663297,A,574.2205999999896,Correct
17,517,27,A,67.26889801826822,79.95735551592048,3.363444900913411,1.2559672034464155,B,381.9843999999648,Incorrect
17,517,28,B,80.50326640093286,52.30393544259186,4.025163320046643,0.8215882967014069,B,481.55610000003435,Correct
17,517,29,A,37.699756549655966,62.620830869006454,1.8849878274827985,0.9836457110987981,A,505.07410000000164,Correct
17,517,30,B,61.07245499531694,49.029595072678475,3.0536227497658466,0.7701550784440451,B,807.1291000001111,Correct
17,517,31,A,44.01224750908396,69.71789873707937,2.2006123754541984,1.0951261924806281,A,685.7755000000907,Correct
17,517,32,A,42.708232409654364,55.62430319404736,2.135411620482718,0.8737445113773522,A,546.7427000000953,Correct
17,517,33,B,64.55785290284402,37.83579777204154,3.227892645142201,0.5943233216167738,B,478.90469999993,Correct
17,517,34,A,36.19896240229443,58.582482981952616,1.8099481201147214,0.9202114908257572,A,506.79779999995844,Correct
17,517,35,B,56.524502578133514,30.914566147342153,2.8262251289066755,0.48560486948702913,B,426.8050000000585,Correct
17,517,36,B,63.496729924900436,36.425927184386175,3.1748364962450215,0.5721771262133217,B,350.41419999993195,Correct
17,517,37,B,70.95240147786197,46.73521027897535,3.547620073893098,0.7341149663820158,B,333.033099999966,Correct
17,517,38,A,52.95512911681393,71.44158821735805,2.6477564558406965,1.1222018435221959,A,447.82600000007733,Correct
17,517,39,B,83.79435320074953,64.68734323089092,4.189717660037476,1.0161064113720417,A,516.2715999999818,Incorrect
17,517,40,A,52.34616437006237,79.06507654104124,2.6173082185031182,1.2419513180842492,A,526.7705999999635,Correct
17,517,41,A,14.54194848301573,39.42344847815905,0.7270974241507865,0.6192620805908008,A,493.0985999999393,Correct
17,517,42,B,48.13393086152102,21.390723300617857,2.4066965430760514,0.3360046958809654,B,521.8059999999696,Correct
17,517,43,A,25.83384978551431,41.87168389654087,1.2916924892757153,0.6577188726140343,A,759.083099999998,Correct
17,517,44,B,42.82605641599149,25.62430850904091,2.1413028207995746,0.4025056968266067,B,332.9008000000613,Correct
17,517,45,A,45.522418175761715,61.801858670114164,2.276120908788086,0.9707813258811266,A,605.4484999999659,Correct
17,517,46,A,32.362673785545475,65.76915506260434,1.6181336892772737,1.0330994718874287,A,456.5248999999767,Correct
17,517,47,B,48.87997147990082,18.21615074081597,2.4439985739950405,0.2861386267201586,B,427.3006000000805,Correct
17,517,48,B,31.53729343580106,16.372199343224644,1.5768646717900532,0.25717390589891087,B,381.795000000011,Correct
17,517,49,B,78.52367785886744,47.315586213675,3.9261838929433726,0.7432314902458793,B,532.9802999999629,Correct
17,517,50,A,38.55311544910863,65.68170538020716,1.9276557724554317,1.03172581548854,A,473.7024000000929,Correct
17,517,51,A,27.256507097022478,42.03028659912738,1.362825354851124,0.6602101980404604,A,521.695500000078,Correct
17,517,52,A,62.42754781748316,73.1974784919702,3.121377390874158,1.1497833034583524,A,770.5555000000004,Correct
17,517,53,A,40.98769632506073,48.587104500034776,2.0493848162530366,0.7632044527825442,A,512.3780999999781,Correct
17,517,54,B,36.4010157176441,14.582103440004968,1.820050785882205,0.2290551452050303,B,501.9011000001683,Correct
17,517,55,B,45.33561769715777,30.40329602959224,2.2667808848578885,0.4775738572574135,B,500.2644000001055,Correct
17,517,56,B,43.57132496311115,17.058252881499975,2.1785662481555574,0.2679504096779862,B,390.18940000005387,Correct
17,517,57,A,33.25272578636714,59.58803209976344,1.6626362893183568,0.9360066194324479,A,533.980100000008,Correct
17,517,58,B,60.71705997444842,27.876665367628572,3.035852998722421,0.4378856356276147,B,547.505000000001,Correct
17,517,59,A,28.749061902326716,41.5045674753361,1.437453095116336,0.6519522213546889,A,627.4751999999353,Correct
17,517,60,A,14.312252066335539,36.390338158270175,0.7156126033167769,0.5716180950983495,A,471.6755999997986,Correct
17,517,61,A,21.978153565118454,53.713655123286784,1.0989076782559226,0.8437321216638676,A,392.2379999999066,Correct
17,517,62,B,41.76125872071573,29.951057763786793,2.0880629360357865,0.47047011518978066,A,1097.0770999999786,Incorrect
17,517,63,B,67.96148668047356,53.27379327206978,3.398074334023678,0.8368227878619788,B,349.24580000006245,Correct
17,517,64,A,28.04433118423035,49.111996670855234,1.4022165592115174,0.7714494397214259,A,526.3449999999921,Correct
17,517,65,A,33.26078096783681,54.96530973566479,1.6630390483918405,0.8633930663392602,A,812.4266999998326,Correct
17,517,66,B,62.84351170315471,50.43614116159892,3.1421755851577355,0.7922490527434848,B,474.818900000173,Correct
17,517,67,B,51.59943644212005,30.630615369003845,2.579971822106003,0.48114458109098535,B,350.13690000005226,Correct
17,517,68,B,38.67121912552156,13.467217795414367,1.933560956276078,0.2115425624518375,B,361.73539999981585,Correct
17,517,69,B,42.78212792509969,23.70697316112922,2.1391063962549843,0.3723882636092698,B,337.76140000009036,Correct
17,517,70,A,57.46047185144953,80.82130745471781,2.8730235925724763,1.2695381287663172,A,590.165099999922,Correct
17,517,71,B,75.3888415984377,60.37814523920437,3.769442079921885,0.94841768760431,B,727.5930999999218,Correct
17,517,72,A,18.697563041750268,37.672979590928705,0.9348781520875135,0.5917657796084992,A,497.2488999999314,Correct
17,517,73,A,40.12223924979092,70.54273954006395,2.0061119624895465,1.1080827615158158,A,625.5435000000489,Correct
17,517,74,A,27.39938582659338,58.86847161171885,1.369969291329669,0.9247037897171762,A,470.7784000001993,Correct
17,517,75,A,34.48309737542701,53.40897588159067,1.7241548687713504,0.8389462313267984,A,668.89029999993,Correct
17,517,76,B,49.02613284079409,28.034250193330266,2.4513066420397047,0.4403609722813231,B,401.06009999999515,Correct
17,517,77,B,62.2230303736143,33.24731319980017,3.1111515186807153,0.5222475745004558,B,780.641100000139,Correct
17,517,78,A,24.970227488926497,42.134962388144785,1.2485113744463248,0.6618544414893895,A,652.1468000000823,Correct
17,517,79,A,43.84993041462502,54.4932119988426,2.1924965207312512,0.8559773724303753,A,596.6875999999957,Correct
17,517,80,B,38.31524620467798,18.802493166776436,1.915762310233899,0.2953488720095857,B,382.6375999999527,Correct
17,517,81,B,49.56550735890433,37.043548083460905,2.478275367945216,0.5818786926095051,B,531.6127000000961,Correct
17,517,82,A,20.366358841324594,45.486713744490416,1.0183179420662298,0.7145036286781649,A,422.9576000000179,Correct
17,517,83,A,33.07507308989178,42.028392099887554,1.6537536544945892,0.6601804393159902,B,469.0317999998115,Incorrect
17,517,84,A,47.158769271601926,77.22332888302837,2.3579384635800964,1.2130212135233522,A,498.8527000000431,Correct
17,517,85,B,75.83449973378416,51.35917888863089,3.7917249866892075,0.8067480954546342,B,459.1240999998263,Correct
17,517,86,A,55.79194992883471,66.42501023626095,2.7895974964417354,1.0434016208643209,A,751.0185999999521,Correct
17,517,87,A,26.512607680709557,51.40389932095593,1.3256303840354777,0.8074505623629226,A,529.7965999998269,Correct
17,517,88,B,61.89375056443855,36.667015028567825,3.0946875282219275,0.5759641252140761,B,573.6895999998524,Correct
17,517,89,B,50.58506034731793,39.30941887000857,2.5292530173658965,0.6174709076945146,B,574.2582999996557,Correct
17,517,90,B,53.37054696071173,42.21644041911993,2.668527348035586,0.6631342954070918,B,615.3626999998778,Correct
17,517,91,B,37.83915373904799,13.233366058305435,1.8919576869523993,0.20786922795518434,A,415.66499999998996,Incorrect
17,517,92,B,74.8229724634143,50.03091884342608,3.7411486231707154,0.7858838354542727,B,663.1328000003123,Correct
17,517,93,B,53.163147524571706,33.24099074292477,2.6581573762285853,0.522148261580094,B,433.61430000004475,Correct
17,517,94,B,46.197879808409226,18.844039792297377,2.3098939904204614,0.29600148487717587,B,434.7361000000092,Correct
17,517,95,B,78.96840250328681,57.87396104905237,3.9484201251643407,0.9090820543292237,B,635.0489999999809,Correct
17,517,96,B,49.12512102422292,41.403643147918935,2.456256051211146,0.6503669057267775,B,620.4036000003725,Correct
17,517,97,B,52.27173928844383,38.62193970832864,2.6135869644221916,0.6066720102753659,B,354.24849999981234,Correct
17,517,98,B,66.98498209360653,54.24068647330555,3.3492491046803265,0.8520107107510201,B,580.2105000002484,Correct
17,517,99,A,14.10596587178454,34.46554565893508,0.7052982935892271,0.54138352522037,A,477.6126000001568,Correct
17,517,100,B,65.70151041987391,50.25706450560972,3.2850755209936953,0.7894361232090593,B,591.5390000000116,Correct
17,517,101,B,56.34598699790023,30.92475957341452,2.8172993498950114,0.4857649874493485,B,363.7008999999125,Correct
17,517,102,B,68.37593937244075,40.300767142721824,3.418796968622038,0.633042969948039,B,464.92710000029547,Correct
17,517,103,B,71.73680977784093,51.851937003653305,3.5868404888920464,0.8144883218253898,B,594.6209000003364,Correct
17,517,104,B,47.871250109854486,37.155209856345714,2.3935625054927243,0.5836326716364139,B,397.96579999983805,Correct
17,517,105,B,59.72958602603267,36.81681304952725,2.9864793013016335,0.5783171470249181,B,538.9476000000286,Correct
17,517,106,A,50.701287369792354,60.579560571747706,2.5350643684896177,0.9515815122495024,A,654.2601999999533,Correct
17,517,107,A,25.524078948015994,43.603175170235545,1.2762039474007998,0.6849170739400043,A,524.6302000000469,Correct
17,517,108,A,57.68081896822882,77.4045451650496,2.884040948411441,1.2158677522248957,A,534.0174000002662,Correct
17,517,109,A,49.322262014116106,60.2774358553633,2.4661131007058055,0.9468357483021967,A,710.0405999999566,Correct
17,517,110,A,22.219253375246428,54.4879176132067,1.1109626687623213,0.8558942084152802,A,486.0620999997991,Correct
17,517,111,B,68.21481459398909,41.57670076697938,3.4107407296994547,0.6530852884502177,B,458.7800999997853,Correct
17,517,112,B,72.78297271864498,45.97717203199617,3.6391486359322496,0.7222077294427663,B,416.0202000002755,Correct
17,517,113,B,86.00302936930987,65.06842253426251,4.300151468465494,1.0220923910715782,B,478.94389999964915,Correct
17,517,114,B,57.41918695808396,41.93833121674587,2.870959347904198,0.6587657662717216,B,573.5981000002539,Correct
17,517,115,B,54.08504109462513,38.72607180979179,2.7042520547312567,0.6083077135001633,B,449.7403000000304,Correct
17,517,116,A,31.525277168314087,42.47237183081482,1.5762638584157043,0.6671544566211096,A,578.2976999998937,Correct
17,517,117,B,73.89744482723597,52.43286967355303,3.6948722413617987,0.8236135908653263,B,447.0068000000538,Correct
17,517,118,A,40.423588657240835,64.9922904929468,2.021179432862042,1.020896511763077,A,487.2994000002109,Correct
17,517,119,A,60.48520513729231,83.76396416381007,3.0242602568646157,1.315761272262922,A,553.5299999996823,Correct
17,517,120,B,56.02794749911147,44.6031620571643,2.801397374955574,0.7006248312283118,B,438.79699999979493,Correct
17,517,121,A,63.04905804750504,75.35934780159175,3.1524529023752517,1.183741867163994,A,508.8799000000108,Correct
17,517,122,A,33.131005250519195,64.54397749433546,1.6565502625259598,1.0138544276483463,A,600.4608000002918,Correct
17,517,123,A,22.571761960340286,51.98337254017338,1.1285880980170142,0.8165529064051502,A,508.0594999999448,Correct
17,517,124,B,78.06173513493619,47.99393948638843,3.903086756746809,0.7538870385363549,B,943.4290999997756,Correct
17,517,125,A,54.912447217734766,78.27529023236472,2.7456223608867383,1.2295453837580295,A,633.6498000000574,Correct
17,517,126,A,60.66605811700916,82.20152560029382,3.0333029058504577,1.2912185446987816,A,561.103600000024,Correct
17,517,127,B,47.96284454049904,35.26910494929814,2.398142227024952,0.5540058050370124,B,504.83759999997346,Correct
17,517,128,B,60.10033871395831,46.9080514606691,3.0050169356979155,0.7368299493152501,B,490.24099999996906,Correct
17,517,129,B,55.04032380086518,29.83349027174996,2.7520161900432587,0.46862336934336113,B,366.6533000000527,Correct
17,517,130,A,45.67095384694281,73.51918632451748,2.2835476923471405,1.1548366782750163,A,586.2582999998267,Correct
17,517,131,B,72.00813869657105,44.92157386773178,3.600406934828553,0.705626432252787,B,376.04400000009264,Correct
17,517,132,B,77.74324137022225,63.70596627661995,3.8871620685111123,1.0006909782223417,A,541.3244999999733,Incorrect
17,517,133,A,12.79464685666731,37.402801896865185,0.6397323428333656,0.5875218383143302,A,459.97699999998076,Correct
17,517,134,A,35.207032247675,59.15109051619188,1.76035161238375,0.9291431570874664,A,690.9025999998448,Correct
17,517,135,A,46.231868148608086,73.74688354196633,2.3115934074304043,1.158413337802917,A,558.5118000003604,Correct
17,517,136,A,25.85262870508322,52.09337470812113,1.292631435254161,0.8182808164186685,A,460.5496000003768,Correct
17,517,137,A,57.42527493868002,69.93657344031308,2.8712637469340008,1.0985611266866533,A,644.0360999999939,Correct
17,517,138,B,52.5088609790101,22.524446615132543,2.625443048950505,0.35381318006137946,B,419.77429999997184,Correct
17,517,139,A,23.41821365498569,52.61942208248168,1.1709106827492846,0.8265439492523249,A,540.9051000001455,Correct
17,517,140,A,22.299221649026723,34.518190963960095,1.114961082451336,0.5422104757379331,A,553.3504999998513,Correct
17,517,141,B,41.1113989090185,22.20449919385831,2.055569945450925,0.34878745772032876,B,365.7708000000639,Correct
17,517,142,A,51.311165109718495,80.56911171192499,2.5655582554859246,1.2655766473021945,A,623.9869000000908,Correct
17,517,143,B,59.37696061203172,47.91105563167382,2.968848030601586,0.7525851019909917,B,631.194399999913,Correct
17,517,144,A,48.71025501898272,74.49183259034658,2.435512750949136,1.1701149700913676,A,706.5075999998953,Correct
17,517,145,B,63.26608870278095,41.46509416240459,3.1633044351390476,0.6513321760050963,B,438.67290000025605,Correct
17,517,146,B,51.08869227455862,39.20797808589145,2.554434613727931,0.615877479583731,B,800.3352000000632,Correct
17,517,147,B,54.78180100629073,32.43886127484725,2.7390900503145366,0.5095484413593927,B,471.5378000000783,Correct
17,517,148,A,13.94664803620713,36.81576851451581,0.6973324018103565,0.5783007395073264,A,469.0762000000177,Correct
17,517,149,B,47.89862593514743,27.944268874990037,2.3949312967573717,0.43894754903803296,B,363.97249999981796,Correct
17,517,150,B,33.3934300305944,14.37122506128659,1.66967150152972,0.22574267537811737,B,536.6967999998451,Correct
17,517,151,A,29.72794354758718,45.18499372447281,1.4863971773793592,0.7097642216865234,A,663.8680999999451,Correct
17,517,152,B,71.29289073199637,47.56792531723839,3.5646445365998183,0.7471952236157204,B,377.83649999983027,Correct
17,517,153,B,52.0460297562087,27.602187160944446,2.602301487810435,0.4335741420391679,B,407.3490999999194,Correct
17,517,154,A,64.61160620987837,77.49483908471773,3.2305803104939184,1.2172860857983618,A,715.2410000003329,Correct
17,517,155,A,41.67546367848271,49.64195832613453,2.0837731839241354,0.7797740579359747,B,582.003099999838,Incorrect
17,517,156,A,30.524395106356046,55.02996532219161,1.5262197553178023,0.8644086739174911,A,699.2768000000069,Correct
17,517,157,A,46.86317323882598,64.29180652157201,2.343158661941299,1.009893335270935,A,667.2849999999926,Correct
17,517,158,B,83.5464636954984,54.89678119432117,4.17732318477492,0.8623166225290286,B,521.3879999996607,Correct
17,517,159,A,20.403501006452952,34.563637400926254,1.0201750503226477,0.5429243467004568,A,487.72520000011355,Correct
17,517,160,A,46.40150834694081,61.5041623455218,2.32007541734704,0.9661051229494264,A,867.9118000000017,Correct
17,517,161,B,72.06591565216297,61.460238105894305,3.6032957826081486,0.965415162606785,B,907.3480000001837,Correct
17,517,162,A,46.26283170466962,65.75230468109928,2.313141585233481,1.0328347867136962,A,834.5425999996223,Correct
17,517,163,A,63.77651626851372,84.45578200107164,3.188825813425686,1.3266283214387387,A,753.1834000001254,Correct
17,517,164,B,53.95837272478799,28.659571984796273,2.6979186362393994,0.450183504012319,B,495.01869999994597,Correct
17,517,165,A,49.565509148595254,80.98505911810614,2.4782754574297625,1.2721103338798867,A,530.0704000001133,Correct
17,517,166,A,20.046558380808435,47.520937904023455,1.0023279190404217,0.7464571470548841,A,568.4199000002081,Correct
17,517,167,A,43.88623073570211,63.53519238019815,2.194311536785105,0.9980084681302235,A,636.8702999998277,Correct
17,517,168,A,60.257328053199174,85.81549524505772,3.0128664026599585,1.3479866471302158,A,589.6948000004159,Correct
17,517,169,A,61.1238748714546,69.93154963464826,3.0561937435727304,1.0984822129318048,A,527.3661999999604,Correct
17,517,170,B,31.964493224602222,16.862249492649,1.5982246612301112,0.26487159564552154,B,458.7048000003051,Correct
17,517,171,A,17.31361058257463,37.24442705557516,0.8656805291287314,0.5850340921247793,A,700.0922000001992,Correct
17,517,172,B,81.64718895524328,55.93913516035427,4.082359447762164,0.8786898803396774,B,459.8358000002918,Correct
17,517,173,A,40.29490976585106,72.33376271869894,2.014745488292553,1.1362160878178593,A,487.70180000019536,Correct
17,517,174,A,59.920530736718746,80.0007566363175,2.9960265368359376,1.2566489466513997,A,407.15840000029857,Correct
17,517,175,A,46.88387384473475,62.25250433271609,2.3441936922367375,0.9778600513961382,A,574.9430000000757,Correct
17,517,176,A,30.810990221399194,48.08831452210543,1.5405495110699599,0.7553694781308089,A,602.2335000002386,Correct
17,517,177,A,18.781211081079032,44.89857546599224,0.9390605540539516,0.7052651742030407,A,484.46740000008504,Correct
17,517,178,B,45.445046274808966,17.503678271439615,2.2722523137404482,0.2749471353417699,B,626.2755000002471,Correct
17,517,179,A,25.070680169371734,46.921583653977706,1.2535340084685869,0.7370425125106763,A,906.2958000004073,Correct
17,517,180,B,55.04629166644052,37.29552166456192,2.752314583322026,0.5858366843659334,B,459.972199999811,Correct
17,517,181,A,32.25114109198907,49.14317652259428,1.6125570545994534,0.7719392116872429,A,481.47689999996146,Correct
17,517,182,B,78.38207655227596,63.28480789555371,3.919103827613798,0.9940754378425644,B,1143.5739999997168,Correct
17,517,183,B,68.70370862680039,50.000080999776884,3.4351854313400194,0.7853994357389684,A,529.5552000002317,Incorrect
17,517,184,A,17.748279812193633,48.59347402872608,0.8874139906096816,0.7633045051052613,A,706.684100000075,Correct
17,517,185,B,60.37112030898011,51.79241972751114,3.0185560154490054,0.8135534266379403,B,1343.3724999999868,Correct
17,517,186,A,37.05021830854489,46.225200019609154,1.8525109154272446,0.7261037439616143,A,1362.1502000000874,Correct
17,517,187,A,51.487147962119444,75.46198336989359,2.574357398105972,1.1853540629008643,A,1712.780500000008,Correct
17,517,188,B,64.64804182831902,46.14100037585072,3.2324020914159513,0.7247811390502826,B,1704.2860999999903,Correct
17,517,189,B,33.46009507551693,21.092125790367863,1.6730047537758466,0.3313143371580574,B,2412.9800999999134,Correct
17,517,190,A,46.78047336584905,73.46423473327671,2.3390236682924526,1.153973500698291,A,515.0838999998086,Correct
17,517,191,A,22.229712309316376,42.23514525750039,1.1114856154658188,0.6634281103213051,A,482.8298000002178,Correct
17,517,192,B,78.27748412432874,48.183462743685546,3.9138742062164367,0.7568640629004,B,408.8880999997855,Correct
17,517,193,B,70.53466687298784,39.286712169207206,3.5267333436493917,0.6171142316723904,B,649.5320999997602,Correct
17,517,194,A,27.441711739923964,42.20675557943438,1.3720855869961983,0.6629821663010553,A,1032.6497000000927,Correct
17,517,195,A,44.447941100314814,68.3595584445828,2.222397055015741,1.0737894330607172,A,552.9859999996916,Correct
17,517,196,B,81.38018388499707,59.584223063741774,4.069009194249853,0.9359467872345334,B,471.3065999999344,Correct
17,517,197,A,31.948571869906935,61.23336046077465,1.597428593495347,0.9618513768909267,A,530.6545000003098,Correct
17,517,198,B,61.0194069523471,35.60940067310177,3.050970347617355,0.5593511577667597,B,506.9266000000425,Correct
17,517,199,A,60.02247531626158,74.14962222294109,3.001123765813079,1.164739542210251,A,484.0630999997302,Correct
17,517,200,A,54.31033046995791,78.86679955504636,2.7155165234978953,1.238836790471362,A,536.760299999969,Correct
17,517,201,A,47.99099772488927,63.43302024545942,2.3995498862444635,0.9964035519907396,A,547.5584000000708,Correct
17,517,202,B,86.61417324373444,58.38597200085033,4.330708662186722,0.9171247035528539,B,569.331599999714,Correct
17,517,203,A,48.02164580377237,78.431293365728,2.4010822901886186,1.2319958752465847,A,493.5072999996919,Correct
17,517,204,B,71.80026134065614,60.51080039423685,3.5900130670328063,0.9505014299068644,B,590.0867000000289,Correct
17,517,205,B,36.15208623225096,11.423952688604615,1.8076043116125478,0.17944702920738811,B,472.8567000001931,Correct
17,517,206,A,36.539531447037085,69.32223396241402,1.8269765723518543,1.0889111047337636,A,667.0632999998816,Correct
17,517,207,A,61.04797177890577,84.20726472060733,3.0523985889452883,1.3227246211257546,A,631.5168000000995,Correct
17,517,208,A,33.13553697512304,60.16242816381064,1.656776848756152,0.9450292117077559,A,599.8190999998769,Correct
17,517,209,B,33.241083371889744,12.016814368821713,1.6620541685944872,0.1887596787032128,B,486.46129999997356,Correct
17,517,210,A,43.42815844493613,73.02601753839005,2.1714079222468063,1.1470900010976277,A,446.72029999992446,Correct
17,517,211,B,56.16071971907146,29.119680722926276,2.808035985953573,0.4574108751701275,B,389.9329000000762,Correct
17,517,212,A,51.461596996647565,68.22966222786822,2.573079849832378,1.071749028059919,A,445.95750000007683,Correct
17,517,213,A,14.376839340538922,32.02000044636846,0.7188419670269461,0.5029689908512652,A,538.9239000000998,Correct
17,517,214,B,52.74201169495872,46.03633991509264,2.6371005847479356,0.7231371363770881,B,930.1313000000846,Correct
17,517,215,B,65.77417139440439,54.859825937838416,3.2887085697202196,0.8617361307176399,B,508.90449999997145,Correct
17,517,216,A,34.51086341676298,49.18951271235404,1.725543170838149,0.772667058853966,A,468.3639999998377,Correct
17,517,217,B,76.50507471845836,63.812255078212104,3.8252537359229177,1.0023605588135456,B,651.273499999661,Correct
17,517,218,A,20.349867095229587,43.51011335940731,1.0174933547614793,0.6834552624338656,A,405.5081000001337,Correct
17,517,219,A,15.297787502267429,33.663314185676285,0.7648893751133714,0.5287821027060284,A,495.71030000015526,Correct
17,517,220,A,18.984434365732305,45.89259841203997,0.9492217182866153,0.7208792501270569,A,412.15539999984685,Correct
17,517,221,A,63.882343325183896,76.05484043196967,3.194117166259195,1.1946666398550994,A,686.0771000001478,Correct
17,517,222,A,14.4901559184777,39.24760119724981,0.724507795923885,0.6164998779615098,A,457.14140000018233,Correct
17,517,223,B,47.35538526711357,30.044896999412217,2.3677692633556786,0.4719441384560772,B,860.1746999997886,Correct
17,517,224,A,51.198114677349814,60.60129544700193,2.559905733867491,0.9519229228716293,A,517.8807999996025,Correct
17,517,225,B,37.716744859644564,13.470258009219823,1.885837242982228,0.21159031801862033,B,600.6689999999253,Correct
17,517,226,B,50.895348240802804,34.05355218545107,2.54476741204014,0.5349119468722485,B,454.75749999968684,Correct
17,517,227,B,71.19891238190534,41.03834835459185,3.5599456190952674,0.6446288685312225,B,396.54109999992215,Correct
17,517,228,B,68.5018387259929,55.40572327688828,3.425091936299645,0.8703110660675061,B,528.9817000002586,Correct
17,517,229,A,60.82094750581893,75.25212874044426,3.041047375290946,1.1820576740898652,A,524.0241000001333,Correct
17,517,230,B,78.99269511929528,53.79192648693292,3.9496347559647638,0.8449616053689534,B,486.8182000000161,Correct
17,517,231,A,20.102399129220395,40.253577034591395,1.0051199564610198,0.6323017094629156,A,495.0865000000704,Correct
17,517,232,A,52.32686391843859,78.70435407980231,2.6163431959219294,1.236285102913184,A,576.4881000000059,Correct
17,517,233,B,55.75500353093026,42.375932720170226,2.7877501765465134,0.6656395946135106,B,639.1475999998875,Correct
17,517,234,B,36.66723371770087,27.159031552638936,1.8333616858850434,0.4266130700219194,B,368.5432000002038,Correct
17,517,235,B,41.87702219899107,22.85787323382093,2.093851109949554,0.359050633140293,B,452.11960000006,Correct
17,517,236,B,44.78101814979045,27.8678987834626,2.2390509074895224,0.43774793044555016,B,286.39560000010533,Correct
17,517,237,A,44.01615912654178,74.98081468362872,2.200807956327089,1.1777958828513284,A,526.1038999997254,Correct
17,517,238,B,78.34658757061388,64.62909139584949,3.917329378530694,1.0151913936869201,B,558.942599999682,Correct
17,517,239,B,80.21707347634432,59.57550980205514,4.010853673817216,0.9358099196400157,B,713.9873999999509,Correct
17,517,240,A,33.47047541062057,50.8041312199523,1.6735237705310286,0.79802942706307,A,654.3878000002223,Correct
17,517,241,A,46.1614104034069,76.48567783027008,2.308070520170345,1.201434217882061,A,447.8007000002435,Correct
17,517,242,A,34.92102129778499,62.21825560502078,1.7460510648892495,0.9773220736395263,A,517.6219999998466,Correct
17,517,243,A,54.270157519843416,73.3930410635101,2.7135078759921707,1.1528551931486868,A,428.8526999998794,Correct
17,517,244,B,88.42784890113455,64.73143840161406,4.4213924450567275,1.0167990566940548,B,580.8919999999489,Correct
17,517,245,B,87.21647972066599,65.5280619352912,4.360823986033299,1.029312389899439,A,709.6900000001369,Incorrect
17,517,246,B,58.74177332600377,43.24865828509557,2.9370886663001885,0.679348335730358,B,505.8251999998902,Correct
17,517,247,B,53.90373298524614,44.80588864615049,2.695186649262307,0.7038092530415435,B,564.0649000001758,Correct
17,517,248,B,79.71586064976096,67.2224958128507,3.9857930324880475,1.0559284950081118,A,522.164900000007,Incorrect
17,517,249,B,72.98537546133282,61.95317050401931,3.649268773066641,0.9731581266101147,B,619.2755000001853,Correct
17,517,250,A,50.797324384497045,79.52489675162361,2.5398662192248525,1.2491741570619377,A,422.34460000008767,Correct
17,517,251,A,26.731584953110058,53.896263076126274,1.336579247655503,0.8466005206795055,A,530.4656000002979,Correct
17,517,252,B,82.17047368480101,56.8422984331806,4.10852368424005,0.892876735854194,B,539.5723000001453,Correct
17,517,253,B,50.18200813750284,25.526124606538936,2.509100406875142,0.40096342769260185,B,721.6917000000649,Correct
17,517,254,A,44.56193882091604,53.18441236890457,2.228096941045802,0.8354187959182036,B,524.7210000002269,Incorrect
17,517,255,A,26.14005313768116,50.6187337221924,1.307002656884058,0.7951172099782877,A,425.7203000001937,Correct
17,517,256,B,75.5986869345196,62.653588818250526,3.7799343467259803,0.9841602717622574,B,932.1814999998423,Correct
17,517,257,B,72.05690072469777,56.65606343068436,3.6028450362348883,0.8899513632757766,B,763.1350999999995,Correct
17,517,258,A,34.39835798386303,50.24588410455108,1.7199178991931516,0.7892605018799091,A,520.6654999997227,Correct
17,517,259,A,39.65425315736845,63.21787834861214,1.9827126578684227,0.9930241109776656,A,437.9361000001154,Correct
17,517,260,A,33.46914923987438,55.53041119068902,1.6734574619937193,0.8722696592374451,A,538.3848999999827,Correct
17,517,261,B,43.17633709297871,20.941380807387976,2.1588168546489355,0.32894644050258176,B,536.4563000002818,Correct
17,517,262,B,79.1529409321528,66.70172321819216,3.9576470466076397,1.047748218220261,B,613.6821000000054,Correct
17,517,263,A,65.34573476950563,77.31199420434785,3.2672867384752813,1.2144139651337793,B,860.3410000000622,Incorrect
17,517,264,A,40.94186694498077,58.29164924807831,2.0470933472490382,0.9156430852169789,A,418.44270000001416,Correct
17,517,265,B,53.71391512009525,40.2506321931396,2.6856957560047623,0.632255452001561,B,593.5941000002458,Correct
17,517,266,A,67.73676351642908,87.32292121679342,3.386838175821454,1.3716652389233923,A,563.5529999999562,Correct
17,517,267,B,61.524478419339545,53.3657011176959,3.076223920966977,0.8382664729251103,B,545.9231000004365,Correct
17,517,268,A,49.83217022693066,64.29285820914006,2.491608511346533,1.0099098551406234,A,603.6137000000963,Correct
17,517,269,A,48.39077003512807,64.77671433876615,2.4195385017564037,1.0175102494517618,A,568.0115000000114,Correct
17,517,270,B,70.94017561317358,41.82302728087196,3.5470087806586785,0.6569545762823642,B,423.49130000002333,Correct
17,517,271,B,58.78987577326237,33.14741331113441,2.939493788663118,0.520678350718822,B,332.4566000001141,Correct
17,517,272,B,45.19873795422469,19.21339832461931,2.2599368977112344,0.30180335513559226,B,539.4091000002845,Correct
17,517,273,A,23.049228751843984,48.59214850549733,1.152461437592199,0.7632836838350732,A,630.712599999697,Correct
17,517,274,A,26.684600329063436,41.69615579295147,1.334230016453172,0.6549616836103592,A,797.6336000001538,Correct
17,517,275,B,83.76799174868772,58.07733235792348,4.188399587434386,0.912276603378726,B,510.76130000001285,Correct
17,517,276,B,64.63408433073614,34.194643772049886,3.231704216536807,0.5371282083319594,B,376.7113999997491,Correct
17,517,277,B,46.06366117381599,28.904708620768027,2.3031830586907995,0.4540341012857919,B,425.2705999997488,Correct
17,517,278,A,17.003691880574713,46.24669314128138,0.8501845940287356,0.7264413571273552,A,424.1824999999153,Correct
17,517,279,B,73.14769081460659,56.48021072581414,3.6573845407303294,0.8871890754471057,B,668.0708999997478,Correct
17,517,280,B,49.75690227669452,19.383340905091437,2.4878451138347257,0.30447280694730894,B,423.3678000000509,Correct
17,517,281,A,40.282379849011264,65.50940801434281,2.014118992450563,1.0290193747943783,A,618.1835000002138,Correct
17,517,282,B,60.009426458969386,35.586628810367166,3.0004713229484694,0.5589934581833819,B,372.6655000000392,Correct
17,517,283,A,56.69474174064952,68.6793550009874,2.834737087032476,1.0788127856219372,A,428.1266000002688,Correct
17,517,284,A,30.801884852665076,51.406424941598544,1.5400942426332538,0.8074902347192054,A,476.42580000001544,Correct
17,517,285,A,51.8430967854434,81.48550871867302,2.5921548392721703,1.279971377823051,A,504.8602999995637,Correct
17,517,286,B,63.531421055776775,52.014875276272775,3.1765710527888387,0.8170477502266397,B,527.2312000001875,Correct
17,517,287,A,39.4614014309335,56.925124803893915,1.9730700715466751,0.8941777694429761,A,391.518399999768,Correct
17,517,288,B,58.837023024137366,34.43348098047683,2.941851151206868,0.5408798544289494,B,421.3188999997328,Correct
17,517,289,B,42.65250402075637,23.142769454703707,2.1326252010378184,0.3635257725130972,B,434.8641999999927,Correct
17,517,290,B,55.09121840147266,43.54196378398078,2.754560920073633,0.6839555677331343,B,348.2528999998067,Correct
17,517,291,B,55.482236080985565,43.95120682140552,2.7741118040492783,0.690383942332666,B,399.8376999998072,Correct
17,517,292,A,28.617918962643387,42.65644023388939,1.4308959481321692,0.670045796335395,A,596.8339000000924,Correct
17,517,293,B,61.33569956632486,51.53541937041951,3.0667849783162433,0.8095164744688953,B,507.2199000001092,Correct
17,517,294,B,46.165373350413205,22.95980054745046,2.30826866752066,0.36065170363878635,B,538.3641999997053,Correct
17,517,295,B,42.69620907320491,32.56180326935843,2.1348104536602452,0.5114796096932628,B,539.5034000002852,Correct
17,517,296,A,55.24967285986767,70.8899419788598,2.762483642993384,1.1135366046709632,A,655.9429000003547,Correct
17,517,297,B,67.68633714201972,40.663458249573345,3.3843168571009863,0.6387401085320745,B,435.0196999998843,Correct
17,517,298,A,67.32173786450475,83.11365928756577,3.366086893225238,1.3055463071539084,A,646.0336000000098,Correct
17,517,299,A,44.733704476084675,58.50370255360619,2.236685223804234,0.918974010751058,A,509.2266000001473,Correct
17,517,300,A,41.53644340910542,54.7738151051836,2.076822170455271,0.8603850757176521,A,598.8901999999143,Correct
17,517,301,B,62.13899576882998,48.516067276286556,3.106949788441499,0.7620886026812501,B,805.2761999997529,Correct
17,517,302,A,41.22276087542308,63.5726568665146,2.061138043771154,0.9985969589051348,A,426.79839999982505,Correct
17,517,303,B,67.3745338602953,44.37075150189814,3.368726693014765,0.6969741347631074,B,439.49270000030083,Correct
17,517,304,A,61.47274663706937,83.8382889021668,3.0736373318534684,1.3169287625229293,A,477.03980000005686,Correct
17,517,305,A,40.94982669175392,60.59080450469501,2.0474913345876957,0.9517581315352258,A,494.1675000000032,Correct
17,517,306,A,21.802952455638966,47.10500162774563,1.0901476227819484,0.7399236353053046,A,507.16000000011263,Correct
17,517,307,B,67.06424074427926,41.72097468233964,3.3532120372139627,0.6553515378132198,B,401.77489999996396,Correct
17,517,308,A,57.03251279590235,75.77215331861781,2.851625639795117,1.190226201062246,A,690.1127999999517,Correct
17,517,309,B,72.37234775368363,50.16792885226101,3.6186173876841816,0.788035983640393,B,511.0768999998072,Correct
17,517,310,A,37.29852802930448,49.205888026876096,1.8649264014652238,0.7729242816929794,B,445.99120000020775,Incorrect
17,517,311,A,24.677371891613618,47.03669889324889,1.2338685945806809,0.7388507384607295,A,389.42679999991014,Correct
17,517,312,A,53.06272003840155,81.38025619973973,2.6531360019200774,1.2783180751217877,A,529.8509999997805,Correct
17,517,313,A,47.248888901372545,71.36770667653073,2.3624444450686273,1.121041314992701,A,411.5649999998823,Correct
17,517,314,B,53.62164547292366,43.78091525158007,2.681082273646183,0.6877090086090064,B,691.0075000000688,Correct
17,517,315,A,18.685543824751846,38.929662204638994,0.9342771912375923,0.6115057039441305,A,599.7159000003194,Correct
17,517,316,B,37.18201224274062,25.50575278459543,1.859100612137031,0.40064342786181206,B,639.7448000002441,Correct
17,517,317,B,70.03334382561191,53.47678192655057,3.5016671912805952,0.8400113261903736,B,511.72710000037114,Correct
17,517,318,B,38.49972911012031,15.142940142202129,1.9249864555060157,0.23786474752246092,A,392.873100000088,Incorrect
17,517,319,B,67.8425265439289,39.74218221578247,3.392126327196445,0.6242687384336457,B,383.7842000002638,Correct
17,517,320,B,37.71485053141105,13.6328769022182,1.8857425265705527,0.2141447296165134,B,376.0819999997693,Correct
17,517,321,B,79.50336538955465,65.2519703341502,3.975168269477732,1.024975553170127,B,742.1767999999247,Correct
17,517,322,B,70.26920617173747,42.98286798793434,3.513460308586873,0.6751733115055721,B,636.2357999996675,Correct
17,517,323,B,57.38811232524303,25.56753610167961,2.869405616262151,0.4016139179371424,B,481.49729999977353,Correct
17,517,324,A,43.74681361443383,53.066661344538836,2.1873406807216917,0.8335691671527033,A,557.386100000258,Correct
17,517,325,A,33.17669999696612,63.03826061600784,1.6588349998483063,0.990202682231645,A,499.20190000011644,Correct
17,517,326,A,65.55647294436783,78.02165592541212,3.2778236472183915,1.2255613053809262,A,498.11959999988176,Correct
17,517,327,B,86.97529556231163,65.43678850891197,4.348764778115582,1.0278786702705343,B,546.1184000000685,Correct
17,517,328,B,46.443884678258975,23.12685117417518,2.3221942339129487,0.36327572874726616,B,502.83600000011575,Correct
17,517,329,A,53.9048403191896,77.42544603976401,2.69524201595948,1.2161960623971777,A,458.6981000002197,Correct
17,517,330,A,39.024460148625984,62.95342777892066,1.9512230074312993,0.9888701311427639,A,413.45849999970596,Correct
17,517,331,B,42.14635540516922,19.43658850922947,2.107317770258461,0.3053092183572154,B,440.5541999999514,Correct
17,517,332,B,72.59535422463856,58.26478552175921,3.6297677112319273,0.9152211107907184,B,904.2876999997134,Correct
17,517,333,B,49.73207709398813,26.114822249381625,2.4866038546994065,0.41021066864230293,B,478.9309000002504,Correct
17,517,334,A,33.911362108623536,47.50740174092425,1.6955681054311769,0.7462445215021328,A,638.3845999998812,Correct
17,517,335,A,23.938885275289056,37.839934299504094,1.1969442637644527,0.5943882980382124,A,456.3014000000294,Correct
17,517,336,B,50.940343978875426,36.051550605319015,2.5470171989437715,0.5662964326609544,B,383.26409999990574,Correct
17,517,337,A,27.253500387182612,39.30268954610777,1.3626750193591306,0.6173652037218625,A,535.5391000002783,Correct
17,517,338,B,68.98430263294236,45.97766593089136,3.449215131647118,0.7222154875884701,B,564.2315000000053,Correct
17,517,339,B,66.02196957114825,44.708973284749554,3.3010984785574125,0.7022869101045576,B,392.39850000012666,Correct
17,517,340,B,49.27544458801442,25.299567707188505,2.463772229400721,0.39740468023950487,B,526.4972999998463,Correct
17,517,341,A,38.48116179462654,48.55128736057447,1.9240580897313269,0.7626418384715385,A,584.7251999998662,Correct
17,517,342,A,65.14177903614373,79.18932042624884,3.2570889518071864,1.2439029364693575,B,561.2763999997696,Incorrect
17,517,343,A,43.775450631579346,69.5490279326947,2.1887725315789677,1.092473576088325,A,490.94830000012735,Correct
17,517,344,A,44.82676020583539,60.62572719991197,2.2413380102917695,0.9523066959489117,A,499.26060000007055,Correct
17,517,345,B,82.94427616487279,67.35916366510152,4.14721380824364,1.0580752686111774,B,464.78560000014113,Correct
17,517,346,B,64.91546313261566,50.140550355544306,3.2457731566307824,0.7876059232196353,B,521.9214999997348,Correct
17,517,347,B,69.7199300316869,39.664061092674714,3.485996501584345,0.6230416147014181,B,411.5732999998727,Correct
17,517,348,A,59.9205173300876,79.11090141159511,2.99602586650438,1.2426711334676677,A,458.49060000000463,Correct
17,517,349,B,50.52473734993088,30.75755076348132,2.5262368674965443,0.48313847760484013,B,625.3965999999309,Correct
17,517,350,B,51.18981373702886,41.6245895528328,2.5594906868514427,0.6538375237393499,B,487.77789999985544,Correct
17,517,351,B,58.081865742744135,32.11950442591575,2.904093287137207,0.5045319957070088,B,395.36020000014105,Correct
17,517,352,B,65.12546193088481,33.969287135256565,3.2562730965442404,0.5335883145590216,B,400.6287999995948,Correct
17,517,353,A,41.50289896365822,58.8129542075917,2.075144948182911,0.9238317243724149,A,990.6988000002457,Correct
17,517,354,B,47.75324311958727,35.53545765695796,2.3876621559793634,0.5581896635852515,B,760.6613000002653,Correct
17,517,355,A,43.3533266322482,58.72933123966727,2.1676663316124096,0.9225181778639012,A,498.08489999986705,Correct
17,517,356,A,36.95901700764064,60.74203049113087,1.8479508503820319,0.9541335837753198,A,629.9466999998913,Correct
17,517,357,A,23.06726737758036,35.460769046666556,1.1533633688790181,0.5570164576382599,A,506.89580000016576,Correct
17,517,358,B,64.98082629643487,34.32100576137585,3.249041314821744,0.5391130978187566,B,486.2622000000556,Correct
17,517,359,B,61.90959708021411,32.36486144634242,3.0954798540107054,0.5083860547714043,B,570.4184999999597,Correct
17,517,360,B,77.69443953653122,53.922923416692655,3.884721976826561,0.8470193003298334,B,1486.004100000173,Correct
17,517,361,A,63.43037837191031,79.34196262438469,3.1715189185955155,1.2463006345108145,A,646.868099999665,Correct
17,517,362,A,60.284278819192835,75.03634657692419,3.0142139409596416,1.1786681757914133,A,446.0645999997723,Correct
17,517,363,A,32.060359339034186,61.35909458792124,1.6030179669517093,0.963826403941673,A,380.1314000002094,Correct
17,517,364,A,19.192611772662296,34.02538357188748,0.9596305886331149,0.5344694753250827,A,538.2189000001745,Correct
17,517,365,A,34.899195174071494,58.339302346216165,1.7449597587035748,0.9163916183321326,A,546.8074000000342,Correct
17,517,366,B,53.32529817215452,43.52316058194845,2.666264908607726,0.6836602077262905,B,419.8962999998912,Correct
17,517,367,B,68.28617418055867,37.90555719914426,3.4143087090279334,0.5954191001352965,B,595.1593999998295,Correct
17,517,368,A,15.56300257084617,36.73083399309367,0.7781501285423085,0.5769665911646467,A,445.60809999984485,Correct
17,517,369,A,18.007920672369703,31.675441065337264,0.9003960336184852,0.4975566647504,A,873.193600000377,Correct
17,517,370,B,76.2854755928467,57.78984736083013,3.8142737796423347,0.9077607996042971,B,510.1973000000726,Correct
17,517,371,B,58.04852697833484,37.59168538656036,2.902426348916742,0.590488813232384,B,542.1868999997059,Correct
17,517,372,B,58.60392261186683,36.68356954268444,2.930196130593341,0.5762241629137386,B,368.9663999998629,Correct
17,517,373,A,29.74071315226721,51.073415670538736,1.4870356576133605,0.8022593373215117,A,2034.3791000000238,Correct
17,517,374,A,42.66123018334389,57.770111991145264,2.1330615091671943,0.9074507971422079,A,885.9694000002492,Correct
17,517,375,B,56.05748184070371,42.502198399839386,2.802874092035186,0.6676229712717563,B,556.9047999997565,Correct
17,517,376,A,53.919956859780825,81.73407564733701,2.6959978429890414,1.2838758580081318,A,612.0848999998998,Correct
17,517,377,A,53.877247242408025,72.04206778658698,2.693862362120401,1.1316341545387978,A,465.30340000026627,Correct
17,517,378,A,15.463042748340705,41.54113870580201,0.7731521374170353,0.6525266808995109,A,519.1746000000421,Correct
17,517,379,B,70.7694563121899,47.41665938387709,3.538472815609495,0.7448191438907888,B,584.8202000001947,Correct
17,517,380,B,82.86916957475607,52.377875047874255,4.143458478737804,0.8227497373052294,B,758.6423000002469,Correct
17,517,381,B,84.08008440327708,59.980643062985344,4.204004220163854,0.9421737380213316,B,371.35699999998906,Correct
17,517,382,A,40.918323849734634,68.46259462868078,2.0459161924867315,1.075407921655798,A,432.5949999997647,Correct
17,517,383,B,52.56072073051917,26.28527681929998,2.628036036525959,0.4128881627654346,B,394.8519000000488,Correct
17,517,384,A,53.07186281297563,63.02084491152947,2.653593140648782,0.9899291169854134,A,614.9924000001192,Correct
17,517,385,A,29.24246907526934,54.263960868216884,1.462123453763467,0.8523763040913709,A,572.2728000000643,Correct
17,517,386,B,60.674502742373924,35.545702114477876,3.033725137118696,0.5583505831476744,B,320.40009999991526,Correct
17,517,387,B,61.78449031492985,39.396083957332785,3.0892245157464924,0.6188322397028169,B,570.321100000001,Correct
17,517,388,A,35.026102836221085,49.93002085007274,1.7513051418110541,0.7842989334808684,A,516.5420000002996,Correct
17,517,389,A,24.822737720883215,48.913334949333375,1.2411368860441607,0.768328868697013,A,368.4624000002259,Correct
17,517,390,B,82.80139730604063,61.57379174386676,4.140069865302031,0.9671988589809983,B,417.0162000000346,Correct
17,517,391,B,57.85321734300993,26.27593680957611,2.8926608671504965,0.41274145023576964,B,312.76290000005247,Correct
17,517,392,B,43.99051582381051,29.219394667236553,2.1995257911905255,0.4589771781446557,B,331.5452000001642,Correct
17,517,393,B,60.211516208578395,48.44245457798235,3.0105758104289198,0.7609322971202331,B,821.2150999997903,Correct
17,517,394,B,46.515335478976425,19.133763824762536,2.3257667739488213,0.3005524593369806,B,585.3351999999177,Correct
17,517,395,A,43.84820794267015,62.531301747435265,2.1924103971335076,0.9822393909457461,A,1118.072399999619,Correct
17,517,396,B,44.866802540977744,28.556674271305603,2.2433401270488873,0.44856719050845173,B,997.5209999997787,Correct
17,517,397,B,78.63970278867001,53.408911741152984,3.9319851394335,0.8389452238111592,B,515.0726999995641,Correct
17,517,398,A,36.96429448937545,62.80840988630873,1.8482147244687723,0.9865921954124203,A,373.29959999988205,Correct
17,517,399,A,44.983586841714015,57.33513490641589,2.249179342085701,0.9006181930728793,A,344.89899999971385,Correct
17,517,400,B,66.5058536744484,53.84334916099104,3.32529268372242,0.8457693508441979,B,546.018400000321,Correct
17,517,401,B,44.499843706429196,28.79815854954566,2.22499218532146,0.4523604166808337,B,440.64839999964533,Correct
17,517,402,B,78.43540367468319,65.40368353340988,3.9217701837341594,1.027358658531361,A,341.36679999983244,Incorrect
17,517,403,A,18.588156561886414,46.137117353728115,0.9294078280943208,0.7247201446814119,A,455.02769999984594,Correct
17,517,404,B,65.84392921581583,44.265583567471175,3.2921964607907914,0.6953221607121626,B,771.7142999999851,Correct
17,517,405,A,26.851340769862077,45.865595381915476,1.3425670384931039,0.720455087521738,A,686.7842999999993,Correct
17,517,406,B,80.6239336109042,51.91024744153306,4.03119668054521,0.8154042600417432,B,675.481000000218,Correct
17,517,407,A,48.94416661275318,76.78376678834732,2.447208330637659,1.2061165882861196,A,516.3385000000744,Correct
17,517,408,A,15.703476583172602,45.74036088419717,0.7851738291586301,0.7184879086316989,A,468.0644999998549,Correct
17,517,409,B,41.65490997639375,22.01536815360837,2.082745498819688,0.34581659428725375,B,524.3782000002284,Correct
17,517,410,B,54.71321912327793,36.98908191642539,2.7356609561638963,0.5810231400583654,B,780.1198000001932,Correct
17,517,411,A,37.06277533743101,50.55747629768808,1.8531387668715507,0.7941549806042849,A,526.8684000002395,Correct
17,517,412,A,41.6648483213954,58.33554073797783,2.08324241606977,0.9163325311280963,A,1508.4234999999353,Correct
17,517,413,B,77.08534136271838,60.64644611432061,3.8542670681359192,0.9526321478953943,B,384.86150000017005,Correct
17,517,414,A,49.72892538144926,58.06433326094621,2.486446269072463,0.9120724140408906,B,335.22210000000996,Incorrect
17,517,415,A,41.961780492862175,60.03212673558533,2.0980890246431088,0.9429824416594315,A,645.8645000002434,Correct
17,517,416,B,83.37190679894556,66.15300195550408,4.168595339947278,1.0391289247816142,B,396.77530000017214,Correct
17,517,417,B,54.3594114648581,40.255841726320796,2.717970573242905,0.6323372831574143,B,338.0518000003576,Correct
17,517,418,B,78.99388025506437,57.43442484283338,3.9496940127532185,0.9021778357470023,B,429.3692999999621,Correct
17,517,419,B,68.15704942552144,40.064172039041566,3.407852471276072,0.629326542750053,B,436.28750000016225,Correct
17,517,420,A,21.916466107820273,41.57654356881248,1.0958233053910136,0.6530828191871862,A,485.39389999996274,Correct
17,517,421,A,14.4776190786738,40.78209546168,0.72388095393369,0.6406036575020577,A,372.0548000001145,Correct
17,517,422,B,75.59908866332275,49.32269273168671,3.779954433166137,0.7747590457056682,B,401.56270000034056,Correct
17,517,423,B,40.47160783810335,12.577071060269642,2.023580391905168,0.19756017023309952,B,421.9782000000123,Correct
17,517,424,B,81.82158542167309,65.28472290033206,4.091079271083655,1.0254900292766425,B,524.3310999999267,Correct
17,517,425,A,17.59725158504005,32.94120073377029,0.8798625792520025,0.5174391711281972,A,412.94199999993,Correct
17,517,426,B,76.94106236285297,51.778621120345825,3.8470531181426484,0.8133366786234387,B,419.5553999998083,Correct
17,517,427,B,55.96142660209302,26.677617904420966,2.7980713301046514,0.4190510421190222,B,443.04650000003676,Correct
17,517,428,B,52.740930507208354,40.27998024476376,2.6370465253604176,0.6327164501184592,B,437.2570000000451,Correct
17,517,429,B,39.96320114598539,27.461451125672298,1.9981600572992693,0.43136346556663624,B,530.8703000000605,Correct
17,517,430,B,82.17017052855026,59.25016412902778,4.108508526427513,0.9306994017587158,B,426.7942999999832,Correct
17,517,431,A,55.8726833763388,70.79071447420122,2.79363416881694,1.111977942672616,A,638.9720000001944,Correct
17,517,432,A,49.89985655104357,63.13954732732114,2.4949928275521787,0.9917936901724858,A,483.6817999998857,Correct
17,517,433,A,47.05239902102161,59.898113069814706,2.3526199510510803,0.9408773599201031,A,485.0544999999329,Correct
17,517,434,B,46.066476579967144,29.61637587352184,2.3033238289983573,0.465212944351051,B,674.0439999998671,Correct
17,517,435,A,13.64165916441807,36.22601069977645,0.6820829582209035,0.5690368454164146,A,452.26199999979144,Correct
17,517,436,A,60.29823340105337,81.94681377437067,3.0149116700526686,1.2872175406932689,A,466.91009999995003,Correct
17,517,437,B,48.83845858435703,19.089596048795368,2.4419229292178515,0.29985867353446133,B,345.2658999999585,Correct
17,517,438,A,62.48956633308558,77.62508842527761,3.1244783166542787,1.219332037655551,A,586.6421000000628,Correct
17,517,439,B,39.27577641372873,25.902655852548186,1.9637888206864362,0.40687796667415016,B,521.5660999997453,Correct
17,517,440,B,62.60653339784376,46.86128410145111,3.130326669892188,0.7360953293545149,B,537.590999999793,Correct
17,517,441,B,77.74098914338468,59.09290748778925,3.8870494571692342,0.9282292202144998,B,588.6401999996451,Correct
17,517,442,B,75.32774188216001,56.937634482421586,3.7663870941080004,0.8943742710137826,B,476.70949999974255,Correct
17,517,443,B,65.62101675613178,39.55983273249834,3.281050837806589,0.6214043994482891,B,435.8683000000383,Correct
17,517,444,B,78.07284710149102,61.185779635192915,3.9036423550745507,0.9611039790304302,B,574.909800000114,Correct
17,517,445,B,62.086123522745986,45.667316226733334,3.104306176137299,0.7173405258353369,B,334.9436999997124,Correct
17,517,446,B,62.88823630252949,46.794851684292404,3.1444118151264746,0.7350518113859847,B,290.23570000026666,Correct
17,517,447,B,60.706679611795266,36.54668625249261,3.0353339805897632,0.5740740052194094,B,380.7274000000689,Correct
17,517,448,B,82.76344579134464,60.72330636947021,4.1381722895672315,0.9538394659600494,B,470.97100000019054,Correct
17,517,449,A,61.501458684254985,78.03174757974011,3.0750729342127494,1.2257198247164234,A,364.7654999999759,Correct
17,517,450,B,48.733625325582615,20.845492733431545,2.436681266279131,0.32744023415903983,B,667.1473000001242,Correct
17,517,451,A,67.65019201906381,88.14642734845219,3.3825096009531905,1.384600842990419,A,576.3927000002695,Correct
17,517,452,A,52.088348815683275,63.66627758935173,2.6044174407841636,1.0000675497805793,A,508.8215999999193,Correct
17,517,453,B,50.33334815675112,21.271688653032545,2.516667407837556,0.334134904009082,B,925.4060999996909,Correct
17,517,454,A,40.265422053596645,49.2523377232855,2.0132711026798322,0.7736539118179858,A,554.3910999999753,Correct
17,517,455,A,27.8283093533504,59.64022353043765,1.39141546766752,0.9368264405083802,A,546.3986999998269,Correct
17,517,456,A,20.215235178913332,47.78644557245191,1.0107617589456666,0.7506277317579172,A,470.2932000000146,Correct
17,517,457,A,46.41885193937364,59.03158953124982,2.320942596968682,0.9272660400055129,B,486.0115000001315,Incorrect
17,517,458,A,27.868172814392807,50.17146583105169,1.3934086407196404,0.7880915423733167,A,441.3393999998334,Correct
17,517,459,A,41.37238050358905,56.81649609422403,2.0686190251794527,0.892471433661637,B,814.332800000102,Incorrect
17,517,460,A,36.57874267965355,47.28024757696512,1.8289371339826774,0.7426763922385011,A,874.2317000001094,Correct
17,517,461,A,51.25837331939591,66.22330280815245,2.5629186659697956,1.0402332079927203,A,1648.851200000081,Correct
17,517,462,A,15.724377156207897,36.35465444533067,0.7862188578103948,0.5710575766462317,A,513.156699999854,Correct
17,517,463,B,39.031542382290354,20.621215754576696,1.9515771191145177,0.32391729961334126,B,550.6937000000107,Correct
17,517,464,B,79.22189938549843,48.93102012355462,3.9610949692749218,0.7686066667640676,B,565.3183000003992,Correct
17,517,465,A,32.53985131271265,45.687304349129725,1.6269925656356323,0.7176544985277346,B,769.4854000001214,Incorrect
17,517,466,B,71.2447142476179,48.32210404801546,3.5622357123808954,0.7590418354162349,B,436.80459999995946,Correct
17,517,467,A,61.55864775663082,84.17846662142439,3.0779323878315408,1.3222722616416025,A,470.205800000258,Correct
17,517,468,A,66.3142893450648,86.52937857956604,3.31571446725324,1.3592003003262736,A,463.6152999996739,Correct
17,517,469,A,35.13255344130378,65.30511418327505,1.7566276720651888,1.0258103348000978,A,475.75959999994666,Correct
17,517,470,B,53.222875766383964,23.569724780060664,2.661143788319198,0.3702323710808594,B,435.4960000000574,Correct
17,517,471,B,36.5942592295861,21.5198199362216,1.829712961479305,0.3380325410910448,B,636.0497999999097,Correct
17,517,472,A,15.087984848332951,30.71824856842816,0.7543992424166476,0.48252112016859544,A,411.5366000000904,Correct
17,517,473,A,35.83970999151937,54.73511112648008,1.7919854995759688,0.8597771150418538,A,1015.9577999997964,Correct
17,517,474,A,62.009035597409,75.3014910747383,3.10045177987045,1.182833055823776,A,575.953600000048,Correct
17,517,475,A,60.45857367930091,80.04018046195006,3.0229286839650458,1.257268214656318,A,567.7172999999129,Correct
17,517,476,B,41.529711764317625,32.45339320539888,2.0764855882158813,0.5097767083907102,A,443.0152999998427,Incorrect
17,517,477,B,85.2124493793506,64.65341510429116,4.260622468967529,1.0155734696056624,B,524.720200000047,Correct
17,517,478,B,78.5572824519091,54.345900155456505,3.927864122595455,0.8536634034055327,B,495.7398999999896,Correct
17,517,479,A,40.4639155981465,53.37162143496268,2.0231957799073252,0.8383594690512715,A,1265.9649999995963,Correct
17,517,480,A,31.04425885217001,60.38969551987125,1.5522129426085005,0.9485991189887599,A,464.3525999999838,Correct
17,517,481,A,32.388308805278115,48.03144242834027,1.6194154402639058,0.7544761333709745,A,861.9142000002284,Correct
17,517,482,A,49.9165588183893,80.72701592415343,2.495827940919465,1.2680570008677334,A,803.1670000000304,Correct
17,517,483,A,31.656581731210736,52.41592896066151,1.5828290865605368,0.8233474867694935,A,617.4924000001738,Correct
17,517,484,A,66.91408135116225,83.70597675775254,3.345704067558113,1.3148504082185668,A,724.0117000001192,Correct
17,517,485,A,29.87381847469322,44.917412135561875,1.493690923734661,0.705561059916731,A,450.64959999990606,Correct
17,517,486,B,40.15190916649643,31.561257315954514,2.0075954583248214,0.49576307060929903,A,881.040700000085,Incorrect
17,517,487,A,34.58345594735984,42.36154967656432,1.7291727973679918,0.6654136662928678,A,641.0491999999977,Correct
17,517,488,A,56.0403318834922,69.4221146811154,2.8020165941746096,1.0904800273943014,A,635.5401000000711,Correct
17,517,489,B,47.329551996888625,30.046005457707462,2.366477599844431,0.47196155007826296,B,471.38600000016595,Correct
17,517,490,A,27.469641421014437,58.75590671081241,1.3734820710507218,0.9229356243884775,A,595.567100000153,Correct
17,517,491,A,49.10242521015284,68.06394656722972,2.455121260507642,1.0691459725496855,A,860.6850999999551,Correct
17,517,492,A,44.03167582106889,76.21931533743124,2.2015837910534444,1.1972502056285892,A,676.4195000000655,Correct
17,517,493,A,31.103453199643575,63.259298095924684,1.555172659982179,0.9936747308470188,A,446.0994999999457,Correct
17,517,494,A,61.961159906840166,74.94870698915018,3.0980579953420087,1.1772915363658412,A,500.20150000000285,Correct
17,517,495,B,77.57745576403553,53.184651403296314,3.878872788201777,0.835422550661649,B,425.9823000002143,Correct
17,517,496,B,58.236846984311605,29.523418333728632,2.91184234921558,0.46375277073050053,B,878.4273000001122,Correct
17,517,497,A,30.66557567620077,56.56264345376086,1.5332787838100383,0.8884839257097698,A,502.457399999912,Correct
17,517,498,A,57.37744182878889,75.02081556574619,2.8688720914394445,1.178424215238315,A,493.0767000000742,Correct
17,517,499,A,29.64554638499195,43.368123946309716,1.4822773192495975,0.681224897948491,A,795.4544999997779,Correct
17,517,500,A,14.41999547369285,36.272212272025854,0.7209997736846425,0.5697625780162299,A,401.2606000001142,Correct
17,517,501,B,82.13112757351486,57.77395751995451,4.106556378675743,0.9075112025674893,B,451.19670000030965,Correct
17,517,502,B,55.28169695756215,23.845565833734646,2.7640848478781073,0.37456527221976266,B,617.5766999999723,Correct
17,517,503,B,53.73897022392386,41.23645418435029,2.6869485111961926,0.647740707628235,B,492.0558999997411,Correct
17,517,504,B,78.19699994656763,53.225384917429835,3.9098499973283816,0.8360623912054327,B,791.3507999996909,Correct
17,517,505,A,46.83331577372284,56.74100311689193,2.3416657886861416,0.8912855927467161,A,481.9145999999819,Correct
17,517,506,B,70.3684019181166,41.59634362884868,3.5184200959058303,0.653393837802938,B,563.5879999999815,Correct
17,517,507,B,76.60678693967043,57.45731690716181,3.8303393469835214,0.9025374234526008,B,566.3248000000749,Correct
17,517,508,B,65.36874106024248,54.978469260899104,3.268437053012124,0.8635997756782645,A,852.9855000001589,Incorrect
17,517,509,B,62.076086585850824,47.413770601594294,3.1038043292925415,0.7447737670048017,B,535.194600000068,Correct
17,517,510,B,82.45490087015338,66.0099935257003,4.122745043507669,1.0368825536192494,B,446.66319999987536,Correct
17,517,511,B,32.63131099427787,13.104059882035575,1.6315655497138934,0.20583809128801844,B,726.4263000001847,Correct
17,517,512,A,53.88545487643235,81.7351291215788,2.6942727438216174,1.2838924059428256,A,570.6044999997175,Correct
17,517,513,A,18.528029211361886,46.753848966340676,0.9264014605680942,0.734407742198513,A,466.5826000000379,Correct
17,517,514,B,56.96917256720291,47.83289046450494,2.848458628360145,0.7513572864162699,B,560.3819999996631,Correct
17,517,515,B,72.58797288346442,43.993219464482074,3.629398644173221,0.6910438753869019,B,434.05859999984386,Correct
17,517,516,A,15.411528810704919,37.18849653736065,0.770576440535246,0.5841555375991083,A,396.84630000010657,Correct
17,517,517,B,64.22418243198523,52.33414372450076,3.2112091215992615,0.8220628072840198,B,417.53349999999045,Correct
17,517,518,B,48.77019581813799,28.607885178918167,2.4385097909069,0.4493716095641481,B,355.75250000010783,Correct
17,517,519,B,61.08312249751726,33.348349201524556,3.0541561248758633,0.523834644304283,B,398.8251000000673,Correct
17,517,520,B,71.36463993626279,60.39232729763724,3.5682319968131395,0.9486404588572372,A,383.1246999998257,Incorrect
17,517,521,A,42.77419687245917,71.8233407335767,2.1387098436229586,1.1281983980244057,A,523.8060000001497,Correct
17,517,522,A,14.074363348933026,34.38800121814696,0.7037181674466513,0.5401654599928367,A,491.31169999964186,Correct
17,517,523,B,80.72984364110162,61.765527681858345,4.036492182055081,0.9702106400521159,B,335.9786000000895,Correct
17,517,524,B,80.21668841945039,63.652176831983454,4.01083442097252,0.9998460556017883,B,411.0230999999658,Correct
17,517,525,B,56.325354659892305,25.234717723918983,2.8162677329946155,0.3963860190843802,B,354.23709999986386,Correct
17,517,526,B,43.09910707343443,20.25218910239073,2.1549553536717214,0.31812064251590993,B,1891.9259999997848,Correct
17,517,527,B,53.584730119441595,43.10475734413326,2.6792365059720797,0.6770879450354987,B,488.8776000002508,Correct
17,517,528,A,29.230999817577676,43.68172723119676,1.4615499908788836,0.6861509668282049,A,510.98080000019763,Correct
17,517,529,A,66.8624078091083,84.08974016417285,3.343120390455415,1.3208785497102,A,1013.6112000000139,Correct
17,517,530,B,80.16120444750173,58.27437675083357,4.008060222375087,0.9153717694647129,B,668.5287000000244,Correct
17,517,531,B,50.867764014147085,35.9364319666827,2.5433882007073545,0.5644881533137989,A,809.8049999998693,Incorrect
17,517,532,A,11.754786433358067,34.8305027954014,0.5877393216679033,0.547116258514359,A,493.9737000004243,Correct
17,517,533,A,40.90496530649698,54.49787474439737,2.045248265324849,0.8560506146662774,A,682.3571999998421,Correct
17,517,534,B,87.1894940598752,62.91180431021463,4.35947470299376,0.9882163112252447,B,636.3166000001002,Correct
17,517,535,A,51.72703598248233,76.22685251621759,2.5863517991241163,1.1973685993561092,A,702.8256999997211,Correct
17,517,536,B,82.61277778794711,60.49231838544016,4.130638889397355,0.9502111151915679,B,455.949099999998,Correct
17,517,537,A,13.949013990903893,36.801879099422266,0.6974506995451947,0.5780825650852237,A,462.0297000001301,Correct
17,517,538,B,52.269630036317665,21.19662871601628,2.6134815018158832,0.33295586527553606,B,421.5049999997973,Correct
17,517,539,A,27.8697107131736,45.27442087871768,1.39348553565868,0.7111689401405589,A,811.8493000001763,Correct
17,517,540,B,78.50024344386372,61.76993662847869,3.925012172193186,0.9702798956236786,B,496.52640000022075,Correct
17,517,541,A,36.33808270006726,51.273281308071326,1.8169041350033632,0.8053988194143986,A,598.3917999997175,Correct
17,517,542,B,83.33860736557556,59.1231012165068,4.166930368278778,0.9287035021961175,B,474.24009999986083,Correct
17,517,543,A,59.255075952651325,87.05404258377428,2.9627537976325664,1.3674417032323913,A,472.89500000033513,Correct
17,517,544,A,18.553620897627876,40.12684378283586,0.9276810448813939,0.630310988199512,A,450.32880000007935,Correct
17,517,545,B,73.2780881794051,52.86784418104653,3.6639044089702555,0.8304461544515284,B,519.5545999999922,Correct
17,517,546,B,76.24618430708581,47.17653446885032,3.8123092153542903,0.7410472705458291,B,507.4393999998392,Correct
17,517,547,A,32.2050970142729,50.3162292611571,1.610254850713645,0.7903654810159547,A,399.8507999999674,Correct
17,517,548,A,16.40051557053655,31.583899867870084,0.8200257785268277,0.4961187389830815,A,381.3314999997601,Correct
17,517,549,B,58.93614360758868,46.23897069818335,2.946807180379434,0.7263200532748327,A,680.1923999996689,Incorrect
