subject,day,trial,cat,x,y,xt,yt,resp,rt,fb
7,407,0,B,74.16370301953629,63.75616282772093,3.7081851509768144,1.0014794638032136,A,1158.5729999997056,Incorrect
7,407,1,B,61.57435372666029,54.33360659984456,3.078717686333015,0.8534702966855479,A,1210.2117999997972,Incorrect
7,407,2,A,31.86799582927584,45.94361627261722,1.5933997914637923,0.7216806368070137,A,559.4860999999582,Correct
7,407,3,B,88.02559059897247,65.42498767929277,4.401279529948623,1.0276933032723443,B,632.8669999998056,Correct
7,407,4,B,58.0969592449094,45.08192559694372,2.9048479622454697,0.7081452313252001,A,1476.2056999998094,Incorrect
7,407,5,B,31.347895421152966,12.052875159491517,1.5673947710576481,0.18932612027846726,B,616.6788000000452,Correct
7,407,6,B,88.83159248147882,65.53834909216818,4.441579624073941,1.0294739801817943,A,1256.9382000001497,Incorrect
7,407,7,B,82.42195878638037,65.2718243838886,4.121097939319019,1.025287419854138,B,1156.2739999999394,Correct
7,407,8,A,36.492586773103106,44.52053854726873,1.8246293386551553,0.6993269841698032,B,1313.274199999796,Incorrect
7,407,9,B,40.76935305453007,15.415477896940729,2.0384676527265038,0.24214576056302411,B,575.6340000002638,Correct
7,407,10,B,67.90611444151835,53.00532676845365,3.3953057220759177,0.832605725884502,B,1941.4354999998977,Correct
7,407,11,B,45.75748674077262,19.0504467160885,2.2878743370386307,0.2992437172543372,B,703.6662999998953,Correct
7,407,12,A,29.414305327147368,55.67234630330196,1.4707152663573684,0.8744991707728015,A,847.7188000001661,Correct
7,407,13,A,43.371110457921425,62.06376579089683,2.1685555228960713,0.9748953533139949,A,929.6402999998463,Correct
7,407,14,B,84.9797840004187,65.09254932997025,4.248989200020935,1.0224713738923286,B,794.4766000000527,Correct
7,407,15,A,65.67461576628256,83.30848377878581,3.283730788314128,1.3086066031056898,A,597.7982999997948,Correct
7,407,16,A,16.070407158647196,45.175151647477826,0.8035203579323599,0.709609622702606,B,528.0935000000682,Incorrect
7,407,17,A,24.072395322812582,39.955906982451324,1.2036197661406292,0.627625919217931,A,1076.2131000001318,Correct
7,407,18,B,42.16206213451261,14.37164307120581,2.1081031067256304,0.22574924146257414,B,561.486000000059,Correct
7,407,19,A,16.11600763329886,33.40769275537458,0.805800381664943,0.5247668106683486,A,536.6338000003452,Correct
7,407,20,B,64.62244374758298,35.179294992338846,3.2311221873791487,0.5525950735319995,B,1034.3542000000525,Correct
7,407,21,A,60.58178205308121,71.85218232208383,3.0290891026540607,1.128651440637265,A,978.0691999999362,Correct
7,407,22,B,57.31680066666337,44.00137725443581,2.8658400333331686,0.6911720176518428,B,730.0945000001775,Correct
7,407,23,B,75.35210640600889,61.43940507504322,3.7676053203004445,0.9650879181234161,B,1180.6139000000258,Correct
7,407,24,A,28.630232731845297,54.54761997562924,1.4315116365922649,0.8568320109312233,A,593.5850999999275,Correct
7,407,25,B,65.00700074608284,44.50084275555399,3.250350037304142,0.6990176033970149,B,1406.2911000000895,Correct
7,407,26,A,25.211398257503284,52.87691669166682,1.2605699128751642,0.8305886651150999,A,549.2262000002484,Correct
7,407,27,B,36.73814706866409,14.945966167287633,1.8369073534332045,0.23477068755976213,B,617.3587000002954,Correct
7,407,28,A,36.11469225451383,51.71691843535889,1.8057346127256915,0.8123674551141301,A,632.000699999935,Correct
7,407,29,A,26.454764654473173,52.26595101713384,1.3227382327236585,0.8209916387415583,A,421.83780000004845,Correct
7,407,30,A,24.391583146170504,53.116838186460235,1.2195791573085253,0.8343573431425063,A,504.3044999997619,Correct
7,407,31,B,33.07218503298236,19.610055664353506,1.653609251649118,0.3080340340580994,B,570.2750000000378,Correct
7,407,32,A,33.12584485831447,41.130324567730554,1.6562922429157236,0.6460736275087305,A,735.779900000125,Correct
7,407,33,A,46.90330166663056,65.09009699762085,2.345165083331528,1.0224328527458635,A,1790.9717999996246,Correct
7,407,34,B,71.99200867089435,43.89600349037051,3.599600433544717,0.6895168104364995,B,790.7355999996071,Correct
7,407,35,A,22.3336380106416,48.80499031093926,1.11668190053208,0.7666269950968391,A,1042.902099999992,Correct
7,407,36,B,34.179081012758374,20.80205195740758,1.7089540506379188,0.3267578680449241,B,623.6039000000346,Correct
7,407,37,A,31.656156796224273,43.38111340491496,1.5828078398112138,0.6814289358871328,A,762.1070999998665,Correct
7,407,38,B,40.86839028855472,25.96382774184702,2.043419514427736,0.40783885246428736,B,1628.312199999982,Correct
7,407,39,B,33.03991796276924,14.901713396794566,1.651995898138462,0.23407556666635207,B,752.4880000000849,Correct
7,407,40,A,56.71359911835043,80.38595593826045,2.8356799559175214,1.262699643137159,A,871.9946999999593,Correct
7,407,41,B,81.52219443322775,60.78369549504234,4.076109721661387,0.95478805612632,B,598.5977999998795,Correct
7,407,42,A,56.31528074297441,70.38967818074163,2.8157640371487207,1.105678479305838,A,924.6736999998575,Correct
7,407,43,A,39.545230610596015,69.93029373522485,1.9772615305298007,1.0984624853097935,A,1113.1233999999495,Correct
7,407,44,B,64.69803665050831,34.724887387781415,3.2349018325254155,0.5454572555709347,B,693.8347000000249,Correct
7,407,45,B,59.07345527811371,43.1103471968365,2.953672763905686,0.6771757502364343,B,1005.8717000001707,Correct
7,407,46,A,54.586008418275455,80.25054738199577,2.729300420913773,1.2605726505091877,A,747.949300000073,Correct
7,407,47,B,39.3508290011125,18.704138725861604,1.9675414500556252,0.2938039240644559,B,2543.012400000407,Correct
7,407,48,A,67.19140918681644,86.61313015631167,3.359570459340822,1.3605158670174264,A,1298.3292999997502,Correct
7,407,49,B,49.89075260250059,32.801563864471674,2.4945376301250293,0.5152457603144032,B,1928.4523999999692,Correct
7,407,50,A,54.09662435290646,73.07058345505484,2.704831217645323,1.147790040879601,A,1304.7286999999415,Correct
7,407,51,A,60.8442443507659,87.84597570177257,3.0422122175382946,1.379881359560581,A,762.3889999999847,Correct
7,407,52,A,30.582216024681333,47.83760095581361,1.5291108012340666,0.7514312786407205,A,903.3803000002081,Correct
7,407,53,B,51.10706457845622,29.661688962712617,2.555353228922811,0.465924720691617,B,924.9217999999928,Correct
7,407,54,A,44.16076160992773,61.500488403444926,2.2080380804963866,0.9660474128022344,A,1430.059700000129,Correct
7,407,55,B,66.22720586807475,32.92889523770101,3.3113602934037374,0.5172458768479472,B,1724.9380999996902,Correct
7,407,56,A,32.66785845791514,44.679492301557644,1.6333929228957569,0.701823823903476,A,1105.9433999998873,Correct
7,407,57,B,64.54312799214213,46.706596302987286,3.2271563996071064,0.7336654990982453,B,1363.6242999996284,Correct
7,407,58,A,45.01271619150133,70.56825528201658,2.250635809575067,1.1084835618531619,A,725.8785999997599,Correct
7,407,59,A,53.581830894638884,79.25370952317638,2.679091544731944,1.2449143580387518,A,698.3205999999882,Correct
7,407,60,A,39.89535637128717,67.87910095084283,1.9947678185643585,1.0662424243972388,A,672.3555000003216,Correct
7,407,61,A,58.0707478885966,66.1230349829128,2.90353739442983,1.0386582046768986,A,1382.1881999997458,Correct
7,407,62,A,63.73979164909084,81.56018314403278,3.186989582454542,1.281144360953657,A,762.9228000000694,Correct
7,407,63,B,45.0696836113174,30.876759068246052,2.25348418056587,0.48501099727731906,B,1436.0139999998864,Correct
7,407,64,A,46.27034113558645,66.19690875500721,2.3135170567793226,1.0398186111754226,A,819.5031000000199,Correct
7,407,65,A,46.43871954227,57.923960475701946,2.3219359771135,0.9098674434864539,A,841.2737999997262,Correct
7,407,66,A,27.46048966362423,39.38574205646135,1.3730244831812115,0.6186697895038077,A,719.9157000000014,Correct
7,407,67,B,41.20483023432092,28.806822214496233,2.060241511716046,0.4524965052116431,B,1151.1513999998897,Correct
7,407,68,B,49.680420818352765,33.90336290051554,2.484021040917638,0.5325527791012418,B,537.6320000000305,Correct
7,407,69,B,54.04229596535139,34.24341798367055,2.7021147982675693,0.53789435185652,B,597.4949999999808,Correct
7,407,70,B,64.88884976128475,41.17764996871687,3.2444424880642373,0.6468170131690645,B,816.8353000000934,Correct
7,407,71,A,24.592424160783168,55.08115153400035,1.2296212080391584,0.8652127050524083,A,718.633200000113,Correct
7,407,72,A,44.48513636097092,53.673162813526574,2.2242568180485462,0.8430960699495197,A,907.8975000002174,Correct
7,407,73,B,84.17559530582724,64.31920105429272,4.2087797652913626,1.0103236475846544,A,2230.395099999896,Incorrect
7,407,74,B,64.98931833428482,35.55442160169473,3.249465916714241,0.558487548532592,B,681.2034999998104,Correct
7,407,75,B,80.31103156002105,50.06344452544215,4.015551578001053,0.7863947476726462,B,1965.8935000002202,Correct
7,407,76,A,50.56273456043493,65.49359579168834,2.528136728021747,1.0287709969817374,A,1634.3535000000884,Correct
7,407,77,B,39.58458423770425,17.129690882084358,1.9792292118852124,0.2690725551671014,B,535.578500000156,Correct
7,407,78,A,24.603150861499515,42.98616352912467,1.2301575430749758,0.6752250777455377,A,612.0203000000402,Correct
7,407,79,A,52.73760265790376,81.940249494103,2.636880132895188,1.287114429219944,A,707.2244000000865,Correct
7,407,80,B,37.082414774580926,12.0662110913151,1.8541207387290461,0.189535600605696,B,527.9528000000937,Correct
7,407,81,B,37.663137075596794,14.217125014744145,1.8831568537798398,0.2233220775074394,B,524.8912000001837,Correct
7,407,82,B,66.37149760475266,39.42531077312846,3.3185748802376334,0.6192913334517743,B,1258.4325000002536,Correct
7,407,83,B,69.10189907008021,46.155104856446734,3.4550949535040103,0.7250026917133983,B,736.5451999999095,Correct
7,407,84,B,39.33992736922504,17.488428850159,1.966996368461252,0.27470759799243655,B,683.5891000000629,Correct
7,407,85,B,72.86473551447793,46.03723168731949,3.6432367757238966,0.7231511443024708,B,976.2875000001259,Correct
7,407,86,A,41.42892401179314,56.765050293714495,2.071446200589657,0.891663324916943,A,659.6190999998726,Correct
7,407,87,B,74.60256768655718,61.84948422911606,3.730128384327859,0.9715294264125437,B,770.2455999997255,Correct
7,407,88,B,53.076327461718954,26.0439435680058,2.6538163730859474,0.40909730891877083,B,604.7641000000112,Correct
7,407,89,A,31.434316188748127,58.80091892489445,1.5717158094374064,0.9236426745938873,A,700.7691000003433,Correct
7,407,90,B,84.96722140096927,64.46208482078092,4.248361070048463,1.0125680605402374,B,648.3828000000358,Correct
7,407,91,B,55.4004678851517,48.4971948012455,2.7700233942575845,0.7617921545365298,B,2255.5748999998286,Correct
7,407,92,A,20.50156407775488,38.40343289608144,1.025078203887744,0.6032397132947902,A,441.51560000000245,Correct
7,407,93,A,36.356772016369675,53.32163509475919,1.817838600818484,0.8375742854554558,A,1723.2116999998652,Correct
7,407,94,A,32.04367010718233,50.12742544001364,1.6021835053591165,0.7873997575285847,A,737.5545999998394,Correct
7,407,95,B,70.68918578469213,59.1340176555272,3.5344592892346065,0.9288749772192669,B,627.7906000000257,Correct
7,407,96,A,33.076581079548326,56.32186228893919,1.6538290539774163,0.8847017440171367,A,615.6438000002709,Correct
7,407,97,B,73.92690038362852,41.71393569458321,3.696345019181426,0.6552409696520983,B,572.6752000000488,Correct
7,407,98,B,86.14428399738271,62.86309798162068,4.307214199869136,0.9874512340047744,B,542.0570000001135,Correct
7,407,99,A,26.659273488104454,36.49931166862024,1.3329636744052227,0.5733298469961078,A,686.0750000000735,Correct
7,407,100,B,37.092401224553754,24.996404420081696,1.8546200612276877,0.39264260246144045,B,940.149399999882,Correct
7,407,101,A,48.944850409063456,67.56328512594678,2.4472425204531727,1.0612816010203348,A,1211.904499999946,Correct
7,407,102,A,37.092573013280465,61.5746736339193,1.854628650664023,0.9672127116775501,A,485.85440000033486,Correct
7,407,103,A,52.077323671556144,63.88702191874825,2.603866183577807,1.003534993598348,A,752.3620000001756,Correct
7,407,104,A,19.469216592216732,42.405398035312686,0.9734608296108366,0.6661024347014469,A,538.5517000004256,Correct
7,407,105,A,15.011239479914362,34.03943770726339,0.7505619739957181,0.5346902371673303,A,447.8228000002673,Correct
7,407,106,A,29.06778133429973,61.224910076411575,1.4533890667149865,0.9617186385637514,A,548.8113000001249,Correct
7,407,107,A,36.03297638662047,67.81776888563274,1.8016488193310236,1.0652790225697713,A,564.277100000254,Correct
7,407,108,B,69.70305002812965,51.15318681778083,3.485152501406483,0.8035123795722324,B,685.1007999998728,Correct
7,407,109,A,39.15739436499906,60.5090829554916,1.9578697182499527,0.9504744524421389,A,749.9476000002687,Correct
7,407,110,A,67.73711067279382,88.40995214884057,3.3868555336396913,1.3887402808751133,A,868.3261000001039,Correct
7,407,111,A,52.2856799420611,76.77156069786929,2.6142839971030547,1.2059248554652453,A,877.1678000002794,Correct
7,407,112,A,19.119149873545236,39.75747807062157,0.9559574936772619,0.6245090051596102,A,658.9934000003268,Correct
7,407,113,A,65.60243121068955,78.51945338573495,3.280121560534477,1.2333806896025554,A,989.4988999999441,Correct
7,407,114,A,27.551742339625143,58.5982843273128,1.3775871169812572,0.9204596977782591,A,618.4871000000385,Correct
7,407,115,A,22.130887122775366,52.757421272939055,1.1065443561387682,0.828711635467036,A,473.3949000001303,Correct
7,407,116,B,76.8633080682255,52.329136803049465,3.843165403411275,0.8219841587457775,B,797.5452999999106,Correct
7,407,117,A,53.919129613393245,67.89740229943457,2.6959564806696625,1.066529901308672,A,2643.100599999798,Correct
7,407,118,A,16.38506075683795,34.15687162373509,0.8192530378418976,0.5365348848136791,A,1398.938100000123,Correct
7,407,119,B,80.9161508741004,54.37774705947021,4.04580754370502,0.8541636534039778,B,882.2920000002341,Correct
7,407,120,B,71.37469683333487,39.90760409698402,3.568734841666743,0.6268671792672745,B,613.6383999996724,Correct
7,407,121,A,30.847224475964843,64.16146438680404,1.5423612237982423,1.0078459258057335,A,1376.9732000000658,Correct
7,407,122,A,56.13239854067968,81.016902381716,2.806619927033984,1.2726105266950019,A,662.2302000000673,Correct
7,407,123,A,36.812692763627474,66.48186755836308,1.8406346381813736,1.0442947335914152,A,1368.4364999999161,Correct
7,407,124,A,49.83289700484556,76.76617279478442,2.4916448502422783,1.205840222481497,A,978.1330000000708,Correct
7,407,125,A,28.00639702649606,57.52333929140916,1.4003198513248032,0.9035745006392204,A,399.6655999999348,Correct
7,407,126,B,80.89464725531192,65.61331526424816,4.044732362765597,1.0306515460591652,B,541.158600000017,Correct
7,407,127,A,56.358430517650945,84.55769087611941,2.8179215258825474,1.328229102304667,A,462.32549999967887,Correct
7,407,128,B,54.49737011673186,45.28625393383909,2.724868505836593,0.7113548133357538,A,407.4313999999504,Incorrect
7,407,129,A,44.92712041631928,66.40761244633774,2.246356020815964,1.0431283370192637,A,699.0307999999459,Correct
7,407,130,A,30.055333619405936,43.73675958751674,1.5027666809702966,0.6870154130598276,B,705.3765000000567,Incorrect
7,407,131,A,47.43540041919484,76.53447517892906,2.371770020959742,1.2022007248423696,A,671.7243999996754,Correct
7,407,132,A,47.93024633325101,66.66558440215569,2.3965123166625504,1.047180551025413,A,1055.233899999621,Correct
7,407,133,A,41.03355601765539,73.85556217410597,2.0516778008827696,1.1601204577645776,A,849.4504000000234,Correct
7,407,134,B,87.13688290003991,65.00364615399663,4.356844145001995,1.0210748860697312,B,726.438700000017,Correct
7,407,135,B,61.446690373555384,50.97355924460522,3.0723345186777693,0.8006907962508792,B,2773.898999999801,Correct
7,407,136,B,45.16094555963355,31.011531677925785,2.258047277981677,0.48712800047969396,B,1143.6008999999103,Correct
7,407,137,B,53.25012514172707,37.11793841359109,2.662506257086353,0.5830472131826807,B,1272.4325999997745,Correct
7,407,138,A,19.288902335922437,48.88391560539181,0.9644451167961219,0.7678667507230118,A,468.5789999998633,Correct
7,407,139,B,52.822709370501556,37.36639954471143,2.641135468525078,0.5869500315038321,B,1280.457800000022,Correct
7,407,140,A,14.162268927019177,38.344083915183624,0.7081134463509587,0.6023074616828571,A,484.0429999999287,Correct
7,407,141,A,28.048492990245016,54.20532484483125,1.402424649512251,0.8514552515898507,A,502.85559999974794,Correct
7,407,142,B,71.2559214895377,46.83884521240249,3.5627960744768847,0.7357428601095657,B,551.1682999999721,Correct
7,407,143,B,59.633273308989814,36.85716391397399,2.981663665449491,0.5789509769214776,B,692.69069999973,Correct
7,407,144,A,38.67124576397941,51.21666208381013,1.9335622881989705,0.8045094467194439,A,2590.0759000001017,Correct
7,407,145,B,64.56856536884177,31.751338056728528,3.2284282684420886,0.49874885190332174,B,864.0540000001238,Correct
7,407,146,A,55.68762385001368,76.90795291200163,2.7843811925006836,1.2080672993548704,A,1261.2866999998005,Correct
7,407,147,B,74.2045303457969,48.90458083695336,3.710226517289845,0.7681913594213041,B,1034.8487000001114,Correct
7,407,148,A,23.92937618648705,48.769213916296884,1.1964688093243525,0.7660650208039369,A,642.8117000000384,Correct
7,407,149,B,58.888560671918306,39.99587180402649,2.9444280335959157,0.6282536851672439,B,1014.4572999997763,Correct
7,407,150,A,63.27555560817821,77.30828943060156,3.1637777804089104,1.2143557706838566,A,1031.5957000002527,Correct
7,407,151,A,22.729412830327664,44.14555991794161,1.1364706415163832,0.6934368336340669,A,908.017899999777,Correct
7,407,152,B,81.38137127082456,50.27855211824857,4.069068563541228,0.7897736498391063,B,730.0678999999946,Correct
7,407,153,B,56.783202378085235,26.30810543577634,2.8391601189042617,0.41324675383450327,B,1004.3217000002187,Correct
7,407,154,B,87.48557759450327,66.00022595185753,4.374278879725164,1.03672912492811,B,527.0897999998851,Correct
7,407,155,A,17.83106366646592,46.34361204956349,0.891553183323296,0.7279637557786204,A,493.4815999999955,Correct
7,407,156,A,21.695258757625144,36.3679800514723,1.084762937881257,0.5712668947780277,A,810.449300000073,Correct
7,407,157,A,56.11865776572691,66.7791809679391,2.8059328882863452,1.048964921708104,A,1185.0847999999132,Correct
7,407,158,A,66.09551691903212,84.0836432610495,3.304775845951606,1.3207827797798901,A,697.1112000001085,Correct
7,407,159,A,51.18964537430935,81.74237426055129,2.5594822687154677,1.2840062123196765,A,789.2750000000888,Correct
7,407,160,B,66.4630331845718,50.87905030855085,3.32315165922859,0.7992062533548443,B,1205.8078999998543,Correct
7,407,161,A,48.1532887544106,71.11909046722907,2.40766443772053,1.1171360607091738,A,694.9417999999241,Correct
7,407,162,A,43.54460769391435,57.20021585623823,2.1772303846957173,0.8984988895885422,A,1073.4824000001026,Correct
7,407,163,A,37.71156476672907,52.30179375414122,1.8855782383364532,0.8215546551378929,A,1608.900100000028,Correct
7,407,164,A,15.53007023206911,42.85009462534825,0.7765035116034555,0.6730877124031077,A,497.49900000006164,Correct
7,407,165,A,44.26863284770533,59.78486352594559,2.2134316423852662,0.9390984402448952,A,1008.9341000002605,Correct
7,407,166,A,42.6870259304727,53.860620062903706,2.134351296523635,0.8460406415370465,A,578.652300000158,Correct
7,407,167,A,58.37138252917477,74.46789789026809,2.9185691264587383,1.1697390047017056,A,824.1464999996424,Correct
7,407,168,B,45.219050234844524,16.58003581622222,2.2609525117422264,0.26043859358249694,B,557.399599999826,Correct
7,407,169,B,45.77349793577524,15.738233992810297,2.2886748967887622,0.2472156014614499,B,893.7378000000535,Correct
7,407,170,A,45.46574465669227,72.68868613780721,2.2732872328346136,1.1417912118481468,A,526.8405000001621,Correct
7,407,171,B,51.414038754657874,26.64789768039072,2.5707019377328937,0.41858419793163987,B,651.8156000001909,Correct
7,407,172,B,62.003288062470865,33.74037219670609,3.1001644031235434,0.5299925271127859,B,943.4148999998797,Correct
7,407,173,B,65.1620487519993,38.878829191795866,3.2581024375999648,0.6107072208455914,B,2002.48160000001,Correct
7,407,174,B,75.67205405823024,48.36230241314976,3.7836027029115122,0.7596732698591961,B,644.445899999937,Correct
7,407,175,B,39.72627530245085,18.115040504381575,1.9863137651225427,0.2845503908402335,B,692.1889000000192,Correct
7,407,176,A,45.163683243603586,60.34689085342312,2.2581841621801795,0.9479267448604958,A,613.5779000001094,Correct
7,407,177,A,41.929277866933404,73.1230126427793,2.0964638933466704,1.148613596634545,A,601.4565999998922,Correct
7,407,178,B,40.025956768643354,19.863280040818964,2.001297838432168,0.31201167326216817,B,680.3654999998798,Correct
7,407,179,A,40.306409162072676,65.7338699445112,2.0153204581036337,1.0325452145485166,A,1014.727700000094,Correct
7,407,180,A,51.88963059754977,60.25017073161637,2.594481529877488,0.9464074687398838,A,1070.7408000002943,Correct
7,407,181,A,40.31001710238064,53.07919474237615,2.015500855119032,0.8337660413055543,A,1042.3955000001115,Correct
7,407,182,A,45.72461517166111,57.55607963787028,2.2862307585830552,0.9040887847988118,A,538.6491999997816,Correct
7,407,183,B,42.44225422863083,29.999510594755876,2.1221127114315412,0.4712312104788711,A,684.3340999998873,Incorrect
7,407,184,B,86.20645413751768,67.84594241606915,4.310322706875883,1.0657215713509949,B,639.1125999998621,Correct
7,407,185,A,13.068678985329473,35.10283490600462,0.6534339492664736,0.5513940413043973,A,542.8544999999758,Correct
7,407,186,A,49.654413954156865,77.53921742512941,2.482720697707843,1.217983179139441,A,863.9441000000261,Correct
7,407,187,B,64.94109224212863,42.919974758447275,3.247054612106432,0.6741853869669865,B,603.8553000003049,Correct
7,407,188,B,63.42634899090281,54.40652973506942,3.1713174495451404,0.8546157706150436,B,1391.9925000000148,Correct
7,407,189,B,39.239195621625385,18.477272208315252,1.9619597810812692,0.29024031314011023,B,669.5331999999325,Correct
7,407,190,B,79.46768360396203,56.34511221760604,3.9733841801981016,0.8850669530426181,B,947.6321000001917,Correct
7,407,191,B,33.93633199482902,15.643435637125105,1.6968165997414508,0.24572651237248497,B,1163.3704999999281,Correct
7,407,192,B,53.810179927676955,42.87552014691976,2.6905089963838473,0.6734870955620215,B,900.2350000000661,Correct
7,407,193,B,85.70144701883203,62.19617579588801,4.2850723509416015,0.9769752448087053,B,452.2090999998909,Correct
7,407,194,A,48.12437305516049,58.08765807476676,2.4062186527580245,0.9124387993596154,A,1623.5501999999542,Correct
7,407,195,B,46.23964977569652,37.74860689024414,2.3119824887848264,0.5929537304482001,B,1582.4651000002632,Correct
7,407,196,B,52.171665380649735,25.419059110977678,2.608583269032487,0.3992816468210608,B,541.9653000003564,Correct
7,407,197,B,69.19542218213893,36.036046501558715,3.4597711091069465,0.5660528947685851,B,859.7499999996217,Correct
7,407,198,A,57.553674641369426,80.8737508378751,2.877683732068471,1.270361907502599,A,1061.7051000003812,Correct
7,407,199,A,21.48484592664376,40.49787083343348,1.074242296332188,0.6361390674817149,A,586.9694999996682,Correct
7,407,200,B,72.85148967710316,43.57457369426021,3.642574483855158,0.6844678030059745,B,508.6354999998548,Correct
7,407,201,B,61.10830762587967,37.46430065299634,3.0554153812939835,0.588487858516663,B,1019.7852000001149,Correct
7,407,202,A,43.06736899135505,67.88845017679937,2.1533684495677528,1.066389281695148,A,644.4159000002401,Correct
7,407,203,B,33.94973427537664,13.79122136915268,1.697486713768832,0.21663199868680316,B,702.6538000000073,Correct
7,407,204,B,69.00159070077723,59.728720594305926,3.4500795350388613,0.9382165491369444,B,1449.9697999999626,Correct
7,407,205,B,44.110668949122605,31.635300896225992,2.2055334474561303,0.4969261444484309,B,828.4556000003249,Correct
7,407,206,A,44.470151387956676,64.8602169285847,2.2235075693978334,1.0188219050654104,A,1121.436299999914,Correct
7,407,207,B,54.34902107874623,33.299597093343145,2.7174510539373116,0.5230688479797342,B,1408.3299999997507,Correct
7,407,208,A,16.59162515870687,36.96171225242736,0.8295812579353435,0.5805932183816283,A,525.6091000001106,Correct
7,407,209,A,25.5707513972784,45.892277406283995,1.27853756986392,0.7208742077804332,A,511.5703999999823,Correct
7,407,210,A,27.82698056805439,44.237022471700044,1.3913490284027192,0.6948735240688972,A,727.862499999901,Correct
7,407,211,A,58.78617629870809,77.66004974298315,2.939308814935405,1.219881208749869,A,807.8805000000102,Correct
7,407,212,A,29.62423959835455,39.86997194459719,1.4812119799177277,0.6262760547998885,A,710.2257000001373,Correct
7,407,213,B,64.20467526491262,39.535087699549756,3.2102337632456313,0.6210157053796685,B,2104.694699999982,Correct
7,407,214,B,70.22399817595331,47.44182245141974,3.5111999087976655,0.7452144044314579,B,620.0712999998359,Correct
7,407,215,B,73.54895203485057,55.67120174342914,3.6774476017425286,0.8744811920683612,B,675.253899999916,Correct
7,407,216,B,63.97382992554345,47.54338465265184,3.1986914962771724,0.7468097397578238,B,2123.526100000163,Correct
7,407,217,B,78.5137614652549,54.55246690622754,3.9256880732627453,0.8569081463390237,B,627.2681999998895,Correct
7,407,218,B,67.2087802536055,53.28948065979808,3.3604390126802746,0.837069204772185,B,1157.761599999958,Correct
7,407,219,A,43.18948547382,65.12707265820085,2.159474273691,1.0230136650640622,A,1247.7562999997645,Correct
7,407,220,B,76.97344203629653,48.733417123496395,3.848672101814827,0.7655027260975165,B,1189.8600999998052,Correct
7,407,221,A,12.425922987302442,36.6559488477188,0.6212961493651221,0.575790298051783,A,914.2593999999917,Correct
7,407,222,B,35.77783458174976,22.23267744070672,1.7888917290874877,0.3492300805867788,B,887.5256999999692,Correct
7,407,223,B,64.38640471650122,41.066866870351724,3.2193202358250605,0.6450768363292352,B,1310.1674000004095,Correct
7,407,224,B,78.79769244028097,49.639670725993405,3.9398846220140484,0.779738124396986,B,659.9805999999262,Correct
7,407,225,B,45.165786458508464,27.983133209264437,2.2582893229254233,0.4395580285732486,B,1698.624000000109,Correct
7,407,226,A,36.28149721201828,57.01786594327909,1.814074860600914,0.8956345438538662,A,694.5071999998618,Correct
7,407,227,A,49.95349521521037,69.55264669514185,2.497674760760518,1.09253041947592,A,1372.3333999996612,Correct
7,407,228,B,66.65113260153672,49.33761601896688,3.3325566300768354,0.7749934601541022,B,1497.5615000003017,Correct
7,407,229,B,55.98143382369072,30.55086693560913,2.7990716911845364,0.4798918956285448,B,1293.7600000000202,Correct
7,407,230,A,53.6005248601196,82.01375513933249,2.6800262430059796,1.2882690531951957,A,614.2995000000155,Correct
7,407,231,B,78.03749783668913,59.00388278277005,3.9018748918344563,0.9268308234181185,B,518.8859999998385,Correct
7,407,232,A,38.03935089108879,70.94621319452314,1.9019675445544393,1.1144205108596457,A,648.0295999999726,Correct
7,407,233,A,31.055242965843508,53.709999244990016,1.5527621482921754,0.8436746952618699,A,839.4582999999329,Correct
7,407,234,A,58.79901306619877,79.88559858856836,2.939950653309938,1.2548400482673474,A,1550.6522999999106,Correct
7,407,235,B,79.47583219017937,50.230751983175736,3.973791609508969,0.7890228070731791,B,477.56299999991825,Correct
7,407,236,A,17.260191870094616,37.67834556690591,0.8630095935047308,0.5918500681620457,A,493.59780000031606,Correct
7,407,237,B,55.48457275365788,35.7478302298344,2.774228637682894,0.5615256041591143,B,722.034800000074,Correct
7,407,238,A,59.39656723063517,78.1388983106954,2.969828361531759,1.2274029444624028,A,723.3833999998751,Correct
7,407,239,B,70.68306655121918,47.30525554419638,3.5341533275609596,0.7430692164691758,B,539.4353000001502,Correct
7,407,240,B,52.94134274700261,33.71994361168289,2.6470671373501307,0.5296716356496253,B,1639.6002000001317,Correct
7,407,241,A,35.30431741367153,61.829530382855765,1.7652158706835763,0.971215992128433,A,1069.9884999999085,Correct
7,407,242,B,72.22838616125513,48.460445869619136,3.6114193080627564,0.7612149036684065,B,724.6162999999797,Correct
7,407,243,B,60.38704454093332,41.1716792020918,3.0193522270466655,0.6467232245862365,B,647.1120999999584,Correct
7,407,244,B,74.87479340503457,55.7198137090701,3.743739670251728,0.8752447870390324,B,588.8747999997577,Correct
7,407,245,B,42.251958852516175,32.133955292043005,2.1125979426258086,0.5047589893813259,B,1180.9204999999565,Correct
7,407,246,B,42.04775217267023,29.878337975012876,2.102387608633512,0.4693278354188669,B,939.5531999998639,Correct
7,407,247,A,33.18054100360642,54.50749034524334,1.6590270501803213,0.8562016561711652,A,718.0926000000909,Correct
7,407,248,A,16.654601987179447,42.736434766742505,0.8327300993589724,0.6713023475190883,A,423.7270999997236,Correct
7,407,249,A,32.30439863054931,53.33665854004597,1.6152199315274656,0.8378102731821785,A,1031.4920000000711,Correct
7,407,250,A,17.71586076761036,32.48284708195888,0.885793038380518,0.5102393688018133,A,790.9555000001092,Correct
7,407,251,B,34.74424503245598,21.581467696615956,1.737212251622799,0.3390009018468706,B,859.1080000005604,Correct
7,407,252,B,75.56444179407318,42.8907019265629,3.7782220897036587,0.6737255703989979,B,574.4184999994104,Correct
7,407,253,A,17.4809725896932,40.131534904142896,0.8740486294846599,0.6303846761606884,A,2118.1751000003715,Correct
7,407,254,B,73.49620600699636,53.76869611220754,3.6748103003498183,0.8445967034960664,B,863.0125999998199,Correct
7,407,255,B,33.795028396291116,15.475603693786486,1.6897514198145558,0.2430902143713335,B,568.9925000006042,Correct
7,407,256,B,60.22351238240764,42.636011278621595,3.011175619120382,0.6697248990564458,B,783.6004000000685,Correct
7,407,257,A,55.196994699634935,74.83051549944071,2.7598497349817466,1.1754349887869002,A,623.0858999997508,Correct
7,407,258,B,63.68760214690496,41.271051272465186,3.184380107345248,0.6482841574175215,B,506.67949999933626,Correct
7,407,259,A,42.95644024697713,72.09193076095322,2.1478220123488567,1.1324174003085732,A,612.335499999972,Correct
7,407,260,B,53.41640117652048,32.69231178996649,2.670820058826024,0.5135296327411285,B,600.5029000007198,Correct
7,407,261,B,53.16861557948803,45.70302807394257,2.6584307789744015,0.7179014862195302,B,1847.671800000171,Correct
7,407,262,B,60.07115185755811,52.95706515909349,3.0035575928779052,0.8318476342974205,B,928.8353000001734,Correct
7,407,263,A,45.43556948067093,55.04663221786128,2.2717784740335465,0.864670476902461,B,1688.8622999995277,Incorrect
7,407,264,B,80.89240215486856,56.331127456603824,4.0446201077434285,0.8848472809304844,B,546.2167000005138,Correct
7,407,265,B,46.676180647657745,36.702267150791386,2.3338090323828875,0.576517864255081,B,659.6252999997887,Correct
7,407,266,B,68.75552530506569,51.130839627298286,3.4377762652532846,0.8031613507249908,B,1037.0702999998684,Correct
7,407,267,A,28.478766994089312,54.06394546672094,1.4239383497044655,0.8492344695116485,A,618.5468000003311,Correct
7,407,268,A,22.541206264648288,38.43461742617626,1.1270603132324144,0.603729558748048,A,568.3619999999792,Correct
7,407,269,B,76.9311108823251,64.18036609257693,3.846555544116255,1.0081428331057156,B,727.8648999999859,Correct
7,407,270,B,78.68436299600214,47.290376927033215,3.934218149800107,0.742835503697299,B,646.777199999633,Correct
7,407,271,B,87.49943052343782,69.28270092211955,4.374971526171891,1.0882901211889477,B,628.60290000026,Correct
7,407,272,A,36.697636134239886,44.42910431105144,1.834881806711994,0.6978907385458689,B,823.8932000003842,Incorrect
7,407,273,A,45.72180782923611,70.14464217805069,2.286090391461806,1.101829462776244,A,813.7268999998923,Correct
7,407,274,A,36.86834440445002,61.420054094501864,1.8434172202225012,0.9647839536318739,A,610.1592999993954,Correct
7,407,275,A,20.40657348667679,42.78964239276318,1.0203286743338396,0.6721381309541958,A,506.1602000005223,Correct
7,407,276,A,53.651493894373914,74.16367371230625,2.6825746947186957,1.164960262489059,A,669.497500000034,Correct
7,407,277,B,43.23717240078009,29.96678443746177,2.161858620039004,0.4707171492021942,B,979.5717000006334,Correct
7,407,278,A,56.70680113126208,74.92882315036553,2.835340056563104,1.1769792017565859,A,1261.7894000004526,Correct
7,407,279,A,44.90006928095427,75.80724400224024,2.2450034640477132,1.1907774042316341,A,2085.0147999999535,Correct
7,407,280,B,83.96292805743089,54.59101629404517,4.1981464028715445,0.857513678706865,B,1319.48199999988,Correct
7,407,281,A,24.960331396535715,42.29521927965251,1.2480165698267855,0.6643717508546284,A,577.4576000003435,Correct
7,407,282,B,86.70710061132297,69.68177312083388,4.335355030566149,1.0945587326276123,B,565.3364999998303,Correct
7,407,283,B,72.63318248119789,62.395317245005444,3.6316591240598943,0.9801033513765682,B,479.85049999988405,Correct
7,407,284,A,38.12833718305018,62.40748335226532,1.9064168591525088,0.9802944561425201,A,655.0311999999394,Correct
7,407,285,B,84.15406597414398,60.958500730328325,4.207703298707199,0.9575338903412375,B,500.5713000000469,Correct
7,407,286,A,55.98259229244954,77.37424360351166,2.799129614622477,1.2153917764092963,A,565.7015999995565,Correct
7,407,287,B,55.911720084628655,41.823723215963014,2.7955860042314327,0.6569655080052115,B,630.2388000003702,Correct
7,407,288,B,54.900426769815176,31.702109856552,2.745021338490759,0.4979755771432016,B,788.6084000001574,Correct
7,407,289,A,48.51173927470724,55.267680017170605,2.4255869637353618,0.8681426876144728,A,1275.5575000001045,Correct
7,407,290,B,55.97199475859145,26.311857254981778,2.7985997379295724,0.4133056872727704,B,550.0418000001446,Correct
7,407,291,B,79.0176349265437,66.264893292019,3.9508817463271853,1.0408865097855924,B,758.6153000002014,Correct
7,407,292,A,17.756983057505398,35.55911655728009,0.8878491528752699,0.5585612967224716,A,540.3918000001795,Correct
7,407,293,B,68.01124625641057,45.96746654508398,3.4005623128205285,0.7220552760108521,B,1474.7898999994504,Correct
7,407,294,B,69.71313705381898,56.43329881278237,3.485656852690949,0.8864521848403736,B,591.7528999998467,Correct
7,407,295,B,73.48741100898873,45.61892536286681,3.6743705504494364,0.7165804039232174,B,1256.3346999995701,Correct
7,407,296,B,68.1187191838033,40.3740495846696,3.405935959190165,0.6341940878543402,B,1171.8941000008272,Correct
7,407,297,B,51.170324527199746,38.6136882765148,2.558516226359987,0.6065423970875261,B,1752.6589999997668,Correct
7,407,298,A,65.73500032398381,79.79596449771235,3.2867500161991905,1.2534320792606253,A,815.5256000000008,Correct
7,407,299,B,44.39346624345552,22.631852327184117,2.219673312172776,0.3555003050410534,B,486.4569000001211,Correct
7,407,300,B,66.19721719576468,33.80356157448983,3.309860859788234,0.5309851035379373,B,711.8637000003218,Correct
7,407,301,B,34.13627576160633,21.6453777538169,1.7068137880803165,0.34000479867783556,B,640.6886000004306,Correct
7,407,302,B,77.25730553582825,50.29122761978502,3.8628652767914127,0.7899727561516436,B,1830.5325000001176,Correct
7,407,303,A,40.72592675742415,58.28575711518568,2.036296337871207,0.9155505318099317,A,629.4343999998091,Correct
7,407,304,B,39.81682004327526,18.70921160591241,1.9908410021637628,0.29388360867795665,B,586.9699000004402,Correct
7,407,305,B,84.0385562905588,66.218471052176,4.20192781452794,1.0401573109473223,B,828.9335999998002,Correct
7,407,306,B,57.71138739729471,29.53388571838686,2.8855693698647356,0.46391719202422327,B,855.1590999995824,Correct
7,407,307,A,55.76475804700103,78.41340886088733,2.7882379023500516,1.2317149461014818,A,1127.9697999998461,Correct
7,407,308,B,79.38902937711252,60.65820873272104,3.969451468855626,0.9528169146731632,B,1076.1423999992985,Correct
7,407,309,B,34.42234791551965,21.132089890956774,1.7211173957759827,0.3319420917821446,B,1410.2559999992081,Correct
7,407,310,B,73.72726496052941,46.70160904456702,3.6863632480264705,0.7335871594261718,B,485.2818000008483,Correct
7,407,311,B,47.503368600245764,38.832435010319855,2.3751684300122884,0.6099784627471198,B,1771.3661999996475,Correct
7,407,312,B,60.69963183752923,53.57452454591427,3.0349815918764613,0.8415466636650515,B,1099.1251000004922,Correct
7,407,313,B,62.7406454838948,53.49261497852987,3.13703227419474,0.8402600311892838,B,1396.7898999999306,Correct
7,407,314,A,48.49169516526021,55.19367345800645,2.4245847582630105,0.8669801953015351,A,4139.707599999383,Correct
7,407,315,A,35.60679687041235,68.71050534449472,1.7803398435206177,1.079302094073534,A,511.3439999995535,Correct
7,407,316,A,45.56521906258346,55.0625460711459,2.278260953129173,0.8649204511253075,A,1067.4667000002955,Correct
7,407,317,B,77.54179911223454,60.160388979805845,3.8770899556117273,0.944997180280312,B,1334.2766000005213,Correct
7,407,318,A,46.9045838089339,62.66498166028529,2.345229190446695,0.9843392301064569,A,3551.1060999997426,Correct
7,407,319,B,63.409473511942,50.922881073903525,3.1704736755971,0.7998947454070102,B,2211.273400000209,Correct
7,407,320,B,66.73898938132253,53.512180091734336,3.3369494690661266,0.8405673592688327,B,1563.3084000000963,Correct
7,407,321,A,56.124735518324286,77.43470709987216,2.8062367759162146,1.216341534789179,A,492.7201000000423,Correct
7,407,322,B,86.06534038472564,65.79283536095797,4.303267019236282,1.0334714411441415,B,971.6245999998137,Correct
7,407,323,A,57.01753238932369,70.768371412894,2.850876619466185,1.1116269786863087,A,1067.3872999996092,Correct
7,407,324,A,42.941498050669836,53.44387718171363,2.147074902533492,0.8394944596671337,A,1611.1141999999745,Correct
7,407,325,A,46.090906158778964,71.78775442988321,2.304545307938948,1.1276394096731461,A,1198.4490999993795,Correct
7,407,326,B,43.29029391917474,28.439004884280827,2.164514695958737,0.44671884409930446,B,532.5242999997499,Correct
7,407,327,A,50.45791527986402,61.47078864416702,2.522895763993201,0.9655808900744302,A,745.2254999998331,Correct
7,407,328,B,34.61693780716634,18.82950934438971,1.7308468903583167,0.2957732411351754,B,549.388700000236,Correct
7,407,329,A,33.59999871186731,63.287433661649864,1.6799999355933652,0.994116683279953,A,558.7817999994513,Correct
7,407,330,A,43.48572995097491,56.8980868690584,2.1742864975487453,0.8937530585557387,A,646.7824999999721,Correct
7,407,331,B,30.97751550330304,12.393304949025755,1.5488757751651518,0.1946735789077867,B,567.0930000005683,Correct
7,407,332,B,56.38109148566164,27.732975027954417,2.819054574283082,0.435628553050054,B,1004.9340000005031,Correct
7,407,333,B,58.27602379870681,32.92546283522887,2.91380118993534,0.5171919607959939,B,1506.1633999994228,Correct
7,407,334,B,82.92499100281313,56.5865485822762,4.146249550140657,0.8888594265904042,B,1167.6947000005384,Correct
7,407,335,B,50.40368771267376,35.004725066241896,2.520184385633688,0.5498529355451802,A,2177.677399999993,Incorrect
7,407,336,A,52.50931793270313,79.81556111630013,2.6254658966351565,1.2537399022255782,A,1155.9246999995594,Correct
7,407,337,B,64.4689539973725,33.46143867661473,3.223447699868625,0.5256110496249911,B,783.7700000000041,Correct
7,407,338,B,49.08299846059255,34.396800834201635,2.454149923029627,0.5403036840385956,B,604.2018999996799,Correct
7,407,339,A,54.69812422479686,81.3765880398396,2.734906211239843,1.2782604558008155,A,701.0597999997117,Correct
7,407,340,A,54.83011366801021,82.18486711287446,2.7415056834005105,1.290956873790299,A,583.0433999999514,Correct
7,407,341,A,13.871763421663012,40.820454643542014,0.6935881710831506,0.6412062021217347,A,517.3670000003767,Correct
7,407,342,A,66.03153245073096,76.95688185803003,3.3015766225365484,1.2088358734418239,A,958.2036000001608,Correct
7,407,343,A,15.561505720545991,37.816534358236865,0.7780752860272996,0.5940207326203146,A,521.5420000004087,Correct
7,407,344,B,30.763944110965365,12.031411741438756,1.5381972055482682,0.18898897369608988,B,665.8422999998947,Correct
7,407,345,A,50.428241523016816,68.29110220063507,2.521412076150841,1.0727141248953243,A,1009.56479999968,Correct
7,407,346,B,55.104915241780624,36.01743681826094,2.755245762089031,0.5657605745469155,B,1090.6887999999526,Correct
7,407,347,B,41.75150585118156,31.9377430901045,2.087575292559078,0.5016768953205524,B,1705.0489000002926,Correct
7,407,348,B,52.05536095007147,24.28470273388576,2.6027680475035733,0.38146321851693726,B,540.9267000004547,Correct
7,407,349,A,48.68784677736923,71.59152468247059,2.4343923388684616,1.1245570400087097,A,492.1415999997407,Correct
7,407,350,A,24.50022461935221,37.91634458834844,1.2250112309676104,0.5955885480486728,A,604.7177000000374,Correct
7,407,351,B,60.30704391264275,45.40382912731148,3.015352195632137,0.7132016801560401,B,1394.2411999996693,Correct
7,407,352,A,35.297257453985,51.50863348313189,1.76486287269925,0.8090957227352819,A,902.94349999931,Correct
7,407,353,A,28.287398577895956,50.882041101213424,1.4143699288947977,0.79925323261613,A,618.029000000206,Correct
7,407,354,A,53.62253441372833,64.07558321337822,2.681126720686416,1.0064969074881525,A,1471.5457000002061,Correct
7,407,355,A,21.09293404757855,33.015326287714956,1.0546467023789274,0.5186035326067764,A,888.9310000004116,Correct
7,407,356,B,51.65855327252021,25.502033304511883,2.5829276636260103,0.4005850024052838,B,2344.1554000000906,Correct
7,407,357,B,51.46296209386275,23.370910734733013,2.5731481046931375,0.3671094073597003,B,1664.1654000004564,Correct
7,407,358,A,57.11272914671004,78.05656003635214,2.8556364573355015,1.2261095778734727,A,572.5657000002684,Correct
7,407,359,A,38.37057982869818,66.90846800100087,1.918528991434909,1.0509957576744604,A,407.8862999995181,Correct
7,407,360,B,51.62899965985253,19.96825730678484,2.581449982992627,0.3136606522999298,B,743.6418999996022,Correct
7,407,361,A,62.85004188025128,82.17361943156365,3.1425020940125643,1.2907801956254192,A,718.0044000006092,Correct
7,407,362,A,10.406116163686377,32.980877685169276,0.5203058081843188,0.5180624152233566,A,558.8754000000336,Correct
7,407,363,A,57.25824462845415,85.11537818338465,2.8629122314227073,1.3369892340421907,A,609.3455000000176,Correct
7,407,364,A,51.010337398078576,59.29482176659445,2.550516869903929,0.9314008822892466,A,932.662999999593,Correct
7,407,365,A,63.31372502693172,84.20934398098393,3.1656862513465858,1.322757282071375,A,846.3761000002705,Correct
7,407,366,A,32.61736505055557,55.540649784273796,1.6308682525277787,0.8724304866893904,A,1989.5529999994324,Correct
7,407,367,A,66.5726386334125,82.17812671714417,3.3286319316706248,1.2908509959017562,A,838.9858000000459,Correct
7,407,368,B,80.41621400534851,63.726296321990716,4.020810700267425,1.0010103218282616,B,2137.206200000037,Correct
7,407,369,A,32.48151883854937,43.932694605041334,1.6240759419274684,0.6900931531180089,A,524.7817999998006,Correct
7,407,370,A,45.0726236691493,68.09570242665325,2.253631183457465,1.0696447924230523,A,1717.0788000003085,Correct
7,407,371,B,60.16184021199821,43.83786903561423,3.0080920105999103,0.6886036365565857,B,752.4473000003127,Correct
7,407,372,A,50.275465228275145,81.52979513569757,2.5137732614137573,1.2806670272349419,A,552.7301000001899,Correct
7,407,373,B,43.234918318073596,21.172428064121572,2.16174591590368,0.33257572232451343,B,498.1417999997575,Correct
7,407,374,B,72.2309160410903,42.82437834059141,3.6115458020545144,0.6726837619467592,B,752.7522000000317,Correct
7,407,375,B,64.89066394734216,41.163867560570694,3.244533197367108,0.6466005196081605,B,679.6460000005027,Correct
7,407,376,A,50.43028734421989,75.67571692449323,2.5215143672109948,1.1887113817256436,A,761.3331999991715,Correct
7,407,377,B,58.44188381770226,51.20227016043257,2.922094190885113,0.8042833789156743,B,818.1683000002522,Correct
7,407,378,B,62.91875545984896,40.18225555643147,3.145937772992448,0.6311813943037637,B,574.0568999999596,Correct
7,407,379,A,33.436999753307695,63.080152337764304,1.671849987665385,0.9908607158582268,A,530.7402000007642,Correct
7,407,380,B,72.84166400976491,45.764938082687436,3.642083200488246,0.7188739663628129,B,825.7029999995211,Correct
7,407,381,B,82.02205621867867,56.83791832409473,4.101102810933934,0.8928079332615634,B,956.7325000007258,Correct
7,407,382,A,44.98481890986759,67.32245214669936,2.2492409454933795,1.0574986054286055,A,2153.1795000000784,Correct
7,407,383,B,71.09896848481897,42.98400335483839,3.554948424240948,0.6751911458071966,B,1152.3717999998553,Correct
7,407,384,B,72.65803503953704,51.33318602650994,3.632901751976852,0.8063398005312093,B,629.0564000000813,Correct
7,407,385,A,43.39126050606238,58.22564829879849,2.1695630253031193,0.9146063447300418,B,1312.6883000004455,Incorrect
7,407,386,A,37.31351957429518,50.06686687761676,1.865675978714759,0.7864485058548948,A,1280.4384999999456,Correct
7,407,387,B,73.78996035833784,59.54117063368447,3.689498017916892,0.9352705212445973,B,1642.3971000003803,Correct
7,407,388,A,57.10859936672165,84.8898861528457,2.8554299683360824,1.3334472135092699,A,1273.2693999996627,Correct
7,407,389,B,51.128952777620746,36.1450412100915,2.5564476388810373,0.5677649796466189,B,1855.0859999995737,Correct
7,407,390,A,35.77591106993852,53.50753256193032,1.7887955534969262,0.8404943560413847,A,1743.414099999427,Correct
7,407,391,A,54.3392688034953,71.89470654383891,2.7169634401747653,1.1293194095505916,A,2009.365699999762,Correct
7,407,392,A,48.34613213340853,71.36684166825452,2.4173066066704267,1.1210277274744715,A,2910.341399999197,Correct
7,407,393,A,54.52920515741864,66.52685679117664,2.726460257870932,1.0450014228079039,A,1716.1728999999468,Correct
7,407,394,B,64.01319623636745,41.86698494362568,3.2006598118183724,0.6576450616342446,B,2119.25169999995,Correct
7,407,395,A,29.98198281910858,50.111308191132764,1.4990991409554288,0.7871465883751836,A,1564.7602999997616,Correct
7,407,396,A,59.31303020134832,82.18596007507452,2.9656515100674157,1.2909740420003908,A,1459.6698000004835,Correct
7,407,397,B,85.25582667434105,57.630233425901594,4.262791333717052,0.9052535897773869,B,1005.0888000005216,Correct
7,407,398,B,72.63243252154003,52.064612193839146,3.631621626077001,0.817829015900833,B,1114.3312000003789,Correct
7,407,399,B,86.52151681572732,68.72831795370952,4.326075840786366,1.0795818938847868,B,1070.4984000003606,Correct
7,407,400,B,69.4981077509759,40.58723206967325,3.4749053875487954,0.6375427504981477,B,1180.5801000000429,Correct
7,407,401,A,62.93914166077202,80.25776098172453,3.146957083038601,1.2606859614687564,A,1025.301099999524,Correct
7,407,402,B,46.700977455916984,29.62639069151724,2.3350488727958494,0.46537025674425797,B,1578.4469000000172,Correct
7,407,403,A,15.817980757827062,44.21053823938329,0.7908990378913531,0.6944575107204858,A,1894.5678999998563,Correct
7,407,404,B,39.03258126631968,24.166930115974992,1.951629063315984,0.3796132505608248,B,1776.8416999997498,Correct
7,407,405,A,13.961668332513103,40.07703747473016,0.6980834166256551,0.6295286325412756,A,1344.2667999997866,Correct
7,407,406,A,54.26975572412981,75.70478374521339,2.713487786206491,1.189167962277832,A,2102.924300000268,Correct
7,407,407,B,54.25238616709197,42.611295999415134,2.7126193083545984,0.6693366723585137,B,1370.2494999997725,Correct
7,407,408,A,51.31058496760497,75.30973518668527,2.5655292483802485,1.1829625540314161,A,1351.2086999999156,Correct
7,407,409,A,37.58724358256007,69.85320798411422,1.8793621791280035,1.0972516251628657,A,1661.8767999998454,Correct
7,407,410,B,60.16640740873456,36.08346227398452,3.0083203704367283,0.5667976999801712,B,1516.540999999961,Correct
7,407,411,B,61.38932769633527,53.679899303954514,3.0694663848167636,0.8432018864937167,B,1793.7885999999708,Correct
7,407,412,A,49.94891168579316,64.70901784507761,2.4974455842896583,1.0164468754155331,A,2852.591300000313,Correct
7,407,413,A,31.96928210294707,62.78494921459253,1.5984641051473534,0.9862236760428605,A,1374.5257000000493,Correct
7,407,414,B,64.79498300889743,33.19476097834652,3.2397491504448714,0.5214220861362129,B,2010.1451000000452,Correct
7,407,415,B,60.9801109636091,42.31348643843532,3.049005548180455,0.6646586907137987,B,1924.638700000287,Correct
7,407,416,B,41.52555582415044,17.42419838323478,2.076277791207522,0.2736986681773077,B,2016.2432999995872,Correct
7,407,417,A,32.26688560086539,50.38574689097676,1.6133442800432698,0.7914574613916368,A,1817.084999999679,Correct
7,407,418,B,81.3120628870341,64.84595683715108,4.065603144351705,1.0185979080729732,B,1133.5503000000244,Correct
7,407,419,A,46.532052153130905,56.60357190383273,2.3266026076565454,0.8891268283001128,A,2527.791000000434,Correct
7,407,420,B,75.54207365246326,60.60792020521211,3.777103682623163,0.9520269843302537,B,1539.9305999999342,Correct
7,407,421,A,19.63458588874855,34.406464745223545,0.9817292944374274,0.5404554843979524,A,2749.0952999996807,Correct
7,407,422,B,81.17777714058181,52.5154185944004,4.058888857029091,0.8249102662818054,B,1017.2308999999586,Correct
7,407,423,A,34.565390117524935,62.55749453408336,1.7282695058762467,0.9826508262762996,A,1265.7985000005283,Correct
7,407,424,B,47.83426789361961,21.581264014969722,2.3917133946809805,0.3389977024230532,B,1559.6143000002485,Correct
7,407,425,A,26.446773463375806,39.59315614151802,1.32233867316879,0.621927842333133,A,1518.2416999996349,Correct
7,407,426,B,44.146441773685055,20.99896178154147,2.207322088684253,0.32985092032951757,B,1204.6102000003884,Correct
7,407,427,B,71.38119415907045,38.868874557566905,3.5690597079535222,0.610550853816777,B,1390.8290999997917,Correct
7,407,428,A,49.684781166001585,67.40972318030894,2.484239058300079,1.0588694556189007,A,1643.5428000004322,Correct
7,407,429,B,37.100909218647935,17.628090091827616,1.8550454609323968,0.2769013916465233,B,2336.551999999756,Correct
7,407,430,A,38.52308372574178,50.57374254615524,1.9261541862870888,0.7944104902377143,A,2189.2453000000387,Correct
7,407,431,B,67.66089118194316,47.57948103160319,3.383044559097158,0.7473767403524973,B,1119.487200000549,Correct
7,407,432,B,57.96114454975563,35.88323974054675,2.8980572274877816,0.5636526117795149,B,2968.3138000000326,Correct
7,407,433,A,33.213329635310146,61.172971787722354,1.6606664817655072,0.9609027938328211,A,1337.4877999995078,Correct
7,407,434,A,39.40061585090203,69.42609533625671,1.9700307925451015,1.0905425553790433,A,1946.0411999998541,Correct
7,407,435,B,56.20572969354371,24.098514169010578,2.8102864846771856,0.3785385753789659,B,2316.287800000282,Correct
7,407,436,A,54.107920116735386,64.67889751241576,2.705396005836769,1.0159737463364626,A,2654.5045000002574,Correct
7,407,437,B,58.006369209918965,50.443173081509364,2.9003184604959484,0.7923595098831412,B,3913.5263999996823,Correct
7,407,438,A,35.2666920040143,52.17453769942523,1.7633346002007153,0.8195557217047901,A,2208.230100000037,Correct
7,407,439,B,58.04290181339931,37.829701523579814,2.9021450906699657,0.5942275619698647,B,3477.7842000003147,Correct
7,407,440,B,42.05418301835722,18.322254903566016,2.102709150917861,0.28780530701121276,B,3609.10259999946,Correct
7,407,441,A,25.345638078874813,46.15967192910529,1.2672819039437406,0.725074431122961,A,834.7693000005165,Correct
7,407,442,B,62.566007266251816,50.6787395498667,3.1283003633125905,0.7960597793152585,B,1278.4018000002106,Correct
7,407,443,A,28.453487735449006,41.665215921135996,1.4226743867724503,0.6544756812403667,A,934.963599999719,Correct
7,407,444,A,50.07091448700865,69.55851191213839,2.5035457243504324,1.0926225500890603,A,1026.5424999997776,Correct
7,407,445,B,86.42381447835982,69.65919437808378,4.321190723917991,1.0942040665658572,B,1528.403000000253,Correct
7,407,446,A,25.780595868777596,40.433543144502075,1.2890297934388797,0.6351286105068683,A,984.1084999998202,Correct
7,407,447,A,51.54915775669859,75.74412259711336,2.57745788783493,1.18978589551848,A,940.262399999483,Correct
7,407,448,A,29.96453252522057,54.59744606195257,1.4982266262610284,0.857614677264976,A,868.5413000002882,Correct
7,407,449,B,74.23446162960303,55.74119162390114,3.711723081480152,0.8755805905399436,B,1104.9982000004093,Correct
7,407,450,A,68.60190747159788,84.55758465105352,3.4300953735798942,1.328227433725234,A,1169.8390000001382,Correct
7,407,451,A,45.42039313789236,54.14183802635016,2.2710196568946177,0.8504580029771508,A,2538.451200000054,Correct
7,407,452,B,57.41008324743716,29.737660944346786,2.870504162371858,0.4671180857885199,B,2650.474899999608,Correct
7,407,453,A,21.525117966024673,46.25318547716064,1.0762558983012338,0.7265433385008699,A,927.9685000001336,Correct
7,407,454,B,45.592709256794386,23.660959158443852,2.2796354628397193,0.3716654773452768,B,1320.8085000005667,Correct
7,407,455,B,30.206396280957264,12.223055977729295,1.5103198140478633,0.1919993143202558,B,1504.2792000003828,Correct
7,407,456,A,63.370815864752885,79.34638243053772,3.1685407932376446,1.2463700606635177,A,1368.6297000003833,Correct
7,407,457,B,35.85149743077014,23.324015880872473,1.7925748715385068,0.36637278471780316,B,987.3847999997452,Correct
7,407,458,A,38.40063399504239,62.4429335861315,1.9200316997521196,0.9808513071139303,A,1230.9810999995534,Correct
7,407,459,B,52.76790270611235,38.72337584043123,2.6383951353056174,0.6082653653124761,B,745.498199999929,Correct
7,407,460,A,39.071450249513326,71.07800573859,1.9535725124756664,1.1164907033008373,A,1145.264099999622,Correct
7,407,461,A,54.86310803670567,64.38689836452811,2.7431554018352835,1.011387034447171,A,1221.1119000003237,Correct
7,407,462,B,77.61759790244152,57.29865932143619,3.8808798951220758,0.9000452359238412,B,1997.6923999993232,Correct
7,407,463,A,45.5102802480034,53.75278713506103,2.27551401240017,0.8443468058674183,A,2007.3427000006632,Correct
7,407,464,A,25.11645500911398,48.64872351557818,1.255822750455699,0.7641723620153071,A,2410.6767000002947,Correct
7,407,465,A,37.59397789806264,68.46554162432581,1.879698894903132,1.0754542129551408,A,1578.70819999971,Correct
7,407,466,B,71.11509633658937,44.82912416609224,3.555754816829469,0.7041742357353002,B,1955.2998999997726,Correct
7,407,467,A,12.595997925598137,38.419847841027206,0.629799896279907,0.6034975586470437,A,1035.2873000001637,Correct
7,407,468,B,49.00594486240104,30.373013191513643,2.450297243120052,0.4770981755492256,B,1433.122800000092,Correct
7,407,469,B,55.529432893752144,47.83686708159245,2.776471644687607,0.7514197509714113,B,1278.1139999997322,Correct
7,407,470,A,27.751155521165987,44.41754762652319,1.3875577760582993,0.6977092065698,A,902.1262000005663,Correct
7,407,471,B,77.17126057595148,52.888977268060884,3.858563028797574,0.8307781122060883,B,907.3811000007481,Correct
7,407,472,B,83.26359742223178,55.7124818697668,4.1631798711115895,0.8751296187765696,B,607.5458999994225,Correct
7,407,473,A,24.455346306402745,51.71898567104683,1.2227673153201373,0.8123999271763824,A,529.4908000005307,Correct
7,407,474,A,54.09019708327193,74.93587224471985,2.704509854163597,1.1770899286717758,A,844.2677000002732,Correct
7,407,475,B,46.8467697944455,20.187227501511792,2.342338489722275,0.3171002280754764,B,523.7441999997827,Correct
7,407,476,A,44.50340713793344,75.31706946489817,2.225170356896672,1.183077760604181,A,684.8866000000271,Correct
7,407,477,B,62.53893111653753,38.342128984288216,3.1269465558268768,0.6022767537001606,B,490.40880000029574,Correct
7,407,478,B,60.48041332058377,52.48330194188007,3.024020666029189,0.8244057790837268,B,669.4463999992877,Correct
7,407,479,B,37.26011505131554,17.644368617469613,1.863005752565777,0.2771570941293642,B,552.7576999993471,Correct
7,407,480,B,80.3123468827424,58.840239572018675,4.01561734413712,0.9242603218745865,B,778.1687000006059,Correct
7,407,481,A,15.600598174509713,32.239639435805756,0.7800299087254856,0.5064190720295557,A,367.15230000027077,Correct
7,407,482,B,48.68341030044623,30.185307676727433,2.434170515022312,0.47414970421777247,B,975.438600000416,Correct
7,407,483,A,42.948458942388804,75.05218719832821,2.1474229471194404,1.178916999690569,A,566.6547000000719,Correct
7,407,484,A,60.256116240439894,73.2885459933081,3.0128058120219947,1.1512137884242721,B,546.5556999997716,Incorrect
7,407,485,A,30.707384189265632,41.10000031731692,1.5353692094632816,0.6455972952971051,B,1211.6620999995575,Incorrect
7,407,486,A,37.587234839756256,47.389684386008874,1.8793617419878128,0.7443954216151221,A,556.1938999999256,Correct
7,407,487,A,28.57904601407912,54.098624693803956,1.428952300703956,0.8497792095368294,A,426.57320000034815,Correct
7,407,488,A,61.582513159468945,74.25426672968426,3.079125657973447,1.1663832942783654,A,738.5879000003115,Correct
7,407,489,B,77.10659459404614,46.57437168561703,3.8553297297023073,0.7315885196654746,B,672.104400000535,Correct
7,407,490,B,38.367568699779454,20.368652301361855,1.9183784349889725,0.3199500421674162,B,564.5681999994849,Correct
7,407,491,B,71.0182460877107,43.996828630339145,3.5509123043855344,0.6911005680316128,B,546.8910999998116,Correct
7,407,492,A,32.628523843378254,46.92770990671377,1.6314261921689126,0.7371387434636247,A,1187.7887000000555,Correct
7,407,493,B,80.02953889876349,62.15366785508132,4.001476944938174,0.9763075316359178,B,591.6435999997702,Correct
7,407,494,A,43.411451842385425,62.69229848182346,2.1705725921192713,0.9847683217357757,A,732.0648000004439,Correct
7,407,495,B,36.85360403310618,19.678856117197082,1.8426802016553092,0.30911474904418457,B,604.0805000002365,Correct
7,407,496,B,77.50748170110506,58.7864445624406,3.8753740850552534,0.9234153118401351,B,505.0846999993155,Correct
7,407,497,A,32.54415299273894,59.21529944048567,1.6272076496369468,0.930151748511748,A,501.80009999985487,Correct
7,407,498,A,38.358595594566914,53.384622434091895,1.9179297797283457,0.8385636882680398,A,1202.7735000001485,Correct
7,407,499,B,83.74361298209375,54.07595318694365,4.187180649104687,0.8494230863398388,B,562.4888000002102,Correct
7,407,500,A,28.888996814534803,38.08481530222794,1.44444984072674,0.5982348798340171,B,2128.58580000011,Incorrect
7,407,501,B,52.36557711915911,42.00125094287841,2.6182788559579557,0.6597541070186408,B,687.7900999998019,Correct
7,407,502,A,59.718023423340284,79.55850696163944,2.9859011711670145,1.2497021050062946,A,893.3205000003,Correct
7,407,503,B,60.4395753267917,52.12537079769841,3.0219787663395845,0.8187834098184663,B,1159.2770999995992,Correct
7,407,504,B,78.71100671084893,55.403365437159984,3.935550335542447,0.8702740292076623,B,641.7706000001999,Correct
7,407,505,B,54.29581294897189,42.65651327252526,2.7147906474485946,0.6700469436236043,B,1277.6845999997022,Correct
7,407,506,A,53.223356924391,71.93562799772641,2.66116784621955,1.1299622022451277,A,521.8038000002707,Correct
7,407,507,A,57.718024918774404,67.38235199526521,2.88590124593872,1.0584395100496335,A,1784.8573000001124,Correct
7,407,508,B,78.95434840695906,57.91403546304201,3.947717420347953,0.9097115417521577,B,725.1663999995799,Correct
7,407,509,A,40.43584141285676,64.31893673653391,2.021792070642838,1.0103194956910082,A,1022.5325000001249,Correct
7,407,510,A,66.4639350431868,89.03449051918362,3.3231967521593395,1.398550506655887,A,683.2843000001958,Correct
7,407,511,A,16.675060498382216,32.50242570802304,0.8337530249191107,0.5105469091408661,A,732.9454999999143,Correct
7,407,512,B,65.70260579006886,42.75771051998235,3.2851302895034427,0.6716365462694779,B,578.4713000002739,Correct
7,407,513,B,72.04550331240118,57.55295225674063,3.602275165620059,0.9040396600109023,B,760.0052999996478,Correct
7,407,514,A,29.360382971298257,46.89370513143932,1.468019148564913,0.7366045977026788,A,591.1770000002434,Correct
7,407,515,A,58.272231278653,79.70799873236015,2.91361156393265,1.252050316249636,A,767.2263000004023,Correct
7,407,516,A,60.28974114470988,74.60811678866934,3.0144870572354936,1.1719415580072645,A,2928.622500000529,Correct
7,407,517,B,77.69587927381455,66.35131361772328,3.884793963690728,1.0422439970873592,B,1638.9659999995274,Correct
7,407,518,B,56.8752820953483,43.35327884612839,2.843764104767415,0.6809917116601336,B,768.6693000005107,Correct
7,407,519,B,68.61219227536459,46.55871500153795,3.4306096137682296,0.7313425850470624,B,3171.427900000708,Correct
7,407,520,A,29.571198609609716,38.97645061866427,1.478559930480486,0.6122406546330051,A,1500.5872000001546,Correct
7,407,521,A,26.337371082403948,46.58807438439145,1.3168685541201972,0.7318037611544951,A,617.5300999993851,Correct
7,407,522,A,29.287168058783244,38.255521722990565,1.464358402939162,0.6009163300209596,A,518.8009000003149,Correct
7,407,523,A,64.56736898457905,74.80312138457438,3.2283684492289524,1.1750046830368224,A,740.9010000001217,Correct
7,407,524,B,69.97168011258893,52.36946462514453,3.498584005629447,0.8226176266939231,B,703.124000000571,Correct
7,407,525,B,54.228283591868546,47.13982706637693,2.7114141795934272,0.7404706720161152,B,933.7796999998318,Correct
7,407,526,B,54.59086611707367,43.64442461221385,2.7295433058536838,0.685565018659423,B,1427.8673999997409,Correct
7,407,527,A,56.082631794713656,83.31816670504458,2.804131589735683,1.3087587021556888,A,666.2188999998762,Correct
7,407,528,B,59.55126317681005,33.11916247420262,2.9775631588405025,0.5202345876100085,B,1924.701500000083,Correct
7,407,529,A,49.309620985937606,75.59179633151332,2.4654810492968804,1.1873931601336907,A,648.8710000003266,Correct
7,407,530,B,52.266093276446746,44.56455695366613,2.6133046638223374,0.7000184236806072,B,542.4203000002308,Correct
7,407,531,B,50.41643302569567,25.38590037405816,2.520821651284783,0.39876079059951747,B,691.6676999999254,Correct
7,407,532,B,74.92789134776658,49.69848934093,3.746394567388329,0.7806620450398817,B,593.4868000003917,Correct
7,407,533,B,80.22706759675171,53.65739197664859,4.011353379837585,0.8428483422231356,B,636.5423999995983,Correct
7,407,534,A,52.92155409418355,82.61643611844457,2.6460777047091772,1.2977359438773797,A,2676.2768999997206,Correct
7,407,535,A,58.60949258850539,69.71673258258782,2.93047462942527,1.0951078745687104,A,1975.876600000447,Correct
7,407,536,A,52.06001865260721,68.49012014609418,2.6030009326303603,1.075840291472259,A,1917.1425000004092,Correct
7,407,537,B,62.46575573366198,41.959308626048525,3.123287786683099,0.6590952786465044,B,2799.0887000005387,Correct
7,407,538,A,22.066313752797875,36.67139368198221,1.1033156876398937,0.5760329049410723,A,2355.8460000003834,Correct
7,407,539,B,71.50859346760295,58.20283586117121,3.575429673380148,0.9142480077977401,B,2651.5618000003087,Correct
7,407,540,A,39.51972835217026,69.05243064145535,1.9759864176085131,1.0846730440785741,A,1520.0246999993396,Correct
7,407,541,A,45.664824033155114,59.19747279440121,2.2832412016577557,0.9298717282098623,A,2101.28640000039,Correct
7,407,542,B,69.57585606351687,46.31828819114607,3.4787928031758435,0.7275659695407967,B,1287.5132999997732,Correct
7,407,543,A,35.553343029065786,57.81742220757931,1.7776671514532894,0.9081939442841526,A,1787.6685999999609,Correct
7,407,544,B,67.92079791675391,48.92185412775936,3.396039895837696,0.7684626876388015,B,1821.3268999998036,Correct
7,407,545,A,25.16007613935272,35.613362906626335,1.258003806967636,0.5594133963854226,A,2147.456200000306,Correct
7,407,546,A,53.864638309492705,69.01567718085107,2.693231915474635,1.0840957220694323,A,1263.876899999559,Correct
7,407,547,B,45.78435625989566,28.398941198525947,2.2892178129947833,0.4460895251950881,B,1008.7272000000667,Correct
7,407,548,B,39.321254771058236,22.523016687675725,1.966062738552912,0.3537907188134119,B,1068.33319999987,Correct
7,407,549,A,28.315630485486068,49.31733849638569,1.4157815242743033,0.7746749415742318,A,896.230999999716,Correct
