subject,day,trial,cat,x,y,xt,yt,resp,rt,fb
1,401,0,A,61.99045828779846,82.93291107177434,3.099522914389923,1.3027071208195093,A,483.71989999941434,Correct
1,401,1,A,47.83990150453736,56.18924166388953,2.391995075226868,0.8826185441102845,B,816.9672000003629,Incorrect
1,401,2,B,74.61737290774622,49.475838977410106,3.7308686453873112,0.7771646613081157,B,707.7669000000242,Correct
1,401,3,B,49.761799970797185,31.33284525576899,2.4880899985398592,0.4921751823579483,B,779.4623999998294,Correct
1,401,4,A,34.97794510496643,54.82204368273175,1.7488972552483215,0.8611426484422441,B,1087.649799999781,Incorrect
1,401,5,A,53.83341714667141,63.713325650860504,2.6916708573335706,1.0008065790025875,A,729.0864000005968,Correct
1,401,6,B,50.46893061712329,27.22514335496515,2.5234465308561647,0.4276515517844374,B,695.957200000521,Correct
1,401,7,A,41.7085104641554,51.56232748564716,2.0854255232077703,0.8099391461545009,A,1391.993399999592,Correct
1,401,8,A,28.07332879301432,50.14754677926881,1.4036664396507161,0.7877158227865069,B,768.5834000003524,Incorrect
1,401,9,B,39.435197104128214,14.70427499756088,1.9717598552064106,0.2309742115435067,B,657.6807999999801,Correct
1,401,10,B,37.76166281785944,24.139986965990957,1.888083140892972,0.37919002855055267,B,1620.4965999995693,Correct
1,401,11,A,40.458920441735145,63.65482570711562,2.022946022086757,0.9998876640350657,A,635.6409999998505,Correct
1,401,12,A,68.22135869371007,84.14175632654715,3.4110679346855033,1.3216956176781152,A,755.1261999997223,Correct
1,401,13,A,20.04717876044668,47.82059897305071,1.0023589380223341,0.7511642121199985,B,476.7990999998801,Incorrect
1,401,14,B,37.45964779513294,20.036722098920723,1.8729823897566467,0.314736094739948,B,703.5690000002432,Correct
1,401,15,A,50.1210188984735,66.11153433716126,2.506050944923675,1.0384775529558756,A,814.5004999996672,Correct
1,401,16,B,53.85573196320145,22.130114851855925,2.6927865981600725,0.34761903120844473,B,701.6629999998258,Correct
1,401,17,A,58.98034330029438,70.2767805259563,2.949017165014719,1.1039050870914329,A,787.4610999997458,Correct
1,401,18,B,46.663339947943555,19.748930668980208,2.3331669973971776,0.3102154775296119,B,618.9631999995981,Correct
1,401,19,B,72.21472417354268,49.661341969241,3.6107362086771335,0.78007853548989,A,511.92489999993995,Incorrect
1,401,20,B,30.87984174494587,16.868934183190497,1.5439920872472936,0.264976598519005,B,654.8603000001094,Correct
1,401,21,A,44.15205815044819,73.58812908966412,2.2076029075224097,1.1559196286975308,A,942.0036000001346,Correct
1,401,22,A,63.89797222298793,79.18810822653458,3.1948986111493967,1.2438838952807725,A,614.0748000007079,Correct
1,401,23,B,78.05011047987321,52.15214643934775,3.90250552399366,0.8192040006139698,B,1268.9689999997427,Correct
1,401,24,A,62.88925897389226,80.16649840539421,3.1444629486946134,1.2592524122720214,A,645.2778000002581,Correct
1,401,25,B,67.78792491808446,48.61933774895286,3.389396245904223,0.763710771472556,B,560.0347999998121,Correct
1,401,26,B,62.94187083441546,52.398779280020165,3.147093541720773,0.8230781002159221,B,653.8529999997991,Correct
1,401,27,B,45.73353711608988,18.56201864871026,2.286676855804494,0.29157150711292446,B,608.0920000003971,Correct
1,401,28,A,63.36454352631807,84.60838429446628,3.1682271763159036,1.3290253926579865,A,510.7266000004529,Correct
1,401,29,A,15.408565527757773,45.0347524997702,0.7704282763878887,0.7074042380475631,A,584.951099999671,Correct
1,401,30,B,46.081685629986005,18.860131852023095,2.3040842814993003,0.2962542583602531,B,667.1730000007301,Correct
1,401,31,B,51.39819092491092,43.73210368303395,2.569909546245546,0.686942278283233,B,604.5662999995329,Correct
1,401,32,A,39.49371263109321,61.204625224006136,1.9746856315546606,0.9614000048472711,B,773.4092000000601,Incorrect
1,401,33,B,69.74466468479679,50.684042062968764,3.4872332342398398,0.7961430709962939,B,727.6193999996394,Correct
1,401,34,A,39.915971803623115,72.05292187315031,1.9957985901811557,1.1318046501318417,A,583.1131000004461,Correct
1,401,35,B,74.44830678005326,63.971438349268546,3.722415339002663,1.004861003788172,B,589.4590000007156,Correct
1,401,36,A,40.28572818999047,67.80071501649265,2.0142864094995234,1.0650111410197423,A,574.3113999997149,Correct
1,401,37,A,64.48697574830584,77.6194394820711,3.224348787415292,1.2192433042631605,A,611.8585000003804,Correct
1,401,38,B,36.97724642583284,19.497254063811873,1.848862321291642,0.3062621506602256,B,481.6729000003761,Correct
1,401,39,A,17.797257100399236,38.21677460592165,0.8898628550199618,0.6003076917293021,A,680.8639999999286,Correct
1,401,40,A,51.84238395987777,82.02727185744826,2.5921191979938887,1.2884813733068612,A,681.6910000006828,Correct
1,401,41,B,41.44128775106202,14.477036164524645,2.072064387553101,0.2274047523011219,B,552.8787000002922,Correct
1,401,42,A,28.978206840209268,45.101807130811885,1.4489103420104634,0.7084575297289119,A,554.8398000000816,Correct
1,401,43,B,34.53719393077623,14.375236699195554,1.7268596965388117,0.2258056900390357,B,501.92969999989145,Correct
1,401,44,A,29.604292708571858,46.68236225596857,1.480214635428593,0.7332848315778416,A,1350.1538000000437,Correct
1,401,45,A,46.75123842330666,64.90085130290429,2.337561921165333,1.0194601883246384,A,914.3376000001808,Correct
1,401,46,B,66.77562351022485,42.0754620556665,3.338781175511242,0.6609198124523898,B,796.557099999518,Correct
1,401,47,B,38.143836151868214,17.523150249941704,1.9071918075934107,0.27525300046483503,B,632.4298999998064,Correct
1,401,48,A,17.089453662103647,37.003968559335206,0.8544726831051824,0.5812569788983758,A,596.3329000005615,Correct
1,401,49,A,34.15067112713827,44.28369820453089,1.7075335563569132,0.6956067047657087,B,777.5509000002785,Incorrect
1,401,50,B,61.38505455242635,29.56116189797616,3.069252727621317,0.46434564525130206,B,575.9422000000995,Correct
1,401,51,A,65.984912873509,80.78965512332752,3.2992456436754503,1.2690409351074936,A,462.0381999993697,Correct
1,401,52,A,40.74420534196859,55.890018073788795,2.037210267098429,0.8779183509480781,A,1535.6806999998298,Correct
1,401,53,A,50.794624418678275,64.97200392325288,2.5397312209339136,1.0205778510714922,A,1163.8566000001447,Correct
1,401,54,A,22.807856602215903,52.29551492254014,1.1403928301107953,0.8214560274817376,A,1651.3592000001154,Correct
1,401,55,A,48.48603102075154,60.96282155750548,2.424301551037577,0.9576017617358233,A,1209.7077999997055,Correct
1,401,56,B,66.59404039075605,44.06933029688825,3.3297020195378026,0.6922394215466311,B,2198.413199999777,Correct
1,401,57,B,44.74941781669639,16.258357866083042,2.2374708908348198,0.25538568815760154,B,1202.262800000426,Correct
1,401,58,A,45.89939306859628,61.611064791464905,2.2949696534298143,0.9677843426435545,A,614.2177000001539,Correct
1,401,59,A,58.580368583094824,72.68797562330307,2.929018429154741,1.1417800511124145,A,799.8475000003964,Correct
1,401,60,A,36.85310006843587,56.86788657017983,1.8426550034217937,0.893278673370273,B,1349.3898999995508,Incorrect
1,401,61,B,41.803947664431625,22.026772742965754,2.0901973832215814,0.3459957371579655,B,1879.0466000000379,Correct
1,401,62,B,57.60776108803017,44.731907585120375,2.880388054401509,0.7026471612523586,B,1694.506800000454,Correct
1,401,63,B,53.26359024414284,39.92984513738827,2.663179512207142,0.6272165407129856,B,722.4249999999302,Correct
1,401,64,B,30.64946403351494,13.228096114965851,1.5324732016757467,0.207786447878782,B,840.528899999299,Correct
1,401,65,A,43.58816438117355,52.03328353574172,2.1794082190586774,0.8173369064902044,B,724.9039000007542,Incorrect
1,401,66,B,75.19255105515906,44.69181203419375,3.7596275527579532,0.702017341811195,B,911.7203000005247,Correct
1,401,67,A,18.39973665264424,36.664153057355136,0.9199868326322119,0.5759191694753932,A,634.7825000002558,Correct
1,401,68,B,50.25022532605399,32.419327434628926,2.5125112663027,0.5092416045147613,B,837.2871000001396,Correct
1,401,69,B,65.33452739634156,36.78121365073955,3.266726369817078,0.5777579529764,B,880.8539999999994,Correct
1,401,70,B,65.7700203655925,49.06035135134791,3.2885010182796246,0.7706381969396433,B,629.2990000001737,Correct
1,401,71,B,78.40052284405951,61.089456989125004,3.9200261422029756,0.9595909464441238,B,574.1447999998854,Correct
1,401,72,A,57.63644712162045,67.15174571820639,2.8818223560810226,1.0548171551202352,A,887.8372999997737,Correct
1,401,73,A,36.528250038162156,68.28372236247185,1.8264125019081079,1.0725982026685332,A,706.3053000001673,Correct
1,401,74,B,67.89243079540529,57.42951007578227,3.3946215397702644,0.9021006347666929,B,843.7439999997878,Correct
1,401,75,A,50.85267148870303,77.68723553322232,2.542633574435152,1.2203082421443558,A,613.9452999996138,Correct
1,401,76,B,62.657757196409584,34.98608762286178,3.132887859820479,0.5495601792691568,B,542.525700000624,Correct
1,401,77,A,56.4830256383905,78.45831784233256,2.8241512819195247,1.232420374732425,A,516.0820000000967,Correct
1,401,78,A,53.48515408529634,68.57600611860761,2.6742577042648166,1.077189385173732,A,1932.8818999993018,Correct
1,401,79,A,63.58565499179464,85.65934879861202,3.179282749589732,1.3455339044850259,A,987.2607999996035,Correct
1,401,80,A,53.213086039282864,77.62100182101871,2.660654301964143,1.2192678454259618,A,651.2947999999597,Correct
1,401,81,A,55.56920265570554,63.73389229911997,2.7784601327852774,1.0011296391579918,A,588.1319999998595,Correct
1,401,82,B,48.99054517506903,29.47856143070726,2.4495272587534513,0.46304816014552674,B,1681.1053999999785,Correct
1,401,83,B,53.11703738319631,44.560297640088734,2.655851869159816,0.6999515185393868,B,2216.0399000003963,Correct
1,401,84,A,52.438800540520326,73.22682550375106,2.621940027026016,1.15024428524143,A,608.8989999998375,Correct
1,401,85,A,18.69911251145667,47.85986173086847,0.9349556255728334,0.7517809500775983,A,1779.6551000001273,Correct
1,401,86,A,43.02955241822978,55.98337512543674,2.1514776209114888,0.8793848000861682,A,1868.1945000007545,Correct
1,401,87,B,77.91145899718963,53.85135927977191,3.8955729498594813,0.8458951734957799,B,580.8352999993076,Correct
1,401,88,B,66.18265294918547,57.8510789063046,3.3091326474592733,0.9087226224714499,B,1011.7953999997553,Correct
1,401,89,A,11.560585312451614,35.03816338051834,0.5780292656225807,0.5503781833575766,A,589.6908999993684,Correct
1,401,90,B,70.20861726557241,59.801511771048524,3.5104308632786205,0.9393599502674479,B,580.8826999991652,Correct
1,401,91,B,86.74055617081615,61.32601027936999,4.337027808540808,0.9633067168382045,B,720.510799999829,Correct
1,401,92,B,80.1900109138328,67.05327319170824,4.0095005456916395,1.0532703522911002,B,590.5622999998741,Correct
1,401,93,A,41.55142032415101,62.42300659638246,2.0775710162075507,0.9805382946909115,A,1122.9594999995243,Correct
1,401,94,B,44.420807780207056,36.280055600269456,2.2210403890103527,0.5698857807281789,B,846.5759999999136,Correct
1,401,95,A,27.157161926742322,46.71233778850443,1.357858096337116,0.7337556861418519,A,607.1440999994593,Correct
1,401,96,A,55.08273135275483,82.35423957684702,2.7541365676377416,1.293617370232982,A,630.6426000001011,Correct
1,401,97,A,13.409858946800053,40.36773433680159,0.6704929473400028,0.6340948881728016,A,566.636099999414,Correct
1,401,98,B,65.99930931759481,54.76754730035927,3.2999654658797404,0.8602866212697009,B,1333.8463000000047,Correct
1,401,99,B,72.83600128907284,55.84780102468371,3.641800064453642,0.8772552070914543,B,830.4046999992352,Correct
1,401,100,A,48.14812135461605,55.16407513472419,2.4074060677308027,0.8665152659266245,B,491.40949999946315,Incorrect
1,401,101,B,71.89025990057493,40.78465463484885,3.594512995028747,0.6406438569001902,B,911.5504000001238,Correct
1,401,102,B,53.16000816384559,41.17735384527939,2.6580004081922795,0.6468123616729857,B,1538.8616999998703,Correct
1,401,103,A,22.62123023098271,53.229410852050194,1.1310615115491356,0.8361256304385686,A,967.0134999996662,Correct
1,401,104,B,74.92934199984566,47.10165647389354,3.746467099992283,0.7398710897514704,B,609.2146000000866,Correct
1,401,105,B,69.2184003525378,38.61848544101342,3.46092001762689,0.6066177507712607,B,607.0895000002565,Correct
1,401,106,B,51.74858943399429,23.60234622505677,2.5874294716997146,0.3707447875406057,B,645.4254000000219,Correct
1,401,107,B,52.42227329953301,27.086072481459077,2.621113664976651,0.42546703161176247,B,557.4500999991869,Correct
1,401,108,B,57.652459313768404,24.95112557549772,2.8826229656884204,0.39193136403390016,B,542.5789999999324,Correct
1,401,109,B,56.58993233134411,26.308665543301984,2.8294966165672055,0.4132555519829422,B,1222.0373999998628,Correct
1,401,110,B,41.94633486399116,16.135740883026713,2.097316743199558,0.253459625091726,B,741.4925000002768,Correct
1,401,111,B,49.826953124480745,27.907051821250604,2.4913476562240375,0.4383629449249528,B,564.6546999996644,Correct
1,401,112,B,51.21599960096384,27.974244434354468,2.560799980048192,0.4394184040234658,B,762.4885000004724,Correct
1,401,113,B,76.71684781016988,52.82975233837443,3.8358423905084944,0.8298478091860265,A,709.8261000001003,Incorrect
1,401,114,A,30.727452813274937,49.65701420465099,1.5363726406637468,0.7800105551226778,A,596.1952999996356,Correct
1,401,115,B,69.12752466446278,39.30566257495924,3.456376233223139,0.6174119039498561,B,1199.2554999997083,Correct
1,401,116,B,88.03030082001833,65.8267682842814,4.401515041000916,1.03400445825728,A,864.6300000000338,Incorrect
1,401,117,A,35.48860810316321,59.71979970814386,1.7744304051581605,0.9380764201847931,A,1173.3874999999898,Correct
1,401,118,A,64.20462850043744,87.91696120711838,3.2102314250218718,1.3809963972711095,A,612.8337999998621,Correct
1,401,119,A,43.09545725255033,73.63090372619494,2.1547728626275164,1.1565915311169568,A,730.8892999999443,Correct
1,401,120,A,45.0270067672901,73.46040230046052,2.2513503383645053,1.1539133009843874,A,757.4212999998053,Correct
1,401,121,A,53.47115815315549,80.37529553599279,2.6735579076577745,1.2625321899299171,A,621.1095999997269,Correct
1,401,122,A,64.86012317882007,84.63537997907942,3.2430061589410037,1.3294494398802827,A,503.86300000081974,Correct
1,401,123,A,28.62486478312158,57.760801665039146,1.431243239156079,0.9073045508817204,A,1056.4922000003207,Correct
1,401,124,B,52.910571681131,26.08742222524176,2.64552858405655,0.40978027006957296,B,826.4189999999871,Correct
1,401,125,A,32.23920350270323,58.914592200353994,1.6119601751351615,0.9254282502293532,B,1348.655100000542,Incorrect
1,401,126,A,44.57825894882778,53.27139737306207,2.228912947441389,0.8367851531683722,A,578.4782000000632,Correct
1,401,127,A,42.43616375322974,60.09730846387653,2.1218081876614874,0.9440063138531709,A,765.2459000000817,Correct
1,401,128,B,35.3832389339082,24.205033060285018,1.7691619466954103,0.38021177021044744,B,638.3937999999034,Correct
1,401,129,B,62.61905245003546,37.188384858873725,3.130952622501773,0.5841537833575379,B,2696.8391999998858,Correct
1,401,130,B,64.97543781038169,41.593162989105565,3.2487718905190843,0.6533438764306846,B,2398.971700000402,Correct
1,401,131,B,49.90967577854104,39.83525748486278,2.4954837889270522,0.6257307613415136,B,1307.3827999996865,Correct
1,401,132,A,35.293538185600504,55.60921027366314,1.7646769092800252,0.8735074323383508,A,2432.6602999999523,Correct
1,401,133,A,41.211473749163396,73.42784369424717,2.0605736874581697,1.1534018715939327,A,654.5181999999841,Correct
1,401,134,A,49.477237195604495,78.61359733186094,2.4738618597802247,1.2348594992502027,A,474.38319999946543,Correct
1,401,135,A,30.081322141702206,45.59215385488346,1.5040661070851105,0.7161598780591873,A,490.09039999964443,Correct
1,401,136,A,36.31722128958042,59.18809320798814,1.8158610644790207,0.9297243940110174,A,732.0443999997224,Correct
1,401,137,B,57.79573555774693,51.04342741662456,2.8897867778873465,0.8017882829305577,A,565.7208000002356,Incorrect
1,401,138,A,28.187188536398036,47.59209214738602,1.409359426819902,0.747574835295982,A,669.7220000005473,Correct
1,401,139,A,38.73129050535477,50.676328403473256,1.9365645252677384,0.7960219051162767,A,2107.5709999995524,Correct
1,401,140,B,75.32995275683518,61.64883165002391,3.7664976378417587,0.9683775830705452,B,1779.3250000004264,Correct
1,401,141,A,19.269686826063214,36.444857905596315,0.9634843413031606,0.5724744892867265,A,2821.8120999999883,Correct
1,401,142,B,79.55794669120618,49.133342783380826,3.9778973345603093,0.7717847436728914,B,630.0875999995696,Correct
1,401,143,B,85.32986072674419,64.9723387013881,4.266493036337209,1.0205831097541433,B,1285.011800000575,Correct
1,401,144,A,35.8980910853735,58.68328376426082,1.794904554268675,0.921794865811635,B,2144.9267999996664,Incorrect
1,401,145,B,49.636782108720425,42.631358772727495,2.481839105436021,0.6696518176647575,B,2057.214300000851,Correct
1,401,146,B,58.899536231505465,30.81181728847865,2.9449768115752732,0.4839908941861776,B,2555.981299999985,Correct
1,401,147,A,39.42360127292596,64.39959388210724,1.971180063646298,1.0115864551709715,B,3445.9366000000955,Incorrect
1,401,148,B,70.51614230663245,59.846945758653945,3.5258071153316224,0.9400736256758702,B,1146.1238000001686,Correct
1,401,149,B,88.97178523513071,65.8630155268762,4.448589261756536,1.034573828612524,B,2364.329699999871,Correct
1,401,150,A,25.32181967192886,41.760320575640065,1.2660909835964431,0.6559695816599276,B,1061.1807999994198,Incorrect
1,401,151,B,79.19582340097192,67.01954561813244,3.9597911700485957,1.0527405608042544,B,1380.4143999996086,Correct
1,401,152,B,64.56747627234057,40.102955719732016,3.2283738136170284,0.6299357553817344,B,661.768399999346,Correct
1,401,153,A,52.648189034746366,70.05461627700879,2.632409451737318,1.1004153392295137,A,778.7744999995994,Correct
1,401,154,A,39.74343318788244,70.67748536436908,1.9871716593941218,1.1101993439745101,A,672.031799999786,Correct
1,401,155,A,63.02331625508592,88.60993777729543,3.151165812754296,1.3918816477809999,A,823.2250000000931,Correct
1,401,156,A,54.11822850310908,68.76203756443839,2.7059114251554544,1.0801115602915252,A,867.6574999999502,Correct
1,401,157,B,49.62393690982491,19.659252208526098,2.4811968454912456,0.3088068115668725,A,1299.6628999999302,Incorrect
1,401,158,A,57.726826492909595,70.22307378838886,2.8863413246454797,1.103061463630482,A,941.9046999992133,Correct
1,401,159,A,62.69079986885451,77.14692658670792,3.1345399934427256,1.2118210890591636,A,774.4448000003104,Correct
1,401,160,B,62.2598235535667,41.994347375256645,3.1129911776783348,0.6596456660320205,A,1032.3893000004318,Incorrect
1,401,161,A,20.57084342094882,48.432722904366884,1.028542171047441,0.7607794323485456,A,570.3626999993503,Correct
1,401,162,B,59.93168585908547,49.24535346951983,2.9965842929542736,0.7735442034163805,A,1863.3730000001378,Incorrect
1,401,163,A,17.133449239144127,33.735187362547606,0.8566724619572064,0.5299110839282739,A,528.1956999997419,Correct
1,401,164,B,74.83291185247393,49.48699029451686,3.741645592623696,0.7773398257876176,B,1263.6612999995123,Correct
1,401,165,B,47.0841200508824,40.07605729414502,2.35420600254412,0.6295132359006482,B,484.647600000244,Correct
1,401,166,A,51.145617531947984,74.31056690892778,2.557280876597399,1.1672676554259016,A,554.756699999416,Correct
1,401,167,B,62.60984191622577,46.744469483037506,3.130492095811288,0.7342604096193145,B,1302.3259999999937,Correct
1,401,168,B,84.69869387521183,60.693891811623004,4.234934693760591,0.9533774231658427,B,1432.5641999994332,Correct
1,401,169,B,63.32279946975933,42.425948845834824,3.1661399734879665,0.6664252460782553,B,593.3975999996619,Correct
1,401,170,B,44.83630628765775,32.61427056363392,2.2418153143828876,0.5123037640245108,B,845.5710000007457,Correct
1,401,171,A,36.74284774402584,62.87833354134341,1.8371423872012917,0.9876905536172658,A,1208.895300000222,Correct
1,401,172,A,31.66879716325463,51.61251211112402,1.5834398581627314,0.8107274444081073,A,623.7676000000647,Correct
1,401,173,B,54.04974390679504,39.81599400701126,2.702487195339752,0.6254281713390092,B,954.0276999996422,Correct
1,401,174,B,82.54986484206961,59.30142218422837,4.127493242103481,0.9315045614069932,A,674.5981000003667,Incorrect
1,401,175,A,17.353510170056175,35.23695885603395,0.8676755085028088,0.5535008553848103,A,598.7555000001521,Correct
1,401,176,A,30.21848455124813,53.97655146489591,1.5109242275624066,0.847861687741142,A,739.4919000007576,Correct
1,401,177,B,52.900707918172124,29.63824748896682,2.645035395908606,0.46555650288307143,B,1395.766000000549,Correct
1,401,178,B,34.890875490300715,14.968906054920573,1.7445437745150358,0.23513102647207124,B,662.8369000000021,Correct
1,401,179,A,33.325008235665464,45.17081871693073,1.666250411783273,0.7095415611887296,A,938.96549999954,Correct
1,401,180,B,41.835894803729374,25.576345290827433,2.0917947401864687,0.40175229235669685,A,1092.9319000006217,Incorrect
1,401,181,B,87.6503730578879,64.34937680766144,4.382518652894396,1.010797647210153,B,1398.863600000368,Correct
1,401,182,A,35.39912078354334,44.70680697191041,1.769956039177167,0.7022528817420535,B,3200.8120999998937,Incorrect
1,401,183,A,35.37367257126023,62.59368431027499,1.7686836285630114,0.9832192939513931,A,707.3271999997814,Correct
1,401,184,A,48.909782469352486,79.32244159042176,2.4454891234676244,1.2459939988263724,A,582.9469000000245,Correct
1,401,185,B,83.50853656085084,58.382964009076034,4.175426828042543,0.9170774541285528,B,1703.7819999995918,Correct
1,401,186,A,65.49642463127216,88.77820018641772,3.274821231563608,1.3945247075228695,A,778.5693000005267,Correct
1,401,187,A,64.58560666545873,87.02578696554603,3.2292803332729365,1.366997865019149,A,784.68520000024,Correct
1,401,188,A,41.017875480473876,54.46534376648895,2.050893774023694,0.8555396192602215,A,975.8541999999579,Correct
1,401,189,B,50.92910146372401,22.916303887357586,2.5464550731862006,0.35996845969976904,B,1178.3391999997548,Correct
1,401,190,A,43.8659997995904,71.19038445054352,2.19329998997952,1.1182559439803028,A,557.1490000002086,Correct
1,401,191,A,21.19265871566713,40.007103987618535,1.0596329357833565,0.6284301198945266,A,1965.4277999998158,Correct
1,401,192,B,68.89010578726177,41.707152972157324,3.4445052893630885,0.6551344268973758,A,2662.2732999994696,Incorrect
1,401,193,B,78.90725282134812,50.475384629266586,3.9453626410674065,0.7928654876921153,A,1615.0959000005969,Incorrect
1,401,194,A,46.718438549729655,72.11870394034685,2.3359219274864826,1.1328379524270544,A,630.3429999998116,Correct
1,401,195,A,27.2129832683541,47.76434080167242,1.360649163417705,0.7502805108304664,A,1460.1254999997764,Correct
1,401,196,B,43.66374417177341,23.78576105251757,2.1831872085886705,0.3736258609131572,A,1177.674599999591,Incorrect
1,401,197,B,63.697992158071614,55.38819831928009,3.1848996079035805,0.8700357846771243,A,1046.3694000000032,Incorrect
1,401,198,A,40.72461745821202,68.89009923513704,2.0362308729106013,1.0821231483108917,A,475.9282000004532,Correct
1,401,199,B,86.85145640313954,65.15709601456132,4.342572820156977,1.023485270842953,B,829.848100000163,Correct
1,401,200,B,59.192678247752774,45.55924732798978,2.9596339123876385,0.7156429835434656,A,1386.5946000005351,Incorrect
1,401,201,A,32.947645827940235,48.804722587651455,1.6473822913970115,0.7666227897092682,B,6626.0188000005655,Incorrect
1,401,202,B,58.97700590614783,45.18060498646304,2.948850295307391,0.7096952835510734,B,627.7248000005784,Correct
1,401,203,B,77.54948684997976,47.64589136367104,3.8774743424989877,0.7484199114092317,A,767.3104000004969,Incorrect
1,401,204,A,65.40222669770303,77.49370658201312,3.2701113348851516,1.217268296487477,A,751.3606000002255,Correct
1,401,205,B,43.18251267172789,17.857048005689272,2.1591256335863944,0.28049785414736844,B,1401.8770000002405,Correct
1,401,206,A,43.28900884729266,71.82431064801136,2.1644504423646334,1.1282136334047181,A,1544.1984999997658,Correct
1,401,207,B,70.08390917543957,49.388124885728146,3.5041954587719784,0.7757868515778941,B,1522.205700000086,Correct
1,401,208,B,79.17025457600154,61.12490885877903,3.958512728800077,0.9601478231104295,B,1590.3550000002724,Correct
1,401,209,B,71.50999550008798,42.174291927830225,3.575499775004399,0.6624722284541137,B,2493.259699999726,Correct
1,401,210,A,28.001954997585884,57.209434007158244,1.4000977498792941,0.898643687964592,B,2429.812299999867,Incorrect
1,401,211,B,46.52611505816711,33.98841724587247,2.3263057529083553,0.5338888096338879,B,818.2771000001594,Correct
1,401,212,B,34.08972959121398,21.636390289274022,1.704486479560699,0.33986362391492403,B,699.1227999997136,Correct
1,401,213,B,79.49129662145772,59.04245268528152,3.974564831072886,0.9274366780300168,B,2941.048900000169,Correct
1,401,214,B,86.4073236763292,64.05899431063459,4.32036618381646,1.0062363296132,B,776.7220000005182,Correct
1,401,215,A,54.63201202461926,71.29641207446369,2.731600601230963,1.1199214220022287,A,746.0995000001276,Correct
1,401,216,B,84.97526327064026,56.31334925933478,4.248763163532013,0.8845680216608119,B,5199.365299999954,Correct
1,401,217,A,25.572209267724574,45.94837652864618,1.2786104633862287,0.7217554107338625,A,508.88080000004265,Correct
1,401,218,B,46.095398820152624,33.68788747930198,2.304769941007631,0.5291680990996733,B,1405.180100000507,Correct
1,401,219,B,73.06903456149995,40.20990149362299,3.6534517280749976,0.6316156556696763,B,2107.8364999993937,Correct
1,401,220,A,59.12486802538851,79.98739010477095,2.956243401269426,1.2564389856648468,A,676.1165999996592,Correct
1,401,221,A,61.051178111927854,74.27134630175388,3.052558905596393,1.1666515795690673,A,599.1864000006899,Correct
1,401,222,B,74.06982489934828,63.69757874946526,3.703491244967414,1.0005592272538868,B,1727.1955999995043,Correct
1,401,223,B,64.6651262631328,51.364036664936435,3.2332563131566405,0.8068244012264054,B,1013.6225000005652,Correct
1,401,224,A,24.333639356134782,42.92654939681026,1.216681967806739,0.6742886611448923,A,555.6657000006453,Correct
1,401,225,B,48.76305115638891,29.49836976371138,2.4381525578194454,0.46335930871275477,A,975.5071999998108,Incorrect
1,401,226,A,54.74198462703522,70.01914211403853,2.737099231351761,1.099858112380616,A,899.9503000004552,Correct
1,401,227,B,62.8441084568798,50.65857411004647,3.14220542284399,0.7957430213272806,A,1003.7025000001449,Incorrect
1,401,228,B,64.28606095277848,33.59616651674028,3.214303047638924,0.5277273495888534,B,3697.2608000005494,Correct
1,401,229,A,50.682584151202434,62.3804802943495,2.5341292075601216,0.9798702931006562,A,713.8386000005994,Correct
1,401,230,B,81.48915931891514,54.72386487191312,4.074457965945757,0.8596004592882142,A,753.55750000017,Incorrect
1,401,231,B,34.97443192182183,22.553840127904795,1.7487215960910916,0.35427489228032194,B,2163.7762000000293,Correct
1,401,232,A,58.34350600820644,68.86701388246945,2.9171753004103222,1.0817605244391617,A,957.2103000000425,Correct
1,401,233,A,66.7656486687635,83.79271934354333,3.338282433438175,1.3162129575699353,A,745.629199999712,Correct
1,401,234,A,35.53860554871565,62.86936631138786,1.7769302774357825,0.9875496966985086,A,792.2472999998718,Correct
1,401,235,B,76.84523601661857,55.10245980578566,3.8422618008309284,0.8655474146029154,A,2296.030900000005,Incorrect
1,401,236,B,78.53542027056838,50.84165693079415,3.926771013528419,0.7986188795505774,B,888.5811999998623,Correct
1,401,237,A,43.21191970851369,53.8660537581472,2.1605959854256844,0.8461259938223407,A,965.5693999993673,Correct
1,401,238,A,24.6937719003558,52.27328971445982,1.23468859501779,0.8211069147295892,B,3205.8735000000524,Incorrect
1,401,239,A,45.06221570744525,64.50856855544279,2.2531107853722627,1.013298225336863,B,3158.4289000002173,Incorrect
1,401,240,A,22.75172209072,41.55353072220167,1.137586104536,0.6527213342379328,B,2346.9451000000845,Incorrect
1,401,241,A,17.992564809258976,43.31619712333665,0.8996282404629489,0.6804092333206087,A,525.1036999998178,Correct
1,401,242,B,68.39938225545913,57.65406008064389,3.419969112772957,0.905627857994877,A,1054.263699999865,Incorrect
1,401,243,B,41.90426106420006,17.114187298057775,2.095213053210003,0.26882902543869025,B,576.4655000002676,Correct
1,401,244,A,31.59041348649672,53.906849683750266,1.579520674324836,0.8467668147231957,B,727.3678000001382,Incorrect
1,401,245,A,37.88292782753433,54.74245971814158,1.8941463913767165,0.8598925464497438,A,1397.1726999998282,Correct
1,401,246,A,33.71336328548206,43.654507095575646,1.685668164274103,0.6857233939377197,A,799.7161000002961,Correct
1,401,247,A,28.79458293662168,42.39405470524479,1.439729146831084,0.6659242540894043,A,792.5592999999935,Correct
1,401,248,B,60.926412030257765,40.41030464626741,3.0463206015128885,0.6347635810301959,A,777.6469000000361,Incorrect
1,401,249,B,66.61998247554422,40.66915803312022,3.3309991237772114,0.638829640522664,B,1040.5823000000964,Correct
1,401,250,A,35.50492648595957,67.05219553527405,1.7752463242979786,1.0532534245034164,A,597.0011999997951,Correct
1,401,251,B,79.99630036955797,52.676480260895445,3.999815018477898,0.8274402170229845,B,808.8647999993555,Correct
1,401,252,B,79.11387598817936,59.056447211173875,3.955693799408968,0.9276565035286863,A,498.00129999948695,Incorrect
1,401,253,A,16.117277648286723,44.0445485144413,0.8058638824143362,0.6918501502182403,A,856.1057000006258,Correct
1,401,254,A,68.10209128134298,87.442384313694,3.4051045640671487,1.3735417608613822,A,1040.117200000168,Correct
1,401,255,B,74.17992033959088,58.0299955630439,3.708996016979544,0.9115330387435351,A,911.0305000003791,Incorrect
1,401,256,B,36.03797472107335,11.5344132040278,1.8018987360536673,0.18118213892621424,B,827.4439999995593,Correct
1,401,257,A,27.279464236005836,58.23381095061043,1.3639732118002916,0.9147345633648729,A,769.8339999997188,Correct
1,401,258,A,63.02334913628712,85.03144249155312,3.1511674568143566,1.3356707752780312,A,702.2525000002133,Correct
1,401,259,A,58.03865931563557,68.60885522743393,2.9019329657817785,1.0777053777685606,A,1099.5237000006455,Correct
1,401,260,B,47.632903340014714,25.71028611950463,2.3816451670007357,0.4038562299736369,B,782.0203000001129,Correct
1,401,261,B,50.46465906345303,22.090448797036252,2.5232329531726516,0.3469959582763528,B,587.2628000006443,Correct
1,401,262,A,53.171359153454844,65.55575636930557,2.658567957672742,1.0297474130516633,A,792.5285999999687,Correct
1,401,263,A,62.50320909996344,88.18454766325078,3.125160454998172,1.385199635495038,A,646.6113999995287,Correct
1,401,264,B,83.92898373358278,68.77953616454926,4.196449186679139,1.0803864276593074,A,829.5350999997027,Incorrect
1,401,265,B,79.58659949195723,61.44834479016977,3.979329974597862,0.9652283428402499,B,1094.074599999658,Correct
1,401,266,A,36.648171725285536,46.677128161672556,1.8324085862642767,0.7332026146168988,B,1702.6755000006233,Incorrect
1,401,267,A,25.071043592716215,51.18229323143724,1.253552179635811,0.8039695820488092,A,1501.0357000001022,Correct
1,401,268,B,70.32989622365983,56.65140685666647,3.5164948111829917,0.8898782179821492,B,583.0007000004116,Correct
1,401,269,B,33.76709432438719,20.072322386604252,1.6883547162193593,0.3152953027512093,B,1093.0699999998978,Correct
1,401,270,A,29.480832765839693,39.56309248398334,1.4740416382919848,0.621455603504878,B,600.951399999758,Incorrect
1,401,271,B,54.93255606307076,32.05017925529141,2.746627803153538,0.5034430384732974,B,971.7124999997395,Correct
1,401,272,A,36.53193699085989,47.09331826020862,1.8265968495429945,0.7397401133971871,B,2829.4151999998576,Incorrect
1,401,273,A,44.76509871301947,68.00701986413033,2.2382549356509736,1.0682517699884349,A,740.9071000001859,Correct
1,401,274,A,52.33371619957468,75.50159020917776,2.616685809978734,1.1859762056774996,A,815.3706000002785,Correct
1,401,275,B,52.435160565798846,32.56096413169768,2.621758028289942,0.5114664285497109,B,1811.0070999991876,Correct
1,401,276,B,67.49208433590748,53.36438333731537,3.374604216795374,0.8382457732792975,A,1548.6732999997912,Incorrect
1,401,277,A,30.52788730026146,41.62778604071123,1.526394365013073,0.6538877340535307,A,1776.5543000004982,Correct
1,401,278,A,45.202823144159446,54.38469801258162,2.2601411572079724,0.8542728387201292,A,780.7013999999981,Correct
1,401,279,B,64.88472828584312,54.7804093541768,3.2442364142921565,0.8604886579386171,A,1233.4309000007124,Incorrect
1,401,280,B,56.35736353480892,24.01560058276374,2.8178681767404457,0.37723617181178654,B,697.1665999999459,Correct
1,401,281,B,60.08019849093627,43.411910687314936,3.0040099245468133,0.6819126984678242,B,890.8372000005329,Correct
1,401,282,B,61.744368796997925,41.31876571403968,3.087218439849896,0.6490336541131243,B,629.064799999469,Correct
1,401,283,A,37.8362602843762,65.09584048618329,1.89181301421881,1.0225230712532323,A,1706.0543000006874,Correct
1,401,284,A,37.866230861953355,66.4544836147235,1.8933115430976677,1.0438645876105932,A,1367.588699999942,Correct
1,401,285,B,65.77042765550556,45.271994970561146,3.288521382775278,0.7111308340643449,A,1500.025800000003,Incorrect
1,401,286,A,19.674863643869084,35.76529041306658,0.9837431821934542,0.5617998680759771,A,1264.4563000003473,Correct
1,401,287,A,49.06874113636819,60.3552482510522,2.4534370568184096,0.9480580225554691,A,815.6332999997176,Correct
1,401,288,B,46.39478364355186,22.858019795834583,2.3197391821775932,0.35905293533101995,A,1095.684099999744,Incorrect
1,401,289,A,45.764257962602656,69.50276787472475,2.2882128981301326,1.0917469247969598,A,697.6094000001467,Correct
1,401,290,A,66.43894324376615,79.3187012646284,3.3219471621883074,1.2459352459262,A,556.1192000004667,Correct
1,401,291,B,64.14518053182957,45.665658955344,3.2072590265914784,0.7173144934772283,A,604.3896999999561,Incorrect
1,401,292,A,30.327240173400174,53.02566797672674,1.5163620086700087,0.8329252448368814,A,500.1570000003994,Correct
1,401,293,B,69.08077700042534,37.644992530383554,3.454038850021267,0.5913261598894781,B,1611.3248999999996,Correct
1,401,294,B,72.68046799677902,60.815478595799576,3.634023399838951,0.9552873039055563,A,852.734000000055,Incorrect
1,401,295,B,55.08211309067125,23.29298574133643,2.7541056545335625,0.36588536442577163,B,1521.7126000006829,Correct
1,401,296,B,73.31722661145854,60.095356994879374,3.665861330572927,0.943975660249845,A,618.0342999996356,Incorrect
1,401,297,A,34.699603892433686,45.31455880859804,1.7349801946216843,0.7117994252687713,A,1253.6228999997547,Correct
1,401,298,B,82.97041740356099,56.668351509515354,4.148520870178049,0.8901443839666874,B,3080.937599999743,Correct
1,401,299,B,80.46766186410821,53.421982748326116,4.02338309320541,0.8391505427117099,B,931.7314999998416,Correct
1,401,300,B,69.18506759506225,45.485038193452674,3.459253379753113,0.7144773091840103,B,632.439400000294,Correct
1,401,301,A,32.863880402238614,52.49949447391587,1.6431940201119306,0.8246601307821602,A,620.0605999993059,Correct
1,401,302,A,27.79739471091273,43.07392691652628,1.3898697355456366,0.6766036618111131,A,1320.7338000001982,Correct
1,401,303,B,51.285926749032654,40.69705298464865,2.564296337451633,0.6392678133966337,B,628.3800999999585,Correct
1,401,304,B,58.079626476923615,25.431000473272974,2.9039813238461805,0.3994692213013647,A,2122.6894999999786,Incorrect
1,401,305,B,82.63136561892166,59.293202363640745,4.131568280946083,0.9313754447671336,A,851.578600000721,Incorrect
1,401,306,A,38.1137055240181,56.59166918674266,1.9056852762009049,0.8889398608572728,A,3064.3017000002146,Correct
1,401,307,B,68.02893299046985,39.108657093363,3.4014466495234927,0.6143173490813578,B,1219.0653999996357,Correct
1,401,308,A,10.901670137124565,35.14917432005913,0.5450835068562283,0.5521219391182239,A,705.4133999999976,Correct
1,401,309,A,52.623141032128544,74.10740248276534,2.6311570516064275,1.164076356082388,A,554.5308000000659,Correct
1,401,310,B,59.28250624380922,40.605346956817,2.964125312190461,0.6378272984800049,A,643.6837999999625,Incorrect
1,401,311,B,58.937411361539766,52.022722153215575,2.946870568076988,0.8171710086814252,B,711.836399999811,Correct
1,401,312,B,35.88541028638641,16.317072707325053,1.7942705143193205,0.25630797872711447,A,1063.8418999997157,Incorrect
1,401,313,A,57.0885238262435,66.27495340743056,2.854426191312175,1.0410445337089484,A,566.4551999998366,Correct
1,401,314,A,25.34612962049525,57.67303776418807,1.2673064810247625,0.9059259587508997,A,1087.0490999996036,Correct
1,401,315,B,58.18230264776196,37.25925635242481,2.9091151323880977,0.5852670301749832,A,862.8002000004926,Incorrect
1,401,316,B,51.00289234628136,26.948929585256,2.550144617314068,0.4233127960357444,B,618.4024000003774,Correct
1,401,317,A,37.750625445853395,55.75854861340957,1.8875312722926696,0.8758532334935842,A,783.3730000002106,Correct
1,401,318,B,65.13709426574165,42.9650520308889,3.256854713287083,0.6748934591067189,B,593.8916999994035,Correct
1,401,319,B,68.5763724265486,50.49654358246495,3.4288186213274296,0.7931978517517436,A,745.9129999997458,Incorrect
1,401,320,B,56.09075304949196,34.25264943411277,2.8045376524745977,0.5380393591409763,B,828.659200000402,Correct
1,401,321,A,24.937797038958042,43.762845678307215,1.2468898519479021,0.6874251724157688,A,808.5606000004191,Correct
1,401,322,B,87.20472359589576,68.87513046358218,4.3602361797947875,1.0818880193971419,A,697.6507999997921,Incorrect
1,401,323,B,77.67350994607855,62.471015563402574,3.8836754973039276,0.9812924177813958,B,1220.1858999997057,Correct
1,401,324,B,77.28277937997635,64.88251552517038,3.8641389689988173,1.0191721706015047,A,804.1983000002801,Incorrect
1,401,325,A,53.93988709646956,65.01415896633387,2.696994354823478,1.0212400209397674,A,746.5483999994831,Correct
1,401,326,A,22.990747192530776,45.63121223578472,1.1495373596265388,0.7167734056716899,A,686.1689000006663,Correct
1,401,327,A,47.04511159450288,55.448045509687276,2.352255579725144,0.8709758621457305,A,707.9518000000462,Correct
1,401,328,A,30.295115567773408,43.04105841278548,1.5147557783886703,0.6760873645616802,A,823.8637999993443,Correct
1,401,329,B,56.92473288957294,47.20162634592308,2.846236644478647,0.7414414128292118,A,671.625199999653,Incorrect
1,401,330,A,46.65180270360776,76.22264471711608,2.332590135180388,1.1973025034023836,A,669.1239000001588,Correct
1,401,331,B,55.51731911640104,25.125403647507937,2.775865955820052,0.3946689175874456,A,906.1280000005354,Incorrect
1,401,332,A,22.326466608330396,48.35410203069113,1.1163233304165197,0.7595444585527527,A,511.6729999999734,Correct
1,401,333,A,35.86772999336536,45.351010368435794,1.7933864996682678,0.7123720050317621,A,484.3361000002915,Correct
1,401,334,A,31.13815858393378,58.96499462514192,1.556907929196689,0.9262199696665375,A,814.317100000153,Correct
1,401,335,B,67.04593394789137,38.84508363071087,3.3522966973945687,0.6101771468116118,A,1122.483299999658,Incorrect
1,401,336,A,43.36296366992257,71.87554410611699,2.1681481834961285,1.1290184066827313,A,462.8841999992801,Correct
1,401,337,A,14.867097642605788,37.34494728003732,0.7433548821302893,0.5866130601183168,A,781.2610999999379,Correct
1,401,338,A,44.25103527761125,61.53619898448832,2.2125517638805627,0.9666083532975409,A,2300.4321999997046,Correct
1,401,339,B,40.158495419824085,30.009309469308818,2.0079247709912043,0.471385130840416,A,701.2733999999909,Incorrect
1,401,340,B,67.52015933448027,37.16018225940155,3.3760079667240133,0.5837107779609684,A,1066.290200000367,Incorrect
1,401,341,A,48.28623879604689,70.31031438583088,2.4143119398023445,1.1044318357305751,A,672.9126000000178,Correct
1,401,342,B,40.512558191781224,30.338702042555187,2.0256279095890615,0.4765592172817052,B,1492.8304000004573,Correct
1,401,343,A,28.790278869376294,46.626333863340435,1.4395139434688147,0.7324047396444764,A,1915.169899999455,Correct
1,401,344,A,43.42033527371751,68.31366735118021,2.1710167636858757,1.0730685774512232,A,570.1011999999537,Correct
1,401,345,A,56.77008004056615,65.52048668995602,2.8385040020283077,1.0291933982239683,A,870.2568000007886,Correct
1,401,346,A,18.21554353490125,45.05869499759005,0.9107771767450626,0.7077803259238603,A,2647.0992000004117,Correct
1,401,347,B,66.49715898277003,35.388175481185996,3.3248579491385017,0.5558761605782018,A,836.893699999564,Incorrect
1,401,348,B,58.652479769662534,40.97873732798623,2.932623988483127,0.6436925007149368,B,2826.1766999994506,Correct
1,401,349,B,61.86283081379273,49.27996703129172,3.0931415406896368,0.7740879119732663,B,724.3994999998904,Correct
1,401,350,B,44.30253595255421,17.815046114160673,2.2151267976277103,0.27983808997805276,B,830.90699999957,Correct
1,401,351,A,19.90886114529538,50.913942457727494,0.9954430572647689,0.7997543379524508,A,569.4122000004427,Correct
1,401,352,B,47.545544161056206,38.21752335784417,2.3772772080528104,0.6003194530969979,B,1914.5227000008163,Correct
1,401,353,B,70.98746294336358,57.994481978101064,3.549373147168179,0.9109751926557398,A,735.2451999995537,Incorrect
1,401,354,A,41.695441596134046,49.58845665972788,2.0847720798067026,0.7789336557252847,A,848.9091000001281,Correct
1,401,355,B,55.98136711471325,33.7531752773207,2.7990683557356624,0.5301936374327967,A,1121.4950000003228,Incorrect
1,401,356,A,23.52757914733377,41.980336357205886,1.1763789573666885,0.6594255814751325,A,598.9963000001808,Correct
1,401,357,B,32.91899544437575,20.33974884477277,1.6459497722187877,0.31949602773299807,B,1208.1754999999248,Correct
1,401,358,A,55.29380967973139,73.52936858914494,2.7646904839865694,1.1549966209137692,A,502.22819999999047,Correct
1,401,359,B,58.839811295805205,28.39339750605028,2.94199056479026,0.4460024450773115,B,778.8983000000371,Correct
1,401,360,A,59.628411043432344,72.98610079475282,2.9814205521716173,1.146462990354798,A,644.8881000005713,Correct
1,401,361,B,77.78372557973047,49.73687561858169,3.8891862789865232,0.7812650152792278,B,940.33810000019,Correct
1,401,362,B,52.45959624851695,29.803561047001395,2.6229798124258474,0.46815324218037246,A,695.3936999998405,Incorrect
1,401,363,A,36.551264874384884,52.51597178749903,1.8275632437192442,0.824918955818679,A,678.5672999994858,Correct
1,401,364,B,49.59981869728392,29.98560743282973,2.479990934864196,0.47101282012202694,B,1164.1146000001754,Correct
1,401,365,B,45.32634448665729,19.258664950114937,2.2663172243328646,0.3025144016261416,B,5061.2128000002485,Correct
1,401,366,B,40.74474723669085,23.420593110467017,2.0372373618345425,0.36788981629279455,B,3584.8619999997027,Correct
1,401,367,A,21.412051153395897,53.15702837058553,1.0706025576697948,0.8349886490784785,A,2734.1164999998,Correct
1,401,368,A,37.93597108620998,69.23730379847319,1.896798554310499,1.0875770248382404,A,606.1406999997416,Correct
1,401,369,A,25.384072785524715,36.1247836895695,1.2692036392762358,0.5674467752583595,A,598.1537999996362,Correct
1,401,370,A,21.3058407178119,39.50428969365815,1.065292035890595,0.6205319314343971,A,632.6966000005996,Correct
1,401,371,A,66.53353631552085,81.09072447885848,3.3266768157760422,1.273770121485279,A,723.7218000000212,Correct
1,401,372,B,68.21942858955374,58.354493362286476,3.410971429477687,0.9166302382545677,A,821.9616999995196,Incorrect
1,401,373,B,50.24703959954427,40.00861803423905,2.512351979977214,0.6284539024832275,B,1853.4263000001374,Correct
1,401,374,B,37.64012137722716,11.650451455915235,1.882006068861358,0.18300486352453907,B,903.9507000006779,Correct
1,401,375,A,41.025778105990156,54.561926178582894,2.051288905299508,0.8570567322417232,A,757.7381000000969,Correct
1,401,376,B,50.68715796259168,35.96398568279777,2.5343578981295836,0.5649209660744299,B,1287.9680000005465,Correct
1,401,377,A,22.047344025404726,34.241979643516764,1.1023672012702364,0.5378717584622176,A,688.2637999997314,Correct
1,401,378,A,66.02336387234867,77.61068586681837,3.3011681936174337,1.219105802796309,A,596.4225999996415,Correct
1,401,379,A,28.470013040482797,39.59209259593747,1.4235006520241398,0.6219111361982199,B,2795.0677000008,Incorrect
1,401,380,A,65.32646249022585,77.60675765123813,3.2663231245112923,1.219044098530266,A,614.4143999999869,Correct
1,401,381,B,64.1753825129506,51.19370021354226,3.20876912564753,0.804148762504713,B,918.6830999997255,Correct
1,401,382,B,72.02514434304382,58.93386597435632,3.6012572171521913,0.9257310019634166,B,544.3371000001207,Correct
1,401,383,B,83.00729660848341,59.7816628579248,4.150364830424171,0.9390481642691918,B,1467.1590999996624,Correct
1,401,384,A,41.21548109011869,67.750692812712,2.0607740545059348,1.0642253940801742,A,728.9164000003439,Correct
1,401,385,A,59.30851940847277,76.97454577691899,2.9654259704236385,1.2091133376308996,A,1121.5320999999676,Correct
1,401,386,A,43.31311540475208,60.29498410725516,2.165655770237604,0.9471113955983307,A,1227.4562000002334,Correct
1,401,387,B,60.75296790562478,47.20348662707716,3.037648395281239,0.7414706340572482,A,645.7069000007323,Incorrect
1,401,388,B,58.96289779484402,41.481204779617094,2.948144889742201,0.6515852409884944,A,887.6288000001296,Incorrect
1,401,389,B,34.4194345883402,12.037039757585397,1.7209717294170102,0.1890773783669927,B,796.6430999995282,Correct
1,401,390,A,65.2893057675566,78.47598633355487,3.2644652883778296,1.232697910743545,A,854.0375000002314,Correct
1,401,391,B,62.28869380676031,42.54556681267392,3.1144346903380153,0.6683042007075505,B,479.95549999996,Correct
1,401,392,B,73.20355960622584,63.57939896483289,3.6601779803112917,0.9987028635378675,A,595.835399999487,Incorrect
1,401,393,B,44.0878068169789,32.00395404196543,2.204390340848945,0.5027169345203198,A,539.608600000065,Incorrect
1,401,394,B,37.85155560607037,23.199975571101035,1.8925777803035186,0.3644243640881684,B,700.707699999839,Correct
1,401,395,A,43.46968931157351,74.1444215156018,2.173484465578676,1.164657849690398,A,695.7329000006212,Correct
1,401,396,B,82.34897391166953,58.83239843936597,4.117448695583477,0.9241371536508987,B,2285.8334000002287,Correct
1,401,397,A,40.26044300719146,69.13266100662591,2.013022150359573,1.0859332997076476,A,2140.7662000001437,Correct
1,401,398,B,81.79165274480106,62.25556161412712,4.089582637240053,0.9779080750602425,A,498.8660000008167,Incorrect
1,401,399,A,37.704476400366616,52.840518908597296,1.8852238200183309,0.8300169300756092,A,559.8361000002114,Correct
1,401,400,B,64.17482931153981,47.636173703841294,3.2087414655769906,0.7482672667655754,A,881.5281000006507,Incorrect
1,401,401,A,24.74378862135097,43.70815567745595,1.2371894310675484,0.686566103891273,B,2371.491199999582,Incorrect
1,401,402,A,36.68924428190085,53.96308771445626,1.8344622140950424,0.8476501996437871,B,2211.443600000166,Incorrect
1,401,403,B,72.47557662601635,48.56077313791603,3.6237788313008172,0.7627908407135878,B,519.9247999998988,Correct
1,401,404,A,27.737680345839937,56.28068127177663,1.3868840172919967,0.8840548741122106,A,1781.2176999996154,Correct
1,401,405,B,38.98059675499983,19.93399421430884,1.9490298377499915,0.31312244890187046,B,767.669200000455,Correct
1,401,406,A,66.65820849652681,87.67056001428702,3.3329104248263404,1.377125936384936,A,760.5673999996725,Correct
1,401,407,A,46.040790274108744,54.536570975751204,2.3020395137054375,0.8566584536469917,B,1593.1141000000935,Incorrect
1,401,408,B,74.3958046111753,55.0943281599432,3.719790230558765,0.8654196830087143,B,1387.5926999999137,Correct
1,401,409,A,39.87721057460082,52.98586785508585,1.9938605287300408,0.8323000659880865,B,3780.4328000001988,Incorrect
1,401,410,A,23.850561327618145,52.100530389381525,1.1925280663809072,0.8183932175970637,A,1145.7500999995318,Correct
1,401,411,B,62.419848533289354,34.96725155575001,3.120992426664468,0.5492643030188524,B,994.3080000002738,Correct
1,401,412,B,73.64379161317679,46.92110862219198,3.6821895806588394,0.737035050728835,B,571.7185000003155,Correct
1,401,413,B,75.65265737114073,48.05834692327855,3.7826328685570365,0.7548987481892078,B,808.4046000003582,Correct
1,401,414,A,30.79269642876145,42.50750166594433,1.5396348214380726,0.6677062747809329,A,1568.4341000005588,Correct
1,401,415,A,49.48568667416031,62.84132610478672,2.474284333708016,0.9871092421631924,A,827.2279000002527,Correct
1,401,416,B,50.03959322623672,31.388594345659733,2.501979661311836,0.4930508870141737,B,1663.3615999999165,Correct
1,401,417,B,67.56247620132321,52.521437336492035,3.3781238100661604,0.8250048084615003,A,615.0991000004069,Incorrect
1,401,418,B,67.82796279142177,57.40506770312758,3.3913981395710886,0.9017166948748515,A,871.3968000001842,Incorrect
1,401,419,B,52.20200737224815,31.306560688011118,2.6101003686124074,0.49176230533309373,B,1350.8781000000454,Correct
1,401,420,B,64.8317359319402,52.107319617388896,3.2415867965970104,0.8184998625412214,A,649.9149000001125,Incorrect
1,401,421,A,48.85479602181658,61.8097603338947,2.442739801090829,0.970905444925547,A,585.1001999999426,Correct
1,401,422,B,47.81054777021388,25.464731194410007,2.390527388510694,0.3999990622299866,B,1708.1580000003669,Correct
1,401,423,A,39.84992528913475,55.71762759244779,1.9924962644567374,0.8752104475994297,A,540.2107999998407,Correct
1,401,424,A,38.0494590635686,67.90594345577401,1.90247295317843,1.0666640654787174,A,519.7731999996904,Correct
1,401,425,B,63.78312206951715,35.26050431879403,3.1891561034758578,0.5538707066489725,B,1142.4100999993243,Correct
1,401,426,A,30.42484364359624,57.85115878913217,1.5212421821798119,0.9087238772679711,A,513.2164999995439,Correct
1,401,427,A,37.66676810988565,51.20977693904248,1.8833384054942826,0.8044012951183391,A,938.3016000001589,Correct
1,401,428,A,38.08026540016809,57.547043688157274,1.9040132700084045,0.9039468484326287,A,655.6088999996064,Correct
1,401,429,A,49.740144141177396,79.59817563497546,2.48700720705887,1.2503252190699448,A,608.4445999995296,Correct
1,401,430,A,29.403250027837373,47.57106971319232,1.4701625013918687,0.7472446156718645,A,854.4955999996091,Correct
1,401,431,B,81.8919168595896,53.429901681466596,4.09459584297948,0.839274933022602,A,823.3632999999827,Incorrect
1,401,432,B,41.75832173967969,24.45486617187889,2.0879160869839843,0.38413613955048126,B,970.4246999999668,Correct
1,401,433,A,36.271377795493024,66.66098438383548,1.8135688897746514,1.0471082941066074,A,606.2880999998015,Correct
1,401,434,A,51.91151795692968,73.70032333569547,2.5955758978464836,1.1576819717930662,A,686.572000000524,Correct
1,401,435,A,51.622964776619284,66.3563217363536,2.581148238830964,1.0423226644308459,A,913.3329000005688,Correct
1,401,436,B,82.4925774182253,67.07989217565739,4.124628870911265,1.0536884823132036,A,2535.720599999877,Incorrect
1,401,437,A,46.50041174115132,60.49663193123137,2.325020587057566,0.9502788722104107,A,596.6981999999916,Correct
1,401,438,A,38.80148493461415,63.43007305186991,1.9400742467307077,0.996357257582092,A,649.7267000004285,Correct
1,401,439,B,73.04095705617485,59.02903847373575,3.652047852808743,0.9272259680877876,B,1749.2802000006122,Correct
1,401,440,A,26.102002089021056,49.37167606587456,1.3051001044510528,0.7755284741198328,A,638.4202999997797,Correct
1,401,441,B,79.08411756057394,67.23757262410041,3.954205878028697,1.05616532100542,A,842.8561999999147,Incorrect
1,401,442,B,76.36212503044426,64.80316922088926,3.818106251522213,1.0179258017684094,B,1096.1281999998391,Correct
1,401,443,A,35.09681001344043,60.81167697404707,1.7548405006720216,0.9552275881707093,A,1366.7294000006223,Correct
1,401,444,B,43.921581574182525,34.51956683107132,2.1960790787091264,0.5422320878079778,B,649.5422000007238,Correct
1,401,445,A,17.984443974576923,40.46024896505041,0.8992221987288461,0.6355481045550819,A,736.459300000206,Correct
1,401,446,B,71.45447905763868,39.63828127285549,3.5727239528819337,0.6226366662386433,A,1723.7864000007903,Incorrect
1,401,447,A,66.05230385377706,82.82883631081845,3.302615192688853,1.3010723182972936,A,647.9446000003009,Correct
1,401,448,A,62.89349385232866,86.89847158606514,3.1446746926164333,1.3649979997148183,A,650.6962000003114,Correct
1,401,449,A,20.24403950751162,41.180235416039636,1.0122019753755809,0.6468576252806416,A,692.4070000004576,Correct
1,401,450,B,53.615995981528336,35.76310885985867,2.680799799076417,0.5617656003183202,A,888.8120000001436,Incorrect
1,401,451,A,34.50326816825917,53.82860691781067,1.7251634084129586,0.8455377802298336,A,508.11390000035317,Correct
1,401,452,A,43.088310975753046,56.587568271591074,2.1544155487876524,0.8888754438327069,A,1029.259799999636,Correct
1,401,453,A,41.27923698951304,67.33370119032962,2.063961849475652,1.0576753049927492,A,660.444500000267,Correct
1,401,454,A,23.942448726990477,42.12884296399285,1.1971224363495239,0.66175831779959,A,1274.8514000004434,Correct
1,401,455,B,42.004326751300056,33.19664848163763,2.1002163375650027,0.5214517349685777,A,842.0169000000897,Incorrect
1,401,456,A,44.490869312640484,58.047451275972904,2.224543465632024,0.9118072324410397,A,596.8073000003642,Correct
1,401,457,B,63.02074772790664,52.46890694253344,3.151037386395332,0.8241796629627477,B,958.7313000001814,Correct
1,401,458,B,79.14494409276797,60.84908098845281,3.9572472046383984,0.9558151290550686,B,1679.8458000002938,Correct
1,401,459,B,60.426524819140056,33.556786679999085,3.021326240957003,0.5271087725598248,B,1090.1164999995672,Correct
1,401,460,B,36.298508838895444,23.98189137966027,1.814925441944772,0.3767066688876454,B,569.8456000000078,Correct
1,401,461,B,65.25042302098575,38.19413403035663,3.2625211510492873,0.5999520543999616,B,607.9374000000826,Correct
1,401,462,A,25.1447786595491,35.378845538714344,1.2572389329774551,0.555729606184565,B,1177.5726999994731,Incorrect
1,401,463,A,29.131771885445424,54.4053111638448,1.4565885942722714,0.854596629343008,A,645.7341000004817,Correct
1,401,464,B,33.20044424528591,15.805346183361603,1.6600222122642954,0.24826979728546145,A,873.0722000000242,Incorrect
1,401,465,B,79.00835492339628,62.536078337805876,3.950417746169814,0.9823144214518337,A,679.742699999224,Incorrect
1,401,466,B,74.22013238420382,51.104274990737366,3.711006619210191,0.8027440743896656,B,968.0058000003555,Correct
1,401,467,B,61.403658097554555,50.30487552960506,3.070182904877728,0.7901871370177811,B,699.0371000001687,Correct
1,401,468,A,44.85686774699276,72.49108071925298,2.242843387349638,1.138687233191949,A,543.4654999999111,Correct
1,401,469,A,34.63931052683523,48.0686749633721,1.7319655263417615,0.7550609806636273,B,1489.7066000003178,Incorrect
1,401,470,B,83.68903581684246,65.7649255654476,4.1844517908421235,1.0330330351014487,A,1145.179499999358,Incorrect
1,401,471,B,39.389225675533446,21.963829589190368,1.9694612837766723,0.3450070284104929,B,850.8639000001494,Correct
1,401,472,A,58.168243169260535,67.3152210915903,2.908412158463027,1.057385020280564,A,592.9488000001584,Correct
1,401,473,B,40.68650704014988,29.498030416806753,2.0343253520074938,0.46335397826404173,B,715.4430999999022,Correct
1,401,474,B,52.58501187532538,23.235362585075453,2.629250593766269,0.3649802220038409,A,721.8203000002177,Incorrect
1,401,475,A,54.260093596095174,64.45272346161374,2.713004679804759,1.0124210126543012,A,593.2781999999861,Correct
1,401,476,B,54.46254024376614,43.606431252263604,2.7231270121883075,0.6849682203568985,B,2247.644300000502,Correct
1,401,477,A,43.60194178474226,57.263053864083574,2.1800970892371128,0.899485946707608,A,568.4577000001809,Correct
1,401,478,B,42.32593008398186,23.610388952771352,2.116296504199093,0.3708711224121204,B,774.8437999998714,Correct
1,401,479,B,73.61730879869586,62.346096536696635,3.680865439934793,0.9793301942984309,A,564.6641000003001,Incorrect
1,401,480,A,68.21097862596127,83.25433797905032,3.410548931298064,1.307756082872331,A,576.2551999996504,Correct
1,401,481,B,79.63650411934935,51.98319579381023,3.9818252059674677,0.8165501300797702,B,708.4377000001041,Correct
1,401,482,B,45.85355481741696,18.33080637753611,2.2926777408708485,0.2879396332502218,B,824.8278000000937,Correct
1,401,483,B,52.688334701769975,21.382710906629573,2.634416735088499,0.33587883749050906,B,799.7685000000274,Correct
1,401,484,B,37.906415090533386,15.697449773453922,1.8953207545266693,0.24657496444188803,B,452.1601999995255,Correct
1,401,485,A,13.743858802599199,35.29908177212256,0.6871929401299599,0.5544766798688281,A,504.6426999997493,Correct
1,401,486,B,38.04470907553461,13.425834492772008,1.9022354537767308,0.21089251505402493,B,913.471899999422,Correct
1,401,487,A,57.821952064899804,81.9951628507572,2.89109760324499,1.2879770062091873,A,546.3471000002755,Correct
1,401,488,A,29.659480887487177,48.28191744683286,1.4829740443743589,0.7584105857609947,B,776.9825999994282,Incorrect
1,401,489,A,24.766809859700736,39.44367685579717,1.2383404929850368,0.6195798272037106,A,1475.4259000001184,Correct
1,401,490,A,23.4854813162829,44.101656751527486,1.174274065814145,0.6927472043086873,A,530.333800000335,Correct
1,401,491,A,43.484111052459,54.9608447244462,2.1742055526229502,0.8633229301070476,B,875.7801000001564,Incorrect
1,401,492,B,34.47908100636191,14.869734823982142,1.7239540503180957,0.23357324841925306,B,624.1792999999234,Correct
1,401,493,B,33.4357642450055,19.916809614016874,1.671788212250275,0.31285251383170987,B,520.4737000003661,Correct
1,401,494,B,32.19025806414545,18.756561488007765,1.6095129032072726,0.2946273788866522,B,487.1167000001151,Correct
1,401,495,A,55.63783075164001,64.55072147664579,2.7818915375820006,1.0139603618747566,A,546.4572999999291,Correct
1,401,496,A,44.064557522387126,62.340586942634054,2.203227876119356,0.9792436497972747,A,413.51680000025226,Correct
1,401,497,A,17.739048055311248,39.12759430224246,0.8869524027655623,0.6146148140628337,A,1102.3558000006233,Correct
1,401,498,A,38.714856502654946,46.94172563427304,1.9357428251327473,0.7373589019972991,A,514.4832999994833,Correct
1,401,499,A,14.459498883388239,31.69083689074446,0.7229749441694119,0.49779850181037594,A,650.5059000000983,Correct
1,401,500,B,65.58529200628675,52.31396976126716,3.2792646003143373,0.8217459154105776,A,829.0018999996391,Incorrect
1,401,501,A,30.92124638823166,64.12410348971937,1.5460623194115828,1.00725906220667,A,545.4595999999583,Correct
1,401,502,A,39.59498460620724,64.91434837832357,1.979749230310362,1.019672199889549,A,915.4148999996323,Correct
1,401,503,B,83.84984380841993,60.95476405317396,4.192492190420996,0.9574751947537524,B,1005.0612000004548,Correct
1,401,504,A,41.757548726618026,61.974297758496526,2.0878774363309014,0.9734899927473953,A,552.9691000001549,Correct
1,401,505,B,47.385661301314784,30.62059246717763,2.369283065065739,0.48098714171726104,B,504.39880000067205,Correct
1,401,506,A,57.89153637134052,77.5240721062888,2.894576818567026,1.2177452770274113,A,548.276800000167,Correct
1,401,507,A,45.141355835735325,67.96115713819744,2.2570677917867665,1.067531359974113,A,1217.27379999993,Correct
1,401,508,A,36.06848760409976,45.74925875225989,1.8034243802049879,0.7186276760163911,B,1374.7895000005883,Incorrect
1,401,509,B,67.24182222303264,45.073438952065466,3.362091111151632,0.7080119234191845,B,898.6997000001793,Correct
1,401,510,B,55.015308176954875,22.978204261727896,2.7507654088477436,0.3609407885066502,B,524.9233000004097,Correct
1,401,511,B,89.09902923324573,65.54472502441968,4.4549514616622865,1.0295741330913997,B,731.2720999998419,Correct
1,401,512,B,65.74838497249391,51.08009857427504,3.2874192486246954,0.8023643121279247,B,497.90979999943374,Correct
1,401,513,A,22.07638292085285,36.88147975902049,1.1038191460426425,0.5793329293222972,A,593.9533999999185,Correct
1,401,514,A,23.170126425163385,39.2076113692562,1.1585063212581692,0.6158717192122946,A,576.0172999998758,Correct
1,401,515,A,59.96965762715067,83.8488600622618,2.9984828813575337,1.3170948139174015,A,541.846600000099,Correct
1,401,516,A,18.801591351546804,33.84230139510731,0.9400795675773402,0.5315936272172037,A,526.401000000078,Correct
1,401,517,B,48.50331769909954,39.782695793063574,2.425165884954977,0.6249051242174305,A,652.7494000001752,Incorrect
1,401,518,B,69.83990800718604,51.4488481789457,3.4919954003593023,0.8081566173731621,A,981.0416999998779,Incorrect
1,401,519,B,48.434213819597844,29.477223131814956,2.4217106909798924,0.46302713819568486,A,807.8476000000592,Incorrect
1,401,520,B,31.37990612335084,14.092024472728614,1.568995306167542,0.22135700278865897,A,1518.7474999993356,Incorrect
1,401,521,B,62.01559913284349,40.94121616955261,3.1007799566421745,0.6431031197364906,B,1342.2098999999434,Correct
1,401,522,B,74.29432258426199,56.28576858037599,3.7147161292130995,0.8841347853688221,B,548.5760999999911,Correct
1,401,523,B,65.26546686861293,48.33392094378648,3.2632733434306465,0.7592274547809471,B,663.6183999999048,Correct
1,401,524,A,65.07769928870701,83.847710590896,3.25388496443535,1.3170767580634097,A,574.5550999999978,Correct
1,401,525,A,18.61427565007493,46.779992845658604,0.9307137825037465,0.7348184092945207,A,884.8658000006253,Correct
1,401,526,A,62.98521135031604,73.34054426561137,3.1492605675158023,1.1520305753756084,A,702.3063999995429,Correct
1,401,527,A,22.820982998603377,39.429142477673686,1.1410491499301687,0.6193515217260246,A,585.0931000004493,Correct
1,401,528,A,44.5987516445054,68.46796946013454,2.22993758222527,1.075492349310845,A,497.11310000020603,Correct
1,401,529,A,65.30154943449122,76.302301296413,3.265077471724561,1.19855374602403,A,688.0350999999791,Correct
1,401,530,A,28.02284453355805,45.511644343522306,1.4011422266779023,0.7148952376120057,A,516.1704000001919,Correct
1,401,531,A,55.336743756761635,74.41724918125149,2.7668371878380817,1.1689434166409036,A,872.0462999999654,Correct
1,401,532,A,25.93012387159355,40.377401154921095,1.2965061935796773,0.6342467341967406,A,1049.4614999997793,Correct
1,401,533,B,51.202487184747966,40.50853044120043,2.560124359237398,0.6363065082089688,A,752.9092000004312,Incorrect
1,401,534,B,52.79256244615856,36.63459482783604,2.639628122307928,0.5754548698918416,B,613.8781999998173,Correct
1,401,535,A,25.95133049837247,39.12475642250721,1.2975665249186235,0.6145702367521937,A,991.2999999996828,Correct
1,401,536,B,53.84899429247925,42.75729322451689,2.692449714623962,0.6716299914076346,B,782.1794000001319,Correct
1,401,537,B,54.30402137928672,25.84664029884887,2.715201068964336,0.40599807641420754,A,648.9658000000418,Incorrect
1,401,538,B,75.01947658590925,45.54767395130274,3.7509738292954626,0.7154611893675794,A,710.5240000000776,Incorrect
1,401,539,A,47.81117903235182,79.57436663915654,2.390558951617591,1.2499512282381744,A,545.2894999998534,Correct
1,401,540,B,57.890831387391586,50.18585028145413,2.8945415693695793,0.7883174927918677,B,610.9512000002724,Correct
1,401,541,A,51.66068778680847,69.79427232812513,2.5830343893404235,1.0963258660434165,A,556.0585999992327,Correct
1,401,542,B,54.24371148451918,41.7858475594119,2.712185574225959,0.6563705585833571,B,606.5666999993482,Correct
1,401,543,A,49.20331274514176,68.56618849512193,2.460165637257088,1.0770351703046404,A,1029.5027000001937,Correct
1,401,544,A,36.74856629096852,59.533687397771565,1.8374283145484258,0.935152974849752,A,598.8861000005272,Correct
1,401,545,B,60.48006848221415,34.97574611560334,3.024003424110708,0.5493977352530061,B,564.7030000000086,Correct
1,401,546,A,32.410625870092254,62.33817647279479,1.6205312935046126,0.9792057862255811,A,662.3667000003479,Correct
1,401,547,A,52.116747945567205,72.16460418772499,2.60583739727836,1.1335589518268603,A,786.2591000002794,Correct
1,401,548,B,76.63994199629624,58.8906689336486,3.831997099814812,0.9250524644346955,B,1412.4678999996831,Correct
1,401,549,B,35.49874336841717,19.797048452830232,1.7749371684208586,0.3109713099108632,A,544.369000000188,Incorrect
