subject,day,trial,cat,x,y,xt,yt,resp,rt,fb
16,516,0,B,62.70777660384685,51.34131141066536,3.1353888301923427,0.8064674337670606,B,1404.9694000000272,Correct
16,516,1,B,51.56470679103124,35.543497462573015,2.5782353395515623,0.5583159525565342,B,1694.9084999998831,Correct
16,516,2,B,86.05779965950823,60.63527045012307,4.302889982975412,0.9524566009726846,B,1093.0251000002045,Correct
16,516,3,A,18.413915677441217,31.5898537243431,0.920695783872061,0.4962122619418622,A,527.5269999999637,Correct
16,516,4,A,55.18629608195833,62.6354735578015,2.759314804097917,0.9838757179165346,A,1111.818200000016,Correct
16,516,5,A,49.21592902977066,60.9144398389067,2.4607964514885334,0.9568417834772336,A,632.9192000000603,Correct
16,516,6,A,18.64270233672757,43.512412962177294,0.9321351168363785,0.6834913845097074,A,615.5667999998968,Correct
16,516,7,A,46.265604526469176,70.99228976042535,2.313280226323459,1.1151442798643507,A,408.4048999998231,Correct
16,516,8,A,34.58932408596399,53.229473369274935,1.7294662042981994,0.8361266124568382,A,507.44110000005094,Correct
16,516,9,A,44.66673382949493,68.47699433636032,2.233336691474747,1.0756341117350972,A,545.8284999999705,Correct
16,516,10,B,69.39736151167443,56.05482678895636,3.4698680755837215,0.8805071601921682,B,1223.6559000000398,Correct
16,516,11,A,45.100792197343964,60.259777483185864,2.255039609867198,0.9465583712406619,A,700.0871000000188,Correct
16,516,12,B,77.53111070003557,55.08055692716931,3.8765555350017786,0.8652033649901475,B,819.0002999999706,Correct
16,516,13,A,38.511818934133636,62.440766455366834,1.9255909467066816,0.9808172659034821,A,1308.400299999903,Correct
16,516,14,B,62.55845461289695,30.551379996398033,3.127922730644848,0.4798999547685711,B,1128.8336000000072,Correct
16,516,15,B,40.37159100543924,29.901767555078045,2.018579550271962,0.4696958664019141,B,956.4453000000412,Correct
16,516,16,A,44.28577480412158,62.751420812350986,2.214288740206079,0.9856970131320175,A,871.2261000000581,Correct
16,516,17,B,49.14442531445739,38.248552511172,2.45722126572287,0.600806857897707,A,658.8377999999011,Incorrect
16,516,18,B,56.41587746385635,34.4038135490578,2.8207938731928177,0.5404138395059649,B,630.145500000026,Correct
16,516,19,B,80.66970623481797,50.36291135408654,4.033485311740899,0.7910987616169612,B,655.2633999999671,Correct
16,516,20,A,30.330409589796986,46.55172661866313,1.5165204794898495,0.7312328117855625,A,591.8477000000166,Correct
16,516,21,A,13.743204906845278,38.48588348146044,0.6871602453422639,0.6045348440613444,A,528.6882000000332,Correct
16,516,22,A,41.55544955979485,57.920579290780495,2.0777724779897424,0.9098143319579055,A,925.1428000000033,Correct
16,516,23,B,33.68859290366689,18.000775275129147,1.6844296451833443,0.2827555168163326,B,825.0218000000586,Correct
16,516,24,B,45.92882911046616,15.962116268497134,2.296441455523308,0.2507323360242836,B,643.2574000000386,Correct
16,516,25,B,58.27735155639234,46.196353687893215,2.9138675778196172,0.7256506268426053,A,616.5157999998883,Incorrect
16,516,26,B,54.1351298928633,47.36588205451887,2.706756494643165,0.7440215354663855,A,984.2349999998987,Incorrect
16,516,27,B,55.55413569480359,24.18790416068989,2.7777067847401793,0.3799427100847867,B,576.267899999948,Correct
16,516,28,B,36.77171117798852,20.732436703562097,1.838585558899426,0.32566435419463036,B,519.4645999999921,Correct
16,516,29,A,41.58799879041482,52.62830946922464,2.079399939520741,0.8266835519968314,B,2233.6877999998705,Incorrect
16,516,30,A,27.258642949718087,39.984045585856705,1.3629321474859042,0.6280679193666341,A,556.1757000000398,Correct
16,516,31,B,68.25665708424641,37.39723539557338,3.4128328542123203,0.5874343999165076,B,594.5233999998436,Correct
16,516,32,B,40.482308424727464,20.584507109827115,2.0241154212363734,0.3233406815699987,B,551.276899999948,Correct
16,516,33,B,79.87966892577268,48.18111693626321,3.9939834462886337,0.7568272150435763,B,787.4017000001459,Correct
16,516,34,A,53.348446907290764,60.52272729246746,2.667422345364538,0.9506887771861712,A,1251.7133999999714,Correct
16,516,35,A,24.253622763989064,55.03423924924806,1.2126811381994531,0.8644758086067038,A,637.925100000075,Correct
16,516,36,A,35.010116739839674,60.30708633222305,1.7505058369919837,0.9473014969035868,A,590.2207999999973,Correct
16,516,37,B,75.11712134027484,63.80851895530928,3.7558560670137418,1.0023018719322234,B,591.0632000000078,Correct
16,516,38,A,64.33925784766362,85.63482656346545,3.216962892383181,1.3451487101160957,A,802.3684000002049,Correct
16,516,39,B,66.25524962516393,41.752594582953606,3.312762481258196,0.6558482220506001,B,719.9339999999665,Correct
16,516,40,B,52.12388674402685,35.90320508540802,2.6061943372013423,0.5639662266832277,B,1365.7435000000078,Correct
16,516,41,A,37.72595791751024,65.14948801600003,1.886297895875512,1.02336576468101,A,524.9594999997953,Correct
16,516,42,B,32.539530289834914,12.277282360999475,1.6269765144917456,0.1928511003568175,B,613.5248999999021,Correct
16,516,43,B,31.687539098076847,18.48424911844753,1.5843769549038424,0.29034990618819184,B,656.8737000000056,Correct
16,516,44,B,73.8354623688682,50.43967498739905,3.69177311844341,0.7923045619493485,B,577.4099000000206,Correct
16,516,45,B,46.1017138364378,35.72384730374485,2.30508569182189,0.5611488812370419,B,1379.3688000000657,Correct
16,516,46,A,45.25122160578568,77.57371245432242,2.262561080289284,1.218525025790932,A,551.7881000000671,Correct
16,516,47,B,77.83860412058183,58.07167107253438,3.891930206029092,0.9121876761157846,B,647.5359000000935,Correct
16,516,48,B,43.132295783809724,33.231967444406955,2.156614789190486,0.5220065239384203,B,634.5683000001827,Correct
16,516,49,A,41.515040790146,52.539318057483314,2.0757520395073,0.8252856781700357,A,902.1935999999187,Correct
16,516,50,A,47.869491919769025,66.95734385412315,2.3934745959884514,1.051763497779995,A,593.2769000000917,Correct
16,516,51,A,44.761627159144304,63.602242907552494,2.238081357957215,0.9990616953510021,A,758.2322000000659,Correct
16,516,52,B,54.68043541382182,25.723901410450512,2.7340217706910908,0.4040700984636972,B,1282.6986000000034,Correct
16,516,53,A,58.872523296234675,78.51961923839069,2.943626164811734,1.2333832948099799,A,2026.4230999998745,Correct
16,516,54,A,58.81898298841057,70.56642921043985,2.940949149420528,1.10845487798791,A,659.5721000001049,Correct
16,516,55,A,59.14360188217979,74.55684494520636,2.9571800941089896,1.171136181773468,A,504.2508999999882,Correct
16,516,56,B,84.41164722957235,68.49669084572503,4.220582361478617,1.075943503780705,B,562.2235999999248,Correct
16,516,57,B,34.04982963230384,10.606659041245056,1.702491481615192,0.16660901061553612,B,587.3211999999057,Correct
16,516,58,A,20.749757508711824,46.34297549966072,1.0374878754355912,0.7279537568761294,A,633.6661000000277,Correct
16,516,59,A,58.44999951241098,70.35703805268821,2.922499975620549,1.1051657693733141,A,820.2051000000665,Correct
16,516,60,A,45.04818652275665,54.36863213779352,2.2524093261378324,0.8540204765490902,A,766.9611999999688,Correct
16,516,61,A,56.272593326348286,78.25515628208254,2.8136296663174143,1.2292291204065584,B,742.159700000002,Incorrect
16,516,62,B,77.76543369635539,63.76196866895607,3.888271684817769,1.0015706617440747,B,622.1674000000803,Correct
16,516,63,B,78.99767101194846,47.830901484124006,3.9498835505974226,0.7513260435855055,B,558.7447999998858,Correct
16,516,64,A,21.85985377479739,33.80444354797788,1.0929926887398695,0.530998957545091,A,553.8171000000602,Correct
16,516,65,B,62.03395223352818,34.34565743232491,3.101697611676409,0.5395003253605182,B,1196.5898999999354,Correct
16,516,66,A,11.723012030942659,36.02807128533709,0.5861506015471329,0.5659276203651219,A,533.9834999999766,Correct
16,516,67,A,29.731357653511154,51.99256834672614,1.4865678826755577,0.8166973537967002,A,583.3802000001924,Correct
16,516,68,A,53.01432454901324,67.61962179838518,2.650716227450662,1.0621665354016359,A,720.4976999998962,Correct
16,516,69,B,64.83411703599222,52.30542741820784,3.241705851799611,0.8216117325995794,A,1562.4488000000838,Incorrect
16,516,70,B,59.91099240285676,51.26932802256927,2.9955496201428384,0.8053367213509446,B,977.6468000000023,Correct
16,516,71,A,14.258698429740821,30.91448142693964,0.7129349214870411,0.48560353870205836,A,510.08120000005874,Correct
16,516,72,A,18.402478354319324,46.83376592891689,0.9201239177159662,0.7356630749111464,A,1454.9348000000464,Correct
16,516,73,A,43.26492490320206,52.84874610480122,2.163246245160103,0.8301461625713786,A,681.1434999999619,Correct
16,516,74,B,56.325659540563564,36.748102967991805,2.816282977028178,0.5772378515880217,B,1317.2844000000623,Correct
16,516,75,B,79.69671463640228,55.75492000649087,3.9848357318201137,0.8757962354693916,B,730.04630000014,Correct
16,516,76,A,60.13735741435134,74.11644600971402,3.006867870717567,1.1642184114715106,A,574.7245000000021,Correct
16,516,77,A,56.202455727869,79.64316912125398,2.81012278639345,1.2510319750997048,A,480.96749999990607,Correct
16,516,78,A,54.79495459615412,62.34690711677407,2.7397477298077058,0.9793429268605129,A,566.7829999999867,Correct
16,516,79,A,24.513187800390185,35.292703750203,1.2256593900195092,0.5543764941347935,A,1027.7075999999852,Correct
16,516,80,B,79.87275927542474,65.3372317665362,3.993637963771237,1.026314836618219,B,656.7351000001054,Correct
16,516,81,B,85.99853043387192,68.04718776106004,4.299926521693596,1.0688827258379576,B,2492.328000000043,Correct
16,516,82,A,55.7564841303228,64.15864887208966,2.78782420651614,1.0078016998040196,B,1516.0662999999204,Incorrect
16,516,83,B,38.78850144917435,29.071295943114933,1.9394250724587174,0.45665084882612306,B,540.6479999999192,Correct
16,516,84,A,19.347133276324183,35.38146218239439,0.9673566638162092,0.5557707083273765,A,1078.8930000001073,Correct
16,516,85,A,17.04451531627631,42.76789772500506,0.8522257658138156,0.6717965665117775,A,698.4905999997864,Correct
16,516,86,B,78.65309987789409,56.74955058180518,3.9326549938947046,0.8914198560116077,B,790.3923000003488,Correct
16,516,87,A,30.66328269220911,51.75529749556497,1.5331641346104556,0.8129703119821056,A,909.281799999917,Correct
16,516,88,A,54.69450268329908,73.29937250744277,2.7347251341649543,1.1513838509106191,A,573.859099999936,Correct
16,516,89,B,66.16991158767357,39.511431444401026,3.3084955793836786,0.6206441137927351,B,853.6211999999068,Correct
16,516,90,B,74.60131632647496,47.149247470932735,3.730065816323748,0.7406186473848471,B,617.7633000002061,Correct
16,516,91,A,54.993753956124834,81.88306250519753,2.7496876978062414,1.286216138098812,A,521.5309000000161,Correct
16,516,92,B,59.77852475260864,27.316535455608268,2.988926237630432,0.42908713554432026,B,626.3488999998117,Correct
16,516,93,B,61.49210888453686,42.043214447027914,3.074605444226843,0.6604132682004158,B,770.0890999999501,Correct
16,516,94,A,18.074652341490015,44.46076810326404,0.9037326170745007,0.6983881122308685,A,836.019800000031,Correct
16,516,95,A,68.93271810070819,86.27556221026572,3.4466359050354094,1.3552133621204998,A,997.9902999998558,Correct
16,516,96,A,43.20304377956201,73.63980685411174,2.1601521889781004,1.1567313811232438,A,833.5801999996875,Correct
16,516,97,A,22.263229667618024,47.77150858784233,1.1131614833809012,0.7503931021523359,A,674.7107000001051,Correct
16,516,98,B,47.16280187390801,39.033470080446286,2.3581400936954005,0.6131363142442352,B,1654.0603000003102,Correct
16,516,99,A,18.404542033030832,43.38902503149056,0.9202271016515416,0.6815532114267719,A,645.241800000349,Correct
16,516,100,B,66.53666534633392,40.7345447949878,3.3268332673166956,0.63985673337629,B,552.85479999975,Correct
16,516,101,B,42.6990612214395,27.23484509178045,2.134953061071975,0.42780394630996754,B,667.3369999998613,Correct
16,516,102,B,63.785271418630565,43.75159723809565,3.1892635709315282,0.6872484823301039,B,932.4844000002486,Correct
16,516,103,B,45.624113582074166,33.00604978551983,2.2812056791037083,0.5184578176510403,B,803.376599999865,Correct
16,516,104,B,86.11150092309735,62.413232387725884,4.305575046154868,0.9803847617803607,B,542.4487999998746,Correct
16,516,105,A,25.66993653918376,48.496631340200665,1.283496826959188,0.7617833037111347,A,742.9897999995774,Correct
16,516,106,B,69.4840137448332,57.10184687095633,3.47420068724166,0.8969537131810286,B,2096.951999999874,Correct
16,516,107,A,35.990527660110175,61.53157705444955,1.7995263830055086,0.9665357521902649,A,816.425700000309,Correct
16,516,108,A,20.83271972202496,40.727799401432904,1.041635986101248,0.6397507769821019,A,543.3419000000868,Correct
16,516,109,A,48.945355174912905,74.77933112648532,2.447267758745645,1.174630986536624,A,500.6055999997443,Correct
16,516,110,B,53.597148377192376,27.633523561840423,2.6798574188596187,0.43406637307339163,B,588.8900999998441,Correct
16,516,111,A,46.388922226088695,66.32917602777586,2.319446111304435,1.0418962606376243,A,553.6041999998815,Correct
16,516,112,A,29.371411607834105,61.09906565056246,1.468570580391705,0.9597418789450376,A,851.2582999996994,Correct
16,516,113,A,19.18058468160362,36.20263730157131,0.9590292340801809,0.5686696969359613,A,557.2186999997939,Correct
16,516,114,B,66.78061984096578,41.657256858027175,3.339030992048289,0.6543506605694059,B,670.6388999996307,Correct
16,516,115,A,52.625779588551666,79.65709297366142,2.631288979427583,1.2512506904618694,A,610.2129999999306,Correct
16,516,116,A,49.718611187812044,76.46893421483735,2.485930559390602,1.2011712097858709,A,756.1762000000272,Correct
16,516,117,B,68.98796601811442,46.49256414843212,3.449398300905721,0.7303034898763328,B,557.0102000001498,Correct
16,516,118,B,52.61411953199718,32.230929107857975,2.6307059765998595,0.5062822505181003,B,589.6027000003414,Correct
16,516,119,B,53.60210199331603,35.90820928688986,2.6801050996658016,0.5640448324962898,B,570.5973999997696,Correct
16,516,120,A,33.59154315965291,50.26179076235819,1.6795771579826453,0.789510363076459,A,545.2010999997583,Correct
16,516,121,B,37.601887861199444,21.352149280355807,1.880094393059972,0.335398776587592,B,564.0009999997346,Correct
16,516,122,B,54.87705712142572,25.12950047681231,2.743852856071286,0.39473327043167383,B,909.6716000003653,Correct
16,516,123,B,44.076227287003384,31.986948067804093,2.203811364350169,0.5024498053028579,A,417.02619999978197,Incorrect
16,516,124,A,37.98366806895515,68.58491875299798,1.8991834034477575,1.0773293845073562,A,788.606499999787,Correct
16,516,125,A,35.682494811845096,62.376808020490145,1.7841247405922547,0.9798126091577635,A,664.190200000121,Correct
16,516,126,B,51.447435834889426,42.507358169835825,2.5723717917444713,0.6677040207493314,B,633.0555999998069,Correct
16,516,127,A,40.44234084542765,47.34193687834467,2.0221170422713826,0.7436454055185965,A,615.9855999999309,Correct
16,516,128,A,14.31932656145327,33.61892193123383,0.7159663280726635,0.5280847908038648,A,596.9011000001956,Correct
16,516,129,B,48.29001830870038,22.960443794542343,2.414500915435019,0.3606618077404779,B,586.4733000003071,Correct
16,516,130,B,62.272682983758514,41.85234021675114,3.1136341491879254,0.6574150228024301,B,595.8662000002732,Correct
16,516,131,A,44.89190893775985,52.59502029350196,2.2445954468879927,0.826160646847359,A,794.7847999998885,Correct
16,516,132,A,11.440031358178253,38.23406706376429,0.5720015679089127,0.6005793210219068,A,613.8412999998764,Correct
16,516,133,B,83.3732599882631,53.00833341834702,4.168662999413155,0.8326529542305866,B,563.3837000000312,Correct
16,516,134,B,44.13266873390257,17.650985940071802,2.2066334366951286,0.27726103878973146,B,558.1624999999804,Correct
16,516,135,B,65.16391723899683,55.69382199726973,3.2581958619498415,0.874836510184801,A,522.882700000082,Incorrect
16,516,136,B,49.59517967862066,30.04149067388814,2.479758983931033,0.47189063201986625,B,939.6898999998484,Correct
16,516,137,B,35.622724839236085,21.687091688533442,1.7811362419618042,0.34066003963212466,B,617.8061999999045,Correct
16,516,138,B,62.374744600944226,37.79221827388408,3.118737230047211,0.5936387764604807,B,1149.1203000000496,Correct
16,516,139,B,65.69436993766593,39.11687608710619,3.284718496883296,0.6144464527331753,B,753.8535000003321,Correct
16,516,140,B,31.949841963313872,10.863554490218227,1.5974920981656937,0.17064431489170998,B,644.6060999996917,Correct
16,516,141,A,15.320375150142535,43.500745638705325,0.7660187575071268,0.6833081146211744,A,811.217299999953,Correct
16,516,142,B,32.716072306792285,20.026187831990196,1.6358036153396143,0.3145706228619485,B,1488.2280000001629,Correct
16,516,143,B,87.89726471474252,67.55437502965047,4.394863235737126,1.0611416415549983,B,725.7724999999482,Correct
16,516,144,B,64.90662511041931,37.34256104282278,3.245331255520966,0.5865755771918022,B,612.4136000003091,Correct
16,516,145,A,60.28386663813423,76.48072133488763,3.014193331906711,1.2013563614346556,A,1499.2824000000837,Correct
16,516,146,A,51.4287767676078,75.581006643009,2.57143883838039,1.1872236761029922,A,1544.597000000067,Correct
16,516,147,A,64.35308110651405,84.28057346923485,3.217654055325703,1.323876152256415,A,823.7773999999263,Correct
16,516,148,B,48.16063736474328,28.214215614928342,2.408031868237164,0.44318786251328657,B,533.600899999783,Correct
16,516,149,B,71.0304105695639,55.227182068412986,3.551520528478195,0.8675065473229608,B,689.7570000000997,Correct
16,516,150,B,40.53994032525259,17.460336271215674,2.026997016262629,0.27426632079429286,B,797.6405999997951,Correct
16,516,151,B,72.27553373361874,61.88272650964901,3.6137766866809375,0.9720515949340984,B,454.2230999995809,Correct
16,516,152,B,66.3130460403446,41.60895676805142,3.31565230201723,0.6535919645302282,B,992.7034999996067,Correct
16,516,153,A,26.504234589435928,56.40979240460089,1.3252117294717964,0.8860829470440974,A,580.3199000001769,Correct
16,516,154,A,65.96687150427735,77.90254444704681,3.2983435752138677,1.2236903066539728,A,484.89020000033634,Correct
16,516,155,B,78.96243186150939,53.05431414355463,3.9481215930754696,0.8333752177731814,B,640.504299999975,Correct
16,516,156,B,70.31032688653893,57.57460952219484,3.5155163443269464,0.9043798515411413,A,750.5783000001429,Incorrect
16,516,157,A,31.358892695232612,45.872527905125764,1.5679446347616306,0.7205639833416794,B,990.8780000000661,Incorrect
16,516,158,A,60.95841105252074,84.59634047324161,3.047920552626037,1.3288362087565837,A,466.2051000000247,Correct
16,516,159,A,55.33607403376234,67.11201843456602,2.766803701688117,1.054193120408077,A,538.7897000000521,Correct
16,516,160,A,35.1942632122121,51.88742062294442,1.759713160610605,0.8150456972138287,A,1005.8098999998037,Correct
16,516,161,A,16.98428122891321,36.79589857170258,0.8492140614456605,0.5779886231754799,A,627.0880000001853,Correct
16,516,162,B,30.86942603204946,13.591086811756107,1.543471301602473,0.21348829241057052,B,530.0083000001905,Correct
16,516,163,A,51.5234129527694,77.5324040338233,2.57617064763847,1.2178761546390748,A,478.7061000001813,Correct
16,516,164,B,65.9227552641266,40.72081531163934,3.2961377632063296,0.6396410711561646,B,708.5197000001244,Correct
16,516,165,B,84.34112897702568,64.08009944066465,4.217056448851284,1.0065678482204774,B,2469.0809999997327,Correct
16,516,166,A,37.15335090998233,63.020999281589624,1.8576675454991163,0.9899315418246478,A,1064.4161999998687,Correct
16,516,167,B,42.24679674226719,14.69456213631591,2.1123398371133595,0.23082164227584398,B,2071.613999999954,Correct
16,516,168,A,51.030970029032076,70.3625480799447,2.5515485014516037,1.1052523206790645,A,591.0982999998851,Correct
16,516,169,B,57.19270835208766,38.32985834027496,2.8596354176043826,0.6020840068747263,B,1413.4040000003552,Correct
16,516,170,A,67.63233820434631,89.69944947385717,3.3816169102173155,1.4089956574905926,A,1434.7141999996893,Correct
16,516,171,A,27.55809137153019,47.536276137778735,1.3779045685765094,0.7466980794673073,A,1409.0738999998393,Correct
16,516,172,B,57.435527591691965,34.19478004950538,2.8717763795845985,0.5371303489732248,B,713.9483999999356,Correct
16,516,173,B,44.240813471559036,25.349430357811652,2.2120406735779516,0.39818792092393585,B,1342.06069999982,Correct
16,516,174,B,36.80243207158833,12.40689603757517,1.8401216035794163,0.1948870672274923,B,1151.7389000000549,Correct
16,516,175,B,83.22278797817341,54.515755132034386,4.161139398908671,0.8563314791384965,B,698.8326000000598,Correct
16,516,176,B,41.64302790716464,17.074710747195542,2.082151395358232,0.26820892922780104,B,550.9594000000106,Correct
16,516,177,B,72.44685453348677,47.39852252425433,3.6223427266743387,0.7445342507660386,B,1227.6763999998366,Correct
16,516,178,A,18.708641741452066,47.47167430730867,0.9354320870726034,0.7456833162872413,A,750.4567000000861,Correct
16,516,179,B,68.16514526397715,43.352567683184574,3.4082572631988572,0.6809805407387347,B,1115.187800000058,Correct
16,516,180,B,57.04601062523027,38.12693018141093,2.8523005312615135,0.5988964188092577,B,1470.4999000000498,Correct
16,516,181,B,56.66998382389325,27.704839167441765,2.833499191194662,0.435186595986609,B,567.898299999797,Correct
16,516,182,B,72.38447553075393,53.27249691518408,3.6192237765376967,0.8368024247356362,A,735.6428000002779,Incorrect
16,516,183,A,51.460626295395286,59.90995472408535,2.5730313147697643,0.9410633681904184,B,2273.623200000202,Incorrect
16,516,184,A,66.91058580543927,85.27632146995826,3.3455292902719633,1.339517325275912,A,567.4168999998983,Correct
16,516,185,A,48.685245121292084,63.622089104314355,2.4342622560646046,0.999373438680746,A,629.4901000001119,Correct
16,516,186,B,57.78089373265492,33.733010033895305,2.889044686632746,0.5298768825297813,B,547.5639999999657,Correct
16,516,187,A,32.916727121290634,65.34040566494546,1.645836356064532,1.0263646920978478,A,534.1459999999643,Correct
16,516,188,B,37.91361900261356,11.931549004577597,1.895680950130678,0.18742033349363799,B,654.6564000000217,Correct
16,516,189,A,54.95118964127991,81.30793122389301,2.7475594820639957,1.277181997057832,A,548.7535000002026,Correct
16,516,190,B,64.02890296029823,42.93891523482168,3.2014451480149115,0.6744829032741532,B,685.5768999998872,Correct
16,516,191,A,39.890518044061885,65.79838704991485,1.9945259022030941,1.0335586468703515,A,1051.1132999999973,Correct
16,516,192,B,58.13783030425016,43.83477768491623,2.9068915152125077,0.6885550777333732,B,637.0716000001266,Correct
16,516,193,A,45.4150602328229,77.72370721191348,2.270753011641145,1.220881137933557,A,1253.6353000000418,Correct
16,516,194,A,44.10571888567131,74.08679500292892,2.2052859442835655,1.1637526545460726,A,563.995800000157,Correct
16,516,195,A,53.51076327440623,72.42075246974193,2.675538163720312,1.1375825196319305,A,632.9954000002544,Correct
16,516,196,A,51.46259834120788,79.41245266537616,2.5731299170603936,1.2474078894854648,A,585.2976999999555,Correct
16,516,197,B,51.023938061054565,35.817801437764366,2.551196903052728,0.5626247093230924,B,540.8892000000378,Correct
16,516,198,A,56.46341022582884,84.35004748045209,2.8231705112914423,1.3249674474726927,A,712.5230000001466,Correct
16,516,199,B,82.00230323139444,52.72011501185549,4.100115161569722,0.8281256300882709,B,604.3783999998595,Correct
16,516,200,B,59.62906068912794,41.516159831949125,2.981453034456397,0.652134313666555,B,598.0460000000676,Correct
16,516,201,B,57.255723475918764,36.490065257107155,2.862786173795938,0.5731846047036999,B,617.0661999999538,Correct
16,516,202,B,54.74171070842572,29.13146325694899,2.737085535421286,0.4575959547817597,B,1294.9067999998078,Correct
16,516,203,B,50.40680391545975,36.50792232121543,2.5203401957729876,0.5734651028107861,B,1210.805100000016,Correct
16,516,204,B,56.15676911790094,38.98941091657886,2.8078384558950473,0.6124442345165891,B,646.6654000000744,Correct
16,516,205,A,41.45040184644978,54.83200042111556,2.072520092322489,0.8612990485230455,A,623.811399999795,Correct
16,516,206,A,30.753402405637434,58.7874598207373,1.5376701202818717,0.9234312594801672,A,513.1824000000051,Correct
16,516,207,B,45.346633238300846,21.30885630887871,2.2673316619150423,0.33471873218186937,B,553.2119999998031,Correct
16,516,208,A,54.034551286754144,71.79240113412156,2.701727564337707,1.127712399932639,A,608.9367999998103,Correct
16,516,209,A,58.815670294916714,79.91107921462968,2.9407835147458354,1.255240297005563,A,672.1471999999267,Correct
16,516,210,A,41.76799070550614,50.776863112508295,2.088399535275307,0.797601100632953,A,746.3583999997354,Correct
16,516,211,B,70.612577565679,60.02150569932514,3.53062887828395,0.9428156068119886,B,591.6456999998445,Correct
16,516,212,A,27.78342217655836,55.25433838636505,1.389171108827918,0.8679331177678448,A,524.9017999999523,Correct
16,516,213,A,43.329154081434915,75.82379565887723,2.1664577040717456,1.191037397046112,A,592.5116000003072,Correct
16,516,214,B,82.119512954702,53.13717802127522,4.1059756477351,0.8346768405206563,B,463.6702999996487,Correct
16,516,215,A,54.73790251438258,71.30937285618194,2.7368951257191294,1.120125009485383,A,1847.4065000000337,Correct
16,516,216,A,14.034385856028024,35.63874055739466,0.7017192928014012,0.5598120275915184,A,625.368299999991,Correct
16,516,217,A,41.913292943657794,57.23118288369407,2.0956646471828897,0.898985318518336,A,834.5100999999886,Correct
16,516,218,A,45.8664518934497,62.360477717999665,2.293322594672485,0.9795560933660886,A,780.9881999996833,Correct
16,516,219,A,29.171404130522937,50.99450822822701,1.458570206526147,0.8010198621161112,A,479.22730000027514,Correct
16,516,220,B,37.49960924380275,24.33389107058466,1.8749804621901376,0.38223586710301516,B,586.8866000000708,Correct
16,516,221,B,62.43741265062756,41.667201531209415,3.121870632531378,0.6545068711304645,B,897.2012000003815,Correct
16,516,222,A,22.45377978747513,37.39728827120274,1.1226889893737566,0.5874352304849513,A,507.14190000007875,Correct
16,516,223,A,20.60527838610938,50.34692601000537,1.030263919305469,0.7908476644193086,A,409.4975000002705,Correct
16,516,224,A,26.69613004713622,49.708338322842394,1.3348065023568108,0.7808167524859883,A,432.97320000010586,Correct
16,516,225,B,63.754481267413674,34.122215877443296,3.187724063370684,0.5359905136239043,B,613.1378000000041,Correct
16,516,226,A,59.910144874745,71.1720597370707,2.9955072437372503,1.117968100054176,A,425.83179999974163,Correct
16,516,227,A,66.91460794946069,80.31439492199719,3.345730397473034,1.2615755653222789,A,810.407099999793,Correct
16,516,228,B,67.75847167922412,34.91231462845681,3.3879235839612054,0.548401355782877,B,558.0007000003206,Correct
16,516,229,B,70.0869900716436,50.07573539235602,3.50434950358218,0.7865878121586602,A,1047.6785000000746,Incorrect
16,516,230,B,67.36076118196537,41.255881119559724,3.3680380590982684,0.6480458652129133,B,881.0848999996779,Correct
16,516,231,A,60.49086906355731,82.69760472879312,3.0245434531778654,1.2990109374272452,A,759.1572000001179,Correct
16,516,232,B,86.5673869729276,65.0043209007774,4.32836934864638,1.0210854849673787,B,557.518699999946,Correct
16,516,233,A,32.15832692370837,57.17040767972074,1.6079163461854187,0.8980306638467207,A,597.2741999999016,Correct
16,516,234,A,48.36363649937881,78.36510705486492,2.4181818249689404,1.2309562231067066,A,440.0571000001037,Correct
16,516,235,A,44.74980652434621,55.34194697286024,2.2374903262173107,0.8693092702264682,A,584.6291999996538,Correct
16,516,236,B,38.48889407402519,21.579497059145716,1.9244447037012593,0.33896994714587364,B,647.7834000002076,Correct
16,516,237,B,75.91348003923734,61.75476482827625,3.795674001961867,0.97004157754339,B,620.2585000000909,Correct
16,516,238,B,44.34083644787753,26.940025577850744,2.2170418223938766,0.4231729322144851,B,635.9569999999621,Correct
16,516,239,B,50.46063192166625,37.72609313103015,2.5230315960833125,0.5926000851454433,B,573.9380999998502,Correct
16,516,240,A,16.674525053375778,38.99365596496864,0.8337262526687889,0.6125109155807664,A,487.61449999983597,Correct
16,516,241,A,29.535165451708902,53.04647770228404,1.4767582725854451,0.8332521232415516,A,537.8182999997989,Correct
16,516,242,B,78.95984592848563,54.4782758369948,3.9479922964242813,0.855742755748706,B,580.6235000000015,Correct
16,516,243,B,54.17131037856737,31.990570936620482,2.7085655189283684,0.5025067131931503,B,698.9872000003743,Correct
16,516,244,B,51.91535617170756,39.57395823612699,2.595767808585378,0.6216262823404292,B,736.5032000002429,Correct
16,516,245,A,60.38299055309719,78.87235504407161,3.0191495276548594,1.238924055888906,A,587.0033999999578,Correct
16,516,246,A,60.75575310626131,86.01742476397696,3.0377876553130654,1.351158548596114,A,583.1340999998247,Correct
16,516,247,B,48.0061895272155,38.27545212693907,2.400309476360775,0.6012293960740981,B,922.7507999999034,Correct
16,516,248,A,50.34655445186066,72.38715306260133,2.5173277225930333,1.137054741378741,A,727.7417999998761,Correct
16,516,249,B,87.42621610495979,67.6298558953805,4.371310805247989,1.0623272922213187,B,728.3235999998396,Correct
16,516,250,B,49.8068944430238,24.24437852006806,2.49034472215119,0.38082980724748,B,517.2656999998253,Correct
16,516,251,A,42.33556319965788,63.93813975493961,2.116778159982894,1.0043379506915788,A,540.4776000000311,Correct
16,516,252,A,41.96975008825596,71.77139717532441,2.0984875044127977,1.127382470519372,A,549.873700000262,Correct
16,516,253,A,57.25270230308591,72.01960611752321,2.862635115154296,1.1312813274662072,A,511.283899999853,Correct
16,516,254,A,21.60225405344571,50.76454669459871,1.0801127026722854,0.7974076347928366,A,602.6286000001164,Correct
16,516,255,B,85.02595596512606,68.85894514955778,4.251297798256303,1.0816337810789662,B,546.6228000000228,Correct
16,516,256,B,34.87430125436852,23.81717425134767,1.7437150627184257,0.3741192982865091,B,673.5579000001053,Correct
16,516,257,A,29.444097624628817,48.400572318842705,1.472204881231441,0.7602744121320888,A,465.576599999622,Correct
16,516,258,A,31.578004689683297,57.9600884061678,1.578900234484165,0.9104349396911585,A,668.6306999999942,Correct
16,516,259,B,63.24614208397908,37.5273024500588,3.1623071041989537,0.5894774884307349,B,1152.5047000000086,Correct
16,516,260,B,68.10095482864259,57.46323436957218,3.405047741432129,0.9026303747347824,A,622.8635000002214,Incorrect
16,516,261,A,37.397306132097846,57.56237396155194,1.8698653066048923,0.9041876558039998,A,1024.8188000000482,Correct
16,516,262,B,38.700305245104985,19.31406943343071,1.9350152622552492,0.3033846932149455,B,809.6583999999893,Correct
16,516,263,A,61.785813779355436,80.73778802830783,3.0892906889677714,1.268226208684109,A,650.2266000002237,Correct
16,516,264,A,54.37812055692706,66.96678538942612,2.718906027846353,1.051911805069727,A,546.2765000002037,Correct
16,516,265,A,58.395050115931156,77.06956780769899,2.919752505796558,1.2106059402000378,A,578.8149999998495,Correct
16,516,266,B,58.212277558063,36.6606417291246,2.91061387790315,0.5758640136605262,B,721.4125000000422,Correct
16,516,267,A,46.45337736409414,56.74488298629097,2.322668868204707,0.8913465375927208,A,708.5030999996889,Correct
16,516,268,B,64.99047589625363,41.228305150461175,3.249523794812682,0.6476127029032352,B,606.4696999997068,Correct
16,516,269,A,41.274890849085416,66.34124551116201,2.0637445424542706,1.042085847639317,A,799.3071000000782,Correct
16,516,270,B,44.41969991889863,26.985095045851118,2.2209849959449315,0.42388088176234096,B,1773.1364999999641,Correct
16,516,271,B,38.766185580516904,22.817254476472176,1.9383092790258452,0.358412595191869,B,741.1309999997684,Correct
16,516,272,B,64.21414514585972,56.437828726854626,3.2107072572929862,0.8865233405642273,B,1170.131400000173,Correct
16,516,273,A,34.92729742005606,58.60632787223941,1.7463648710028028,0.9205860454865104,A,506.13369999973656,Correct
16,516,274,A,20.94442497021776,43.99038878168044,1.047221248510888,0.6909994111254305,A,649.5832000000519,Correct
16,516,275,B,71.17221734852174,59.82564973191126,3.558610867426087,0.9397391084700429,B,1002.4632999998175,Correct
16,516,276,B,50.30275462179984,35.07028281103649,2.515137731089992,0.5508827141923431,B,715.015300000232,Correct
16,516,277,A,26.02362767256571,39.07636868258996,1.3011813836282855,0.6138101639109543,A,846.3575000000674,Correct
16,516,278,A,44.54833536591148,67.1182858579833,2.2274167682955737,1.0542915688649,A,902.6377999998658,Correct
16,516,279,B,77.13875094252418,50.216045507308586,3.8569375471262095,0.788791798290457,B,716.2002999998549,Correct
16,516,280,A,54.06090680644961,72.82397923283132,2.703045340322481,1.1439163908151928,A,484.4607999998516,Correct
16,516,281,A,34.27043959702508,56.41344185564335,1.713521979851254,0.8861402724870204,A,924.7637000003124,Correct
16,516,282,A,33.05921683919099,65.36291271747935,1.6529608419595494,1.02671823205232,A,795.9489999998368,Correct
16,516,283,B,36.08407185161579,25.531234027185295,1.8042035925807896,0.4010436862844353,B,711.8230000000949,Correct
16,516,284,B,52.97569707819465,44.859438943441276,2.6487848539097327,0.704650419144375,B,852.2662999998829,Correct
16,516,285,B,75.16349336857701,57.62358830843677,3.7581746684288504,0.9051492085163384,B,1097.5283999996464,Correct
16,516,286,B,43.622628116415115,28.54230105535688,2.181131405820756,0.4483414165602868,B,1447.0691999999872,Correct
16,516,287,B,51.390440895861175,25.464974766370027,2.5695220447930587,0.4000028882493877,B,2970.9382000000915,Correct
16,516,288,B,68.45789594732692,40.844119828518394,3.4228947973663457,0.641577933978073,B,633.8955999999598,Correct
16,516,289,B,65.90422739062295,44.94452867834555,3.2952113695311476,0.7059870055747308,B,2054.0344999999434,Correct
16,516,290,B,44.55105315138249,25.4074468336594,2.2275526575691247,0.3990992415954881,B,533.7789000000157,Correct
16,516,291,B,59.50643187946631,32.48878730305786,2.9753215939733155,0.5103326775766396,B,593.3863000000201,Correct
16,516,292,B,39.14581254810486,15.055041287733015,1.9572906274052428,0.23648403554516528,B,607.5077999998939,Correct
16,516,293,A,56.84711459729725,81.95920460021597,2.8423557298648627,1.2874121753305063,A,674.239899999975,Correct
16,516,294,B,56.06435227701698,44.682841308817856,2.803217613850849,0.7018764299865036,A,1605.5872000001727,Incorrect
16,516,295,B,36.36995221313728,22.334358264314837,1.818497610656864,0.35082727922906987,B,536.9165000001885,Correct
16,516,296,A,53.17341157149391,67.03983822915362,2.6586705785746956,1.053059316392786,A,744.1147999998066,Correct
16,516,297,B,57.2954959995441,41.0967791458686,2.8647747999772046,0.645546697254315,B,704.6818999997413,Correct
16,516,298,B,79.40295552511637,66.42935924168478,3.970147776255818,1.0434699348817706,B,672.4168999999165,Correct
16,516,299,B,58.46284883061768,36.81112645011651,2.9231424415308838,0.5782278221302548,B,634.083500000088,Correct
16,516,300,B,34.01479770250105,18.110106300263944,1.7007398851250526,0.2844728845431972,B,546.6821999998501,Correct
16,516,301,A,26.616774634092586,45.17177830303728,1.3308387317046293,0.7095566343320436,A,543.3640999999625,Correct
16,516,302,B,36.0156080586722,13.589237455001996,1.80078040293361,0.21345924278260767,B,495.3717999997025,Correct
16,516,303,A,15.282336971874546,35.40344711983536,0.7641168485937273,0.5561160469171474,A,643.2518999999957,Correct
16,516,304,B,68.81782084008132,54.67068397099132,3.440891042004066,0.8587650956499779,B,860.4083000000173,Correct
16,516,305,A,31.7412725076259,61.07231001779949,1.5870636253812949,0.9593216024483859,A,525.5327999998372,Correct
16,516,306,A,38.48612987864675,56.522785803677095,1.9243064939323375,0.8878578432063071,A,557.536500000424,Correct
16,516,307,B,81.30634519937024,62.867218011222384,4.065317259968512,0.9875159512784208,B,684.1802000003554,Correct
16,516,308,B,45.17506805178231,27.55387298070209,2.258753402589116,0.43281522467059985,B,692.721999999776,Correct
16,516,309,B,71.56883588754252,60.976788702870095,3.5784417943771256,0.957821157142169,B,1417.169400000148,Correct
16,516,310,A,64.46676875185712,84.0804193935826,3.2233384375928558,1.3207321393881395,B,1187.3774000000594,Incorrect
16,516,311,B,72.3893834514603,55.20819052662323,3.619469172573015,0.8672082288821257,A,510.4214999996657,Incorrect
16,516,312,B,38.477571496789615,11.633028105218095,1.9238785748394807,0.1827311781717838,B,584.3866999998681,Correct
16,516,313,A,19.283071038339795,44.97726067415955,0.9641535519169898,0.7065011585626638,A,534.4943000000058,Correct
16,516,314,A,57.6589570228017,83.34506895895899,2.8829478511400852,1.3091812817720014,A,471.9055999999,Correct
16,516,315,B,78.64742247860976,61.91737924070155,3.932371123930488,0.9725959187606056,B,1243.757000000187,Correct
16,516,316,B,80.11277744199856,64.50369888654868,4.005638872099928,1.0132217327567472,B,993.3126000000811,Correct
16,516,317,A,62.81912429898543,83.42262497284457,3.140956214949272,1.3103995287893244,A,544.2407000000458,Correct
16,516,318,B,77.02804923356037,62.8134189588733,3.8514024616780183,0.986670877740271,B,720.2199999996992,Correct
16,516,319,B,64.30925989219928,51.848891569634645,3.215462994609964,0.8144404842596898,A,1580.9501000003365,Incorrect
16,516,320,B,77.92521047000122,52.26562096699942,3.896260523500061,0.8209864543261702,B,473.96759999992355,Correct
16,516,321,A,47.06114034845002,66.81502123667718,2.353057017422501,1.0495278993329553,A,643.0659999996351,Correct
16,516,322,A,18.235999157779286,38.686383458453136,0.9117999578889644,0.6076842903351704,A,533.2756999996491,Correct
16,516,323,A,42.50985319146976,63.13914162047377,2.1254926595734878,0.9917873173442298,A,449.44329999998445,Correct
16,516,324,B,72.55443980668716,49.135273811302085,3.6277219903343574,0.7718150761885479,B,441.7246000002706,Correct
16,516,325,A,32.235988130581134,49.9871615391415,1.6117994065290566,0.785196497325866,A,426.2815000001865,Correct
16,516,326,A,18.7071376673522,33.84470921918165,0.93535688336761,0.531631449229319,A,631.5656000001582,Correct
16,516,327,B,51.941141971851835,33.1425826544868,2.597057098592592,0.5206024709416412,B,522.6231000001462,Correct
16,516,328,A,34.77922659532073,43.444866623884295,1.7389613297660365,0.6824303691089164,A,1043.7133999998878,Correct
16,516,329,B,54.62575968695166,33.055156839213495,2.731287984347583,0.5192291894466576,B,543.8789999998335,Correct
16,516,330,B,43.821483442104196,16.392720316271618,2.1910741721052096,0.25749624858975534,B,1523.4935999997106,Correct
16,516,331,A,45.16037172881104,59.72882556723887,2.258018586440552,0.9382181980479192,A,529.5852000003833,Correct
16,516,332,A,35.85106815482034,44.90305705129225,1.7925534077410168,0.7053355707803155,A,545.5928000001222,Correct
16,516,333,A,66.42550505012807,83.03730396801939,3.3212752525064038,1.3043469205991616,A,638.029700000061,Correct
16,516,334,B,54.35560411900811,37.30239402453929,2.717780205950406,0.5859446351440221,B,663.7225000004037,Correct
16,516,335,B,35.89485639044574,16.393359356006986,1.794742819522287,0.25750628660244523,B,493.8007999999172,Correct
16,516,336,B,53.45449405122499,25.330011909671306,2.6727247025612497,0.3978828966538268,B,513.4069999999156,Correct
16,516,337,B,62.48448805160524,40.047443124568616,3.124224402580262,0.6290637655759991,B,499.3363000003228,Correct
16,516,338,B,40.62929713869465,15.36308101951905,2.0314648569347327,0.2413227123371292,B,1496.3038999999299,Correct
16,516,339,B,54.29131331603344,33.49071014372052,2.714565665801672,0.5260708447550878,B,1266.0009000001082,Correct
16,516,340,B,47.76087243445754,28.883131340524386,2.3880436217228773,0.4536951661603026,B,621.8794000001253,Correct
16,516,341,A,59.82054710035358,72.82565176967479,2.9910273550176787,1.1439426629624942,A,728.4052999998494,Correct
16,516,342,A,56.41555787338767,67.25259573604279,2.8207778936693835,1.0564013034959814,B,2188.541200000145,Incorrect
16,516,343,A,34.25234565877716,46.102152662741645,1.712617282938858,0.7241709205997213,A,806.47799999997,Correct
16,516,344,A,12.125581521722161,36.7035931367734,0.6062790760861081,0.5765386927941804,A,709.3958999998904,Correct
16,516,345,B,39.857203577140496,23.23144752410282,1.9928601788570248,0.36491872436989103,B,1114.3873999999414,Correct
16,516,346,B,70.20390323095764,42.0424036118977,3.5101951615478817,0.660400531631974,B,895.0940999998238,Correct
16,516,347,A,24.896589022494744,47.52950701583473,1.244829451124737,0.7465917503484546,A,602.7093000002424,Correct
16,516,348,A,34.183138059105474,45.68337204750232,1.7091569029552738,0.7175927300782129,A,545.6269000001157,Correct
16,516,349,A,30.029698650664898,57.94846913664195,1.5014849325332449,0.9102524246322462,A,699.0066000003026,Correct
16,516,350,A,31.201170654803207,61.61554406395397,1.5600585327401604,0.9678547028912798,A,400.82329999995636,Correct
16,516,351,B,63.95072833539362,54.38713352966964,3.197536416769681,0.8543110957330863,B,1666.526900000008,Correct
16,516,352,B,39.73549879653027,25.347235373446544,1.9867749398265135,0.398153442190155,B,863.5141999998268,Correct
16,516,353,A,63.77649098517301,82.67421214203524,3.188824549258651,1.29864348753371,A,751.7923999998857,Correct
16,516,354,B,46.133894206040324,19.04487036464867,2.3066947103020166,0.2991561241307511,B,411.4002999999684,Correct
16,516,355,A,34.747849507034786,54.26933356382541,1.7373924753517394,0.8524606981966395,A,421.60009999997783,Correct
16,516,356,A,36.25309753480503,55.946287647678005,1.8126548767402513,0.8788022313478332,A,483.7117999995826,Correct
16,516,357,A,17.758774128296977,38.91298543731911,0.8879387064148488,0.6112437458956417,A,538.394000000153,Correct
16,516,358,A,51.59893142117913,79.44323912556759,2.5799465710589566,1.2478914820713018,A,605.9364999996433,Correct
16,516,359,B,61.06466539749127,32.06966872018159,3.0532332698745632,0.5037491782719042,B,483.21960000021136,Correct
16,516,360,B,59.054830921170634,50.13006680858402,2.9527415460585313,0.7874412480490653,B,676.3138000001163,Correct
16,516,361,A,63.00417315570556,83.46009565459656,3.1502086577852775,1.31098811688191,A,440.1866999996855,Correct
16,516,362,A,62.07123600369313,80.40247393367174,3.1035618001846563,1.26295910720234,A,609.0531999998348,Correct
16,516,363,A,34.45743478551179,64.07857758866206,1.7228717392755897,1.0065439430251215,A,655.1334999999199,Correct
16,516,364,A,62.66518380402335,87.99167884401199,3.1332591902011675,1.3821700591669024,A,488.8043999999354,Correct
16,516,365,A,68.0019160300525,81.87360134805056,3.4000958015026246,1.2860675225898752,A,554.4904000003044,Correct
16,516,366,A,39.89597925632164,71.17508846904973,1.994798962816082,1.118015675264851,A,503.1794000001355,Correct
16,516,367,A,56.368605363936354,69.14316444496625,2.818430268196818,1.0860982873312848,A,423.7628999999288,Correct
16,516,368,B,58.73097972889133,31.72428495462191,2.936548986444566,0.498323902769147,B,459.3550999998115,Correct
16,516,369,A,20.36577111789547,48.84929010049197,1.0182885558947734,0.7673228545639108,A,589.0371999998933,Correct
16,516,370,B,42.76252698054199,19.4899484678279,2.1381263490270994,0.30614739462685886,B,804.7649999998612,Correct
16,516,371,B,74.25027964989347,46.929352279910546,3.7125139824946736,0.737164541801472,B,555.413800000224,Correct
16,516,372,B,53.97418924153796,46.88244256602133,2.6987094620768977,0.7364276857387902,B,650.3155999998853,Correct
16,516,373,B,78.6926306703297,60.200481691469975,3.9346315335164856,0.9456269551224445,B,489.19759999989765,Correct
16,516,374,A,30.67004427487587,58.36540932812568,1.5335022137437935,0.9168017058450041,A,554.6428000002379,Correct
16,516,375,A,63.20268245198436,75.00747577136408,3.1601341225992177,1.1782146742381592,A,567.619299999933,Correct
16,516,376,B,61.961386496224485,43.04014766641618,3.0980693248112243,0.6760730585911648,B,674.6708000000581,Correct
16,516,377,A,25.547892794160504,48.29725702438127,1.2773946397080251,0.7586515392816711,A,512.481800000387,Correct
16,516,378,A,28.90842973963333,41.05529093256055,1.4454214869816664,0.6448950019236195,A,616.5113000001838,Correct
16,516,379,A,30.185596135798324,56.939534400130235,1.5092798067899162,0.8944041148513624,A,511.1397000000579,Correct
16,516,380,B,52.00468086401437,34.680429961748956,2.6002340432007185,0.5447589199558294,B,510.5983000003107,Correct
16,516,381,A,31.740806382808955,57.10185675324528,1.5870403191404479,0.8969538684116605,A,637.4990000003891,Correct
16,516,382,B,41.14307433557171,21.708631437076594,2.057153716778586,0.3409983852110413,B,509.8235999998906,Correct
16,516,383,B,68.26785126725025,36.208514830403566,3.4133925633625126,0.5687620209429646,B,582.0970999998281,Correct
16,516,384,A,16.97618073419206,46.042402674308406,0.848809036709603,0.7232323699761516,A,517.0221999997011,Correct
16,516,385,B,37.67777983957827,16.00062137678129,1.8838889919789137,0.2513371728508395,B,488.3248999999523,Correct
16,516,386,A,63.29684437359184,74.67282741869295,3.164842218679592,1.172958030206721,B,919.5240999997623,Incorrect
16,516,387,B,46.5192246644024,20.429856168073524,2.32596123322012,0.3209114302575795,B,604.7994000000472,Correct
16,516,388,A,38.53145513204008,63.794830820215864,1.926572756602004,1.0020868592089693,A,422.99769999999626,Correct
16,516,389,A,28.412519502365136,38.972204093257034,1.4206259751182568,0.6121739503678918,A,481.51300000017727,Correct
16,516,390,B,39.0860258719983,28.533087458334798,1.954301293599915,0.44819668971669835,B,1469.9480999997832,Correct
16,516,391,A,66.33884662674494,87.66079133705043,3.316942331337247,1.3769724903617269,A,782.8073999999106,Correct
16,516,392,B,57.77276009090377,34.91907977834896,2.8886380045451885,0.5485076225088849,B,532.8764999999294,Correct
16,516,393,B,45.15928201957859,20.929495129701262,2.2579641009789295,0.32875974071406416,B,488.2156999997278,Correct
16,516,394,B,46.081277104335896,22.64542180170846,2.304063855216795,0.35571345384844716,B,539.821700000175,Correct
16,516,395,A,55.213491002255964,71.1890383531524,2.7606745501127983,1.1182347995319282,A,616.241700000046,Correct
16,516,396,B,65.88239834777279,43.66604292906483,3.2941199173886395,0.685904598386433,B,1028.406200000063,Correct
16,516,397,A,31.423340018492688,63.73493385582123,1.5711670009246346,1.0011459998923968,A,526.3686000002963,Correct
16,516,398,A,55.06759252605653,70.48990494797688,2.7533796263028263,1.107252837684035,A,533.5538000003908,Correct
16,516,399,B,62.85519970042868,30.679857542039493,3.142759985021434,0.4819180753362634,B,637.0265000000472,Correct
16,516,400,B,31.668067254479002,18.59398799481394,1.58340336272395,0.2920736804272214,B,642.5494000000072,Correct
16,516,401,A,52.173785122742586,74.91025493144645,2.6086892561371293,1.1766875328558537,A,670.6807999999,Correct
16,516,402,B,58.33882043142583,36.98010107365648,2.9169410215712914,0.580882069310036,B,707.3991000002025,Correct
16,516,403,B,57.39397424409819,34.925471800136165,2.86969871220491,0.5486080281523263,B,774.7264999998151,Correct
16,516,404,A,37.54279313792646,67.37527292154599,1.8771396568963228,1.058328312219681,A,499.98420000019905,Correct
16,516,405,A,32.178527736150436,43.105491086597866,1.6089263868075219,0.6770994706351808,A,616.1244999998416,Correct
16,516,406,A,22.40045279611233,50.08428740834913,1.1200226398056166,0.7867221469117469,A,624.6952000001329,Correct
16,516,407,A,27.990975901821127,47.379409618834934,1.3995487950910563,0.7442340259497671,A,418.12130000016623,Correct
16,516,408,A,67.16688458028405,88.45622132515635,3.358344229014202,1.3894670753971199,A,747.2516000002543,Correct
16,516,409,A,12.845244545363943,36.28940225044927,0.6422622272681972,0.5700325975658816,A,810.4110000003857,Correct
16,516,410,B,84.85293400185103,61.62846861359795,4.242646700092552,0.9680577212423424,B,571.2633999996797,Correct
16,516,411,A,36.096781927627056,49.94951744514435,1.804839096381353,0.7846051852801037,A,548.1250999996519,Correct
16,516,412,A,34.62771467593817,65.10098163526605,1.7313857337969085,1.0226038282341794,A,579.5582999999169,Correct
16,516,413,A,36.120214313502686,56.32247940070859,1.8060107156751344,0.8847114375861428,A,1017.1130999997331,Correct
16,516,414,B,63.47756737319689,48.61939387963562,3.1738783686598446,0.7637116531712591,B,1618.4848000002603,Correct
16,516,415,A,22.584758654548967,53.12636996521597,1.1292379327274482,0.8345070679730796,A,533.8291999996727,Correct
16,516,416,A,19.732162921316952,41.29816132182155,0.9866081460658477,0.6487100010770036,A,699.3920999998409,Correct
16,516,417,B,73.9729599723754,59.97523018803351,3.69864799861877,0.9420887127804142,B,521.7616999998427,Correct
16,516,418,B,56.05812459838227,39.09459928673249,2.802906229919113,0.6140965295711778,B,676.2437000002137,Correct
16,516,419,A,50.247083942351395,71.83163947756314,2.5123541971175696,1.1283287543901146,A,710.2102999997442,Correct
16,516,420,A,31.17327459535797,43.18906127682756,1.5586637297678985,0.6784121881136044,A,647.6336000000629,Correct
16,516,421,A,53.21210331404926,70.43009031719687,2.660605165702463,1.1063132716608566,A,673.7889999999425,Correct
16,516,422,B,68.90502406821325,40.868146833495004,3.445251203410663,0.6419553492896843,B,535.0717000001168,Correct
16,516,423,A,30.752890996851423,56.0839469093929,1.5376445498425713,0.8809645779743437,A,550.2816999996867,Correct
16,516,424,B,45.73485333914438,29.487657977000495,2.2867426669572186,0.4631910483605661,B,917.1762999999373,Correct
16,516,425,B,35.99249958911538,16.16039093282534,1.799624979455769,0.2538468271685159,B,504.7836999997344,Correct
16,516,426,A,25.229822723473085,38.629461436950436,1.2614911361736543,0.6067901613122686,A,1025.9114999998928,Correct
16,516,427,B,82.35483448351853,68.52901075366759,4.117741724175926,1.0764511837074902,B,535.4553999995915,Correct
16,516,428,A,44.111933469743846,63.78944086676185,2.2055966734871926,1.0020021940180976,A,465.6614000000445,Correct
16,516,429,A,22.1355800396739,54.37203812701521,1.106779001983695,0.8540739777026755,A,1635.3488999998262,Correct
16,516,430,B,49.56466252839177,41.921108367995195,2.4782331264195885,0.6584952303961766,A,623.7530999997034,Incorrect
16,516,431,A,58.84971701561959,70.18494237182523,2.9424858507809795,1.1024624967397456,A,706.5475000003971,Correct
16,516,432,B,80.11129894285246,59.05247764389445,4.005564947142623,0.9275941497116715,B,1034.2992000000777,Correct
16,516,433,A,41.64177794541273,72.52406837827151,2.0820888972706366,1.139205402128108,A,741.341200000079,Correct
16,516,434,A,31.895942910623088,43.29554986115574,1.5947971455311543,0.6800849068846874,A,592.9541000000427,Correct
16,516,435,B,74.34488940513607,53.45810396223958,3.7172444702568037,0.8397179334130563,B,461.6593999999168,Correct
16,516,436,A,35.65005170740973,63.699796760638144,1.7825025853704863,1.0005940676919185,A,531.1880000003839,Correct
16,516,437,B,37.70772240880301,28.231014053580914,1.8853861204401505,0.44345173177060004,B,1094.2567000001873,Correct
16,516,438,A,43.30900113528975,75.49539853183124,2.165450056764487,1.1858789470371736,A,383.6524999996982,Correct
16,516,439,A,31.652426430169676,49.23024971334187,1.5826213215084837,0.7733069541691292,A,1329.5920999998998,Correct
16,516,440,B,77.29479702644073,63.185148354133254,3.8647398513220366,0.9925099894266312,B,635.0046999996266,Correct
16,516,441,A,42.10879409605338,72.79870291926609,2.1054397048026687,1.1435193514101607,A,459.2808000002151,Correct
16,516,442,A,16.014622754497776,38.392320942467734,0.8007311377248888,0.603065167135591,A,549.7661999997945,Correct
16,516,443,B,54.37444589275793,38.59727285050854,2.718722294637897,0.6062845441787921,B,1131.8817999999737,Correct
16,516,444,A,58.94939099950014,70.66148696347591,2.9474695499750068,1.1099480416809342,A,585.1297999997769,Correct
16,516,445,B,72.01040911858023,55.580419259548776,3.6005204559290114,0.8730551841461953,B,915.0735999996868,Correct
16,516,446,B,74.1963624533465,48.67633832173229,3.709818122667325,0.7646061343760274,B,1129.4113999997535,Correct
16,516,447,A,55.87058125883467,67.0247159490874,2.7935290629417335,1.0528217761729781,A,982.4051999999028,Correct
16,516,448,A,24.964543965012155,36.35289595285509,1.2482271982506077,0.5710299543110184,A,547.1257999997761,Correct
16,516,449,A,34.03890934166612,60.22502749059164,1.7019454670833059,0.9460125196334301,A,472.11479999987205,Correct
16,516,450,B,82.69495158192069,59.96711098526396,4.134747579096034,0.9419611766415451,B,593.0023000000801,Correct
16,516,451,B,50.81676109408867,33.38987570758185,2.5408380547044334,0.5244869411360772,B,735.0687000002836,Correct
16,516,452,B,47.715518429942954,30.193155572182185,2.3857759214971477,0.4742729786713064,B,645.9667999997691,Correct
16,516,453,B,59.694623386497355,52.26316662005454,2.984731169324868,0.8209479015345132,A,1157.457599999816,Incorrect
16,516,454,A,58.077755881796826,85.29577844675306,2.9038877940898415,1.3398229547527098,A,606.27839999961,Correct
16,516,455,A,12.666454313539102,33.504087225140566,0.6333227156769552,0.5262809714586663,A,586.7066000000705,Correct
16,516,456,A,13.581503647107414,42.2552009922846,0.6790751823553707,0.6637431450666071,A,535.4197999999997,Correct
16,516,457,A,16.67235547499161,43.67859214693708,0.8336177737495803,0.6861017210398117,A,604.6798999996099,Correct
16,516,458,A,29.192743220197332,41.420782931175225,1.4596371610098666,0.6506361368125879,A,598.628099999587,Correct
16,516,459,B,66.67337207093695,50.934461551621105,3.333668603546847,0.8000766511256232,B,488.8576999996985,Correct
16,516,460,A,22.143401558220006,41.15922694707033,1.1071700779110003,0.646527625021756,A,604.4654000002083,Correct
16,516,461,B,63.36299302597649,38.82074435509978,3.1681496512988248,0.6097948263643445,B,649.4691999996576,Correct
16,516,462,A,59.78275388977758,73.10463944748666,2.9891376944888792,1.1483249911577735,A,641.1831000000348,Correct
16,516,463,A,18.017234456057423,45.2487530413433,0.9008617228028711,0.7107657506939145,A,1472.6482999999462,Correct
16,516,464,B,69.8714671987776,47.33515175681681,3.49357335993888,0.7435388250788685,B,599.0105999999287,Correct
16,516,465,A,28.885106757034748,48.31514305779383,1.4442553378517373,0.7589324924375249,A,491.4341000003333,Correct
16,516,466,B,67.66861551252386,36.079551382094756,3.3834307756261928,0.5667362678340218,B,813.1189999999151,Correct
16,516,467,B,47.216749206553544,37.66531009451926,2.3608374603276774,0.5916453074406159,B,657.2630000000572,Correct
16,516,468,A,52.837630827392864,63.14001653229504,2.6418815413696435,0.991801060426981,A,709.4190000002527,Correct
16,516,469,A,48.71561692114862,60.37532097663101,2.4357808460574315,0.9483733241915486,A,561.0263999997187,Correct
16,516,470,B,48.75855680162702,29.924967983978853,2.4379278400813513,0.4700602978868886,B,565.4507999997804,Correct
16,516,471,A,57.89069207165532,74.50502879288081,2.894534603582766,1.1703222555560517,A,548.3837000001586,Correct
16,516,472,B,44.40205083425098,28.889608295798016,2.220102541712549,0.45379690593582894,B,555.8547999999064,Correct
16,516,473,A,20.509039141082617,37.04994602757976,1.0254519570541307,0.5819791912807146,B,562.7457000000504,Incorrect
16,516,474,B,88.1708841527987,65.7337634355855,4.4085442076399355,1.032543541510224,B,627.5797000002967,Correct
16,516,475,A,15.292493974730014,35.542652385629005,0.7646246987365006,0.5583026781189392,A,495.22060000026613,Correct
16,516,476,A,60.52316600673774,78.69458240580886,3.0261583003368866,1.2361316098170285,A,428.45249999982116,Correct
16,516,477,B,56.19939201472974,35.803177083327434,2.8099696007364865,0.5623949905007795,B,698.5527000001639,Correct
16,516,478,A,26.453123769907172,41.503165495338656,1.3226561884953585,0.6519301991043864,A,513.4467999996559,Correct
16,516,479,A,64.15222644091112,81.8614543438662,3.2076113220455564,1.2858767178943316,A,544.658199999958,Correct
16,516,480,B,69.40975512344511,60.10082653418684,3.4704877561722554,0.9440615755723792,B,551.5563999997539,Correct
16,516,481,B,54.80214862822579,43.053658927032984,2.7401074314112894,0.6762852929766372,A,728.6815000002207,Incorrect
16,516,482,A,32.928315706547075,41.52673019462718,1.6464157853273536,0.6523003525352309,A,528.7029999999504,Correct
16,516,483,A,29.903871743565627,60.10168701119587,1.4951935871782813,0.9440750919136301,A,677.6654999998755,Correct
16,516,484,B,57.75575587708406,27.165996128020886,2.887787793854203,0.42672246931619584,B,1315.7857000001059,Correct
16,516,485,A,58.147706257796784,68.48374206720766,2.9073853128898395,1.0757401048433892,A,420.35770000029515,Correct
16,516,486,B,58.90384289895609,30.7260410480637,2.9451921449478045,0.48264352415247674,B,863.1371999999828,Correct
16,516,487,A,47.72933825552636,68.19351184625272,2.386466912776318,1.0711811791933803,A,488.2279000003109,Correct
16,516,488,B,57.612338630637254,47.96330505680761,2.880616931531863,0.7534058340417648,A,564.6754999997938,Incorrect
16,516,489,B,45.13332456824231,19.439463011448694,2.2566662284121155,0.3053543709324887,B,1625.9352000001854,Correct
16,516,490,A,62.62347981854038,86.12289841165872,3.131173990927019,1.3528153247796355,A,635.3374999998778,Correct
16,516,491,A,38.998779936248575,69.64222539277155,1.9499389968124288,1.0939375183678783,A,455.77319999983956,Correct
16,516,492,B,52.489182520662816,33.848906276741154,2.6244591260331407,0.5316973764552971,B,1212.7435000002151,Correct
16,516,493,B,66.00533178318129,38.64819030534444,3.300266589159065,0.6070843536890518,A,558.1463000003168,Incorrect
16,516,494,B,86.35976098904104,64.89696367303193,4.317988049452052,1.019399121577404,B,552.112599999873,Correct
16,516,495,B,65.6855138469228,50.3811461307087,3.28427569234614,0.7913851928183413,B,1900.8269999999357,Correct
16,516,496,B,80.20704556624355,60.26755288715305,4.010352278312178,0.9466805070005718,B,507.1622999998908,Correct
16,516,497,B,59.01687217639156,42.969072265768396,2.9508436088195777,0.6749566088085346,B,1900.8581000002778,Correct
16,516,498,B,81.9787619830814,64.73653798592841,4.09893809915407,1.0168791607771464,B,488.19449999973585,Correct
16,516,499,A,30.52316073717389,52.366735741754844,1.5261580368586944,0.8225747614938753,A,480.4846000001817,Correct
16,516,500,B,52.515538903051834,41.546183527182066,2.625776945152592,0.6526059247684423,B,506.13710000016,Correct
16,516,501,B,37.81398020985297,20.553009868744955,1.8906990104926484,0.32284592406403834,B,1217.6070999998956,Correct
16,516,502,B,84.49840365354837,61.63380422905758,4.224920182677419,0.9681415328939941,A,571.0014999999657,Incorrect
16,516,503,B,53.398295563557966,28.396801118730572,2.669914778177898,0.4460559089002719,B,480.2804999999353,Correct
16,516,504,A,54.85049017557593,62.032509076078874,2.7425245087787964,0.9744043739857577,A,446.0759999997208,Correct
16,516,505,A,27.662145420304697,42.300301673821025,1.3831072710152348,0.6644515849155408,A,1225.4172000002654,Correct
16,516,506,B,44.60635388920915,24.866512504968874,2.2303176944604575,0.3906022650300446,B,620.1797999997325,Correct
16,516,507,B,84.21915092970256,54.72007300766484,4.210957546485128,0.8595408968238849,B,1257.4518999999782,Correct
16,516,508,A,20.805764976537173,46.50306087416617,1.0402882488268588,0.7304683720585968,A,1320.1036000000386,Correct
16,516,509,A,59.986397994773,69.22585315224481,2.99931989973865,1.0873971585078905,A,569.4905999998809,Correct
16,516,510,A,42.525818261608116,52.951494136197134,2.126290913080406,0.8317601248743997,A,559.8633999998128,Correct
16,516,511,B,65.97726462044146,34.93158709952225,3.2988632310220734,0.5487040870504554,B,618.3669000001828,Correct
16,516,512,B,72.70449149942823,48.51536039671204,3.6352245749714114,0.7620774990428588,B,1154.113900000084,Correct
16,516,513,A,52.964831076983984,79.44334717166788,2.648241553849199,1.2478931792554762,A,364.3072999998367,Correct
16,516,514,B,53.16612131569343,23.10427894016113,2.6583060657846715,0.36292116492449794,B,421.169799999916,Correct
16,516,515,B,71.14296247251085,42.36111738330972,3.557148123625542,0.6654068758463035,B,369.04480000021067,Correct
16,516,516,B,46.11866815819035,29.55219491486124,2.3059334079095177,0.4642047922099086,B,484.91650000005393,Correct
16,516,517,B,76.6555201230886,46.69602086320151,3.8327760061544303,0.733499380478548,B,471.4433999997709,Correct
16,516,518,A,52.67289403983459,71.23193055891534,2.6336447019917295,1.1189085487245336,A,368.52959999987434,Correct
16,516,519,A,42.74987921036659,73.1686271571867,2.13749396051833,1.1493301077513418,A,473.9509999999427,Correct
16,516,520,A,61.60772974886832,70.62952841319682,3.080386487443416,1.1094460379470534,A,496.03239999987636,Correct
16,516,521,A,16.29676338068518,45.2754594266529,0.814838169034259,0.7111852536133776,A,558.4195000001273,Correct
16,516,522,A,43.07016679559413,55.64705256731981,2.1535083397797066,0.8741018576970848,A,597.0328999997037,Correct
16,516,523,A,54.68749820891658,79.80233540009095,2.734374910445829,1.253532153161172,A,480.65600000018094,Correct
16,516,524,B,38.59294989366791,14.754677400938032,1.9296474946833952,0.23176593064437132,B,572.223699999995,Correct
16,516,525,A,68.51758809955004,83.67424738393645,3.425879404977502,1.3143520043801484,A,516.2712000001193,Correct
16,516,526,B,51.49046516188025,42.04793329028421,2.5745232580940125,0.6604873916169529,B,1515.712099999746,Correct
16,516,527,B,65.64218561347231,50.07238195309655,3.282109280673615,0.7865351364579514,B,799.6023999999124,Correct
16,516,528,B,84.9847665217763,60.84996837131408,4.249238326088815,0.9558290680324579,B,589.9622000001727,Correct
16,516,529,A,13.017756662815422,37.61379490081276,0.6508878331407711,0.590836108670133,A,523.2034000000567,Correct
16,516,530,B,65.8857916648171,53.29213917028195,3.2942895832408556,0.837110964557213,B,1100.37229999989,Correct
16,516,531,A,15.987217299331792,45.314698634844646,0.7993608649665895,0.7118016216543168,A,470.5809000001864,Correct
16,516,532,B,79.70161668572939,50.297187621762355,3.9850808342864696,0.7900663756437803,B,491.5415000000394,Correct
16,516,533,B,81.19707451103956,64.16188788615896,4.059853725551978,1.0078525781180447,B,618.4643999999935,Correct
16,516,534,A,41.94151633366997,49.78280903853176,2.0970758166834984,0.7819865357525747,A,610.2095999999619,Correct
16,516,535,A,26.967692875155386,52.17753576823784,1.3483846437577693,0.8196028152595731,A,669.8013000000174,Correct
16,516,536,B,61.19459101583826,28.61347847130564,3.059729550791913,0.44945946879551746,B,1048.6086000000796,Correct
16,516,537,A,50.97162632364884,67.27351532405979,2.548581316182442,1.056729907616133,A,457.1642000000793,Correct
16,516,538,A,57.56125709944772,74.20444756325871,2.878062854972386,1.165600736642113,A,901.3100000001941,Correct
16,516,539,B,67.96069189995158,59.06727715490159,3.398034594997579,0.9278266198869554,B,600.9558000000652,Correct
16,516,540,A,36.02768784716419,50.31209035928143,1.8013843923582096,0.7903004672973221,A,711.5536000001157,Correct
16,516,541,A,50.88294568247225,68.94099077842364,2.5441472841236124,1.0829225508034868,A,667.146099999627,Correct
16,516,542,A,28.911815679315417,51.03668705104748,1.445590783965771,0.8016824055156603,A,770.0759999997899,Correct
16,516,543,B,86.75959555944993,67.41680445295465,4.337979777972497,1.0589806879895098,B,433.2913000002918,Correct
16,516,544,B,79.27917984336763,57.10283655861841,3.963958992168381,0.8969692591584713,B,466.39779999986786,Correct
16,516,545,B,78.13464137521973,65.43292703597083,3.9067320687609866,1.0278180143954148,B,1285.1760999997168,Correct
16,516,546,B,50.18045308406115,41.584134612154635,2.5090226542030574,0.6532020590171701,B,1171.5580000000045,Correct
16,516,547,A,14.467101326341375,37.961143035308055,0.7233550663170688,0.5962922404079756,A,633.3156000000599,Correct
16,516,548,B,58.9802310794077,46.305499983231265,2.949011553970385,0.727365092840608,B,1416.840399999728,Correct
16,516,549,A,58.936602127202235,74.5643570419785,2.946830106360112,1.17125418151363,A,458.5016999999425,Correct
