subject,day,trial,cat,x,y,xt,yt,resp,rt,fb
18,418,0,B,55.92435904792703,37.65499706428057,2.7962179523963515,0.5914833107404454,B,686.774300000252,Correct
18,418,1,A,45.114902673102435,56.37706864948695,2.2557451336551217,0.8855689235007783,B,541.4209000000483,Incorrect
18,418,2,B,78.33517874741656,53.147977875174234,3.916758937370828,0.8348464842290012,B,527.1061999997073,Correct
18,418,3,B,57.95712377287237,47.75547900652292,2.897856188643619,0.75014131007777,A,658.9774999997644,Incorrect
18,418,4,A,24.880832538459345,52.27228310905838,1.2440416269229673,0.8210911030089182,A,396.929700000328,Correct
18,418,5,B,64.21728128819618,43.60720874898337,3.210864064409809,0.6849804332468136,B,433.0769000002874,Correct
18,418,6,B,62.452131067460485,52.65958691612367,3.122606553373024,0.8271748569838365,A,616.8158000000403,Incorrect
18,418,7,A,46.42189920433808,64.28914311152347,2.321094960216904,1.009851498523725,B,616.2876999997025,Incorrect
18,418,8,B,33.39033107325371,16.906012822531657,1.6695165536626857,0.26555902842380147,A,611.0625999999684,Incorrect
18,418,9,B,83.85034782382559,61.19634723019041,4.192517391191279,0.9612699744244815,B,307.3560000002544,Correct
18,418,10,B,66.62389857915356,46.1025170031984,3.331194928957678,0.7241766436462331,B,414.9465999998938,Correct
18,418,11,B,47.42787610464242,38.70507765467983,2.3713938052321213,0.6079779380828231,A,627.6573000000099,Incorrect
18,418,12,B,58.85439178284189,45.67329047546974,2.9427195891420945,0.717434369115042,B,463.5545999999522,Correct
18,418,13,B,75.65377003955034,58.09265338715937,3.782688501977517,0.9125172655431906,B,434.8697999998876,Correct
18,418,14,A,17.543009436616956,35.82178559881053,0.8771504718308478,0.562687292378459,A,484.013700000105,Correct
18,418,15,A,38.92407962669211,57.32869706565019,1.9462039813346055,0.9005170677066068,B,268.53620000019873,Incorrect
18,418,16,A,26.18185553223617,44.395674857821845,1.3090927766118086,0.697365629922471,A,191.59949999993842,Correct
18,418,17,B,77.20067799773288,65.0674564529551,3.8600338998866444,1.0220772159018876,B,462.261899999703,Correct
18,418,18,A,57.48185947414733,65.6203266127309,2.8740929737073664,1.030761680063591,A,528.2141000002412,Correct
18,418,19,B,68.73008244992259,56.50624404656733,3.4365041224961295,0.8875980058932396,B,450.97749999968073,Correct
18,418,20,B,50.2740945167114,37.925740110045915,2.51370472583557,0.59573613255838,B,836.3594000002195,Correct
18,418,21,A,48.79523870118393,64.50533302554018,2.4397619350591966,1.0132474017520003,A,1286.3416999998663,Correct
18,418,22,A,48.07628044828139,72.317968253555,2.4038140224140694,1.135967988939541,B,322.775300000103,Incorrect
18,418,23,B,81.65087047505628,57.60185138420512,4.082543523752815,0.9048077657089493,B,530.5001000001539,Correct
18,418,24,B,44.79758610993574,23.056129645330678,2.239879305496787,0.3621648375699235,A,423.20550000022195,Incorrect
18,418,25,B,80.48105190415973,67.45019002478733,4.024052595207986,1.0595051073255373,B,209.44749999989654,Correct
18,418,26,B,57.92951625771101,35.9467915267953,2.8964758128855506,0.5646508809035197,A,197.57120000031136,Incorrect
18,418,27,B,60.23025551474276,41.68069960513328,3.011512775737138,0.6547188983798484,B,310.10040000001027,Correct
18,418,28,A,43.40745416263381,74.29376433155981,2.1703727081316906,1.1670037211577986,B,291.99140000037005,Incorrect
18,418,29,A,27.95133298105271,37.839411195230575,1.3975666490526353,0.5943800811354988,A,818.3099999996557,Correct
18,418,30,B,65.98804286606958,42.84619164364223,3.299402143303479,0.6730264045098341,B,304.43119999972623,Correct
18,418,31,A,16.93473600575735,31.863698185543385,0.8467368002878675,0.5005138006795276,A,605.3996000000552,Correct
18,418,32,B,61.686499556063275,44.564282983388836,3.084324977803164,0.700014120165555,B,360.46329999999216,Correct
18,418,33,A,51.29862784220873,73.72886661023823,2.564931392110436,1.158130328501131,A,388.86279999996987,Correct
18,418,34,B,45.5577466643636,16.3175048899751,2.27788733321818,0.25631476743630655,B,284.33220000033543,Correct
18,418,35,A,48.72926556822569,67.96646327104179,2.4364632784112845,1.067614708513927,A,159.4387000000097,Correct
18,418,36,A,46.62695225097184,62.68788358814045,2.331347612548592,0.9846989727479709,B,351.16070000003674,Incorrect
18,418,37,A,59.21808739194832,76.39289780288868,2.9609043695974164,1.199976832619955,B,641.0760000003393,Incorrect
18,418,38,B,77.42676134832863,66.01167903757373,3.8713380674164313,1.036909029577845,B,459.61140000008527,Correct
18,418,39,B,54.16618505733986,44.1291015778252,2.708309252866993,0.693178306632067,B,354.50170000012804,Correct
18,418,40,A,47.90589412943818,67.73815996071102,2.3952947064719092,1.0640285285013,A,429.8159999998461,Correct
18,418,41,B,85.55034446424914,66.57191192879402,4.277517223212457,1.0457091472546303,B,225.73080000029222,Correct
18,418,42,A,36.02181686289573,66.39615796173997,1.8010908431447865,1.042948410395949,A,400.34800000012183,Correct
18,418,43,A,43.00551781988413,59.944049942552084,2.1502758909942066,0.9415989346297065,B,349.33619999992516,Incorrect
18,418,44,B,82.20470301498295,65.74530016308012,4.110235150749148,1.0327247600019416,B,504.9293000001853,Correct
18,418,45,A,50.13953464031133,63.37104995917038,2.5069767320155667,0.9954301250100072,A,576.6811000003145,Correct
18,418,46,A,54.98602249871112,83.26454694651247,2.749301124935556,1.30791644495823,A,433.5364999997182,Correct
18,418,47,B,75.81848895226373,56.292058865324606,3.790924447613187,0.8842335929337398,B,413.6567999998988,Correct
18,418,48,B,66.39103197801964,41.71620238058883,3.3195515989009823,0.6552765746726146,B,440.4488999998648,Correct
18,418,49,B,56.749392916698774,27.206563372523,2.837469645834939,0.42735969810271707,B,603.7876999998844,Correct
18,418,50,A,31.042629351272723,43.685943213825254,1.5521314675636362,0.6862171913284715,A,385.31879999982266,Correct
18,418,51,A,17.25247892868882,33.80003731795162,0.862623946434441,0.5309297446456883,B,292.3553999999058,Incorrect
18,418,52,B,36.59773090681094,23.238427526959608,1.8298865453405468,0.3650283659983756,A,393.6258999997335,Incorrect
18,418,53,A,33.94110301218846,52.927868540284265,1.6970551506094227,0.8313890148816169,A,513.3535999998458,Correct
18,418,54,A,10.527342310306768,34.406483658707984,0.5263671155153383,0.5404557814902714,B,463.9938999998776,Incorrect
18,418,55,A,55.4512505936085,74.7786331946918,2.7725625296804246,1.1746200234496482,A,1366.6591000001063,Correct
18,418,56,A,63.20763557611077,84.94752661022585,3.1603817788055384,1.334352627696545,A,480.59749999993073,Correct
18,418,57,B,70.16666994011518,46.96615303931188,3.508333497005759,0.7377426067783807,A,452.74449999988065,Incorrect
18,418,58,A,59.18090135367476,70.1923252754786,2.9590450676837383,1.1025784671191434,B,409.700900000189,Incorrect
18,418,59,B,77.56782601331874,51.80712106185308,3.8783913006659367,0.8137843546577735,B,639.261699999679,Correct
18,418,60,A,55.87155078806387,83.79377639249861,2.7935775394031936,1.3162295616560973,A,970.0579999998808,Correct
18,418,61,A,58.286352865188775,76.15163226363931,2.9143176432594387,1.1961870423916037,B,379.43570000015825,Incorrect
18,418,62,A,46.1403590401281,55.62936207387446,2.307017952006405,0.8738239760758534,A,290.62900000008085,Correct
18,418,63,B,50.7649249385757,35.47547295645261,2.538246246928785,0.5572474261130745,B,731.1877000001914,Correct
18,418,64,B,77.83401623354806,65.95948177607112,3.8917008116774023,1.0360891169114743,A,405.7269999998425,Incorrect
18,418,65,A,48.41084070710447,64.6816758565098,2.4205420353552234,1.0160173884634374,A,441.56500000008236,Correct
18,418,66,B,74.84660680024864,60.90524663223845,3.742330340012432,0.9566973769245741,B,486.56279999977414,Correct
18,418,67,A,54.10232702087773,71.25216440456511,2.7051163510438863,1.1192263812287695,A,470.2796000001399,Correct
18,418,68,B,50.04575798225853,24.73471950123674,2.5022878991129263,0.3885320653684477,B,433.0850000001192,Correct
18,418,69,B,37.23047449272018,16.944882286235693,1.861523724636009,0.26616958853190936,A,347.5874999999178,Incorrect
18,418,70,B,38.41239321511902,18.311277673238166,1.9206196607559507,0.2876328770804391,B,223.7224000000424,Correct
18,418,71,B,71.72621619258115,50.93185951291569,3.5863108096290572,0.800035778397217,A,393.68740000008984,Incorrect
18,418,72,A,15.357437308529224,31.77459994090007,0.7678718654264612,0.4991142487254316,B,367.7416999998968,Incorrect
18,418,73,B,47.80394626303672,39.83270298288003,2.390197313151836,0.6256906353182007,B,814.9830000002112,Correct
18,418,74,B,82.26193712328326,60.76869305215844,4.113096856164163,0.9545523983045704,B,538.5739000003014,Correct
18,418,75,B,68.62722664144982,55.64882554962587,3.4313613320724916,0.874129707638023,B,490.5886000001374,Correct
18,418,76,B,38.12696268549194,20.82261768742704,1.9063481342745972,0.3270809137766484,A,433.74579999999696,Incorrect
18,418,77,B,52.83709051065815,20.97043555965191,2.641854525532908,0.32940283148390304,A,546.8875999999909,Incorrect
18,418,78,A,22.069088367532547,34.84374509376576,1.1034544183766273,0.5473242680506496,A,430.2172000002429,Correct
18,418,79,A,35.163132181562446,56.82279901683248,1.7581566090781222,0.8925704397384511,A,444.3151000000398,Correct
18,418,80,A,41.12939801010688,60.802126368517044,2.056469900505344,0.9550775676098568,A,477.1325000001525,Correct
18,418,81,A,28.028495843922375,43.13998631986988,1.401424792196119,0.6776413204923368,A,414.5416000001205,Correct
18,418,82,A,17.365715743950904,36.3286642229818,0.8682857871975451,0.5706493231882499,A,418.13890000003084,Correct
18,418,83,B,76.44447488402929,47.81643611260588,3.8222237442014646,0.7510988220610416,B,411.82309999976496,Correct
18,418,84,A,13.215259554237317,30.25062407449246,0.6607629777118659,0.47517569179466024,A,466.4413999998942,Correct
18,418,85,A,37.42182246878168,51.07057018525429,1.8710911234390837,0.8022146405431839,A,597.2318999997697,Correct
18,418,86,A,53.871876115952766,69.9539699301487,2.6935938057976383,1.0988343901099822,B,444.40979999990304,Incorrect
18,418,87,A,15.992076413469274,37.06961364553618,0.7996038206734637,0.5822881295011421,A,306.7851000000701,Correct
18,418,88,B,74.57295426781626,45.0939904515737,3.728647713390813,0.7083347456185612,B,528.0628999998953,Correct
18,418,89,A,46.31909237466053,71.27350605919929,2.315954618733026,1.1195616151558405,A,363.37330000014845,Correct
18,418,90,A,62.929389080688594,82.90896678634795,3.1464694540344293,1.3023310048635544,A,396.74169999989317,Correct
18,418,91,B,78.42412410524918,48.89394541353059,3.9212062052624588,0.7680242985808404,A,431.80819999997766,Incorrect
18,418,92,A,47.543108804057425,55.358621626071134,2.377155440202871,0.8695711950666105,B,327.2953000000598,Incorrect
18,418,93,A,36.993654594231906,64.28931361972798,1.8496827297115954,1.0098541768603382,A,416.396099999929,Correct
18,418,94,A,56.74354534764853,80.4363081224194,2.837177267382426,1.263490573396389,A,481.25590000017837,Correct
18,418,95,B,72.33437021278648,57.84247033858688,3.6167185106393243,0.9085873994059502,B,466.92380000013145,Correct
18,418,96,A,12.886091796315796,39.807814601542745,0.6443045898157898,0.6252996895383559,A,490.65680000012435,Correct
18,418,97,B,62.64341689612158,48.713669919624756,3.132170844806079,0.7651925377444561,B,459.54340000025695,Correct
18,418,98,A,40.95658305996667,70.3573519923945,2.0478291529983337,1.1051707007266887,A,774.8586000002433,Correct
18,418,99,B,50.91427624304032,31.090261576150485,2.545713812152016,0.4883646868290969,B,480.7949999999437,Correct
18,418,100,B,50.13145500064333,31.986014963244344,2.5065727500321664,0.5024351481307082,A,511.1437999998998,Incorrect
18,418,101,A,40.2396813242081,67.55879976963384,2.011984066210405,1.0612111452081274,B,382.6144999998178,Incorrect
18,418,102,A,26.548177396952177,53.59711333148377,1.327408869847609,0.8419014874790449,A,529.1153000002851,Correct
18,418,103,A,45.35966787144148,58.7515322990452,2.267983393572074,0.9228669112891192,A,450.78639999974257,Correct
18,418,104,A,10.646291354980569,31.00066307705101,0.5323145677490284,0.48695727689637897,A,693.313599999783,Correct
18,418,105,A,60.45665916049984,85.04660700628868,3.022832958024992,1.3359089789184737,B,491.91789999986213,Incorrect
18,418,106,A,17.78078268865281,40.13110520633265,0.8890391344326405,0.6303779264832686,A,323.65660000004937,Correct
18,418,107,A,47.314715495782465,58.728801118997765,2.3657357747891234,0.9225098507478969,A,307.41249999982756,Correct
18,418,108,B,36.36231437617556,24.60048322387479,1.818115718808778,0.3864234868544199,A,315.69370000033814,Incorrect
18,418,109,A,51.740349366366814,65.32349350349564,2.5870174683183405,1.0260990364870124,B,380.78760000007605,Incorrect
18,418,110,A,16.43554094957485,35.07845279340863,0.8217770474787426,0.5510110479753445,A,1337.8308999999717,Correct
18,418,111,B,67.20115850747385,41.13506911367737,3.3600579253736926,0.6461481546621861,B,775.0796999998784,Correct
18,418,112,B,37.489401346562076,21.860356722850018,1.8744700673281038,0.3433816804267893,A,342.78870000025563,Incorrect
18,418,113,A,52.309603217813105,71.46460090709635,2.6154801608906553,1.1225633260073018,B,414.2934999999852,Incorrect
18,418,114,A,59.31269195828648,72.07452564042502,2.9656345979143235,1.1321440013146422,A,363.5421000003589,Correct
18,418,115,A,63.83892108423446,86.53465536477634,3.191946054211723,1.3592831878745297,A,340.9334000002673,Correct
18,418,116,B,83.23400893791576,55.032868934527,4.161700446895788,0.8644542837533998,A,329.91579999998066,Incorrect
18,418,117,B,70.57184434499416,43.367173817656365,3.5285922172497077,0.6812099733625043,B,316.6638999996394,Correct
18,418,118,A,47.1846336315517,78.42400086857717,2.359231681577585,1.2318813249692082,A,437.7988999999616,Correct
18,418,119,B,54.545915779142845,25.558892714633828,2.727295788957142,0.4014781479309166,B,438.3861999999681,Correct
18,418,120,B,41.60418095984424,20.971240556910306,2.0802090479922124,0.3294154763512687,A,387.6611000000594,Incorrect
18,418,121,A,15.003545809067635,44.67517689999094,0.7501772904533817,0.7017560377341798,B,399.5190000000548,Incorrect
18,418,122,B,55.69623240155984,38.451426033850424,2.784811620077992,0.603993587739979,B,346.29969999969035,Correct
18,418,123,B,40.628303038594524,18.41207505316797,2.0314151519297265,0.28921619862188197,A,478.17259999965245,Incorrect
18,418,124,A,43.35023758490688,55.27186277291035,2.1675118792453443,0.8682083901879918,A,657.7597000000424,Correct
18,418,125,A,52.919824966378044,77.77870560240159,2.645991248318902,1.2217450506311405,A,388.27020000007906,Correct
18,418,126,A,44.00597692186962,75.10835805366384,2.2002988460934807,1.1797993294229103,A,503.00330000027316,Correct
18,418,127,B,35.3388505946705,24.591625703016582,1.7669425297335248,0.38628435324213417,A,512.1650999999474,Incorrect
18,418,128,B,85.13865978845351,64.81895571335082,4.256932989422676,1.0181737754121254,B,500.8700000003046,Correct
18,418,129,A,19.6000855955826,49.30514503355832,0.98000427977913,0.7744834071080305,A,405.1398000001427,Correct
18,418,130,A,49.8745027936302,78.98109318855649,2.49372513968151,1.2406321106682996,B,424.5053999998163,Incorrect
18,418,131,A,35.19950243559587,50.899435359483,1.7599751217797932,0.7995264609861017,A,368.2443000002422,Correct
18,418,132,B,57.78394305353869,43.69835271927132,2.8891971526769344,0.6864121193841918,A,491.83240000002115,Incorrect
18,418,133,B,53.232010500402,43.491210008253205,2.6616005250201,0.6831583292882958,B,292.94930000014574,Correct
18,418,134,A,29.41313198428235,45.37569739707861,1.4706565992141176,0.7127597879708782,B,342.6054000001386,Incorrect
18,418,135,A,24.4598516435033,55.372380309108635,1.222992582175165,0.8697873159543791,A,286.93059999977777,Correct
18,418,136,A,29.926380904277707,47.81010387958176,1.4963190452138855,0.7509993555772945,A,454.3672000004335,Correct
18,418,137,A,32.20994685171463,53.3687418643469,1.6104973425857316,0.8383142368618114,A,386.5513999999166,Correct
18,418,138,A,35.63258754913386,45.87883119037291,1.781629377456693,0.7206629951148089,A,349.0396000001965,Correct
18,418,139,A,39.62749618224472,55.74196045454017,1.981374809112236,0.8755926673033808,A,363.38359999990644,Correct
18,418,140,B,59.895107084604774,44.67586790508611,2.9947553542302385,0.7017668920168327,B,562.3265000003812,Correct
18,418,141,A,33.4742384483166,66.74650947317271,1.6737119224158301,1.0484517190684046,A,350.46039999997447,Correct
18,418,142,B,81.41367050486315,63.82704867184023,4.070683525243157,1.002592936038857,B,477.6984000000084,Correct
18,418,143,A,21.51466034739167,48.946588695896914,1.0757330173695834,0.7688512173265547,A,412.55539999974644,Correct
18,418,144,A,15.427498734906475,31.152928407326012,0.7713749367453238,0.4893490551113209,A,527.6241999999911,Correct
18,418,145,B,51.48275850996436,31.51185802483625,2.5741379254982184,0.49498710835895066,B,424.1975999998431,Correct
18,418,146,B,68.11829009364655,45.58759417811293,3.4059145046823276,0.7160882548239619,B,588.6158000002979,Correct
18,418,147,B,31.149146003910815,14.42105132013716,1.5574573001955405,0.22652534442192143,A,508.09199999957855,Incorrect
18,418,148,A,49.01333912992018,80.37863740086316,2.450666956496009,1.2625846838205474,B,348.38970000009795,Incorrect
18,418,149,A,30.169636790964667,48.83274486534928,1.5084818395482333,0.7670629626180299,A,306.46840000008524,Correct
18,418,150,B,66.62986512511594,44.97214741313293,3.331493256255797,0.7064208396462781,B,481.0793999999987,Correct
18,418,151,A,34.56005928092113,47.49706218442318,1.7280029640460566,0.7460821081284071,A,429.8364999999649,Correct
18,418,152,A,20.915508680126443,51.90469825373117,1.0457754340063221,0.8153170936035841,A,519.4870000000265,Correct
18,418,153,B,62.06469760968751,30.549684355378663,3.1032348804843752,0.4798733197017232,B,544.0636999996968,Correct
18,418,154,A,14.252712493060539,30.3556490352621,0.712635624653027,0.47682542002064754,A,354.53000000006796,Correct
18,418,155,A,47.85257870875782,75.50650790144572,2.392628935437891,1.1860534526070077,B,501.3358999999582,Incorrect
18,418,156,B,61.241802774761986,28.090441626342525,3.062090138738099,0.441243625247053,A,338.88370000022405,Incorrect
18,418,157,B,56.17774035799813,32.15987684465452,2.8088870178999064,0.5051661641775957,B,398.4479000000647,Correct
18,418,158,A,17.09288960129228,37.524745652126015,0.8546444800646141,0.5894373263427232,A,488.682499999868,Correct
18,418,159,A,57.09744217252119,81.7170555976233,2.8548721086260596,1.2836085076924102,A,577.2581999999602,Correct
18,418,160,A,34.540140125858905,62.89296550274528,1.7270070062929452,0.9879203919295043,B,334.51170000034836,Incorrect
18,418,161,B,43.173649018482976,23.988656649833917,2.158682450924149,0.3768129375030308,A,343.0788000000575,Incorrect
18,418,162,A,55.567323923755154,81.74615226192269,2.7783661961877577,1.2840655570264448,B,388.3459999997285,Incorrect
18,418,163,B,84.98573147660419,61.05799550703286,4.24928657383021,0.959096750639065,A,308.6190999997598,Incorrect
18,418,164,B,59.723065876311765,37.03225827433043,2.986153293815588,0.5817013527023815,B,369.90330000026006,Correct
18,418,165,B,56.66806094548528,38.40388494161547,2.833403047274264,0.6032468140094344,B,363.02379999960976,Correct
18,418,166,A,46.661606409897146,53.389440986664056,2.3330803204948576,0.838639377914848,B,390.0862999998935,Incorrect
18,418,167,A,19.802180062929438,46.347031720195915,0.9901090031464719,0.7280174718393029,A,278.64020000015444,Correct
18,418,168,A,49.02109604213658,67.32065613053531,2.451054802106829,1.057470393672672,A,499.0603999999621,Correct
18,418,169,A,61.72722580787512,74.8959128104232,3.086361290393756,1.1764622473456359,A,541.023000000223,Correct
18,418,170,A,37.586937928287625,46.33118394963867,1.8793468964143814,0.727768535641511,A,379.91280000005645,Correct
18,418,171,A,26.343418661109528,39.218098677980706,1.3171709330554764,0.6160364534725188,A,328.64340000014636,Correct
18,418,172,A,32.89556160196075,60.2036549731663,1.6447780800980376,0.9456768009147692,A,421.6212999999698,Correct
18,418,173,A,51.00746161388842,79.88217972355872,2.550373080694421,1.254786344861358,A,345.78030000011495,Correct
18,418,174,B,80.56372495098628,58.072920637121925,4.028186247549314,0.9122073042304265,B,503.86150000031193,Correct
18,418,175,A,41.32984779543311,65.62576769254808,2.0664923897716556,1.0308471483454973,A,457.8144999995857,Correct
18,418,176,B,39.64729270263852,26.96695494581016,1.9823646351319257,0.4235959377372207,A,503.05989999969825,Incorrect
18,418,177,A,47.360266977662974,68.32850613935332,2.3680133488831485,1.0733016645907874,B,368.45679999987624,Incorrect
18,418,178,A,38.577163807528656,58.562293810318465,1.9288581903764328,0.9198943600593175,A,449.8591999999917,Correct
18,418,179,A,14.742237953820982,30.30925418349848,0.7371118976910492,0.47609665139332275,A,442.12470000002213,Correct
18,418,180,A,47.00035677742095,61.387044389350216,2.3500178388710475,0.9642654383958659,A,477.4763000000348,Correct
18,418,181,B,64.32021617773962,31.992303627380853,3.216010808886981,0.5025339302359689,B,670.0478999996449,Correct
18,418,182,B,42.37344815812784,28.683202554483152,2.1186724079063923,0.4505546921329613,A,468.97249999983615,Incorrect
18,418,183,B,84.91540833594223,69.0560220576516,4.245770416797112,1.084729457912265,B,402.48350000001665,Correct
18,418,184,B,69.09087812732302,48.93384676928455,3.454543906366151,0.7686510676113648,B,355.8920999998918,Correct
18,418,185,A,20.722954067348304,48.73422097907092,1.0361477033674151,0.765515353031354,A,489.4243000003371,Correct
18,418,186,B,55.14333153926356,28.18280327191228,2.7571665769631784,0.44269443858303004,B,430.9490000000551,Correct
18,418,187,B,73.27644157410677,47.54922066140125,3.663822078705339,0.7469014115688909,B,478.9754999997058,Correct
18,418,188,A,46.351173554606255,74.13974398235874,2.3175586777303128,1.1645843751700313,B,635.3816999999253,Incorrect
18,418,189,A,17.56571349959061,36.99961142692642,0.8782856749795306,0.581188537222545,A,397.6430000002438,Correct
18,418,190,A,41.499757714567885,71.89824854311756,2.0749878857283943,1.129375047145156,A,355.1681999997527,Correct
18,418,191,B,50.47042085775445,36.35471903929234,2.5235210428877224,0.571058591285809,A,403.9993000001232,Incorrect
18,418,192,A,59.349692833449296,77.08285799855375,2.9674846416724647,1.2108147020298086,B,528.7195999999312,Incorrect
18,418,193,A,23.454226254919174,52.26238010933547,1.1727113127459587,0.8209355470530282,A,399.8914999997396,Correct
18,418,194,B,67.60608151281664,49.21964804896383,3.3803040756408325,0.7731404236144997,B,452.06910000024436,Correct
18,418,195,A,65.70207704154762,82.9769540210792,3.2851038520773814,1.3033989458494022,B,477.1677000003365,Incorrect
18,418,196,B,44.75924473709826,35.37950082734338,2.2379622368549126,0.5557398994342798,A,538.980900000297,Incorrect
18,418,197,B,54.68553775460438,40.998371563350936,2.7342768877302195,0.6440009145628398,B,398.04559999993216,Correct
18,418,198,A,14.77193395308199,43.12165980479873,0.7385966976540996,0.6773534482667699,A,523.3211999998275,Correct
18,418,199,B,57.128798183537235,33.130047159455515,2.8564399091768617,0.5204055638461442,B,425.409199999649,Correct
18,418,200,A,37.01786112468721,49.13349195798301,1.8508930562343604,0.7717870869020631,A,558.6472999998477,Correct
18,418,201,A,31.172217933263717,42.05467405814505,1.5586108966631858,0.6605932753509088,B,372.50399999993533,Incorrect
18,418,202,B,69.033236507362,45.13176970454314,3.4516618253681,0.7089281807364956,B,460.75189999965005,Correct
18,418,203,A,50.874127543005145,81.42541589551449,2.5437063771502575,1.2790274419642096,A,553.4653999998227,Correct
18,418,204,A,20.9689305153417,37.46737322741218,1.048446525767085,0.588536122402725,A,468.4892000000218,Correct
18,418,205,A,25.405082111679405,50.28789764733702,1.2702541055839702,0.7899204490667472,A,412.2161000000233,Correct
18,418,206,B,55.9032941791759,35.88653149680649,2.795164708958795,0.56370431856593,B,423.0629999997291,Correct
18,418,207,B,41.02756957816232,28.224444710693774,2.051378478908116,0.44334854077383423,B,438.5093999999299,Correct
18,418,208,B,63.16099157891895,43.69827081212392,3.1580495789459473,0.686410832789729,B,558.2351999996717,Correct
18,418,209,B,55.55032742874282,37.478721477043216,2.777516371437141,0.5887143802910848,B,440.1603999999679,Correct
18,418,210,A,64.8832799185302,85.61435302320507,3.2441639959265105,1.3448271124977207,A,451.5118999997867,Correct
18,418,211,B,46.75495458144724,34.03220544935029,2.337747729072362,0.534576633125687,A,467.5480000000789,Incorrect
18,418,212,A,60.65145213101947,81.38047099851313,3.0325726065509735,1.2783214491730301,B,319.4164000001365,Incorrect
18,418,213,A,35.06625147745912,55.84324745077533,1.7533125738729558,0.8771836797197636,A,454.2959999998857,Correct
18,418,214,B,43.70229699599571,25.956517346383468,2.1851148497997857,0.4077240210408717,A,507.0119000001796,Incorrect
18,418,215,B,54.84533597848739,45.37825383111141,2.7422667989243696,0.7127999443427625,B,340.13690000028873,Correct
18,418,216,A,29.179969964220685,51.74473859037333,1.4589984982110342,0.8128044530872057,A,801.3759000000391,Correct
18,418,217,A,66.59013776243897,78.08868985431832,3.3295068881219487,1.2266142718738913,B,364.713799999663,Incorrect
18,418,218,A,22.049018538111454,44.067605382461025,1.1024509269055727,0.6922123266541679,A,483.1013999996685,Correct
18,418,219,B,52.975986707411856,21.964533568762757,2.648799335370593,0.3450180864957574,A,491.96200000005774,Incorrect
18,418,220,A,34.077348965978615,42.567310091607624,1.7038674482989307,0.6686457433343659,A,580.5206999998518,Correct
18,418,221,B,56.5985191361207,36.534059872226806,2.8299259568060346,0.573875670501987,A,543.2909999999538,Incorrect
18,418,222,A,15.99748490327239,41.64626351146073,0.7998742451636196,0.6541779774853484,B,354.0454000003592,Incorrect
18,418,223,A,24.169794256931343,48.39591493599649,1.208489712846567,0.7602012541334157,A,371.45970000028683,Correct
18,418,224,B,86.0654533507593,66.21974829885679,4.303272667537965,1.0401773738912683,B,537.2387000002163,Correct
18,418,225,B,77.19500476273227,47.43739805346235,3.859750238136613,0.7451449061508604,B,430.80800000007,Correct
18,418,226,A,48.715280565869804,73.83248410728325,2.4357640282934905,1.159757948338631,A,588.056399999914,Correct
18,418,227,A,67.64178220567459,84.22649175895401,3.3820891102837294,1.3230266387378558,B,552.2058999999899,Incorrect
18,418,228,B,77.95363679866702,47.254032368205735,3.8976818399333513,0.7422646047022471,B,567.0846999996684,Correct
18,418,229,A,36.40096483022385,58.318982645818764,1.8200482415111923,0.9160724372246745,A,798.5704000002443,Correct
18,418,230,B,47.09082527180892,21.325339639894356,2.3545412635904457,0.3349776517399966,A,710.5579000003672,Incorrect
18,418,231,B,87.19746034372238,59.72331572361878,4.359873017186119,0.9381316496267229,B,474.47339999962423,Correct
18,418,232,A,37.113022787964724,58.34371952075199,1.8556511393982362,0.9164610031474894,A,412.7269000000524,Correct
18,418,233,B,63.527424215632195,36.19377310518493,3.17637121078161,0.568530458464724,B,387.35940000015034,Correct
18,418,234,A,45.610988247139446,66.9230339225549,2.2805494123569723,1.051224558635195,A,425.13419999977486,Correct
18,418,235,A,35.61679502083873,67.00161046560459,1.7808397510419365,1.0524588360871419,A,442.2724000000926,Correct
18,418,236,B,86.3639334191113,69.54499687032212,4.318196670955565,1.0924102563086455,B,424.629300000106,Correct
18,418,237,B,55.16042110576227,34.33050912622904,2.7580210552881135,0.5392623763247925,A,451.6754999999648,Incorrect
18,418,238,B,43.973510669877086,25.413957661692173,2.1986755334938546,0.3992015134430708,B,341.35569999989457,Correct
18,418,239,A,33.882835896985384,56.257433561557036,1.6941417948492694,0.8836896999340172,A,500.25630000027377,Correct
18,418,240,B,34.106407734314274,21.979728698485655,1.7053203867157136,0.34525677103529634,A,529.7921000001224,Incorrect
18,418,241,A,41.30904966502837,60.278142465291126,2.0654524832514185,0.9468468477049877,A,332.60219999965557,Correct
18,418,242,A,21.113628431248795,50.39394468199845,1.0556814215624397,0.7915862319918838,A,560.2047999996103,Correct
18,418,243,A,69.29529999828739,86.06399212181086,3.4647649999143697,1.351890026942454,B,413.4596999997484,Incorrect
18,418,244,A,46.743329635711746,71.70401508394133,2.3371664817855873,1.1263240351030088,A,437.19430000010107,Correct
18,418,245,B,52.31423797227699,29.144728215122395,2.6157118986138492,0.45780432025749834,A,380.6543000000602,Incorrect
18,418,246,B,65.37571102567995,38.03715627555902,3.2687855512839974,0.5974862535937155,B,507.5809999998455,Correct
18,418,247,B,32.05483164472077,15.517514301027617,1.6027415822360385,0.24374854465041457,A,447.72100000000137,Incorrect
18,418,248,B,72.97508941493955,56.792554016823416,3.6487544707469772,0.8920953523892696,B,451.8656000000192,Correct
18,418,249,B,38.57777641007836,26.878200917290165,1.9288888205039176,0.4222017927173461,A,496.2845999998535,Incorrect
18,418,250,B,64.68593972475136,38.55120449659277,3.2342969862375686,0.6055609041676682,B,495.4741000001377,Correct
18,418,251,B,63.20598516477731,38.5211618530843,3.1602992582388656,0.605088995426965,B,595.076500000232,Correct
18,418,252,A,24.602367295189637,51.652801468217696,1.2301183647594818,0.811360308149424,A,449.22530000030747,Correct
18,418,253,A,60.99495163936149,78.34209133409172,3.0497475819680746,1.2305946930102156,B,518.4223000001111,Incorrect
18,418,254,A,59.01120638180261,84.60314833392052,2.95056031909013,1.3289431463820611,A,400.67369999997027,Correct
18,418,255,A,25.29962129035537,46.727780743596576,1.2649810645177684,0.733998263513188,A,459.7188000002461,Correct
18,418,256,A,59.86809905172695,69.27062641071251,2.9934049525863475,1.0881004552072875,B,492.54670000027545,Incorrect
18,418,257,B,65.5276694235446,39.59374237163831,3.2763834711772297,0.621937050814329,A,415.8570999998119,Incorrect
18,418,258,B,57.030071656376876,29.560163825124903,2.851503582818844,0.4643299675596157,B,309.1465000002245,Correct
18,418,259,B,75.94384552787953,48.09586784613429,3.797192276393977,0.7554881254672051,B,487.34779999995226,Correct
18,418,260,B,65.85573721287805,47.229972708071074,3.292786860643903,0.7418866764446125,B,341.45189999981085,Correct
18,418,261,A,35.601997949875155,66.06054474961323,1.7800998974937579,1.0376766103876236,A,451.82759999988775,Correct
18,418,262,A,41.928061666723174,69.41011564166612,2.096403083336159,1.0902915469233816,A,436.38989999999467,Correct
18,418,263,B,68.1996017698177,43.86563328399679,3.4099800884908853,0.6890397563503411,B,458.47299999968527,Correct
18,418,264,B,48.32626637741649,27.467249565090412,2.4163133188708246,0.43145454724002735,A,436.67539999978544,Incorrect
18,418,265,A,45.66050418666387,58.16470774895877,2.2830252093331938,0.9136490928116309,B,332.99940000006245,Incorrect
18,418,266,A,42.2541571184451,61.32884886379235,2.112707855922255,0.9633513052180439,A,198.67500000009386,Correct
18,418,267,B,61.20405752918552,39.18213470573786,3.060202876459276,0.6154715327175586,B,497.16699999999037,Correct
18,418,268,B,75.3789701602514,47.66250589906617,3.76894850801257,0.7486808919209322,B,756.1986999999135,Correct
18,418,269,B,57.846739512462804,34.93534920817628,2.8923369756231403,0.5487631821150029,A,617.197699999906,Incorrect
18,418,270,A,50.66986550673996,66.48909932864464,2.533493275336998,1.0444083299733602,B,302.7286000001368,Incorrect
18,418,271,B,39.125453368967655,24.75666821063962,1.9562726684483829,0.38887683488952696,B,383.58270000026096,Correct
18,418,272,A,44.12240080127901,52.62028035556703,2.2061200400639502,0.8265574309744237,B,419.4296000000577,Incorrect
18,418,273,B,46.87621768710443,22.009977335941787,2.3438108843552214,0.34573191552136284,A,339.761499999895,Incorrect
18,418,274,A,46.524541117358,69.4695600896484,2.3262270558679,1.0912252981287704,A,356.3267999998061,Correct
18,418,275,A,27.80159212991694,39.21436367469184,1.390079606495847,0.6159777841780516,B,358.5320000001957,Incorrect
18,418,276,B,67.76501019336465,57.23056519750352,3.3882505096682327,0.8989756159263436,B,508.6150000001908,Correct
18,418,277,B,43.48385193505317,17.281648887426645,2.1741925967526585,0.2714595059332888,A,492.92130000003453,Incorrect
18,418,278,B,53.59380186230573,21.512034341696875,2.679690093115287,0.3379102452582312,B,396.3587000002917,Correct
18,418,279,B,56.9148434771439,38.76644258102033,2.845742173857195,0.60894185609172,B,343.13750000001164,Correct
18,418,280,A,44.1450310912302,66.90713929309797,2.2072515545615103,1.0509748863795279,B,315.62540000004446,Incorrect
18,418,281,B,63.739376099723906,45.76649637601957,3.1869688049861953,0.7188984439772347,A,486.34119999996983,Incorrect
18,418,282,A,45.9213440327012,66.3973496061114,2.29606720163506,1.0429671287019637,B,341.5455999997903,Incorrect
18,418,283,B,61.96649835933704,53.53833153397355,3.0983249179668517,0.8409781451629303,B,470.68999999964944,Correct
18,418,284,B,58.98490573730759,26.48588749016421,2.9492452868653793,0.4160393478145284,A,367.7871999998388,Incorrect
18,418,285,A,64.98723787736823,88.34969008138614,3.2493618938684112,1.3877936865330887,A,514.8441000001185,Correct
18,418,286,B,47.55064117382848,36.91321805452741,2.3775320586914237,0.5798314733023071,B,703.5261000000901,Correct
18,418,287,A,32.46445897917292,49.33027518612289,1.6232229489586458,0.7748781506214327,A,581.3536000000568,Correct
18,418,288,A,25.167824906698883,51.0556098214234,1.2583912453349442,0.8019796436976532,A,413.9242999999624,Correct
18,418,289,A,46.57062430455891,62.39198841420811,2.3285312152279456,0.9800510622246784,A,362.0951999996578,Correct
18,418,290,B,59.0501341643197,51.39870872355574,2.9525067082159855,0.8073690286496218,B,311.3634000001184,Correct
18,418,291,B,51.53361854175206,30.52944739225733,2.5766809270876028,0.4795554382283585,A,284.31559999989986,Incorrect
18,418,292,A,32.13828366991873,59.420301467509866,1.6069141834959364,0.933371912822099,B,377.57260000034876,Incorrect
18,418,293,B,59.08813033789427,28.240495168613712,2.9544065168947133,0.44360066077727445,A,334.270700000161,Incorrect
18,418,294,B,80.73542577771849,50.86566461556609,4.036771288885925,0.7989959913811236,B,413.4641000000556,Correct
18,418,295,B,40.15176044681175,29.763109685431342,2.0075880223405873,0.4675178336786916,A,420.3953999999612,Incorrect
18,418,296,A,24.12638456448902,47.97332270941099,1.2063192282244508,0.7535631909608899,A,532.7062999999725,Correct
18,418,297,B,70.4512960948532,56.30643078296242,3.52256480474266,0.8844593464880848,B,344.58679999988817,Correct
18,418,298,B,60.295894977210935,45.57658873303411,3.0147947488605467,0.7159153816969165,A,428.7140999999792,Incorrect
18,418,299,B,51.06803027273904,21.410009841532947,2.5534015136369517,0.3363076481572254,A,417.99829999990834,Incorrect
18,418,300,A,31.791368333848066,57.387088192239716,1.5895684166924033,0.9014342733782492,B,364.75190000010116,Incorrect
18,418,301,B,46.690434931414416,20.043014156284965,2.334521746570721,0.31483493014590536,A,536.344999999983,Incorrect
18,418,302,B,59.05273481660715,44.85082336804735,2.9526367408303575,0.7045150860025549,B,352.92230000004565,Correct
18,418,303,A,44.961826508702345,75.79034432651271,2.2480913254351176,1.190511944746066,A,485.3391000001466,Correct
18,418,304,B,70.29554600669161,52.36445521063783,3.5147773003345804,0.8225389389948577,B,452.83229999995456,Correct
18,418,305,B,82.0963393479117,57.61379606889349,4.1048169673955845,0.9049953923772814,B,397.1177000003081,Correct
18,418,306,A,37.47449001634811,45.03992736446836,1.8737245008174057,0.7074855246321585,A,548.2959999999366,Correct
18,418,307,B,68.43594295181774,46.77301267464425,3.4217971475908873,0.7347087650246232,B,428.8931000000957,Correct
18,418,308,B,54.520070958224835,29.70307768037175,2.7260035479112417,0.4665748531483142,A,525.4483999997319,Incorrect
18,418,309,B,85.10606440204407,65.88607842536577,4.255303220102204,1.0349360997748502,B,305.0239000003785,Correct
18,418,310,B,66.85021003220824,34.08427108968265,3.3425105016104117,0.53539447829155,B,417.3534000001382,Correct
18,418,311,B,76.02201810010621,52.140557966864435,3.8011009050053106,0.8190219693138703,B,507.0052000000942,Correct
18,418,312,B,39.831604255891406,30.59282832764928,1.9915802127945705,0.4805510236333835,A,555.0135000003138,Incorrect
18,418,313,A,64.06940753937376,77.90393186737182,3.2034703769686876,1.2237121002014755,B,321.9541999997091,Incorrect
18,418,314,A,52.45982896218396,81.83100852675608,2.622991448109198,1.285398476117503,B,347.88049999997384,Incorrect
18,418,315,A,44.35667620068936,51.989894583166844,2.2178338100344677,0.8166553544169237,A,486.6600999998809,Correct
18,418,316,A,23.61765405489568,49.4862250366245,1.1808827027447841,0.777327805144754,A,464.629099999911,Correct
18,418,317,B,37.28896260939317,11.536614963569622,1.8644481304696583,0.18121672408422201,A,430.41390000007596,Incorrect
18,418,318,A,55.53409513602671,62.85256594892985,2.7767047568013354,0.9872857972221298,B,307.96150000014677,Incorrect
18,418,319,A,34.69007317108502,61.93523112667501,1.734503658554251,0.9728763355297404,B,309.6760000003087,Incorrect
18,418,320,B,85.54097176204624,64.9661445948456,4.277048588102312,1.0204858129560959,B,713.256900000033,Correct
18,418,321,B,59.719822893676366,28.163631097668606,2.985991144683818,0.44239328277424367,B,633.270000000266,Correct
18,418,322,B,33.50981567493248,12.557224625370441,1.6754907837466242,0.19724842316270308,A,532.5622000000294,Incorrect
18,418,323,A,49.49190807196081,71.03221496296369,2.47459540359804,1.1157714234792886,B,260.8399999999165,Incorrect
18,418,324,B,70.85188759019829,58.73333468437898,3.542594379509915,0.922581063826378,B,395.76919999990423,Correct
18,418,325,B,36.46629305272444,14.766041128403874,1.8233146526362218,0.23194443165799178,A,619.2622000003212,Incorrect
18,418,326,B,65.32482732801753,47.52522211324913,3.2662413664008767,0.7465244432560332,B,164.6402000001217,Correct
18,418,327,A,47.477496627415206,55.511757423294775,2.3738748313707605,0.8719766465444077,A,499.85160000005635,Correct
18,418,328,A,49.75869622684602,64.0752712832817,2.487934811342301,1.006492007701654,A,415.98049999993236,Correct
18,418,329,A,46.560199263330716,67.6352947824764,2.328009963166536,1.0624127260600398,A,446.6108000001441,Correct
18,418,330,B,69.14297866520258,50.319293491909846,3.457148933260129,0.7904136138400634,B,351.4549999999872,Correct
18,418,331,B,81.51945806652303,66.94888595350363,4.075972903326152,1.0516306413877397,B,490.50549999992654,Correct
18,418,332,B,78.96750434399297,48.079724478300655,3.9483752171996485,0.7552345460382534,B,470.7143000000542,Correct
18,418,333,B,61.95861669349008,40.84622851672113,3.097930834674504,0.6416110571749051,B,479.5633999997335,Correct
18,418,334,A,51.85423387139887,81.78661234276612,2.5927116935699432,1.2847011024901516,A,611.674000000221,Correct
18,418,335,A,46.03932815450534,56.5187131441878,2.301966407725267,0.8877938700206462,A,418.33290000022316,Correct
18,418,336,A,35.917412089397885,63.06018533262775,1.7958706044698942,0.9905470748749708,A,569.2349000000831,Correct
18,418,337,B,74.27470977610409,50.39882756749817,3.7137354888052045,0.7916629321779549,B,407.3187999997572,Correct
18,418,338,B,65.24095375975611,53.863206375905534,3.2620476879878053,0.8460812672466785,B,490.6397999998262,Correct
18,418,339,B,52.13998988692233,27.42903880738003,2.6069994943461166,0.4308543340614723,A,597.7250000000822,Incorrect
18,418,340,B,80.27172637844997,57.20768348731039,4.013586318922498,0.8986161908631222,B,370.4190999997081,Correct
18,418,341,B,65.38917321384383,35.71416010056571,3.269458660692192,0.5609967150053347,A,688.776400000279,Incorrect
18,418,342,A,18.156127176068967,35.52552463296189,0.9078063588034483,0.5580336360091814,B,429.74150000009104,Incorrect
18,418,343,A,31.198589224096025,63.666306196023434,1.5599294612048014,1.0000679991331276,A,794.4735999999466,Correct
18,418,344,A,66.22896928586039,88.52253975945341,3.3114484642930195,1.3905088029270458,A,2861.799699999665,Correct
18,418,345,A,13.702917216221522,36.19788729511509,0.6851458608110761,0.5685950840090243,A,791.7570999998134,Correct
18,418,346,A,57.40074329402562,70.44855492950977,2.870037164701281,1.1066033131128243,B,781.2668000001395,Incorrect
18,418,347,A,63.292494624623465,85.70663995283414,3.1646247312311733,1.3462767521984458,A,341.8607999997221,Correct
18,418,348,B,38.6681155921284,25.17917832075807,1.9334057796064201,0.3955136081796047,A,530.576199999814,Incorrect
18,418,349,B,78.24690794895076,65.70261230078975,3.912345397447538,1.0320542206290972,B,514.039799999864,Correct
18,418,350,A,54.791591582583465,63.30606266939567,2.739579579129173,0.9944093070493425,A,408.92359999998007,Correct
18,418,351,A,62.65162223612941,85.8933216251801,3.132581111806471,1.3492091410504554,B,423.31560000002355,Incorrect
18,418,352,B,64.44028062637115,49.79453146694409,3.2220140313185572,0.7821706712274866,B,473.5337000001891,Correct
18,418,353,A,39.876798357489655,55.17416974740156,1.9938399178744828,0.8666738317317648,A,615.3101999998398,Correct
18,418,354,B,80.59030372676195,60.26181425933524,4.029515186338097,0.9465903648456011,B,498.11469999986,Correct
18,418,355,B,76.55637983911538,50.02082909020781,3.827818991955769,0.7857253459813374,B,598.540999999841,Correct
18,418,356,A,35.62358848008104,56.11862776653483,1.781179424004052,0.8815093436044299,A,349.7090000000753,Correct
18,418,357,A,45.575511813918254,55.35206453328426,2.2787755906959126,0.86946819649397,A,483.8043999998263,Correct
18,418,358,A,52.010848058726914,65.21121253950282,2.6005424029363455,1.0243353312289234,A,440.2253000002929,Correct
18,418,359,B,50.49844074187581,39.802981578723085,2.5249220370937904,0.6252237725934316,A,599.7131999997691,Incorrect
18,418,360,B,79.44416114831917,51.97170287666171,3.9722080574159584,0.8163695997593597,B,429.2461000000003,Correct
18,418,361,A,64.87687008683126,83.61991116815071,3.243843504341563,1.313498493098467,B,387.3404000000846,Incorrect
18,418,362,A,54.50839214865456,67.30289580662169,2.725419607432728,1.05719141515701,A,517.0011999998678,Correct
18,418,363,A,67.46546748314296,88.62936154678361,3.373273374157148,1.3921867556386454,B,525.5671999998413,Incorrect
18,418,364,B,80.83393262133731,54.37440129740729,4.041696631066866,0.8541110982963903,A,380.19400000030146,Incorrect
18,418,365,A,48.576470645905985,56.3973138605115,2.4288235322952993,0.8858869345319037,B,602.0141999997577,Incorrect
18,418,366,B,59.08929784521693,47.34815052104755,2.9544648922608467,0.7437430091899336,A,434.5812000001388,Incorrect
18,418,367,A,21.894925433645682,34.29946342810206,1.094746271682284,0.538774711638986,A,364.5469000002777,Correct
18,418,368,B,88.836031818078,64.34152813960259,4.4418015909039,1.0106743606205824,B,538.8812999999573,Correct
18,418,369,A,41.070952013199665,59.841850828448386,2.0535476006599835,0.9399935946993486,B,440.4217000001154,Incorrect
18,418,370,B,71.58468089344517,39.926651336316205,3.5792340446722584,0.6271663726030604,B,495.6163000001652,Correct
18,418,371,A,58.06435458759731,72.59420782290871,2.9032177293798656,1.1403071499481034,A,845.7011000000421,Correct
18,418,372,B,52.31760535368703,25.937781155828105,2.615880267684352,0.40742971364784675,B,482.12869999997565,Correct
18,418,373,A,67.66095694242823,86.27243338873353,3.3830478471214116,1.3551642147068002,A,501.4552000002368,Correct
18,418,374,B,54.11642322445552,22.695244598975698,2.705821161222776,0.3564960685178274,B,397.7682999998251,Correct
18,418,375,A,52.32589199990392,75.86644736393032,2.6162945999951956,1.1917073684624009,A,524.1104000001542,Correct
18,418,376,A,49.118304571069224,65.27150356857085,2.455915228553461,1.0252823804989109,A,500.94720000015514,Correct
18,418,377,A,49.649633313152755,76.09249185487596,2.482481665657638,1.1952580670230974,A,505.1060000000689,Correct
18,418,378,A,31.514579080601663,57.446815754857084,1.5757289540300832,0.902372471737927,A,569.4226999999046,Correct
18,418,379,B,70.61536077841409,54.228946358531864,3.530768038920704,0.8518262974593933,B,419.3529999997736,Correct
18,418,380,A,51.230040403116526,68.42715359184484,2.5615020201558263,1.074851215151001,A,501.31999999985055,Correct
18,418,381,B,40.86275651535567,27.81691697932031,2.0431378257677837,0.4369471101387493,B,419.401900000139,Correct
18,418,382,B,42.02022411449059,24.41605450347092,2.1010112057245296,0.38352648728876115,A,503.0087000000094,Incorrect
18,418,383,B,76.65076859509307,54.621103927880185,3.832538429754653,0.857986294153965,B,449.2316999999275,Correct
18,418,384,B,42.37849534223905,21.87480385541383,2.1189247671119524,0.34360861545442883,A,488.3913999997276,Incorrect
18,418,385,B,44.42783302968067,20.99580132387984,2.2213916514840335,0.32980127597665876,B,319.8882000001504,Correct
18,418,386,B,45.26190292251643,31.387789930396586,2.263095146125821,0.493038251288768,A,355.20169999972495,Incorrect
18,418,387,A,17.254985377936904,40.0387938687062,0.8627492688968452,0.6289279033826172,A,450.3958000000239,Correct
18,418,388,B,31.980117659671468,10.583300048690635,1.5990058829835734,0.166242088418515,B,479.66290000022127,Correct
18,418,389,B,76.54175023396493,65.4668683307817,3.8270875116982466,1.0283511630075703,B,607.3962999998912,Correct
18,418,390,B,73.49484726083962,56.855730256421154,3.6747423630419807,0.8930877224402781,B,410.9875999997712,Correct
18,418,391,A,65.17774200587272,83.40989003165893,3.2588871002936357,1.310199488800961,B,670.3231000001324,Incorrect
18,418,392,A,40.214143025317554,65.56427768913119,2.0107071512658776,1.0298812656304788,A,422.91320000003907,Correct
18,418,393,A,58.281647091729035,76.28431676315918,2.9140823545864514,1.198271245636288,B,522.2155999999814,Incorrect
18,418,394,B,62.920106853905466,41.243948598342165,3.146005342695273,0.6478584296079339,A,413.83840000025884,Incorrect
18,418,395,A,46.49276569169256,72.5555101387398,2.324638284584628,1.1396992881466235,B,543.7857000001713,Incorrect
18,418,396,B,81.70179345272292,54.19950304805606,4.085089672636147,0.8513638030199525,B,504.90940000008777,Correct
18,418,397,A,48.60983863066211,79.06243548640695,2.4304919315331057,1.2419098324950653,B,570.2843000003668,Incorrect
18,418,398,A,37.00064131805076,65.77401704466465,1.850032065902538,1.0331758437230414,A,519.8040000000219,Correct
18,418,399,A,66.32798459657738,89.56393425646733,3.316399229828869,1.4068669894335848,B,383.8282000001527,Incorrect
18,418,400,B,72.7413291411124,53.98518289837395,3.63706645705562,0.8479972699811648,A,441.80160000041724,Incorrect
18,418,401,B,89.62771674361535,64.70321739696764,4.481385837180768,1.0163557621896842,B,428.0021999998098,Correct
18,418,402,B,65.41656946675582,44.23453441028986,3.270828473337791,0.6948344416916576,B,375.6045999998605,Correct
18,418,403,B,75.28877933775439,48.688486669756344,3.7644389668877194,0.7647969601805557,B,416.1858000002212,Correct
18,418,404,A,19.6317057978514,33.45318057381883,0.9815852898925699,0.5254813316496101,A,495.64460000010513,Correct
18,418,405,B,67.2096512914004,58.56733219826664,3.3604825645700203,0.9199735028721372,B,410.69459999971514,Correct
18,418,406,A,38.91790952170796,46.67996001617051,1.9458954760853981,0.7332470972833327,B,641.6278000001512,Incorrect
18,418,407,B,79.80647345222293,67.4428787725936,3.9903236726111464,1.0593902624446354,B,449.6294999999009,Correct
18,418,408,B,31.637398455010025,17.013501766297114,1.5818699227505013,0.26724746080417994,A,502.33950000028926,Incorrect
18,418,409,B,62.05707563706553,40.79995807127432,3.1028537818532764,0.6408842427174349,B,355.3001000000222,Correct
18,418,410,B,73.13448273699902,43.03268376712418,3.656724136849951,0.6759558159352504,B,474.506399999882,Correct
18,418,411,A,39.623076983768925,60.16299907823857,1.9811538491884462,0.9450381796106189,A,515.6394000000546,Correct
18,418,412,A,33.39130862115919,41.977083355814585,1.6695654310579595,0.6593744834487674,A,639.2322000001514,Correct
18,418,413,B,45.29353682582726,32.10941938597868,2.264676841291363,0.5043735802701216,B,358.9601999997285,Correct
18,418,414,A,63.30810991865749,88.49065735542376,3.1654054959328746,1.3900079952956543,A,498.84519999977783,Correct
18,418,415,A,39.71363060704182,60.45618076980811,1.985681530352091,0.9496434668526285,B,448.1210000003557,Incorrect
18,418,416,B,54.912171342725436,27.210711044229676,2.7456085671362715,0.42742484957753296,A,412.5464999997348,Incorrect
18,418,417,A,53.052832806776664,64.27215746197098,2.6526416403388335,1.0095846885644721,B,423.59840000017357,Incorrect
18,418,418,B,59.41128735478014,34.74901203632842,2.9705643677390072,0.5458362046641635,B,357.13080000004993,Correct
18,418,419,A,35.65192133372841,50.37383791808005,1.7825960666864205,0.7912703956828163,B,539.1958999998678,Incorrect
18,418,420,B,47.52022847331356,39.63431957125623,2.3760114236656777,0.6225744359754437,A,410.1207000003342,Incorrect
18,418,421,A,10.80739432685818,34.28045035534567,0.540369716342909,0.5384760549905179,B,266.67379999980767,Incorrect
18,418,422,B,39.74332151230225,25.071688716603873,1.9871660756151126,0.39382516542586415,A,495.95799999997325,Incorrect
18,418,423,B,43.98100083163355,24.70386380321521,2.1990500415816774,0.3880473851973186,B,373.48389999988285,Correct
18,418,424,A,41.747744654665226,70.24720602576082,2.087387232733261,1.1034405319286942,A,387.54289999997127,Correct
18,418,425,A,34.988383271231974,53.10243563767903,1.7494191635615988,0.8341311084352864,B,342.8884999998445,Incorrect
18,418,426,A,47.13203541787447,70.48783211323374,2.3566017708937235,1.107220277672029,A,334.9281999999221,Correct
18,418,427,A,56.793450876318076,75.85665616321732,2.8396725438159036,1.1915535686412522,A,563.9138999999886,Correct
18,418,428,B,48.08082462172763,19.61061725247187,2.4040412310863815,0.30804285546363436,A,464.33440000009796,Incorrect
18,418,429,B,54.585106948876685,41.626708837810355,2.729255347443834,0.6538708133899316,B,369.1564999999173,Correct
18,418,430,A,28.163745847067425,41.60731463301053,1.4081872923533711,0.653566169933325,A,631.2511999999515,Correct
18,418,431,A,54.85887902822232,79.12962190855379,2.7429439514111156,1.2429651943462525,B,540.5181000000994,Incorrect
18,418,432,B,67.73783131626342,58.42512734737632,3.386891565813171,0.917739754297828,B,602.0493000000897,Correct
18,418,433,B,64.2197614960679,47.26346720948789,3.2109880748033954,0.7424128068425462,A,311.5939000003891,Incorrect
18,418,434,B,50.33934761200822,21.877943349664495,2.516967380600411,0.3436579305147982,B,411.4257999999609,Correct
18,418,435,B,65.27455982225558,43.42860100300178,3.2637279911127792,0.6821748693335635,A,713.5582000000795,Incorrect
18,418,436,B,53.49577412740267,23.3936596602697,2.6747887063701334,0.367466746646416,B,331.23070000010557,Correct
18,418,437,A,48.5455179663293,65.319994463027,2.427275898316465,1.0260440736878578,B,612.6075000001947,Incorrect
18,418,438,A,28.06491631504086,45.584374108457546,1.403245815752043,0.716037674088095,A,378.73190000027535,Correct
18,418,439,B,64.84343586409956,55.143587813917215,3.242171793204978,0.8661934518439298,B,730.145999999877,Correct
18,418,440,A,22.593065936933918,34.65547422676154,1.129653296846696,0.5443669161873224,A,463.7022999995679,Correct
18,418,441,B,66.07777159909897,52.59421747580203,3.3038885799549487,0.826148036216418,B,488.55230000026495,Correct
18,418,442,A,44.62598852036119,61.714054830632136,2.23129942601806,0.9694021063957581,A,488.2998000002772,Correct
18,418,443,B,56.263011639409555,39.362473198159265,2.813150581970478,0.6183042831323113,B,571.026300000085,Correct
18,418,444,B,40.799248120025524,32.448939805609456,2.039962406001276,0.5097067545504004,A,432.3231999997006,Incorrect
18,418,445,A,24.714219525497082,53.797864136565295,1.2357109762748542,0.8450548737512766,A,440.59119999928953,Correct
18,418,446,B,71.45990626137504,54.02841999946794,3.5729953130687524,0.8486764367769617,B,413.07980000055977,Correct
18,418,447,A,48.40741437202134,78.39791431584791,2.4203707186010672,1.2314715583571496,B,507.16469999952096,Incorrect
18,418,448,B,58.82713061926709,49.88514660201052,2.9413565309633545,0.7835940504406305,A,347.3954999999478,Incorrect
18,418,449,A,26.012630460049145,53.98662241596956,1.3006315230024572,0.8480198818706802,A,632.6970000000074,Correct
18,418,450,A,59.21029656709148,82.74913754193841,2.960514828354574,1.2998204129632251,B,325.9858000001259,Incorrect
18,418,451,B,57.341970176668276,42.828522035267184,2.867098508833414,0.6727488509505198,A,339.74010000019916,Incorrect
18,418,452,B,52.37325086371367,45.48247290877507,2.6186625431856836,0.7144370137865228,B,514.6437999992486,Correct
18,418,453,B,56.063113216133885,44.37366878140956,2.8031556608066945,0.6970199592825151,A,242.41370000072493,Incorrect
18,418,454,B,52.84215051606608,29.655993670599738,2.6421075258033038,0.46583525925230773,B,354.40749999997934,Correct
18,418,455,A,22.05802156494205,36.56373954258355,1.1029010782471025,0.5743418776737554,A,340.37700000044424,Correct
18,418,456,B,59.095267149636406,30.721183492029365,2.95476335748182,0.48256722184071743,B,448.54490000034275,Correct
18,418,457,B,49.53432648159045,36.34055476371978,2.4767163240795225,0.5708360993653981,B,431.14979999973,Correct
18,418,458,B,57.200841032675605,34.930018646259775,2.86004205163378,0.548679449844221,B,401.3628000002427,Correct
18,418,459,B,77.56233936799875,62.72985372740615,3.878116968399937,0.9853582381539073,B,524.4456000000355,Correct
18,418,460,A,50.688990561084545,73.00037465564023,2.5344495280542274,1.1466872036373095,A,584.285999999338,Correct
18,418,461,B,57.10848766818476,47.183382304916265,2.855424383409238,0.741154836103218,A,500.4698000002463,Incorrect
18,418,462,B,61.79900745692501,51.05043208175801,3.0899503728462503,0.8018983119531782,B,238.6765999999625,Correct
18,418,463,A,14.633297882851018,37.0830005876726,0.731664894142551,0.5824984110964911,A,521.7583000003287,Correct
18,418,464,B,58.07627037293132,30.991382885192987,2.903813518646566,0.4868115039835537,B,489.2246999997951,Correct
18,418,465,A,35.869387262820325,58.021916837828016,1.7934693631410163,0.9114061384245923,A,487.858899999992,Correct
18,418,466,A,29.79147269492318,42.03544990373431,1.489573634746159,0.6602913030395675,B,313.8622000005853,Incorrect
18,418,467,B,65.89032714462658,40.377663900669056,3.2945163572313287,0.6342508613972985,A,555.4635999997117,Incorrect
18,418,468,A,62.042643439042536,82.92631319411011,3.102132171952127,1.3026034815995131,B,269.13880000029167,Incorrect
18,418,469,B,71.2440421885311,43.180505579575104,3.562202109426555,0.6782777955354311,A,543.6312000001635,Incorrect
18,418,470,A,21.355156912917014,42.94555489997869,1.0677578456458507,0.674587198890551,A,534.8389999999199,Correct
18,418,471,B,70.5910190107414,60.91078284405835,3.5295509505370704,0.9567843395364847,B,502.84240000019054,Correct
18,418,472,B,87.90868793317775,69.61381473808011,4.395434396658888,1.0934912448475667,B,553.9121000001614,Correct
18,418,473,A,36.76466960752757,58.354058528234425,1.8382334803763785,0.9166234078972505,A,394.76860000013403,Correct
18,418,474,B,49.59744518101834,27.31558805825582,2.479872259050917,0.4290722538615078,B,480.58359999959066,Correct
18,418,475,B,68.3509160815617,45.490346871476596,3.4175458040780855,0.7145606977034116,B,515.0544999996782,Correct
18,418,476,A,56.27367874412653,67.51925832942732,2.8136839372063265,1.0605900297178015,A,566.9201999999132,Correct
18,418,477,B,59.05982968977935,41.20175679274639,2.9529914844889675,0.6471956822754271,B,479.49770000013814,Correct
18,418,478,A,37.26280161047831,65.27226108258353,1.8631400805239156,1.0252942795011968,A,403.6569000008967,Correct
18,418,479,B,76.65533399419351,48.329996303596594,3.8327666997096754,0.7591658066770047,B,618.0071999997381,Correct
18,418,480,B,48.6977585853805,27.499009482047526,2.4348879292690246,0.43195343084898286,A,466.5917000002082,Incorrect
18,418,481,A,43.70276746949829,53.76770716865089,2.185138373474915,0.8445811692070044,B,378.023100000064,Incorrect
18,418,482,B,70.35418995731499,61.39146303981681,3.5177094978657495,0.964334846395089,B,556.2552000001233,Correct
18,418,483,A,22.25373570483403,44.872461296935,1.1126867852417015,0.7048549737947165,A,447.36180000018066,Correct
18,418,484,B,73.73928594743087,51.532971921501414,3.6869642973715435,0.8094780300311897,B,396.87599999979284,Correct
18,418,485,B,64.8519481923455,43.11951145022329,3.242597409617275,0.6773197019920123,B,505.00259999989794,Correct
18,418,486,A,57.8610019526788,69.65655891939193,2.8930500976339397,1.0941626688775312,A,595.759600000747,Correct
18,418,487,B,56.695290056375455,29.77375109150966,2.834764502818773,0.46768498849448925,B,435.5302000003576,Correct
18,418,488,B,41.05838363880003,18.4115276620019,2.0529191819400014,0.2892076002215521,A,519.1007000003083,Incorrect
18,418,489,A,40.70467948478767,63.005843961924725,2.0352339742393837,0.9896934826200376,A,455.4262999999992,Correct
18,418,490,B,75.07150447214111,45.750346984254136,3.7535752236070556,0.7186447699245837,B,403.0363000001671,Correct
18,418,491,B,46.185972752897136,32.35082720279039,2.3092986376448565,0.5081656053891958,A,449.66520000070886,Incorrect
18,418,492,A,51.62666938995859,74.57754241453556,2.5813334694979293,1.1714612968614306,B,567.2069000002011,Incorrect
18,418,493,B,66.42620186769943,45.761807582129855,3.3213100933849717,0.7188247925750443,B,409.39069999967614,Correct
18,418,494,B,73.23732823345652,63.10025582361369,3.6618664116728263,0.9911765006755066,B,476.4900000000125,Correct
18,418,495,B,34.50319680832539,14.844130862264187,1.7251598404162696,0.23317106232907348,A,496.6277000003174,Incorrect
18,418,496,B,56.033013538782825,29.7377073482933,2.801650676939141,0.46711881470000716,B,333.09170000029553,Correct
18,418,497,B,72.63883792383335,46.446339105197254,3.631941896191668,0.7295773885951401,A,374.9895999999353,Incorrect
18,418,498,A,22.44189766568046,35.443204291065086,1.122094883284023,0.5567405511024616,A,416.12590000022465,Correct
18,418,499,A,48.56511144221936,75.96854063066506,2.428255572110968,1.1933110457461755,B,364.840400000503,Incorrect
18,418,500,A,42.3027132101094,52.37676639817898,2.1151356605054703,0.8227323226765391,B,348.0066000001898,Incorrect
18,418,501,A,54.94428111149118,69.9387928355396,2.747214055574559,1.0985959888653483,B,505.2730999996129,Incorrect
18,418,502,B,83.51412526470442,68.62665323449343,4.175706263235221,1.077984948209694,A,339.7805000004155,Incorrect
18,418,503,B,72.00745764962403,46.999116692696035,3.6003728824812016,0.7382603986349164,B,430.8459000003495,Correct
18,418,504,A,13.056920240053717,35.97955458080169,0.6528460120026858,0.565165521752398,A,514.7127000000182,Correct
18,418,505,B,86.36867250457456,68.10316030576357,4.318433625228728,1.069761940514174,B,480.5108000000473,Correct
18,418,506,B,57.97799081592008,28.984841329854305,2.8988995407960036,0.45529282293668044,B,401.3829000004989,Correct
18,418,507,A,23.700799768195346,42.481703329871095,1.185039988409767,0.6673010354655204,A,417.653500000597,Correct
18,418,508,A,56.37815593733653,77.2514616768048,2.8189077968668266,1.213463122414617,B,390.6170000000202,Incorrect
18,418,509,B,49.58338178951992,24.728884820612777,2.479169089475996,0.38844041441952626,B,453.022300000157,Correct
18,418,510,A,66.12845737234504,80.63566968931889,3.3064228686172523,1.266622137566287,B,553.1682000000728,Incorrect
18,418,511,A,55.74325579409301,69.78241508490676,2.7871627897046505,1.0961396129024832,A,353.7345999993704,Correct
18,418,512,B,64.78052143847772,31.73622826077209,3.239026071923886,0.49851150778345193,B,431.028700000752,Correct
18,418,513,B,51.282138346425214,26.391454326435145,2.5641069173212605,0.4145559951473961,A,592.3894999996264,Incorrect
18,418,514,B,45.09042047195543,19.080881250263946,2.2545210235977717,0.2997217817992422,A,504.6917999998186,Incorrect
18,418,515,A,47.60671270382581,73.66068394470851,2.3803356351912908,1.1570593176954795,B,424.96329999994487,Incorrect
18,418,516,A,28.258401506706324,52.380143837382235,1.4129200753353164,0.8227853753674834,A,467.47859999959473,Correct
18,418,517,A,18.44712567655051,36.93926936051872,0.9223562838275255,0.5802406862599008,A,578.6318000000392,Correct
18,418,518,A,13.95202492416901,35.24033112899822,0.6976012462084504,0.5535538269246625,A,457.8217999996923,Correct
18,418,519,B,69.44400957414311,43.10273330830241,3.4722004787071556,0.6770561515550146,B,564.9089999997159,Correct
18,418,520,B,39.032966326359286,15.576791310500443,1.9516483163179643,0.24467966573784758,A,420.89620000024297,Incorrect
18,418,521,A,20.379511682910717,49.1222746846739,1.018975584145536,0.7716108863849568,A,398.2914999996865,Correct
18,418,522,B,39.42902654726642,22.593919354798153,1.9714513273633207,0.3549044553041706,A,419.5391000002928,Incorrect
18,418,523,B,47.13352384872337,34.75474210871674,2.3566761924361685,0.5459262124307618,B,373.67379999977857,Correct
18,418,524,A,39.9014881107002,54.72479000832431,1.99507440553501,0.8596149912969789,B,424.2776999999478,Incorrect
18,418,525,A,48.33002207129148,68.96144660165635,2.416501103564574,1.083243870123442,A,744.3120999996609,Correct
18,418,526,A,40.242387907774635,59.354206417840956,2.0121193953887317,0.9323336942097064,A,518.9511000007769,Correct
18,418,527,A,58.2276090385939,73.92703860623443,2.9113804519296944,1.1612432069349756,B,363.34030000034545,Incorrect
18,418,528,A,38.37245197531309,60.9312284306539,1.9186225987656544,0.9571054980597192,A,477.06400000060967,Correct
18,418,529,A,56.318775670566545,68.77835991845697,2.8159387835283276,1.0803679512288957,B,348.76010000061797,Incorrect
18,418,530,A,56.7396316196574,76.85102848741995,2.8369815809828705,1.2071731325844919,A,370.61180000000604,Correct
18,418,531,A,33.901112683711055,49.05532678285216,1.695055634185553,0.7705592712022747,A,563.9960999997129,Correct
18,418,532,A,58.02147303438984,83.46932199081147,2.901073651719492,1.3111330438322712,A,557.1059000003515,Correct
18,418,533,B,35.96482438266676,25.39982517696759,1.7982412191333381,0.3989795208921322,B,552.1535999996559,Correct
18,418,534,A,42.984588917547136,69.9830539560953,2.149229445877357,1.0992912409212356,B,497.5389000001087,Incorrect
18,418,535,A,12.666437129259858,32.68910319646764,0.633321856462993,0.5134792322723069,A,374.56339999971533,Correct
18,418,536,A,31.73594094987299,51.85977085346895,1.5867970474936497,0.8146113756505406,A,419.8132000001351,Correct
18,418,537,A,54.615608442271636,79.09463196933211,2.730780422113582,1.2424155736662108,A,337.60590000019874,Correct
18,418,538,A,18.37747155823687,44.18556729777582,0.9188735779118434,0.6940652680869496,A,429.20690000028117,Correct
18,418,539,B,45.50242998211386,18.944627588486217,2.2751214991056927,0.2975815142849141,A,521.6454000001249,Incorrect
18,418,540,B,44.24132699249428,16.20421460059169,2.212066349624714,0.25453520773205657,B,415.180899999541,Correct
18,418,541,A,20.47492867871146,35.58188243512558,1.023746433935573,0.5589189022954312,A,381.5204000002268,Correct
18,418,542,B,81.76909001597276,53.37805383860163,4.088454500798639,0.8384605090113567,B,448.2776000004378,Correct
18,418,543,B,83.01014181156584,61.36869063259107,4.150507090578293,0.9639771382588643,B,422.3826999996163,Correct
18,418,544,A,66.38074874405902,88.6854467071793,3.319037437202951,1.393067739278018,B,430.42179999974906,Incorrect
18,418,545,B,33.73393124355965,12.523581722415276,1.6866965621779826,0.1967199616788562,A,323.93690000026254,Incorrect
18,418,546,A,22.05477524535751,38.906751070363306,1.1027387622678757,0.611145816688501,A,566.1544000004142,Correct
18,418,547,A,41.846298901103744,72.3605483814775,2.0923149450551874,1.1366368360248926,B,533.3200999994006,Incorrect
18,418,548,B,67.87142677680589,54.905821415017954,3.3935713388402946,0.8624586259836678,A,348.25350000028266,Incorrect
18,418,549,B,84.92982557512104,59.17012383400099,4.246491278756053,0.9294421317444791,B,320.1308000006975,Correct
