subject,day,trial,cat,x,y,xt,yt,resp,rt,fb
2,402,0,A,65.71710110301626,83.54443280635601,3.285855055150813,1.3123128817638707,A,512.767699999813,Correct
2,402,1,A,41.93404264049963,55.5837894107306,2.0967021320249812,0.8731081223571671,A,918.0056999998669,Correct
2,402,2,A,40.92649021408397,51.342418977144035,2.0463245107041983,0.8064848313806243,A,499.565500000017,Correct
2,402,3,A,15.346321750160552,33.34319764103333,0.7673160875080276,0.5237537237813141,A,450.9903000000577,Correct
2,402,4,B,74.81158549251434,43.37248447176296,3.7405792746257167,0.6812933929221395,B,595.5915000001824,Correct
2,402,5,B,72.268286739116,61.42852478464788,3.6134143369557994,0.9649170109215414,A,575.1827000001413,Incorrect
2,402,6,B,51.169072277862426,31.24243728896755,2.5584536138931213,0.4907550573363013,B,536.8902999998681,Correct
2,402,7,A,53.95436425347792,81.62638443718255,2.6977182126738963,1.2821842484347448,A,495.5097999998088,Correct
2,402,8,B,75.64301378437659,45.44629283737488,3.7821506892188297,0.7138686985539368,B,416.3429999998698,Correct
2,402,9,B,51.999925895739054,34.681108703564334,2.599996294786953,0.5447695816073337,B,587.6726999999846,Correct
2,402,10,A,38.99202406778981,70.08452434085649,1.9496012033894903,1.100885133997849,A,445.897099999911,Correct
2,402,11,A,21.552439666142774,43.7324254002615,1.0776219833071388,0.6869473318056258,A,526.75720000002,Correct
2,402,12,B,52.7322001397844,28.629186057486365,2.63661000698922,0.44970620298227243,B,579.4558000000052,Correct
2,402,13,A,37.421213289741935,49.943653031120576,1.8710606644870966,0.7845130672800301,A,448.7147999998342,Correct
2,402,14,A,26.322199227965832,58.50785380947268,1.3161099613982916,0.9190392185257248,A,412.05839999997806,Correct
2,402,15,A,63.71952002483084,78.61221876517791,3.185976001241542,1.2348378447753832,A,506.98979999992844,Correct
2,402,16,A,55.710448845625834,67.99815108296846,2.7855224422812914,1.0681124594997127,A,511.091899999883,Correct
2,402,17,A,58.9183080260407,84.56071978578645,2.945915401302035,1.3282766803064587,A,417.3395000000255,Correct
2,402,18,A,43.66850181399267,59.9269307089577,2.1834250906996333,0.9413300263372304,A,497.6474000000053,Correct
2,402,19,B,46.453964290376824,19.312565474864176,2.3226982145188413,0.3033610690890258,B,524.1429000000153,Correct
2,402,20,B,50.76014057514108,35.34674361036531,2.538007028757054,0.5552253502732281,B,726.3520999999855,Correct
2,402,21,B,48.78855988840987,37.81638237528784,2.4394279944204937,0.594018345277734,B,517.262300000084,Correct
2,402,22,B,88.45783291359932,67.21469812419691,4.422891645679965,1.0558060092011634,B,748.194999999896,Correct
2,402,23,B,71.36758400783268,44.26114139038839,3.5683792003916337,0.6952523831577163,B,659.6720000000005,Correct
2,402,24,B,31.28450156533626,14.27285244859537,1.564225078266813,0.22419744199139152,B,1362.3010999999678,Correct
2,402,25,A,45.53963158350215,63.25552513870647,2.2769815791751076,0.9936154653736236,A,659.9750000000313,Correct
2,402,26,B,69.4327708336114,55.846729882455406,3.47163854168057,0.8772383816286773,B,681.7946999999549,Correct
2,402,27,A,20.217091345486526,37.590736950283414,1.0108545672743263,0.5904739152301838,A,290.92880000007426,Correct
2,402,28,A,30.184459378471757,54.261261166103125,1.5092229689235879,0.8523338972697336,A,627.754399999958,Correct
2,402,29,B,57.63312449714946,33.892166570215196,2.881656224857473,0.5323769075561482,B,1138.894799999889,Correct
2,402,30,B,53.910715492587144,25.569165640515628,2.695535774629357,0.40163951467332226,B,809.5719999998892,Correct
2,402,31,A,38.02782090153143,50.01211631190613,1.9013910450765712,0.7855884859798127,A,1135.9342000000652,Correct
2,402,32,A,35.27493408682535,54.77083494493137,1.7637467043412673,0.8603382634698776,A,521.876900000052,Correct
2,402,33,A,63.629247392553474,87.22824296359309,3.1814623696276736,1.3701780363998481,A,860.1074000000608,Correct
2,402,34,A,36.22026693213424,44.54865161726137,1.8110133466067118,0.6997685832405968,A,1155.5789000001369,Correct
2,402,35,A,63.02471566326717,77.93195835535906,3.1512357831633584,1.2241523392453084,A,818.2297000000744,Correct
2,402,36,B,78.69391385586873,62.4658118568791,3.9346956927934365,0.9812106781504678,B,895.5042000000049,Correct
2,402,37,B,70.98007079248984,57.61614126765039,3.549003539624492,0.9050322306732108,A,558.9876000001368,Incorrect
2,402,38,A,33.35915137601377,47.53785446604707,1.6679575688006885,0.7467228717897711,A,456.3565999999355,Correct
2,402,39,A,43.38007262925256,59.35899878236241,2.169003631462628,0.9324089724955761,A,516.8112000001202,Correct
2,402,40,B,72.87217481800506,44.75230026729399,3.6436087409002536,0.7029674887548767,B,494.7495000001254,Correct
2,402,41,A,49.751328431706014,60.579369392891756,2.4875664215853006,0.9515785092190556,A,571.4824000001499,Correct
2,402,42,A,41.789319421171314,64.94894750921777,2.0894659710585657,1.0202156817667383,A,593.2651000000533,Correct
2,402,43,A,48.12261430722028,62.62378763973872,2.406130715361014,0.9836921559448523,A,560.9874000001582,Correct
2,402,44,A,54.93281704893099,67.25352051148484,2.74664085244655,1.0564158298346562,A,596.0726000000705,Correct
2,402,45,B,56.96226487176811,49.46622674754133,2.848113243588406,0.7770136727544138,B,401.2998000000607,Correct
2,402,46,B,69.36675887663385,45.417609352447286,3.468337943831693,0.7134181394262973,B,1230.57730000005,Correct
2,402,47,B,37.08305572035968,14.392741674970754,1.854152786017984,0.22608065755551887,B,1221.5068000000429,Correct
2,402,48,B,79.64678686567373,61.43178950813889,3.9823393432836864,0.9649682930782183,B,1727.4427999998352,Correct
2,402,49,A,44.017161698819415,52.990399346422116,2.200858084940971,0.8323712464875455,A,1148.9654000001792,Correct
2,402,50,B,63.13987625156188,50.22998266861501,3.156993812578094,0.7890107227083177,B,1173.8480999999865,Correct
2,402,51,B,37.311330176076694,16.589085281698527,1.8655665088038347,0.26058074225379324,B,915.3869000001578,Correct
2,402,52,B,57.649004272143884,49.334225204035995,2.882450213607194,0.7749401973577195,A,1768.9026999998987,Incorrect
2,402,53,B,75.00255428652625,51.53769562268766,3.7501277143263123,0.8095522297559119,B,1266.6730999999345,Correct
2,402,54,B,77.81879526564855,49.78405331722013,3.890939763282427,0.7820060808365068,B,991.0138000000188,Correct
2,402,55,A,36.53116482959197,45.74376011786534,1.8265582414795987,0.7185413036692977,A,1216.6767000001073,Correct
2,402,56,A,59.05855352257022,69.81957923964868,2.952927676128511,1.0967233860800536,A,527.628299999833,Correct
2,402,57,B,34.32343971583175,15.104223889331454,1.7161719857915876,0.23725659404449573,B,417.8421999999955,Correct
2,402,58,B,85.05432048562419,56.41527626642234,4.252716024281209,0.8861690873441552,B,791.6625000000295,Correct
2,402,59,B,63.70320677694215,48.49300388705653,3.1851603388471075,0.7617263238103904,B,641.305500000044,Correct
2,402,60,A,66.18587521310599,86.4732429941767,3.3092937606552995,1.3583185246129528,A,1224.509399999988,Correct
2,402,61,A,26.043693175621556,42.84780321451336,1.302184658781078,0.6730517190058816,A,460.65050000015617,Correct
2,402,62,B,83.4453932887042,63.042792811671234,4.172269664435209,0.9902738737946489,B,459.57419999990634,Correct
2,402,63,A,53.67349019159498,69.65506514100737,2.683674509579749,1.0941392046615364,A,557.8262999999879,Correct
2,402,64,A,65.81123214150506,88.86016595189838,3.290561607075253,1.395812222756269,A,617.6774000000478,Correct
2,402,65,A,20.159945467854488,38.92756619894901,1.0079972733927243,0.6114727799637427,A,512.3566999998275,Correct
2,402,66,A,43.72364963555109,71.77426688982625,2.1861824817775544,1.1274275478893565,A,883.66770000016,Correct
2,402,67,A,11.391150515901046,36.949366401747966,0.5695575257950523,0.5803992902126447,A,511.5292000000409,Correct
2,402,68,A,59.701031857975494,69.87658208283533,2.985051592898775,1.0976187846469982,A,657.7847000000929,Correct
2,402,69,A,54.77723018311294,66.25849452459559,2.738861509155647,1.0407859981819452,A,535.0320000000011,Correct
2,402,70,A,19.387812289408824,38.16228832826455,0.9693906144704413,0.5994518232812571,A,557.9262999999628,Correct
2,402,71,B,33.65626389986993,18.796113937655516,1.6828131949934966,0.29524866731287647,B,671.9556000000466,Correct
2,402,72,A,18.22109263746253,39.40895786520289,0.9110546318731265,0.6190344625747556,A,624.7548000001188,Correct
2,402,73,A,33.436987583101114,54.0204370454236,1.6718493791550557,0.8485510408280635,A,431.37609999985216,Correct
2,402,74,A,60.38845238863681,76.9426319390205,3.01942261943184,1.208612036237451,A,654.3002000000797,Correct
2,402,75,B,82.6935184362921,57.983224238616124,4.134675921814605,0.9107983564974301,B,415.1503999999022,Correct
2,402,76,B,66.81076235126277,43.977981255559534,3.3405381175631383,0.6908045141608773,B,473.1125000000702,Correct
2,402,77,B,83.30099100496491,64.86813488015093,4.165049550248245,1.01894627995777,B,729.6885000000657,Correct
2,402,78,B,45.68802484084531,16.111999678299718,2.2844012420422657,0.25308669911993753,B,496.84929999989436,Correct
2,402,79,B,50.52911424185186,19.190348478705303,2.526455712092593,0.3014412890026432,B,445.8529000000908,Correct
2,402,80,A,39.60854830196226,69.93045107049912,1.980427415098113,1.0984649567265026,A,422.1251999999822,Correct
2,402,81,B,66.73766576616855,40.80957167399477,3.3368832883084276,0.6410352528358404,B,413.0771000000095,Correct
2,402,82,B,42.515689846986476,24.9043279233791,2.125784492349324,0.3911962682333946,B,497.238900000184,Correct
2,402,83,A,47.26774267318851,60.6454391283441,2.363387133659425,0.9526163301966641,B,667.4305999999888,Incorrect
2,402,84,A,57.036450493137224,67.14771086322637,2.8518225246568614,1.0547537757664176,A,639.3081000001075,Correct
2,402,85,B,70.89040447172222,47.31252903825561,3.544520223586111,0.743183468246688,B,774.7747999999319,Correct
2,402,86,A,58.31141570390783,73.23699948455933,2.915570785195391,1.1504040977582555,A,647.8974999999991,Correct
2,402,87,B,69.55856286092842,60.68715641638659,3.477928143046421,0.9532716238248738,B,986.1247999999705,Correct
2,402,88,A,24.181439007146615,54.989054985372974,1.2090719503573308,0.8637660558494648,A,516.083899999785,Correct
2,402,89,A,65.52159756711515,80.39305090866074,3.276079878355757,1.2628110906715944,A,572.3886000000675,Correct
2,402,90,A,60.611974535065016,81.29729664683497,3.030598726753251,1.2770149495120342,A,532.700800000157,Correct
2,402,91,B,89.19904282024284,66.33651585522934,4.459952141012142,1.0420115543776565,B,560.8259000000544,Correct
2,402,92,B,85.96114266228138,64.36983103570361,4.298057133114068,1.0111189414729138,B,438.3827999999994,Correct
2,402,93,B,81.06405913651773,49.821691058140416,4.053202956825886,0.7825972930883711,B,461.28490000000966,Correct
2,402,94,B,53.79659717018724,30.81931987423767,2.689829858509362,0.48410874452769487,B,486.6757999998299,Correct
2,402,95,B,75.39169972112043,57.524863578132496,3.7695849860560213,0.9035984440790806,B,472.59079999980713,Correct
2,402,96,B,87.70012797982386,64.44116317944972,4.385006398991193,1.0122394241667014,B,383.0004999999801,Correct
2,402,97,B,51.97495890246028,25.67110219623429,2.598747945123014,0.4032407303462122,B,545.1949999999215,Correct
2,402,98,A,44.16219866487259,57.252943610727776,2.2081099332436294,0.8993271352192653,B,562.2967000001609,Incorrect
2,402,99,A,43.12146202711755,68.43252732494373,2.1560731013558776,1.0749356255531302,B,849.5232000000215,Incorrect
2,402,100,A,38.12357521417651,52.176061747634336,1.9061787607088256,0.8195796613980773,A,403.7427000000662,Correct
2,402,101,B,32.8525818465606,10.173776130206964,1.64262909232803,0.15980930174962693,B,508.04489999995894,Correct
2,402,102,A,22.41836152920358,33.58561668501979,1.120918076460179,0.5275616332197047,B,399.9240999999074,Incorrect
2,402,103,B,59.91483787185393,40.875406236576794,2.9957418935926965,0.6420693797266404,B,753.5704000001715,Correct
2,402,104,B,42.951946331950026,26.13066078092081,2.1475973165975013,0.41045945971393866,B,407.95639999987543,Correct
2,402,105,A,11.826447851154906,30.666673544122954,0.5913223925577453,0.4817109815812657,A,490.74590000009266,Correct
2,402,106,A,17.56370475180639,47.165746012391686,0.8781852375903196,0.740877805868059,A,522.1830000000409,Correct
2,402,107,B,35.16950057339834,17.50722336360715,1.7584750286699171,0.27500282151931904,B,497.38269999988916,Correct
2,402,108,A,33.47418640743237,64.67289343991077,1.6737093203716185,1.015879434586096,A,1286.906899999849,Correct
2,402,109,A,51.89384108046529,74.90092835203794,2.5946920540232643,1.1765410312890892,A,872.6154000000861,Correct
2,402,110,B,45.690144479650336,21.718744050437763,2.284507223982517,0.34115723377026147,B,1419.379299999946,Correct
2,402,111,A,22.140958848759787,42.0776555418951,1.1070479424379895,0.6609542676534974,A,804.5083000001796,Correct
2,402,112,B,76.1394524242811,55.66523094615061,3.8069726212140553,0.8743874030040298,B,622.7331000000049,Correct
2,402,113,B,38.41693065725251,14.126695670925045,1.9208465328626254,0.22190161669638428,B,389.9186999999529,Correct
2,402,114,A,11.522250123228275,37.134267364605144,0.5761125061614137,0.5833037077454136,A,549.3850000000293,Correct
2,402,115,B,74.51667905073484,51.56554676805021,3.725833952536742,0.8099897145242372,B,443.18380000004254,Correct
2,402,116,B,69.24046612101884,58.89481819468105,3.4620233060509418,0.9251176408745824,B,617.0110000000477,Correct
2,402,117,A,64.71135094327812,77.77607511479692,3.2355675471639063,1.2217037310284697,A,578.1062000000929,Correct
2,402,118,B,43.44499177222525,22.309670881509426,2.1722495886112627,0.3504394907267807,B,700.059900000042,Correct
2,402,119,A,41.50792668245196,66.97448408704051,2.075396334122598,1.0520327359290649,A,997.2184000000652,Correct
2,402,120,B,36.82022197542685,23.20570378926463,1.8410110987713424,0.3645143427286729,B,524.3456000000606,Correct
2,402,121,A,33.929403960948875,50.079542113198386,1.696470198047444,0.7866476079898236,B,854.3359999998756,Incorrect
2,402,122,B,86.8666835777278,63.96511649513776,4.343334178886391,1.0047617003357003,B,542.6376000000346,Correct
2,402,123,A,14.441025742222884,36.42588531073442,0.7220512871111441,0.5721764684635381,A,684.1446000000815,Correct
2,402,124,A,60.77430742391931,73.58751105120878,3.0387153711959654,1.1559099205721761,A,827.0675999999639,Correct
2,402,125,B,52.639158944400926,25.826539681054854,2.6319579472200463,0.405682336648236,B,371.65729999992436,Correct
2,402,126,B,88.73682001109087,62.88526341356635,4.436841000554543,0.9877994077955953,B,556.7857000000913,Correct
2,402,127,A,27.983089115430964,42.67637998331588,1.3991544557715483,0.6703590091869585,A,608.9300999999523,Correct
2,402,128,A,41.22317348005284,53.54543597139005,2.0611586740026424,0.8410897414049081,A,1118.1902000000719,Correct
2,402,129,B,88.16190256974753,67.77461459636599,4.408095128487377,1.0646011565791147,A,499.4391000000178,Incorrect
2,402,130,A,36.08060178119777,55.82229663731116,1.8040300890598886,0.8768545851114348,A,1164.58990000001,Correct
2,402,131,B,51.15174356697467,27.753953786877887,2.557587178348734,0.4359580866246309,B,481.57100000003084,Correct
2,402,132,A,47.89934849236792,76.34012264729833,2.394967424618396,1.199147842414481,A,438.78190000009454,Correct
2,402,133,A,21.999731556708166,35.024800823626606,1.0999865778354083,0.5501682848047554,B,444.3244000001414,Incorrect
2,402,134,A,33.96420808384457,43.96007194620201,1.6982104041922284,0.6905231953873349,A,419.8026999999911,Correct
2,402,135,A,47.19913871449435,64.10292385410726,2.3599569357247177,1.0069263732684464,A,506.1840000000757,Correct
2,402,136,B,52.73401732358655,31.314597138264148,2.636700866179327,0.491888541598473,B,1163.5622999999669,Correct
2,402,137,A,19.29797479263446,42.534335967465694,0.964898739631723,0.6681277870035517,A,467.8802999999334,Correct
2,402,138,A,32.20621581176624,47.39860048992525,1.610310790588312,0.7445354754479336,A,466.4806000000681,Correct
2,402,139,A,33.70318851455049,42.72488407857141,1.6851594257275246,0.6711209097335773,A,662.1408000000883,Correct
2,402,140,A,41.04938799393769,62.327947436586705,2.052469399696885,0.9790451089005578,A,567.505600000004,Correct
2,402,141,A,51.77203071724439,59.242408216572215,2.588601535862219,0.9305775721707543,A,548.2160000001386,Correct
2,402,142,A,66.39439854316018,80.68097839915984,3.3197199271580087,1.2673338451161869,A,1726.9632000000001,Correct
2,402,143,A,25.166290489813505,57.186669053707476,1.2583145244906753,0.8982860969119909,A,468.5359000000062,Correct
2,402,144,A,37.85123721274172,69.4579405569364,1.8925618606370862,1.0910427789357398,A,473.5565000000861,Correct
2,402,145,A,25.524716848890606,56.2767272030042,1.2762358424445304,0.8839927637451742,A,430.21920000001046,Correct
2,402,146,B,51.12344904357762,36.26201249306708,2.556172452178881,0.5696023602630043,B,744.7499999998399,Correct
2,402,147,B,77.47347826066812,53.96199603423346,3.873673913033406,0.8476330515709469,B,648.4665000000405,Correct
2,402,148,A,43.892589585883414,68.22178647554759,2.1946294792941705,1.071625316031759,A,500.88300000015806,Correct
2,402,149,B,73.08095135570383,59.14518870686048,3.654047567785192,0.9290504516832744,B,5058.98910000019,Correct
2,402,150,B,59.22405553225997,38.16009470775238,2.9612027766129985,0.599417365970828,B,451.56679999990956,Correct
2,402,151,B,63.75235752754413,47.11224274993993,3.1876178763772067,0.7400373785867516,B,358.61379999983,Correct
2,402,152,B,49.20154115568235,31.78982882569776,2.4600770577841176,0.4993534634884456,B,368.86070000014115,Correct
2,402,153,A,47.834546625100224,60.21975231956819,2.391727331255011,0.9459296574407615,A,486.9407000001047,Correct
2,402,154,B,31.614020664931406,11.78897231791834,1.5807010332465703,0.18518074413672844,B,1983.7807000001249,Correct
2,402,155,B,47.33410333608798,18.603809606006028,2.3667051668043992,0.2922279579350588,B,1260.1964000000407,Correct
2,402,156,A,13.483288867700413,31.47267302495199,0.6741644433850206,0.49437159182011414,A,467.4507999998241,Correct
2,402,157,B,36.27365282892721,23.46679853332426,1.8136826414463605,0.3686156093778161,B,382.1846999999252,Correct
2,402,158,B,84.62951276069633,57.63494709006801,4.231475638034817,0.9053276318409704,A,597.3819000000731,Incorrect
2,402,159,B,72.40791400774847,57.91056102014945,3.6203957003874234,0.9096569653308247,B,453.40900000019246,Correct
2,402,160,A,35.38097260253315,47.16001131705855,1.7690486301266575,0.7407877254844132,B,982.2477000002436,Incorrect
2,402,161,A,24.67544543848814,39.79061580617763,1.233772271924407,0.6250295314925076,A,462.0060000002013,Correct
2,402,162,B,45.15202279292642,33.85168976774476,2.2576011396463205,0.5317410994297386,B,476.88449999986915,Correct
2,402,163,B,69.95293491551521,42.097829265218344,3.497646745775761,0.6612711557584368,B,662.0197000002008,Correct
2,402,164,A,54.48592997349192,66.07482882863847,2.724296498674596,1.0379009841762685,A,666.7397999999594,Correct
2,402,165,B,41.021679795373686,21.757033256979458,2.0510839897686846,0.3417586792201774,B,620.9686000001966,Correct
2,402,166,B,63.99731422484642,48.79256332242947,3.199865711242321,0.7664317924177961,B,492.4177000002601,Correct
2,402,167,B,64.1381367353947,50.21505275710368,3.206906836769735,0.788776204206704,A,670.0851999999031,Incorrect
2,402,168,B,41.536420810406625,23.99312957153779,2.0768210405203313,0.37688319799285575,B,484.7365999999056,Correct
2,402,169,B,88.81266636838816,68.41791028628731,4.440633318419408,1.0747060216468287,A,483.9393000002019,Incorrect
2,402,170,A,54.70843718047694,82.78691565593878,2.735421859023847,1.3004138301902755,A,430.41449999964243,Correct
2,402,171,B,59.33665582133256,31.839369886558153,2.9668327910666283,0.5001316526526959,B,414.6799000000101,Correct
2,402,172,A,52.76622848805728,64.98772048494165,2.638311424402864,1.020824726245198,A,512.1016000002783,Correct
2,402,173,B,51.42845698872736,19.810174133031055,2.571422849436368,0.31117748761332453,B,398.4355000002324,Correct
2,402,174,A,54.66970213287621,71.93877077943678,2.73348510664381,1.1300115689447932,A,490.89850000018487,Correct
2,402,175,B,39.18506193359984,17.89088262029711,1.9592530966799921,0.2810293270308135,B,400.4459000002498,Correct
2,402,176,A,63.64292004099897,75.81673798842117,3.182146002049949,1.1909265354178304,A,477.4497000003066,Correct
2,402,177,A,34.48544314748585,63.31668625610892,1.7242721573742927,0.9945761819592082,A,363.7444000000869,Correct
2,402,178,A,67.27302208292559,85.33318541388996,3.3636511041462795,1.340410542018462,A,478.5793000000922,Correct
2,402,179,B,50.05891560852456,29.346522894143455,2.502945780426228,0.4609741036632288,B,402.7171000002454,Correct
2,402,180,B,75.02068609657506,45.03460456601048,3.751034304828753,0.7074019143094994,B,404.0864000003239,Correct
2,402,181,B,37.623189649291305,15.453086332736316,1.8811594824645652,0.2427365124910662,B,405.8184999998957,Correct
2,402,182,B,40.82506503691406,14.901979433258305,2.041253251845703,0.2340797455573524,B,339.33810000007725,Correct
2,402,183,A,31.354005183769313,62.4701423765386,1.5677002591884657,0.9812787017942104,A,518.6392999999043,Correct
2,402,184,A,60.265728315927866,86.43500612631314,3.0132864157963932,1.3577179012970706,B,354.5014000001174,Incorrect
2,402,185,B,53.56800593055054,33.342362338204666,2.6784002965275273,0.5237406028751639,B,502.4212999996962,Correct
2,402,186,B,61.209931808445965,51.4030560630925,3.0604965904222983,0.8074373164993784,B,464.0767999999298,Correct
2,402,187,B,39.71402700174066,24.004419084926447,1.9857013500870329,0.3770605332544777,B,467.1570000000429,Correct
2,402,188,B,87.94901910362066,69.86010371442342,4.397450955181033,1.0973599430412682,B,986.0533000000942,Correct
2,402,189,A,19.842898424146004,33.33039830612154,0.9921449212073001,0.5235526722986655,A,1844.82909999997,Correct
2,402,190,A,26.50327647409206,59.48605062026801,1.3251638237046028,0.9344046980985228,A,395.7439999999224,Correct
2,402,191,B,76.93538109965627,57.42495837550973,3.8467690549828135,0.9020291368260053,B,465.2836999998726,Correct
2,402,192,A,28.031919018377742,51.432333056267794,1.4015959509188871,0.807897198432772,A,484.0673999997307,Correct
2,402,193,B,42.74309628967889,32.93445086108723,2.137154814483944,0.5173331443760284,B,409.011400000054,Correct
2,402,194,A,40.28186045464235,71.54001033707563,2.0140930227321174,1.1237478545634734,A,689.0189000000646,Correct
2,402,195,A,29.306934414471613,60.86298525911768,1.4653467207235806,0.9560335368279398,A,796.0923000000548,Correct
2,402,196,B,69.5791948266941,50.56517895648663,3.4789597413347053,0.794275973685758,B,371.86119999978473,Correct
2,402,197,B,60.92489337526781,47.91086078146814,3.0462446687633906,0.7525820412911183,B,327.1371000000727,Correct
2,402,198,A,57.633284549853116,67.57737696915736,2.8816642274926556,1.0615029551758641,A,746.5062999999645,Correct
2,402,199,B,63.60763106895182,35.53716309970018,3.180381553447591,0.5582164526172018,B,369.6795999999267,Correct
2,402,200,A,49.91549108295171,59.44917544760588,2.4957745541475855,0.9338254642408468,B,355.34510000024966,Incorrect
2,402,201,B,73.60423052071587,46.49175473833406,3.6802115260357935,0.7302907756922437,B,312.34459999996034,Correct
2,402,202,A,15.338078841830736,30.847269191508992,0.7669039420915368,0.484547771376757,A,448.8922000000457,Correct
2,402,203,B,72.57387051260439,45.42530052043287,3.6286935256302195,0.7135389520105025,B,495.3112000002875,Correct
2,402,204,B,82.6777137940301,53.97677745370233,4.133885689701504,0.847865237565012,B,621.050600000217,Correct
2,402,205,B,40.836033096811335,20.713605668521115,2.0418016548405666,0.3253685569879092,B,397.61399999997593,Correct
2,402,206,B,75.05802570507518,61.02671754704451,3.752901285253759,0.9586054375924717,B,565.9589000001688,Correct
2,402,207,A,44.062243533239204,56.15768582436966,2.20311217666196,0.8821228661422168,B,391.58409999981814,Incorrect
2,402,208,B,35.426641583186154,21.451402037431805,1.7713320791593077,0.33695783524998435,B,377.8449000001274,Correct
2,402,209,A,12.36362939107197,34.59797184366913,0.6181814695535985,0.5434636708658872,A,455.09569999967425,Correct
2,402,210,A,48.43401217017767,71.44265787809339,2.4217006085088832,1.1222186457137358,A,458.69459999994433,Correct
2,402,211,A,44.44074423840426,57.49017272463717,2.2220372119202128,0.9030535214266422,A,599.958499999957,Correct
2,402,212,B,33.47437646784761,17.92468207401464,1.6737188233923805,0.2815602476082853,B,337.6311000001806,Correct
2,402,213,B,43.93387397423639,31.717048580956472,2.1966936987118197,0.49821023407741716,B,469.7965000000295,Correct
2,402,214,A,10.154416174027222,34.310272963926224,0.507720808701361,0.5389445074306556,A,546.7605000003459,Correct
2,402,215,A,40.24990243747157,68.90573840929252,2.0124951218735787,1.082368807884067,A,1347.626699999637,Correct
2,402,216,A,21.88977102162622,35.25940034975389,1.094488551081311,0.5538533655438409,B,447.74610000013126,Incorrect
2,402,217,B,47.81847623724106,20.270407808848166,2.3909238118620526,0.31840682128773284,B,369.71619999985705,Correct
2,402,218,A,22.51221141267465,53.531997757826176,1.1256105706337325,0.84087865443986,A,392.0586999997795,Correct
2,402,219,B,34.73618918926463,19.92534348243546,1.7368094594632313,0.3129865635233625,B,577.2169000001668,Correct
2,402,220,A,41.383478987785296,74.00485302704438,2.0691739493892647,1.1624655129987749,B,902.1566000001258,Incorrect
2,402,221,B,66.42369394350939,37.032707968750394,3.32118469717547,0.5817084164858122,B,398.4835999999632,Correct
2,402,222,A,40.232351476298255,50.147380083978774,2.0116175738149127,0.7877132043430141,B,328.9899000001242,Incorrect
2,402,223,B,51.787520786295005,43.70935133053002,2.58937603931475,0.6865848851658417,B,431.05289999994056,Correct
2,402,224,B,85.38697111442954,65.71626066661736,4.269348555721478,1.032268608658185,B,423.09789999990244,Correct
2,402,225,B,80.33080197781027,57.30563624620625,4.0165400988905136,0.9001548292018526,B,323.7858999996206,Correct
2,402,226,B,49.795866402396705,25.797430536810374,2.4897933201198352,0.40522509127968237,B,383.6400999998659,Correct
2,402,227,A,28.10885612790892,47.77246351194843,1.4054428063954458,0.7504081020651182,A,569.6361000000252,Correct
2,402,228,B,66.23254415857231,56.34766144807919,3.3116272079286153,0.8851069962612519,B,387.56729999977324,Correct
2,402,229,A,33.3961140476041,64.33259339533774,1.669805702380205,1.0105340139858614,B,564.6562000001722,Incorrect
2,402,230,B,38.36036310911284,22.995914052943963,1.918018155455642,0.36121897325655516,B,463.7139000001298,Correct
2,402,231,B,68.08680330001808,36.46549646187889,3.4043401650009035,0.5727986789707166,B,433.6734999997134,Correct
2,402,232,A,25.64636137413472,45.07822617216158,1.2823180687067361,0.7080871208966099,A,495.48219999996945,Correct
2,402,233,A,45.04253810315524,74.85136211972159,2.2521269051577617,1.1757624467325332,A,610.8132999997906,Correct
2,402,234,B,75.25730763601923,52.667066544519116,3.7628653818009616,0.82729234671193,B,485.04040000034365,Correct
2,402,235,A,37.64984992603158,68.54136402368746,1.882492496301579,1.0766452284192014,A,501.3103000001138,Correct
2,402,236,B,73.81034827936601,47.17980325727546,3.6905174139683004,0.7410986165543418,B,519.0161000000444,Correct
2,402,237,A,48.43531345521742,55.47950598252748,2.421765672760871,0.8714700420974966,B,435.45629999971425,Incorrect
2,402,238,A,23.728572806632055,45.148661825252425,1.186428640331603,0.7091935215481148,B,353.5360999999284,Incorrect
2,402,239,B,46.90824234385014,27.022061511917357,2.345412117192507,0.4244615496534553,B,445.65160000001924,Correct
2,402,240,A,52.16850037133879,71.62886892301856,2.6084250185669395,1.1251436419675067,A,482.94259999966016,Correct
2,402,241,B,37.032351571911406,11.349827737127743,1.8516175785955704,0.1782826771923509,B,364.6051999999145,Correct
2,402,242,A,27.67445516617942,53.59230356693877,1.383722758308971,0.8418259358742446,A,529.8788000000059,Correct
2,402,243,B,42.84289680227947,23.262447105876788,2.1421448401139735,0.36540566466171837,B,427.81269999977667,Correct
2,402,244,A,33.10269473880576,65.64220947084252,1.6551347369402878,1.031105415195006,A,1148.633400000108,Correct
2,402,245,A,10.455523025826771,32.0560575503684,0.5227761512913386,0.5035353745164449,A,526.9069000000854,Correct
2,402,246,A,21.30225071267426,53.02357660500405,1.0651125356337132,0.8328923936466818,A,400.0013999998373,Correct
2,402,247,A,67.92448041789078,87.24863668549779,3.3962240208945387,1.370498380234424,B,372.71270000019285,Incorrect
2,402,248,B,54.963325436062874,39.908171905054736,2.7481662718031434,0.6268760983755927,B,2567.768899999919,Correct
2,402,249,A,13.602084576476631,37.82187023773186,0.6801042288238315,0.5941045484194243,A,1277.3188000001028,Correct
2,402,250,A,62.046971946584776,77.96271402470313,3.102348597329239,1.2246354481696464,A,1163.1211999997504,Correct
2,402,251,A,60.55448915906986,85.99687345183362,3.027724457953493,1.3508357293398583,A,997.6080000001275,Correct
2,402,252,B,63.530646656241125,35.031360042425575,3.1765323328120565,0.550271316772716,B,986.0662999999477,Correct
2,402,253,B,41.22022001887121,19.013318453693174,2.0610110009435605,0.2986605078724286,B,1031.5817999999126,Correct
2,402,254,A,40.12905958699957,68.37630587476707,2.0064529793499783,1.0740525010788842,A,1308.2681999999295,Correct
2,402,255,A,59.68634385481151,82.28779751894228,2.984317192740576,1.2925737008279674,A,1365.1574999998957,Correct
2,402,256,A,50.74666789768732,65.80620318425548,2.5373333948843655,1.0336814224214712,A,1162.9527000000053,Correct
2,402,257,A,37.68856845993213,49.442901145104976,1.8844284229966064,0.7766472750481408,A,1506.6728000001604,Correct
2,402,258,A,39.4997147850942,57.699783422489645,1.9749857392547099,0.9063460785690779,A,1011.0051999999996,Correct
2,402,259,B,45.43911244746786,21.116719595355626,2.271955622373393,0.3317006557434243,B,1219.5793000000776,Correct
2,402,260,A,30.365793975675736,53.4987196832815,1.5182896987837866,0.8403559236672842,A,3021.2612000000263,Correct
2,402,261,B,57.91669439057037,28.412263409206144,2.8958347195285183,0.44629878999110056,B,918.6678000000938,Correct
2,402,262,B,44.43166943414593,21.284969922353746,2.2215834717072966,0.33434352569973114,B,1299.6776999998474,Correct
2,402,263,A,41.598533117945856,68.15765098749098,2.079926655897293,1.0706178781411937,A,1010.0333999998838,Correct
2,402,264,A,57.804053790866824,82.75929884076683,2.8902026895433415,1.2999800262719767,A,711.8575999998029,Correct
2,402,265,B,37.1295773433154,20.375147695318454,1.8564788671657697,0.3200520715770973,B,400.14190000010785,Correct
2,402,266,A,33.87314998885327,48.1314083293297,1.6936574994426636,0.7560463940717638,B,1061.400699999922,Incorrect
2,402,267,B,69.68724055600276,53.71853139188109,3.4843620278001377,0.8438087179118315,B,484.872600000017,Correct
2,402,268,B,60.43512617866532,52.57821266004467,3.0217563089332664,0.8258966331583911,B,386.9430000004286,Correct
2,402,269,A,61.19843819848451,76.36094231361756,3.0599219099242254,1.1994748769682746,A,1363.8060999996924,Correct
2,402,270,A,31.354674308005436,52.16067442783583,1.5677337154002717,0.8193379579438902,B,382.5744000000668,Incorrect
2,402,271,A,63.693454665808005,80.53090999434917,3.1846727332904003,1.2649765761257412,A,331.26809999976103,Correct
2,402,272,A,21.066796354794533,47.670193802252875,1.0533398177397266,0.7488016532217966,B,703.9631000002373,Incorrect
2,402,273,A,25.0939979156621,53.34193996624154,1.254699895783105,0.837893233630861,A,601.6704000003301,Correct
2,402,274,B,77.31239513044545,56.851114204508335,3.8656197565222725,0.8930152136663886,B,590.3377999998156,Correct
2,402,275,B,34.145250458438966,21.7705250129574,1.7072625229219482,0.341970607227499,B,557.8629999999976,Correct
2,402,276,B,60.4308986973454,31.765010060931644,3.0215449348672703,0.49896361124314353,B,1877.5476999999228,Correct
2,402,277,A,40.45587467846641,64.44477122715374,2.0227937339233204,1.0122960992475052,A,429.59669999982,Correct
2,402,278,B,50.78141183106925,36.993691675593695,2.5390705915534624,0.5810955499860552,B,485.06670000006125,Correct
2,402,279,A,50.99932729515541,67.87228752972334,2.5499663647577706,1.0661353994285647,B,875.4131000000598,Incorrect
2,402,280,A,28.788824520082056,40.21494960193456,1.4394412260041027,0.631694951169607,B,833.5322000002634,Incorrect
2,402,281,B,58.84702289679284,44.05395319165293,2.942351144839642,0.6919978785424273,B,423.325400000067,Correct
2,402,282,A,32.01026318746921,46.77211338057326,1.6005131593734603,0.734694638946389,B,547.1443999999792,Incorrect
2,402,283,B,69.35010605734082,37.11164281012007,3.4675053028670413,0.5829483220746082,B,557.9532000001564,Correct
2,402,284,A,60.60864796695775,75.05379000825604,3.0304323983478874,1.178942176570041,A,338.69319999985237,Correct
2,402,285,B,72.29683336913743,60.64275800948374,3.6148416684568714,0.9525742152800886,A,369.60799999997107,Incorrect
2,402,286,A,13.703719389847553,31.014058983443004,0.6851859694923776,0.4871676993019254,A,775.6828999999925,Correct
2,402,287,A,55.3698411226334,81.56342466168215,2.7684920561316697,1.281195278593826,A,693.7716000002183,Correct
2,402,288,A,63.55518936268879,74.22765343857905,3.1777594681344397,1.1659652536792455,A,621.5055000002394,Correct
2,402,289,B,40.493244573096206,26.961489501248813,2.0246622286548104,0.423510086734808,B,767.1653000002152,Correct
2,402,290,A,31.69399686507066,63.08809340680581,1.5846998432535329,0.990985453879039,A,503.78560000035577,Correct
2,402,291,A,64.32755958090672,83.35212218475641,3.216377979045336,1.3092920735837479,A,534.6761000000697,Correct
2,402,292,B,47.844733009353746,38.52345838375246,2.3922366504676873,0.6051250692463443,A,698.0493999999453,Incorrect
2,402,293,B,40.36948945052778,20.255036593024926,2.018474472526389,0.31816537079419765,B,475.6625999998505,Correct
2,402,294,A,45.22349925686117,71.18016692564466,2.2611749628430586,1.118095447474502,B,499.1282000000865,Incorrect
2,402,295,A,56.3933842319507,81.01243250364344,2.819669211597535,1.272540314014426,A,417.7932000002329,Correct
2,402,296,A,19.1246811714531,47.787709399255206,0.9562340585726551,0.7506475839029202,A,482.90670000005775,Correct
2,402,297,A,39.621868414735616,60.69046827689785,1.9810934207367807,0.9533236464081333,A,469.6367999999893,Correct
2,402,298,A,48.48553183166315,69.51714536558278,2.4242765915831574,1.091972765895243,A,631.9057000000612,Correct
2,402,299,B,69.3488764593352,38.811825086129645,3.46744382296676,0.6096547228149847,B,778.6645000001045,Correct
2,402,300,A,51.284559910828804,60.07470190878527,2.56422799554144,0.9436512109161826,A,510.5551999999989,Correct
2,402,301,B,78.44608404871124,49.48220069329863,3.9223042024355617,0.7772645909076137,A,348.0964000000313,Incorrect
2,402,302,A,18.292346222447012,48.12503038985058,0.9146173111223506,0.7559462096327005,A,456.2289000000419,Correct
2,402,303,B,87.34672142961968,68.71569485266677,4.367336071480984,1.0793836106772794,B,774.8773000002984,Correct
2,402,304,A,48.0056256867793,73.3257691964436,2.400281284338965,1.15179848913184,A,518.8575000001947,Correct
2,402,305,B,68.77795204472547,39.95870438976012,3.438897602236273,0.6276698607891831,B,428.6795000002712,Correct
2,402,306,A,61.47238163999174,83.29498793273459,3.073619081999587,1.308394610851647,A,579.0483000000677,Correct
2,402,307,B,48.1065831015501,34.22641811077589,2.4053291550775047,0.537627318477531,B,1419.3771000000197,Correct
2,402,308,A,45.2506892913004,73.32769936227047,2.26253446456502,1.151828808105749,A,567.2469999999521,Correct
2,402,309,A,35.215769419727394,48.167361134073516,1.7607884709863697,0.7566111394080595,B,745.212299999821,Incorrect
2,402,310,B,42.5517834217527,33.420149782843154,2.127589171087635,0.524962485198253,A,730.5633000000853,Incorrect
2,402,311,B,47.52719160506159,24.97874489042485,2.3763595802530797,0.3923652072182614,B,781.6474999999627,Correct
2,402,312,A,19.729976667279924,38.61625766475305,0.9864988333639962,0.6065827569435935,A,1758.774099999755,Correct
2,402,313,A,49.39082797948355,60.71514146170985,2.4695413989741777,0.9537112118888634,A,403.19289999979446,Correct
2,402,314,A,26.059419518073536,48.62475542637222,1.302970975903677,0.763795872150457,A,525.7351999998718,Correct
2,402,315,B,78.28146515199134,49.37082340915819,3.914073257599567,0.7755150806194518,B,427.7787000000899,Correct
2,402,316,B,58.19160193986665,35.41558850179606,2.9095800969933325,0.5563067632990082,B,417.0755999998619,Correct
2,402,317,A,36.15904429468445,60.374248060374654,1.8079522147342226,0.9483564708624042,A,670.8403000002363,Correct
2,402,318,B,58.253533984234835,37.280527067069784,2.9126766992117417,0.5856011497793092,B,745.9284999999909,Correct
2,402,319,B,72.29386726170108,46.55081454655339,3.614693363085054,0.7312184849903651,A,522.1820000001571,Incorrect
2,402,320,B,73.3706820357145,54.68958412104949,3.6685341017857245,0.8590619785128505,A,732.1642000001702,Incorrect
2,402,321,A,58.953685287652036,74.62757945431011,2.947684264382602,1.172247276844246,A,469.28570000000036,Correct
2,402,322,B,86.47025126858313,60.24642660020346,4.323512563429157,0.9463486560611796,A,549.5523999998113,Incorrect
2,402,323,B,48.78094730268991,37.65659384697081,2.4390473651344955,0.5915083929442905,B,421.56379999960336,Correct
2,402,324,A,22.344310717454825,45.8731834544417,1.1172155358727411,0.7205742806862545,A,813.3738000001358,Correct
2,402,325,B,38.82417593605268,17.450054007646226,1.9412087968026341,0.27410480737583254,B,552.1461999996973,Correct
2,402,326,B,81.25231963888888,54.621943694598244,4.062615981944444,0.8579994851787259,B,1134.4804000000295,Correct
2,402,327,A,57.58731968761714,72.98163008667596,2.879365984380857,1.1463927646365453,A,1111.0161000001426,Correct
2,402,328,A,44.106793961761944,62.26316371216188,2.2053396980880975,0.9780274885369317,A,818.6350999999377,Correct
2,402,329,A,38.72836207553265,68.05714695426971,1.9364181037766326,1.0690391644790735,A,628.8653999999951,Correct
2,402,330,A,45.42994618146312,67.01600896607937,2.271497309073156,1.0526850072037133,A,502.808400000049,Correct
2,402,331,A,68.80486305048247,89.4960297401524,3.4402431525241237,1.4058003477855823,A,653.4357999998974,Correct
2,402,332,B,50.55866348876034,43.757476600126544,2.527933174438017,0.6873408351329241,B,450.407499999983,Correct
2,402,333,A,25.691967663046597,47.793917522313315,1.2845983831523298,0.75074510087188,A,666.4522000000943,Correct
2,402,334,B,78.5652025854358,55.336691090933186,3.92826012927179,0.8692267110262171,B,620.9827000002406,Correct
2,402,335,A,42.431056006206845,69.02296692137986,2.1215528003103423,1.0842102290458915,A,675.8588000002419,Correct
2,402,336,B,81.5806630648043,56.66316953208106,4.079033153240215,0.8900629856554945,B,572.7089000001797,Correct
2,402,337,B,36.61919823591923,24.09861608911968,1.8309599117959612,0.37854017633629594,B,477.5847999999314,Correct
2,402,338,B,42.55261960845519,18.14678905125669,2.1276309804227593,0.2850490958483586,B,390.4059999999845,Correct
2,402,339,B,68.02475820026783,37.12589713766833,3.401237910013391,0.5831722285281458,B,544.6157999999741,Correct
2,402,340,A,63.35354745099151,75.9901874513408,3.167677372549576,1.1936510732102177,A,928.0865000000631,Correct
2,402,341,A,44.57627950133176,52.20796716003069,2.228813975066588,0.8200808304440481,B,603.1509999997979,Incorrect
2,402,342,B,43.50010473032469,34.39920818774547,2.1750052365162347,0.5403414986596352,B,435.7224000000315,Correct
2,402,343,B,47.95404728311472,29.046183164302107,2.397702364155736,0.4562563782189751,B,572.2853000002033,Correct
2,402,344,A,63.493305235911976,78.77935829945837,3.1746652617955986,1.2374632664404825,A,520.18790000011,Correct
2,402,345,B,33.14550703966732,11.156251063816097,1.6572753519833663,0.17524198191843982,B,469.43430000010267,Correct
2,402,346,B,64.41041367597579,53.07225508406679,3.2205206837987896,0.8336570334077389,B,600.7739000001493,Correct
2,402,347,B,44.09574678682914,16.062732373236475,2.2047873393414568,0.25231281010169326,B,556.083899999976,Correct
2,402,348,B,50.84632123048456,19.92188588460202,2.542316061524228,0.3129322517035995,B,376.5243000002556,Correct
2,402,349,A,52.07386152315421,79.39535674429487,2.6036930761577106,1.247139347385088,A,678.329500000018,Correct
2,402,350,B,87.1198581858898,58.86647335714021,4.35599290929449,0.9246724012076549,B,419.8596000001089,Correct
2,402,351,A,11.36813399635911,37.854398457567314,0.5684066998179554,0.5946155005017713,B,1903.7420999998176,Incorrect
2,402,352,B,54.81948511443559,24.06863453289862,2.7409742557217793,0.3780692271524595,B,551.7782999995688,Correct
2,402,353,A,31.93614548932513,63.57631248694547,1.5968072744662567,0.9986543812565846,A,569.1815999998653,Correct
2,402,354,A,62.38073132643049,72.02419081358835,3.1190365663215243,1.1313533437035932,B,517.044100000021,Incorrect
2,402,355,B,72.00637169794776,60.72481215371245,3.600318584897388,0.9538631187636161,B,519.2551000000094,Correct
2,402,356,A,63.623982763791346,81.39299332970546,3.1811991381895672,1.2785181494914286,A,532.7926999998454,Correct
2,402,357,B,46.01227541957663,17.04175219814688,2.3006137709788317,0.26769121754997977,B,417.5035999996908,Correct
2,402,358,A,18.011175102702538,33.64956302479943,0.9005587551351268,0.5285660999760832,A,508.51650000004156,Correct
2,402,359,B,63.991874483016346,36.239735418476876,3.199593724150817,0.5692524327936239,B,563.9889999997649,Correct
2,402,360,A,34.68974919025239,60.44698227341826,1.7344874595126196,0.9494989772092162,A,600.1452000000427,Correct
2,402,361,A,32.3256337014958,65.06193860714713,1.61628168507479,1.0219905417826176,A,595.7637999999861,Correct
2,402,362,A,60.45906609756601,77.54272808744555,3.0229533048783,1.2180383244941493,B,702.5784000002204,Incorrect
2,402,363,B,51.699707443346185,36.619829606485325,2.5849853721673095,0.5752229383372216,B,502.8677999998763,Correct
2,402,364,B,39.37267650806851,13.904130417890602,1.9686338254034255,0.2184055698769975,B,637.7243000001727,Correct
2,402,365,A,63.14935277099856,80.78743876770363,3.157467638549928,1.269006120674765,B,894.33229999986,Incorrect
2,402,366,B,68.06347073606278,39.68809247092249,3.403173536803139,0.6234190987082124,B,577.644699999837,Correct
2,402,367,A,52.899588051914826,65.19488247350276,2.6449794025957414,1.0240788191520311,B,589.5158999996966,Incorrect
2,402,368,B,48.12900259766512,40.14090451823073,2.406450129883256,0.630531853714615,B,609.3896000002132,Correct
2,402,369,B,51.00112680405836,34.379995105675796,2.550056340202918,0.5400397002722206,B,395.3839999999218,Correct
2,402,370,A,17.350677441546438,40.45443479043004,0.8675338720773219,0.6354567757137118,A,415.2610999999524,Correct
2,402,371,B,65.72338622206536,41.9478374532728,3.2861693111032677,0.658915089885903,B,444.7675999999774,Correct
2,402,372,B,41.44042831494755,22.67846071001446,2.0720214157473777,0.3562324278065309,B,437.3270000000957,Correct
2,402,373,B,55.828946315839865,40.167969292589305,2.7914473157919932,0.6309569861960949,B,497.50589999985095,Correct
2,402,374,B,64.95488602615316,34.584999763969876,3.2477443013076583,0.5432599059144625,B,434.91050000011455,Correct
2,402,375,A,42.732818462474825,51.214500036397425,2.1366409231237413,0.8044754853581016,A,1076.8763999999464,Correct
2,402,376,A,12.715480316907865,32.715640160560156,0.6357740158453933,0.513896073929515,B,387.47060000014244,Incorrect
2,402,377,B,76.60926327208168,51.499107464502195,3.8304631636040836,0.8089460883845567,B,414.0079999997397,Correct
2,402,378,B,74.12014289590557,54.90188013617609,3.706007144795279,0.862396716520391,B,666.7068000001564,Correct
2,402,379,B,85.06604878619962,66.89830233550171,4.253302439309981,1.0508360757742055,B,555.8230000001458,Correct
2,402,380,A,58.318558976066036,69.48809160630684,2.915927948803302,1.0915163905117404,A,511.1336999998457,Correct
2,402,381,B,63.78298542460695,44.21784943621177,3.1891492712303475,0.6945723547317124,B,400.8284999999887,Correct
2,402,382,A,44.51857483735476,65.89910489560242,2.2259287418677385,1.0351407190908386,B,686.9214000003012,Incorrect
2,402,383,A,30.768212986492244,63.08891957349918,1.5384106493246121,0.9909984312751116,A,711.4885999999387,Correct
2,402,384,A,56.786958320830365,74.81974677921139,2.8393479160415183,1.1752658341250952,B,371.3545000000522,Incorrect
2,402,385,A,41.380704211850556,67.96092086270963,2.069035210592528,1.0675276485674294,A,459.937500000251,Correct
2,402,386,B,67.19085529806107,38.57740453704453,3.3595427649030536,0.6059724534407033,B,484.49959999970815,Correct
2,402,387,B,77.14202190478659,64.31628691322759,3.8571010952393294,1.0102778723638457,B,636.505699999816,Correct
2,402,388,A,32.84533213591917,50.7756421241955,1.6422666067959586,0.7975819213933851,A,467.13339999996606,Correct
2,402,389,B,84.53136541989991,56.14169556226369,4.226568270994996,0.8818716916924115,B,1678.7428000002365,Correct
2,402,390,B,83.90326787074785,59.48808530876007,4.195163393537393,0.9344366589106178,B,511.30849999981365,Correct
2,402,391,B,48.290373479766636,19.577028915680714,2.4145186739883315,0.3075152511030874,B,627.4836999996296,Correct
2,402,392,B,46.768237622894205,17.894551785174233,2.3384118811447103,0.28108696213792744,B,391.634200000226,Correct
2,402,393,B,74.41612275473406,46.519783114063415,3.720806137736703,0.7307310443886607,B,764.8897999997644,Correct
2,402,394,A,25.87781724799843,39.91126519599854,1.2938908623999215,0.6269246876761151,A,690.1819000004252,Correct
2,402,395,A,51.00044367052987,63.017887919842295,2.5500221835264933,0.9898826686686076,A,537.3663000000306,Correct
2,402,396,A,55.132824029571005,78.01686547002154,2.7566412014785504,1.2254860570836141,A,438.29520000008415,Correct
2,402,397,A,16.810060506352002,42.04388517388795,0.8405030253176001,0.6604238039532961,A,449.9351999997998,Correct
2,402,398,A,34.69938278378989,52.57954518844455,1.7349691391894948,0.8259175644655496,A,484.15810000005877,Correct
2,402,399,B,57.71714265698022,50.85602728217811,2.885857132849011,0.7988446085022644,A,674.2619000001469,Incorrect
2,402,400,B,43.583678529781636,18.602126013675335,2.179183926489082,0.2922015121285701,B,260.474400000021,Correct
2,402,401,A,33.32413144211496,49.738633680006096,1.666206572105748,0.781292630843505,A,417.7113000000645,Correct
2,402,402,A,30.735349825933664,50.84625072483354,1.536767491296683,0.7986910386986087,B,252.48359999977765,Incorrect
2,402,403,B,69.62789418100476,41.658541440561606,3.481394709050238,0.6543708387446715,A,331.6757000002326,Incorrect
2,402,404,A,36.40467557842207,58.14611116839727,1.8202337789211038,0.9133569784072614,A,516.7722999999569,Correct
2,402,405,B,65.49928436506993,53.192709600050826,3.274964218253496,0.8355491285202747,B,614.5415000000867,Correct
2,402,406,B,78.8580633429598,65.70732441842388,3.9429031671479895,1.0321282383998085,B,479.8817999999301,Correct
2,402,407,B,58.1517594486069,40.8318010193145,2.907587972430345,0.6413844305755931,B,743.9005999999608,Correct
2,402,408,A,48.05685998673748,76.41015309230598,2.4028429993368743,1.2002478780722994,A,386.9534000000385,Correct
2,402,409,A,55.57037014262877,72.61546637633452,2.7785185071314387,1.1406410785244459,B,685.688200000186,Incorrect
2,402,410,A,39.30193994000323,63.179347731392085,1.9650969970001615,0.9924188734576816,A,502.2930999998607,Correct
2,402,411,A,53.86992241969264,77.99906569008627,2.693496120984632,1.2252064587942135,B,412.0610999998462,Incorrect
2,402,412,B,51.211944069918744,31.662864361053572,2.560597203495937,0.4973591103414799,B,591.4201000000503,Correct
2,402,413,B,46.676114283332,39.20192396270078,2.3338057141666,0.6157823816390322,B,363.58259999997244,Correct
2,402,414,B,87.64741726140728,62.57018795572563,4.382370863070364,0.9828502140772011,B,614.3767999997181,Correct
2,402,415,A,32.70924399260652,56.252275027059675,1.6354621996303258,0.8836086698636164,A,463.4574000001521,Correct
2,402,416,A,47.528654109486865,75.96005281367823,2.3764327054743433,1.1931777194287212,A,566.65780000003,Correct
2,402,417,A,52.160139851864535,65.10757537652931,2.6080069925932268,1.022707402479741,B,464.06200000001263,Incorrect
2,402,418,A,62.425628747440584,83.53802354339712,3.121281437372029,1.312212205296738,A,394.2925000001196,Correct
2,402,419,B,65.11088770809037,48.74231714991123,3.255544385404519,0.7656425273855245,B,615.279499999815,Correct
2,402,420,A,51.37020318104037,76.23022187102535,2.5685101590520185,1.197421525057666,A,613.053100000343,Correct
2,402,421,B,37.58165789737261,27.318077728885182,1.8790828948686304,0.42911136151630314,B,413.36249999994834,Correct
2,402,422,B,78.29021748620318,54.24167821320983,3.914510874310159,0.8520262889650076,B,490.0914999998349,Correct
2,402,423,B,52.19589095970882,22.25028711514504,2.609794547985441,0.3495066927060164,B,396.2830999998914,Correct
2,402,424,A,61.946593372955434,79.683820452087,3.0973296686477716,1.2516705247112232,B,527.3659999998017,Incorrect
2,402,425,B,54.54530326274928,33.54830375811283,2.727265163137464,0.5269755231344305,B,409.04730000011114,Correct
2,402,426,B,56.06210555071109,32.24357495838678,2.8031052775355545,0.5064808910736986,B,425.8638000001156,Correct
2,402,427,B,41.807913708764644,27.97296804163033,2.0903956854382324,0.43939835449343956,B,367.143699999815,Correct
2,402,428,B,65.4296285263313,44.884799420762825,3.271481426316565,0.7050487805905995,B,263.9788999999837,Correct
2,402,429,A,38.9776874658986,62.17842966506915,1.94888437329493,0.9766964892376546,A,609.4130999999834,Correct
2,402,430,A,50.03203367404832,77.82453328075768,2.501601683702416,1.2224649101194134,A,933.2973999999012,Correct
2,402,431,A,31.37828010148243,61.45889667504224,1.5689140050741215,0.9653940914602342,A,1252.723899999637,Correct
2,402,432,A,50.08853758745354,67.83294391187219,2.504426879372677,1.0655173913245308,B,927.7922000001126,Incorrect
2,402,433,A,36.31827195767053,68.80982127604436,1.8159135978835266,1.0808621450782379,B,398.69550000003073,Incorrect
2,402,434,B,73.33963955405707,50.55873792537597,3.666981977702853,0.7941747982056642,A,384.3234000000848,Incorrect
2,402,435,A,13.720393426881955,38.70285753840327,0.6860196713440978,0.6079430645779004,A,474.02999999985695,Correct
2,402,436,A,44.13788180548058,61.60906678697044,2.2068940902740293,0.9677529580623463,B,758.4638000002997,Incorrect
2,402,437,A,42.78308915824886,50.146520463197305,2.139154457912443,0.7876997014513546,A,804.5575999999528,Correct
2,402,438,B,55.370673561667004,31.35418454338327,2.76853367808335,0.4925103791039577,B,376.4255000000958,Correct
2,402,439,B,65.0556251087256,40.71044878044356,3.25278125543628,0.6394782340649253,B,385.2724999997008,Correct
2,402,440,B,75.9217940839016,59.74733962979616,3.7960897041950803,0.9385090162625096,B,546.9514999999774,Correct
2,402,441,B,77.68650887383208,49.81517740474385,3.884325443691604,0.7824949768600776,B,523.2148000000052,Correct
2,402,442,B,73.70216586054903,41.24627122603306,3.6851082930274517,0.6478949133583877,B,321.6066999998475,Correct
2,402,443,A,21.29383534737282,34.59586431675565,1.064691767368641,0.5434305659105441,A,524.4259000000966,Correct
2,402,444,B,69.8512304889114,58.60864529579169,3.4925615244455694,0.9206224474905458,B,387.0364999997946,Correct
2,402,445,B,49.267481499207804,18.881728647496743,2.4633740749603903,0.2965935000302586,B,455.47169999963444,Correct
2,402,446,B,37.06978360923897,13.952969929467418,1.8534891804619484,0.21917273913087065,B,472.296599999936,Correct
2,402,447,B,75.08016220292063,51.60325524458938,3.7540081101460316,0.8105820378886048,B,386.78929999969114,Correct
2,402,448,B,88.98308360312527,68.55732745623908,4.449154180156263,1.0768959814313526,B,313.4531999999126,Correct
2,402,449,B,84.20735109254673,58.59215212291667,4.210367554627337,0.920363373336853,B,381.02389999994557,Correct
2,402,450,A,61.135731206882824,80.06623061087083,3.0567865603441415,1.25767740943869,A,550.1682999997684,Correct
2,402,451,A,54.796098404915114,76.2587714685157,2.739804920245756,1.1978699810863593,A,408.41279999995095,Correct
2,402,452,B,80.8944262820448,50.530242794450864,4.04472131410224,0.7937271977357772,B,405.1006999998208,Correct
2,402,453,B,78.54825628669822,50.926019027212256,3.927412814334911,0.7999440362623202,B,330.043200000091,Correct
2,402,454,A,31.059154808758535,45.31181977218449,1.5529577404379267,0.7117564005853977,A,575.052599999708,Correct
2,402,455,B,32.94507448020968,20.960223697371273,1.647253724010484,0.32924242392630143,B,506.38560000015786,Correct
2,402,456,B,35.98910036418776,22.299017387006757,1.7994550182093882,0.35027214602645745,B,372.6150000002235,Correct
2,402,457,A,35.407127411525416,51.46565340868949,1.7703563705762706,0.808420593304687,A,1023.9522000001671,Correct
2,402,458,A,37.279357828493325,65.20233010954072,1.8639678914246662,1.0241958063453487,A,1150.8646999996017,Correct
2,402,459,B,67.36296559107757,44.7295572014793,3.3681482795538784,0.7026102415124591,B,1143.141999999898,Correct
2,402,460,B,40.582787140175654,13.767615197867144,2.0291393570087823,0.21626119381535303,B,964.9426999999378,Correct
2,402,461,A,18.313574917879418,46.30700537164653,0.9156787458939709,0.7273887394265393,A,848.844299999655,Correct
2,402,462,B,54.508162504815154,24.595825946386544,2.7254081252407576,0.38635033051070594,B,772.4201999999423,Correct
2,402,463,B,49.736289595619326,18.846375149928576,2.4868144797809664,0.2960381685890643,B,374.9185000001489,Correct
2,402,464,B,61.47392863302809,34.50484124293198,3.0736964316514044,0.542000778810386,B,423.7847999997939,Correct
2,402,465,A,55.88052141356226,64.06951958469128,2.7940260706781133,1.0064016602314676,A,769.7023999999146,Correct
2,402,466,A,62.85742444153493,80.53804533341986,3.1428712220767467,1.265088657769768,A,535.5537000000368,Correct
2,402,467,B,39.25210946369062,27.746118834020983,1.9626054731845313,0.4358350154729487,B,517.8870999998253,Correct
2,402,468,B,40.45359389301503,23.081714960144488,2.0226796946507517,0.3625667307552177,B,411.1337999997886,Correct
2,402,469,B,72.73224544398175,60.4086670931528,3.6366122721990877,0.9488971237650016,A,971.9998000000487,Incorrect
2,402,470,B,43.435525160877816,23.533042312539774,2.171776258043891,0.36965616422846354,B,1235.2092000000994,Correct
2,402,471,A,47.59726702508269,75.23535577878056,2.3798633512541345,1.1817942050241572,A,1338.1153000000268,Correct
2,402,472,A,29.835963564425356,43.182027729315664,1.4917981782212677,0.678301705407644,B,482.97249999995984,Incorrect
2,402,473,A,28.8768072697821,47.02375101882395,1.4438403634891048,0.7386473537248643,B,410.98490000013044,Incorrect
2,402,474,A,15.640787640303351,45.67175037721284,0.7820393820151677,0.7174101773081938,A,1366.599700000279,Correct
2,402,475,A,48.76117303680382,69.87780156978867,2.438058651840191,1.097637940303267,A,1655.6752000001325,Correct
2,402,476,B,40.48351750058937,20.059177428114094,2.0241758750294685,0.3150888222260872,B,963.5846999999558,Correct
2,402,477,B,48.17170926455127,21.674012469667165,2.4085854632275634,0.3404545917425997,B,363.04329999984475,Correct
2,402,478,B,59.986422544276486,27.886907125594426,2.9993211272138245,0.4380465127855415,B,425.6802999998399,Correct
2,402,479,A,12.199168919922823,35.04507661642866,0.6099584459961411,0.5504867762133187,A,604.7453999999561,Correct
2,402,480,A,53.94605256160677,80.32514363457258,2.6973026280803385,1.261744405704591,A,539.683999999852,Correct
2,402,481,B,66.9089602514105,50.64400976214661,3.3454480125705253,0.7955142450854478,B,1695.2715999996144,Correct
2,402,482,B,75.42692100377839,43.11488896110631,3.771346050188919,0.6772470921027562,B,1564.0657000003557,Correct
2,402,483,B,37.68706189357796,11.900219718610625,1.884353094678898,0.1869282142204577,B,1199.5790000000852,Correct
2,402,484,B,39.40936723539878,16.522608813384053,1.970468361769939,0.25953653233132656,B,3702.784800000245,Correct
2,402,485,A,39.03998088344096,67.61923852924805,1.951999044172048,1.0621605150241078,A,3750.550199999907,Correct
2,402,486,B,48.410048032853936,30.928232521338643,2.420502401642697,0.48581954038777203,B,1545.0368000001617,Correct
2,402,487,A,51.595224926633854,60.429675223157204,2.579761246331693,0.949227118699439,A,513.3584000000155,Correct
2,402,488,A,58.18685414597961,67.06772334263609,2.909342707298981,1.053497334731091,A,534.3530000000101,Correct
2,402,489,B,59.75313676131276,44.54831839454198,2.987656838065638,0.6997633489903607,B,434.4885999998951,Correct
2,402,490,A,27.72693641602141,37.811737955867855,1.3863468208010703,0.593945390908084,B,383.72649999973873,Incorrect
2,402,491,B,81.46735411618651,63.51420118388758,4.073367705809326,0.9976787391896268,B,499.6315999997023,Correct
2,402,492,A,29.59322186493469,56.86547670710549,1.4796610932467344,0.8932408193296207,A,760.0837999998475,Correct
2,402,493,A,24.818967527061158,43.07583895150013,1.240948376353058,0.6766336959862492,B,994.5612999999867,Incorrect
2,402,494,B,54.46253151017066,24.65131051089037,2.723126575508533,0.3872218800118702,B,414.47370000014416,Correct
2,402,495,B,47.55350324201768,32.024814126304065,2.3776751621008843,0.5030446039588774,B,402.8678999998192,Correct
2,402,496,B,31.004268553320863,14.815378359063452,1.550213427666043,0.23271941906493473,B,473.26440000006187,Correct
2,402,497,A,36.00064176394727,45.870508784200176,1.8000320881973635,0.7205322670643467,B,538.0983999998534,Incorrect
2,402,498,A,44.4670211805902,71.4753891465854,2.22335105902951,1.1227327872769217,A,663.8833000001796,Correct
2,402,499,A,65.33934056042196,81.26169163361183,3.266967028021098,1.2764556672721703,A,379.5058999999128,Correct
2,402,500,A,37.45679350577938,55.75830876602816,1.872839675288969,0.8758494659797271,B,608.2017999997333,Incorrect
2,402,501,A,61.7603788617688,71.50232411532635,3.08801894308844,1.1231558807765278,A,330.1695000000109,Correct
2,402,502,B,78.08460418173365,50.44687568764951,3.9042302090866827,0.7924176702843863,B,412.09140000000843,Correct
2,402,503,B,71.85345741795179,44.86593655127934,3.5926728708975895,0.7047524833296248,B,412.40479999987656,Correct
2,402,504,A,47.20718759097732,66.36954641374223,2.360359379548866,1.0425303971774968,B,382.05139999990934,Incorrect
2,402,505,A,51.13674510899297,59.495673840875114,2.5568372554496483,0.9345558592943385,A,480.8451000003515,Correct
2,402,506,A,67.39295872468446,88.8388907387151,3.3696479362342235,1.395478032489068,A,521.9526999999289,Correct
2,402,507,B,79.35469237194528,58.62641609933046,3.9677346185972637,0.9209015906197748,B,672.0216999997319,Correct
2,402,508,B,74.1330306226028,58.96468309411283,3.7066515311301402,0.9262150761485758,B,4191.5273999998135,Correct
2,402,509,A,59.90175372439829,73.6055774435703,2.9950876862199145,1.1561937067997752,A,2080.3775000003952,Correct
2,402,510,B,78.04256262469741,46.637220043889975,3.902128131234871,0.732575739368677,B,1304.1242999997849,Correct
2,402,511,A,29.845035656649166,46.56906283932049,1.4922517828324584,0.7315051285028532,A,1130.0696999996944,Correct
2,402,512,B,85.0544586942436,68.3925135487136,4.252722934712181,1.0743070906258951,B,405.16230000002906,Correct
2,402,513,A,49.58822684210815,66.4966663214267,2.4794113421054074,1.0445271920180297,B,581.999299999552,Incorrect
2,402,514,B,38.509486586205014,28.911446105861934,1.9254743293102508,0.45413993345416537,B,1006.54540000005,Correct
2,402,515,B,49.958791842523006,22.194281261354437,2.49793959212615,0.3486269548118835,B,1679.1127999999844,Correct
2,402,516,A,56.780223191187915,82.29312284665664,2.839011159559396,1.2926573508800945,A,450.16539999960514,Correct
2,402,517,A,31.024217392195986,45.98777730952176,1.5512108696097995,0.7223743167525847,B,384.53230000004623,Incorrect
2,402,518,A,48.01765058091007,79.70768358062419,2.4008825290455036,1.2520453658577437,A,348.95189999997456,Correct
2,402,519,A,29.28421226841192,56.15364332744439,1.464210613420596,0.882059366749004,A,504.0295000003425,Correct
2,402,520,B,71.12051307193326,48.104015686552174,3.556025653596663,0.7556161114452025,B,508.42329999977665,Correct
2,402,521,A,48.5404311135551,65.27172180005213,2.427021555677755,1.0252858084710026,A,531.9038000002365,Correct
2,402,522,A,45.528422320153595,60.059001182639754,2.27642111600768,0.9434045844866088,A,664.6385999997619,Correct
2,402,523,A,35.281109018194975,67.57534409599984,1.7640554509097486,1.0614710228789774,A,504.9159999998665,Correct
2,402,524,B,75.12977850802037,46.93336628918898,3.756488925401018,0.7372275937117747,B,507.3944999999185,Correct
2,402,525,A,45.559834973793656,67.2245942400688,2.277991748689683,1.0559614570257743,A,442.60010000016337,Correct
2,402,526,B,82.97052507188764,66.37172175443368,4.148526253594382,1.0425645673491735,A,438.7397999998939,Incorrect
2,402,527,A,59.23276345443714,76.4214896153286,2.961638172721857,1.2004259517595248,A,470.20859999975073,Correct
2,402,528,A,53.20246461842865,66.17999850323967,2.660123230921432,1.0395529855618064,B,745.8292000001165,Incorrect
2,402,529,B,85.45860734602037,65.73682149970321,4.272930367301019,1.032591577469056,A,510.2713000001131,Incorrect
2,402,530,B,55.14671378702565,29.11590521897743,2.757335689351282,0.45735156969278107,B,1562.1524000002864,Correct
2,402,531,A,34.93315191175654,42.63872821402178,1.746657595587827,0.6697675765779133,B,889.6138000000064,Incorrect
2,402,532,B,78.1128239410025,66.15636033603924,3.905641197050125,1.0391816780997005,B,534.3164000000797,Correct
2,402,533,B,54.91026720854321,24.885715248249184,2.7455133604271604,0.39090390101613565,B,442.19859999975597,Correct
2,402,534,B,73.1023573781321,43.058507042935474,3.6551178689066046,0.6763614470031523,B,984.0042999999241,Correct
2,402,535,B,67.74543370435174,45.82905726404836,3.387271685217587,0.7198811481084013,A,1336.326900000131,Incorrect
2,402,536,B,42.67040185177337,25.104195527256167,2.1335200925886686,0.3943357812135485,B,1592.8828999999496,Correct
2,402,537,B,79.11945103848973,56.81433663265015,3.9559725519244866,0.892437512918556,A,4041.999300000043,Incorrect
2,402,538,B,60.64927800280084,30.153530597556138,3.032463900140042,0.47365055102538706,B,441.4891000001262,Correct
2,402,539,A,25.23349711141659,48.263200747270474,1.2616748555708295,0.7581165845317718,A,678.7319999998545,Correct
2,402,540,B,69.97132392259101,47.05782282563327,3.4985661961295507,0.7391825524146978,B,559.885199999826,Correct
2,402,541,B,73.39479049949765,58.744001334814804,3.669739524974882,0.922748615179616,B,439.33990000004997,Correct
2,402,542,B,46.37211736983802,34.7902235947808,2.318605868491901,0.5464835543105482,B,409.27130000000034,Correct
2,402,543,A,34.383775725465426,47.72636741071579,1.7191887862732713,0.7496840262001601,B,497.0373000001018,Incorrect
2,402,544,B,52.05409402187138,44.62107293292594,2.602704701093569,0.7009061746068725,B,445.4531000001225,Correct
2,402,545,A,45.57638159285312,76.51587435037298,2.278819079642656,1.2019085437106571,A,732.3632000002362,Correct
2,402,546,A,55.626763300329756,72.15804513439099,2.7813381650164875,1.1334559224580172,A,507.55839999965247,Correct
2,402,547,A,25.75420035395808,54.87253618292328,1.287710017697904,0.8619357827805595,A,565.2190000000701,Correct
2,402,548,B,33.54718820963592,10.03822800538703,1.677359410481796,0.15768011678391608,B,431.4377999999124,Correct
2,402,549,B,46.36062116032694,35.23048674479458,2.3180310580163472,0.5533991916991963,B,725.8037000001423,Correct
