subject,day,trial,cat,x,y,xt,yt,resp,rt,fb
9,109,0,A,51.635632039972485,69.52823635907906,2.581781601998624,1.0921469828136876,B,4429.92250000043,Incorrect
9,109,1,A,53.6018538295184,70.9587687776738,2.6800926914759198,1.1146177334985838,A,1291.7505000004894,Correct
9,109,2,A,48.969055075060865,58.23529262464342,2.448452753753043,0.9147578374461582,A,798.273500000505,Correct
9,109,3,B,51.02553858388644,32.78100390093057,2.5512769291943216,0.5149228051623091,A,1865.3456000001825,Incorrect
9,109,4,B,33.01571458020061,11.791883111069652,1.6507857290100305,0.18522646676862986,A,1460.6742000005397,Incorrect
9,109,5,B,36.9688383573841,22.534828662900395,1.848441917869205,0.3539762608863629,B,649.4222999999693,Correct
9,109,6,B,60.73585032377597,31.480340957080493,3.0367925161887985,0.4944920394163298,B,1256.3012000000526,Correct
9,109,7,A,46.636131272733095,53.38143410787556,2.331806563636655,0.8385136061569474,B,1130.813699999635,Incorrect
9,109,8,A,43.74807616925213,63.08810130178902,2.1874038084626064,0.9909855778931452,A,650.8451999998215,Correct
9,109,9,A,32.58616327281643,53.021252330284014,1.6293081636408215,0.8328558840247547,A,1366.9954999995753,Correct
9,109,10,B,65.44198670776169,33.51295230560141,3.272099335388084,0.5264202238169124,B,1234.3443999998271,Correct
9,109,11,A,25.711400566632676,39.47942681423808,1.2855700283316338,0.6201413862377313,B,627.7552000001378,Incorrect
9,109,12,B,62.96675012614384,30.738960985068086,3.1483375063071923,0.4828464700483658,B,2278.4859000003053,Correct
9,109,13,B,84.1503831478944,57.415630130272916,4.20751915739472,0.9018826090924708,A,1549.4085999998788,Incorrect
9,109,14,A,59.5463269778125,74.7036878467357,2.977316348890625,1.17344278467685,A,1330.9654999993654,Correct
9,109,15,B,85.1849346448584,65.35425726935067,4.25924673224292,1.026582272591047,A,1219.2670000004,Incorrect
9,109,16,B,52.435966927961964,26.786026396025505,2.6217983463980983,0.42075391872308004,A,1121.1002000000008,Incorrect
9,109,17,B,46.32000496798172,22.046694474029824,2.316000248399086,0.3463086669777539,A,1534.3505000000732,Incorrect
9,109,18,A,26.74921639792042,54.7912362702902,1.337460819896021,0.8606587267392315,A,1867.6326000004337,Correct
9,109,19,A,38.284930188866994,59.93658286724571,1.9142465094433498,0.9414816420850749,B,2391.5547999995397,Incorrect
9,109,20,A,65.27046999248236,80.26046132388274,3.2635234996241183,1.2607283783441887,B,791.8214000001171,Incorrect
9,109,21,B,74.27105551715829,57.41222770833613,3.7135527758579143,0.9018291639736659,A,1754.601300000104,Incorrect
9,109,22,B,38.73844816271554,24.101290515601168,1.9369224081357772,0.37858218612923,A,793.5193000002982,Incorrect
9,109,23,A,23.334778883287047,37.802762787283726,1.1667389441643523,0.5938044092896408,A,1035.1811999998972,Correct
9,109,24,B,68.95067187651954,55.864870168931375,3.447533593825977,0.877523328582312,A,1845.4273000006651,Incorrect
9,109,25,A,13.44361315761098,39.69907247630971,0.672180657880549,0.6235915722295167,A,1746.1337000004278,Correct
9,109,26,A,22.31962945618571,45.7296953979329,1.1159814728092854,0.7183203755652249,A,1552.7704000005542,Correct
9,109,27,B,32.041222492598635,18.64984322550132,1.6020611246299319,0.2929510523391816,A,2262.853499999437,Incorrect
9,109,28,A,43.087843640019805,66.1705169917245,2.1543921820009904,1.0394040503272013,B,2215.199300000677,Incorrect
9,109,29,A,41.36231535760096,48.16999008563933,2.068115767880048,0.7566524348826884,B,1803.0448999998043,Incorrect
9,109,30,A,40.506617767773804,53.66953682729731,2.02533088838869,0.8430391130910204,A,2113.662800000384,Correct
9,109,31,A,62.84623369989768,74.74594312696804,3.142311684994884,1.1741065290666164,A,2643.1088999997883,Correct
9,109,32,A,28.410887731274695,42.872514549629955,1.4205443865637346,0.673439883750195,A,1739.684400000442,Correct
9,109,33,B,86.03024165637794,67.53316093019492,4.301512082818897,1.060808411259988,B,2484.5463999999993,Correct
9,109,34,A,34.186751719005805,57.83388676671404,1.7093375859502902,0.9084525689742639,B,1865.5251999998654,Incorrect
9,109,35,B,47.70911447558696,19.27498213706516,2.385455723779348,0.30277071139939193,B,2221.41080000074,Correct
9,109,36,B,71.59057626037148,50.916109213867,3.5795288130185736,0.7997883732783008,A,2213.7339000000793,Incorrect
9,109,37,B,32.46039991721523,13.245914690852878,1.6230199958607614,0.20806634141430258,A,1869.4769999992786,Incorrect
9,109,38,A,17.228863610844233,31.904320833492992,0.8614431805422116,0.5011518997413669,A,500.1223999997819,Correct
9,109,39,B,61.323290731963624,31.05248073548063,3.0661645365981816,0.4877712267716226,A,1534.873300000072,Incorrect
9,109,40,B,81.35778805395022,65.78513989051262,4.067889402697511,1.0333505609770566,B,1771.8695000003208,Correct
9,109,41,B,51.37287113902594,33.92551881083372,2.568643556951297,0.5329008033266879,A,4530.253000000812,Incorrect
9,109,42,B,46.31667662072009,30.926594918533212,2.3158338310360045,0.4857938169830568,A,2064.6114000001035,Incorrect
9,109,43,B,64.52708003871983,48.731458877382245,3.2263540019359915,0.7654719660394859,B,1344.6722999997291,Correct
9,109,44,A,28.387825664033848,38.955796352273865,1.4193912832016924,0.6119162181752182,A,439.89130000045407,Correct
9,109,45,A,40.98996156888688,66.91112885338067,2.049498078444344,1.0510375542459038,B,923.7511999999697,Incorrect
9,109,46,B,64.06047773668209,46.59134639609785,3.2030238868341043,0.7318551577941913,B,3947.764300000017,Correct
9,109,47,B,66.9239894609063,42.700429749682186,3.346199473045315,0.6707367820336431,B,3842.7193999996234,Correct
9,109,48,B,70.52019372320208,59.86848139770807,3.526009686160104,0.9404119067030842,B,5490.479400000368,Correct
9,109,49,B,55.03842375166421,41.30852339174716,2.7519211875832106,0.648872768090775,A,3967.7364999997735,Incorrect
9,109,50,A,42.41661794987035,71.42480736992285,2.1208308974935175,1.1219382505870785,A,798.9590000006501,Correct
9,109,51,A,63.35383711147716,79.42616395551278,3.167691855573858,1.2476232659272868,A,1000.0895000002856,Correct
9,109,52,A,58.27682955315647,79.0333958777324,2.9138414776578236,1.24145367938869,A,1575.525899999775,Correct
9,109,53,A,44.865473957151536,59.67215174776109,2.243273697857577,0.9373279677733077,A,2259.4130999996196,Correct
9,109,54,A,58.062775383745006,81.19779960813649,2.9031387691872506,1.275452053682889,A,1276.8377000002147,Correct
9,109,55,A,36.44521115337112,67.43811677372241,1.822260557668556,1.0593154611412847,A,781.6996999999901,Correct
9,109,56,A,67.32542906698954,86.00352523130067,3.3662714533494773,1.350940215247393,A,1126.524899999822,Correct
9,109,57,B,78.20957634342597,61.17161000613244,3.910478817171298,0.9608814030176279,B,1227.5251000000935,Correct
9,109,58,B,70.3873859064282,59.6828300190746,3.5193692953214097,0.9374957016668657,B,653.4532000005129,Correct
9,109,59,B,55.140942850884635,46.40499325837715,2.7570471425442316,0.7289279295520076,A,841.0507999997208,Incorrect
9,109,60,A,22.973173686081882,42.91998147112041,1.148658684304094,0.6741854924094096,A,1625.9390999994139,Correct
9,109,61,A,43.539806588344725,65.81626856171972,2.176990329417236,1.0338395290009579,A,1979.3138000004546,Correct
9,109,62,B,59.81271830209657,32.423665396112,2.9906359151048285,0.5093097450543952,B,1387.0409999999538,Correct
9,109,63,B,60.394090811046546,36.5521904344669,3.0197045405523273,0.5741604647076817,B,1510.133799999494,Correct
9,109,64,B,33.8063756013464,21.659905488770796,1.6903187800673203,0.3402329998048578,B,1280.3509999994276,Correct
9,109,65,B,40.496876713544324,23.233209457293473,2.0248438356772165,0.3649464007517304,B,2556.82330000036,Correct
9,109,66,A,67.91799709527513,89.02268102905701,3.3958998547637567,1.398365003618765,A,1668.8385999996171,Correct
9,109,67,B,53.71910978141446,30.71794121331142,2.685955489070723,0.48251629224571146,B,2579.4657000005827,Correct
9,109,68,A,69.19741854154194,87.16307200581451,3.459870927077097,1.3691543333889251,A,1073.824500000228,Correct
9,109,69,A,19.32455631164603,38.89898969875044,0.9662278155823016,0.6110239013482972,A,668.3350000002974,Correct
9,109,70,A,34.42585915011587,59.26258865440736,1.7212929575057934,0.9308945657469999,A,789.722399999846,Correct
9,109,71,A,28.961716886084645,45.4772611784337,1.4480858443042322,0.714355148117758,A,1044.116000000031,Correct
9,109,72,B,36.36290487356691,21.86122819338869,1.8181452436783456,0.34339536945399984,A,4157.477400000062,Incorrect
9,109,73,B,36.26645763813267,17.869549712649388,1.8133228819066334,0.28069423050108455,B,701.5203000000838,Correct
9,109,74,B,56.97980595030399,44.10607045942143,2.8489902975151993,0.6928165346701608,B,5959.760200000346,Correct
9,109,75,A,20.072661559514735,43.01872710045364,1.0036330779757368,0.6757365851278464,A,1877.337400000215,Correct
9,109,76,A,40.42450704665644,52.54519396617469,2.021225352332822,0.8253779767279257,A,1259.9815999992643,Correct
9,109,77,A,40.432059338235646,72.41557015505511,2.0216029669117823,1.137501116023187,B,5936.141799999859,Incorrect
9,109,78,B,82.03341230699877,50.967605888576244,4.1016706153499385,0.8005972811530552,A,818.5928000002605,Incorrect
9,109,79,B,57.19492368621793,30.34742549488471,2.8597461843108967,0.476696244950467,B,4295.665499999814,Correct
9,109,80,A,30.76259682063703,46.72284390061276,1.5381298410318516,0.7339207157649387,A,3214.3090999998094,Correct
9,109,81,A,35.485529835228725,60.86170302666998,1.7742764917614364,0.9560133955677503,A,4192.271799999617,Correct
9,109,82,A,30.12439135832414,41.23515179665386,1.5062195679162071,0.6477202497701385,A,1867.0615999999427,Correct
9,109,83,A,27.27654846603228,43.91383728404387,1.363827423301614,0.689796943012449,A,661.2612999997509,Correct
9,109,84,A,23.975266898172105,42.58129528171932,1.1987633449086053,0.6688654221869357,A,1616.6395999998713,Correct
9,109,85,B,67.13745177495721,38.616470593854665,3.3568725887478603,0.6065861016261004,A,2196.225699999559,Incorrect
9,109,86,A,49.188645226016234,78.445386392634,2.4594322613008117,1.2322172479955584,A,1302.455899999586,Correct
9,109,87,A,32.33909605630114,50.8947691827471,1.6169548028150569,0.7994531648533325,A,695.5934999996316,Correct
9,109,88,B,61.195053050202155,30.12222532365729,3.0597526525101078,0.4731588089328909,B,2513.7962000007974,Correct
9,109,89,A,31.200503412135383,63.68967342617347,1.5600251706067692,1.0004350507259983,A,944.1728000001604,Correct
9,109,90,A,23.029384973622467,49.22080531172096,1.1514692486811233,0.7731586018553802,A,670.2771999998731,Correct
9,109,91,A,50.89404555849737,58.74137343862697,2.5447022779248685,0.9227073362828254,A,1552.2099999998318,Correct
9,109,92,B,62.472441739667865,38.296342937942335,3.123622086983393,0.601557548165975,B,1013.4494999992967,Correct
9,109,93,B,66.19060916080569,54.69849442779787,3.309530458040285,0.85920194128396,A,1489.6579999995083,Incorrect
9,109,94,A,14.092874915628009,37.85953362126069,0.7046437457814005,0.5946961634644417,A,915.3330999997706,Correct
9,109,95,A,21.5947221845435,42.76047767736974,1.079736109227175,0.6716800126760756,A,655.7497000003423,Correct
9,109,96,A,39.42224595617988,48.50366217611664,1.971112297808994,0.7618937438234457,A,2328.342700000576,Correct
9,109,97,B,66.97400435556013,33.57901540400514,3.3487002177780063,0.5274579405400053,A,1432.0725999996284,Incorrect
9,109,98,A,51.23090392378859,62.83485824037913,2.5615451961894293,0.9870076451866555,A,660.5263000001287,Correct
9,109,99,B,53.031450552111174,37.00567399165186,2.6515725276055586,0.5812837677665618,A,3580.798300000424,Incorrect
9,109,100,A,31.990246523459923,59.75451615935909,1.599512326172996,0.9386217449252754,A,612.8464000003078,Correct
9,109,101,B,81.86886713974565,56.45371210182865,4.093443356987282,0.8867728360348904,A,1078.2141999998203,Incorrect
9,109,102,A,36.37713708364432,63.75669104582268,1.818856854182216,1.0014877610337531,A,892.2638999993069,Correct
9,109,103,B,38.976859174549745,20.371883280982395,1.9488429587274874,0.32000079427661515,A,1473.5805999998774,Incorrect
9,109,104,B,62.805255061713964,49.46377812735217,3.1402627530856986,0.7769752099184253,B,2652.373699999771,Correct
9,109,105,B,64.00914807839571,34.74591619355215,3.2004574039197853,0.5457875752795502,A,1080.244799999491,Incorrect
9,109,106,A,42.103472407975126,50.186339755204884,2.105173620398756,0.7883251814275651,A,776.8616000003021,Correct
9,109,107,B,43.03530191324848,30.00139200664086,2.151765095662424,0.47126076362765235,B,1503.4725000004983,Correct
9,109,108,A,47.011832124550516,59.62294126517354,2.350591606227526,0.9365549713204245,A,641.1570000000211,Correct
9,109,109,A,27.645979232881114,49.24189266771752,1.3822989616440557,0.7734898412687923,A,563.6576000006244,Correct
9,109,110,B,42.61671240419203,26.144258219443493,2.1308356202096013,0.4106730477787912,B,1739.661700000397,Correct
9,109,111,B,73.26847816206003,56.53836230087827,3.6634239081030016,0.8881025182521864,A,856.9409000001542,Incorrect
9,109,112,B,43.51215012062888,26.08941970140632,2.175607506031444,0.4098116463517945,B,4653.925499999787,Correct
9,109,113,A,49.27525128642673,61.04052165048373,2.463762564321337,0.9588222719422421,A,903.8722000004782,Correct
9,109,114,A,39.96507315735884,48.72760987139566,1.9982536578679417,0.7654115059948302,A,843.4780999996292,Correct
9,109,115,A,59.8891130083001,80.28408481430404,2.9944556504150053,1.2610994552639871,B,3970.1389000001654,Incorrect
9,109,116,B,81.76627763903215,56.022815864489786,4.088313881951608,0.880004333766474,A,1308.9349000001675,Incorrect
9,109,117,A,28.776460932495027,45.70267315652423,1.4388230466247511,0.7178959111897598,A,812.0891999997184,Correct
9,109,118,A,43.56605610047843,72.69476377253997,2.1783028050239213,1.1418866791112852,A,1933.8051999993695,Correct
9,109,119,B,53.17987642240817,42.19404018595053,2.6589938211204083,0.6627824333672735,A,1820.7120999995823,Incorrect
9,109,120,B,48.02526824427995,34.35952808084427,2.4012634122139973,0.5397182049979629,A,748.4451000000263,Incorrect
9,109,121,A,64.35252010145999,82.63473195305447,3.217626005072999,1.2980233341753882,A,818.5425000001487,Correct
9,109,122,B,48.48757098999859,29.178086882548122,2.424378549499929,0.45832831698008947,B,1908.777900000132,Correct
9,109,123,B,39.13329792009766,12.454067514150566,1.9566648960048831,0.1956280350488336,B,1237.9092000001037,Correct
9,109,124,B,81.11022759363104,50.42556339814079,4.055511379681552,0.7920828976236274,A,3739.415299999564,Incorrect
9,109,125,B,70.0211358036033,53.6149395385938,3.5010567901801655,0.842181500885536,B,1289.2836999999417,Correct
9,109,126,A,43.25948605407879,66.34703355984861,2.1629743027039394,1.0421767660954793,A,1174.2830000002868,Correct
9,109,127,A,37.650147837922134,60.35241801304509,1.8825073918961066,0.9480135652808138,A,582.7136999996583,Correct
9,109,128,B,51.35270901687426,36.850888203806946,2.5676354508437127,0.5788523982966933,A,2712.7691000005143,Incorrect
9,109,129,B,51.40146521330264,39.208495204423954,2.570073260665132,0.6158856024626447,B,1385.062100000141,Correct
9,109,130,B,42.24705094876348,33.600607198393206,2.112352547438174,0.527797103653142,A,2564.963199999511,Incorrect
9,109,131,A,15.516904691869296,43.19277997700104,0.7758452345934649,0.6784706013193339,A,720.5473999993046,Correct
9,109,132,A,15.173596705208148,33.686521109305154,0.7586798352604075,0.5291466362099528,A,857.4464999992415,Correct
9,109,133,A,26.318864963690416,57.14485677216069,1.315943248184521,0.8976293111293048,A,1240.8918999999514,Correct
9,109,134,A,22.257770203426148,36.86635179803246,1.1128885101713073,0.5790952998667781,A,750.427299999501,Correct
9,109,135,A,44.4555897185785,54.397780802723794,2.222779485928925,0.8544783427071247,A,2622.7044999995996,Correct
9,109,136,B,46.549442442188706,26.567671077136254,2.327472122109435,0.41732400139460646,B,1781.0577000000194,Correct
9,109,137,B,40.856550276054975,14.942734766250691,2.0428275138027487,0.23471992883096984,B,1492.5352999998722,Correct
9,109,138,B,61.677977400957424,44.81436341422265,3.083898870047871,0.7039423743871255,B,2894.5026999999754,Correct
9,109,139,B,69.81348700889093,52.7459597557619,3.4906743504445465,0.8285315983762224,B,1512.2286999994685,Correct
9,109,140,B,55.06119754439179,45.096155978090586,2.75305987721959,0.7083687616295441,B,1079.103699999905,Correct
9,109,141,B,44.755424817001455,16.239799682932112,2.2377712408500727,0.25509417689834685,B,2157.7437000005375,Correct
9,109,142,A,18.042252217021584,38.904757876304295,0.9021126108510792,0.6111145076694361,A,1638.8710000001083,Correct
9,109,143,B,72.47431097516063,53.193595628530545,3.6237155487580317,0.8355630462230883,A,6531.574499999806,Incorrect
9,109,144,A,18.005046266255103,45.09301447162699,0.9002523133127552,0.7083194149614078,A,645.543099999486,Correct
9,109,145,A,49.2098479072513,75.70229914207249,2.460492395362565,1.1891289342229592,A,856.9158000000243,Correct
9,109,146,A,44.502099299456646,55.893054783834955,2.2251049649728323,0.8779660514779386,A,872.1146999996563,Correct
9,109,147,A,36.89937571945418,65.52275316583844,1.8449687859727089,1.029228999943877,A,1738.0510000002687,Correct
9,109,148,B,49.42899284942743,38.88209605455794,2.4714496424713714,0.6107585366058595,B,6729.515500000161,Correct
9,109,149,A,34.756653857510194,47.44516147242034,1.73783269287551,0.745266853650686,B,1613.734800000202,Incorrect
9,109,150,A,24.50910181736765,50.73054527471204,1.2254550908683826,0.7968735417381987,A,732.9351000007591,Correct
9,109,151,B,75.65898607119772,61.99755673491845,3.782949303559886,0.9738553438946809,A,7320.212499999798,Incorrect
9,109,152,A,40.68023320201791,60.457651540126015,2.0340116601008957,0.9496665696587576,B,1083.3368000003247,Incorrect
9,109,153,B,64.32278684613996,37.06485455785271,3.216139342306998,0.5822133739266212,A,1137.9040000001623,Incorrect
9,109,154,A,49.210119708928744,56.93420000548136,2.4605059854464373,0.894320322376161,B,3505.9814000005645,Incorrect
9,109,155,B,64.65296317286568,38.97668070820322,3.232648158643284,0.6122442688710312,B,3841.7457000005015,Correct
9,109,156,A,38.253166919394715,46.29597884934528,1.9126583459697357,0.727215535219258,B,5223.816600000646,Incorrect
9,109,157,B,60.15220809807886,45.00355924315369,3.007610404903943,0.7069142555184232,A,4324.583099999472,Incorrect
9,109,158,B,82.00176193182966,61.309826001361664,4.100088096591483,0.9630524947937312,B,1783.3322000005865,Correct
9,109,159,A,31.313959413373748,59.55326081352841,1.5656979706686875,0.9354604333454889,A,1650.4358000001957,Correct
9,109,160,B,56.090379669904976,41.6451045896284,2.8045189834952486,0.6541597731837759,B,2745.0435000000653,Correct
9,109,161,B,48.69348394081129,34.87169080833005,2.4346741970405645,0.5477632383085219,B,4884.4316000004255,Correct
9,109,162,B,68.19555642728285,49.6607544066722,3.4097778213641425,0.7800693060786417,A,6962.523900000633,Incorrect
9,109,163,B,47.632637787891255,26.951260594824177,2.381631889394563,0.42334941144841853,B,2139.672299999802,Correct
9,109,164,B,65.90287482167855,51.329343670462706,3.2951437410839275,0.8062794449435569,B,4188.533399999869,Correct
9,109,165,B,74.67801134947229,50.60382900061159,3.733900567473614,0.7948830871591773,B,1681.5028000000893,Correct
9,109,166,B,40.31519920565104,24.256211674308652,2.0157599602825518,0.38101568199963515,A,1039.8998000000574,Incorrect
9,109,167,A,54.211201692671935,80.56519429999855,2.7105600846335967,1.2655151127395488,A,761.2646999996286,Correct
9,109,168,A,35.2975879874656,50.01705891988523,1.7648793993732799,0.7856661242843963,A,1548.0501000001823,Correct
9,109,169,B,68.56074786564709,44.718285106015344,3.4280373932823545,0.7024331798509583,B,1627.8187000007165,Correct
9,109,170,A,64.12207295319922,80.52263391000251,3.206103647659961,1.2648465756968212,B,1849.6484999996028,Incorrect
9,109,171,B,58.913902387034966,38.32607922165356,2.945695119351748,0.6020246446182361,A,919.1891999998916,Incorrect
9,109,172,A,36.614799405849624,69.21317283154693,1.8307399702924811,1.0871979764961424,A,763.3224000001064,Correct
9,109,173,A,35.562257418766535,59.4119621432759,1.7781128709383267,0.9332409190233523,A,717.8517000002103,Correct
9,109,174,B,50.28868215202267,27.128350982002935,2.5144341076011334,0.4261311407453293,A,2979.1061000005357,Incorrect
9,109,175,A,40.89854945951065,64.52720415530732,2.0449274729755325,1.0135909526550113,B,3470.1398999995945,Incorrect
9,109,176,B,30.85048706293709,15.227047921736364,1.5425243531468544,0.23918590943393345,A,892.5286000003325,Incorrect
9,109,177,A,21.022339867843574,44.46200465491163,1.0511169933921787,0.6984075359387278,A,742.196100000001,Correct
9,109,178,A,13.368800172001695,33.19231488813308,0.6684400086000848,0.52138366304099,A,600.4394999999931,Correct
9,109,179,A,41.82227988449032,68.7175113528098,2.091113994224516,1.0794121441948021,A,1552.4728000000323,Correct
9,109,180,A,54.12334926157695,78.8094599401564,2.7061674630788475,1.2379361019068722,B,2397.983700000623,Incorrect
9,109,181,A,25.09351516641486,51.776370066275454,1.254675758320743,0.8133013191487873,A,1449.0230999999767,Correct
9,109,182,B,72.63609501722776,40.348908784322035,3.631804750861388,0.6337991770859539,B,1682.447800000773,Correct
9,109,183,B,63.614884205528526,54.45096525833384,3.1807442102764263,0.8553137621822733,B,993.928799999594,Correct
9,109,184,A,50.87331720465196,74.542175404923,2.543665860232598,1.1709057531735394,B,3975.194300000112,Incorrect
9,109,185,A,60.430275399788,76.00235165457308,3.0215137699894,1.1938421480677741,B,3125.575099999878,Incorrect
9,109,186,B,73.84886969460844,43.23174687742483,3.692443484730422,0.6790826919598567,A,1291.3623999993433,Incorrect
9,109,187,B,84.68805417465987,67.02466759790363,4.234402708732993,1.0528210166743595,B,2390.7381999997597,Correct
9,109,188,B,49.70612536397082,35.50517098455708,2.4853062681985407,0.5577139216476701,A,1248.4725999993316,Incorrect
9,109,189,B,68.535184314282,59.64156330534013,3.4267592157141,0.9368474856433356,B,1082.0965000002616,Correct
9,109,190,A,63.55654330017969,86.98194488552083,3.1778271650089844,1.3663091952365227,B,6088.710099999844,Incorrect
9,109,191,B,39.188268038926694,16.164732853610982,1.9594134019463347,0.25391502990072917,B,1474.9956000005113,Correct
9,109,192,B,60.98528636291909,50.8703446936809,3.0492643181459544,0.799069505876242,A,1072.212899999613,Incorrect
9,109,193,A,38.76147305154869,53.066307095390705,1.9380736525774347,0.8335636026200969,B,2728.8312999999107,Incorrect
9,109,194,B,35.10554915359751,23.10227063127197,1.7552774576798753,0.3628896184822362,A,771.3085000004867,Incorrect
9,109,195,A,15.205766863613025,32.84307817251883,0.7602883431806512,0.5158978655403023,A,482.2309999999561,Correct
9,109,196,A,63.67625934400716,83.01180630571525,3.1838129672003577,1.3039464042562696,B,2337.4166000003243,Incorrect
9,109,197,A,24.767789400755063,52.79859996698487,1.2383894700377531,0.8293584688805297,A,602.2790999995777,Correct
9,109,198,B,53.922309503817864,33.8652782853524,2.696115475190893,0.5319545473651852,A,4784.633300000678,Incorrect
9,109,199,B,65.93815492398807,48.886196978336685,3.296907746199403,0.7679025864454303,A,2892.5610999995115,Incorrect
9,109,200,A,34.483117657413864,52.399749746142646,1.724155882870693,0.8230933442621269,A,570.3464999996868,Correct
9,109,201,B,54.349179646244096,30.83127642135263,2.717458982312205,0.48429655753058815,B,2463.890999999421,Correct
9,109,202,B,64.3585067525773,38.273535816171126,3.2179253376288646,0.6011992947349452,B,1715.482200000224,Correct
9,109,203,B,32.048522759521866,12.40538584579911,1.6024261379760931,0.19486334519054643,B,5561.041699999805,Correct
9,109,204,A,16.4702326870611,34.76359383950929,0.823511634353055,0.5460652550929088,A,739.7811000000729,Correct
9,109,205,B,48.63884989340531,21.28644569905497,2.4319424946702655,0.3343667071459457,B,5913.351399999556,Correct
9,109,206,A,17.97226664143352,36.8467583785859,0.898613332071676,0.5787875271538181,A,911.8013999996037,Correct
9,109,207,B,40.86010815174524,18.857989349947758,2.0430054075872617,0.29622060401635214,B,1540.4700999997658,Correct
9,109,208,B,65.32241666639528,48.312266463310934,3.266120833319764,0.7588873069970509,A,1591.5145999997549,Incorrect
9,109,209,B,34.22622466909884,20.386423090252208,1.7113112334549418,0.32022918506654835,A,1719.8515000000043,Incorrect
9,109,210,B,71.80039827934742,55.67057695584725,3.590019913967371,0.8744713779279749,A,2663.610100000369,Incorrect
9,109,211,A,54.13592399799377,63.95574940011023,2.7067961998996886,1.0046145623510805,A,753.2647000007273,Correct
9,109,212,A,58.94227123010944,69.28126777204164,2.947113561505472,1.0882676093201664,A,744.451399999889,Correct
9,109,213,B,66.8496695724909,47.318511326719815,3.3424834786245445,0.743277437814142,B,1202.6514999997744,Correct
9,109,214,A,48.752951144736485,78.28858947254932,2.437647557236824,1.2297542877343408,A,4060.9073999994507,Correct
9,109,215,B,62.410346582106165,31.523311670454895,3.120517329105308,0.4951670218036125,B,1212.6807000004192,Correct
9,109,216,B,53.89208050628121,30.91205570129387,2.69460402531406,0.48556543549271647,B,4805.802599999879,Correct
9,109,217,B,74.37298801596711,59.3918515559058,3.7186494007983555,0.932925022655646,A,853.2612000008157,Incorrect
9,109,218,B,64.61069784674436,39.77142697086523,3.230534892337218,0.6247281139722657,B,2014.9953999998615,Correct
9,109,219,A,33.73047016142351,53.048798396794474,1.6865235080711756,0.8332885766256777,B,867.403899999772,Incorrect
9,109,220,B,67.28633894676803,40.97881670219027,3.364316947338401,0.6436937475220182,B,1394.8398000002271,Correct
9,109,221,A,14.77655194480236,33.0839781228525,0.738827597240118,0.5196819131113941,A,735.8402999998361,Correct
9,109,222,A,47.285610613308414,75.67427577080582,2.364280530665421,1.1886887441364584,B,1320.4255000000558,Incorrect
9,109,223,B,80.78147265348343,55.824581220207946,4.039073632674172,0.87689047125566,B,811.9692999998733,Correct
9,109,224,B,69.65374507965258,56.49392727146261,3.482687253982629,0.8874045344423149,B,2021.1462999996002,Correct
9,109,225,A,52.415957382824,72.73714216439947,2.6207978691412,1.1425523573339689,B,2830.2459999995335,Incorrect
9,109,226,A,30.824521828436225,56.825149503624736,1.5412260914218112,0.8926073610986458,A,577.0827000005738,Correct
9,109,227,B,66.412265658224,48.93698048876246,3.3206132829112,0.768700291961816,A,2660.1472000002104,Incorrect
9,109,228,B,50.32857723959381,30.383035241828082,2.5164288619796906,0.4772556015474344,A,910.0255000003017,Incorrect
9,109,229,A,18.46315496110829,40.71223812500183,0.9231577480554145,0.6395063410235202,A,670.6242999998722,Correct
9,109,230,A,20.6067870053652,48.12477974440502,1.0303393502682598,0.7559422725032484,A,686.9574000002103,Correct
9,109,231,B,60.616219204154326,44.51103095777911,3.0308109602077162,0.6991776393033337,B,4623.519799999485,Correct
9,109,232,A,28.175931412926253,60.135357057884484,1.4087965706463126,0.9446039797702451,B,4315.442699999949,Incorrect
9,109,233,A,44.63241385248516,73.74146952276732,2.231620692624258,1.1583282945882072,A,634.0859000001728,Correct
9,109,234,A,61.41459218459647,81.45361879034213,3.0707296092298235,1.2794704520002118,A,803.7158000006457,Correct
9,109,235,B,43.435667064665026,30.67480498742981,2.1717833532332516,0.4818387099940452,B,610.6810000001133,Correct
9,109,236,A,25.477436528440066,42.52580274746353,1.2738718264220033,0.6679937474972003,B,1376.7051999993782,Incorrect
9,109,237,A,34.22192050844182,57.80495501416587,1.711096025422091,0.9079981100679598,B,1860.0840999997672,Incorrect
9,109,238,B,86.47024759226349,69.67906361352053,4.323512379613175,1.0945161717862597,A,2623.3891000001677,Incorrect
9,109,239,A,26.0468782711361,45.80512482632675,1.3023439135568051,0.7195052182557578,A,609.9201999995785,Correct
9,109,240,B,66.19698480495131,36.42888975189561,3.309849240247565,0.5722236621149388,B,1470.3350999998293,Correct
9,109,241,A,13.678457676287685,41.37742667170222,0.6839228838143842,0.6499550982813502,A,830.0630000003366,Correct
9,109,242,B,52.61980754262392,29.935408032059733,2.6309903771311958,0.47022428977865877,B,2037.5536000001375,Correct
9,109,243,B,43.2871390055587,26.646914105490122,2.1643569502779347,0.41856874797323,B,860.7442000002266,Correct
9,109,244,A,55.73860977540547,77.84391980880116,2.7869304887702735,1.2227694329898133,A,786.5876000005301,Correct
9,109,245,B,51.75955639018866,26.710036491208154,2.587977819509433,0.4195602720894742,B,1050.8835999999064,Correct
9,109,246,A,43.96792966278818,62.93851851261029,2.198396483139409,0.9886359369352083,A,663.8684999998077,Correct
9,109,247,A,51.16988240091916,78.0977356723622,2.558494120045958,1.226756363251453,A,647.0312000001286,Correct
9,109,248,A,40.555946101418435,66.7060237497852,2.027797305070922,1.0478157708125573,A,646.2480000000141,Correct
9,109,249,B,72.5726028760104,51.80680812627857,3.6286301438005193,0.8137794390772637,B,998.4765000008338,Correct
9,109,250,B,57.33843453887171,27.7389337237991,2.8669217269435854,0.43572215202550707,B,2353.6031000003277,Correct
9,109,251,B,38.64591523585982,16.316799974520666,1.932295761792991,0.2563036946502413,B,730.1872999996704,Correct
9,109,252,A,50.94911807203489,66.7612913167502,2.5474559036017443,1.0486839117243525,A,652.0773000002009,Correct
9,109,253,B,72.99502667016716,45.34715876671221,3.649751333508358,0.7123115042133653,A,2277.5165000002744,Incorrect
9,109,254,B,82.68787531811223,61.80094411246361,4.134393765905611,0.9707669600431452,B,1871.169799999734,Correct
9,109,255,A,64.94891421332805,84.4002272052154,3.247445710666403,1.3257556687460705,A,2055.7757999995374,Correct
9,109,256,A,30.860378491973854,56.709678200108016,1.5430189245986927,0.8907935421045031,A,2212.212399999771,Correct
9,109,257,A,23.125967394877232,47.365549479955085,1.1562983697438616,0.7440163113973537,A,688.672499999484,Correct
9,109,258,B,68.17854635002291,42.59192589236501,3.408927317501145,0.6690324074284741,A,820.8211000001029,Incorrect
9,109,259,B,60.90709538344478,40.88944176031201,3.0453547691722394,0.6422898492179195,B,1099.4597999997495,Correct
9,109,260,A,35.050280016600745,51.40994209453541,1.752514000830037,0.8075454820283455,B,757.4083999998038,Incorrect
9,109,261,A,61.53025838251013,70.64091419542851,3.076512919125506,1.1096248853961257,A,1297.283700000662,Correct
9,109,262,B,86.13473372860744,60.04986396782388,4.306736686430372,0.9432610574519097,A,669.4476999991821,Incorrect
9,109,263,B,80.98916787182169,67.19753490361919,4.049458393591085,1.0555364099627687,A,1774.8076999996556,Incorrect
9,109,264,A,27.64846295435123,53.97316580618403,1.3824231477175615,0.8478085059384578,A,510.2758000002723,Correct
9,109,265,B,51.16339827985449,34.1972847107891,2.5581699139927245,0.5371696921006679,A,2649.8947000000044,Incorrect
9,109,266,B,66.7272386013122,56.809481041649185,3.3363619300656095,0.8923612414734685,B,926.0621000003084,Correct
9,109,267,B,46.79645456479433,36.97362096609123,2.3398227282397164,0.5807802800184287,B,1386.5000999994663,Correct
9,109,268,A,43.48361437248062,50.521802514130044,2.174180718624031,0.7935946181225263,B,971.0923000002367,Incorrect
9,109,269,A,59.21946911195561,69.33724856303857,2.9609734555977805,1.0891469535288572,A,2025.4389000001538,Correct
9,109,270,B,63.688140703103045,36.6805186960211,3.1844070351551523,0.5761762403264148,B,1993.202999999994,Correct
9,109,271,A,42.754620026868515,69.43728063584433,2.137731001343426,1.0907182536541067,A,914.3371999998635,Correct
9,109,272,A,43.83148309417656,68.6130756748411,2.191574154708828,1.0777716724014068,A,880.1444000000629,Correct
9,109,273,A,11.373532248534108,32.58792620607795,0.5686766124267053,0.511889947823704,A,818.0613999993511,Correct
9,109,274,A,64.55009248503424,89.13710168688364,3.2275046242517123,1.4001623191089998,B,1616.7121999997107,Incorrect
9,109,275,A,56.31800035411972,65.90262865510294,2.8159000177059856,1.035196070175638,B,1761.0091000005923,Incorrect
9,109,276,B,51.28485102659849,40.64258301300258,2.5642425513299245,0.638412201082811,A,665.6002999998236,Incorrect
9,109,277,B,72.5762122925891,51.94620328713531,3.6288106146294554,0.8159690531437312,A,2098.7342999997054,Incorrect
9,109,278,A,53.79839235331613,80.60510738922893,2.6899196176658062,1.2661420660790896,A,2680.2319999997053,Correct
9,109,279,B,54.912853307466925,46.14228495184424,2.7456426653733463,0.7248013171228035,B,3150.3443000001425,Correct
9,109,280,A,60.63730372060411,80.85810076157348,3.0318651860302053,1.2701160766789126,A,802.5371000003361,Correct
9,109,281,B,56.169836490223474,41.23923421251083,2.8084918245111736,0.6477843762084645,B,806.9379999997182,Correct
9,109,282,B,75.74425092266871,62.117809927946425,3.7872125461334356,0.975744276633618,A,2106.039299999793,Incorrect
9,109,283,A,39.44722371509086,51.58818785457062,1.9723611857545427,0.8103453598796462,B,908.2461000007243,Incorrect
9,109,284,B,68.1550913878991,41.01616244623414,3.4077545693949554,0.6442803730976736,A,1015.0204000001395,Incorrect
9,109,285,A,22.71156397780198,46.17131624827368,1.1355781988900988,0.7252573396607382,A,533.1152000007933,Correct
9,109,286,A,34.40695288253473,46.33080188626705,1.7203476441267367,0.7277625342041035,A,2464.6845999996003,Correct
9,109,287,A,69.25554810477803,85.93776541977815,3.4627774052389015,1.34990726254349,A,3529.53239999988,Correct
9,109,288,A,51.058497808985194,75.5556034719958,2.5529248904492596,1.186824644025827,A,874.695100000281,Correct
9,109,289,B,71.97714809053089,58.18992146252628,3.5988574045265445,0.9140451488981979,A,3783.9702000001125,Incorrect
9,109,290,A,33.37399588166922,60.31619706809051,1.6686997940834607,0.947444608007937,A,1098.7605000000258,Correct
9,109,291,A,12.918305217994654,37.314439973139855,0.6459152608997327,0.5861338524621674,A,579.3079000004582,Correct
9,109,292,B,81.6072976410876,67.41961971935818,4.08036488205438,1.059024910090766,B,3302.6532999992924,Correct
9,109,293,A,31.906376737902036,51.83729751651136,1.595318836895102,0.8142583652991026,A,1259.0590999998312,Correct
9,109,294,B,86.59726414256863,64.58208786656051,4.329863207128431,1.014453063975385,B,3424.892500000169,Correct
9,109,295,A,34.077805400614416,48.49603727714163,1.7038902700307208,0.7617739721904245,A,926.7272999995839,Correct
9,109,296,B,55.30654269523599,48.00936250559034,2.765327134761799,0.7541293027554594,A,1349.882699999398,Incorrect
9,109,297,B,61.22490558514475,42.719328713550745,3.0612452792572373,0.6710336462638926,B,1629.4115999999121,Correct
9,109,298,B,51.6320943377612,32.96511271988286,2.58160471688806,0.5178147797277172,B,1988.5656999995263,Correct
9,109,299,A,22.832233588998815,40.70359040823999,1.1416116794499407,0.6393705030062736,A,1094.2267000000356,Correct
9,109,300,B,64.14758448898856,35.63183567243239,3.207379224449428,0.5597035659121616,B,3532.6396999998906,Correct
9,109,301,B,74.93096935274528,43.23284430312066,3.746548467637264,0.679099930282376,B,2174.5844999995825,Correct
9,109,302,A,31.53691582451743,48.53798199032939,1.5768457912258713,0.7624328382044625,A,2335.4340999994747,Correct
9,109,303,A,27.860400624494243,41.825733266468745,1.393020031224712,0.6569970818047222,A,976.8497000004572,Correct
9,109,304,B,62.00857510528864,46.51150815379043,3.100428755264432,0.7306010616166487,A,966.6889999998602,Incorrect
9,109,305,B,42.65195635821584,14.354696672358397,2.132597817910792,0.22548304805195493,B,2239.5572000004904,Correct
9,109,306,B,74.99689370564356,58.217407314320766,3.749844685282178,0.914476895648574,B,4961.445599999934,Correct
9,109,307,B,67.34264760996025,38.283567898998754,3.3671323804980124,0.6013568783235025,B,734.7150000005058,Correct
9,109,308,A,61.06317032163768,87.45525119251275,3.0531585160818837,1.3737438733212404,A,1098.9065000003393,Correct
9,109,309,B,79.14117458020495,52.03955420532058,3.9570587290102477,0.8174354059376147,B,1186.0739999992802,Correct
9,109,310,B,66.34249529434756,43.03889164273731,3.3171247647173776,0.6760533290173534,B,4368.204300000798,Correct
9,109,311,B,52.24055018907541,28.698066033069992,2.61202750945377,0.45078816710863734,B,2504.2280999996365,Correct
9,109,312,B,37.36267681265079,23.37045786595961,1.8681338406325394,0.3671022937136426,B,1121.6638999994757,Correct
9,109,313,A,35.70522562788059,58.93522914029862,1.7852612813940294,0.9257524145239662,A,1316.1581000003935,Correct
9,109,314,A,36.12718034390552,59.10088479652023,1.8063590171952761,0.9283545274870232,A,667.3396000005596,Correct
9,109,315,A,56.664659985434035,73.87020025430581,2.833232999271702,1.1603503921906702,A,2238.0997999998726,Correct
9,109,316,A,57.797780363593816,75.40472142973577,2.889889018179691,1.1844545944482139,A,789.8386000006212,Correct
9,109,317,A,49.948563540678485,64.23508333086258,2.497428177033924,1.0090023294748303,A,670.9713999998712,Correct
9,109,318,A,16.455321391463627,39.940431924318865,0.8227660695731813,0.6273828375732169,A,942.4544000003152,Correct
9,109,319,B,52.16346492352443,20.86429730097754,2.6081732461762215,0.327735615615322,B,1542.7492999997412,Correct
9,109,320,B,70.08937824611563,61.132133026478954,3.5044689123057817,0.9602613000713013,A,5769.250999999713,Incorrect
9,109,321,A,46.1265103567765,59.88202160774388,2.306325517838825,0.9406245958249672,B,1277.7263000007224,Incorrect
9,109,322,B,78.98794136665143,66.66078260971797,3.949397068332571,1.047105124646181,B,7713.841499999944,Correct
9,109,323,B,79.64370586123762,56.995903012483964,3.982185293061881,0.89528955094368,B,1178.9766000001691,Correct
9,109,324,B,35.92763223146012,18.836804051817847,1.796381611573006,0.295887826131507,B,3112.5730000003387,Correct
9,109,325,B,51.730967043913225,27.10782167427986,2.586548352195661,0.4258086671336989,B,799.2199000000255,Correct
9,109,326,A,48.51851034054867,71.4782891173033,2.4259255170274336,1.1227783399104365,A,1371.3836999995692,Correct
9,109,327,A,39.061413621554735,49.53556914731509,1.9530706810777365,0.7781029006229714,A,1790.720599999986,Correct
9,109,328,B,83.36312667058111,55.578404870982524,4.168156333529056,0.8730235422045896,B,3046.165700000529,Correct
9,109,329,B,57.93402460686665,42.05418048632893,2.8967012303433326,0.660585522342951,B,1509.6541000002617,Correct
9,109,330,B,41.07692826309004,13.214140960412355,2.0538464131545022,0.2075672408236571,B,2392.7025000002686,Correct
9,109,331,B,75.21438869079682,53.528402154114914,3.760719434539841,0.8408221748288374,A,2982.2266000001036,Incorrect
9,109,332,B,68.5449457043883,55.16013037450225,3.4272472852194147,0.8664533017779574,B,1042.4370000000636,Correct
9,109,333,B,41.51692776739701,21.208916594927413,2.0758463883698504,0.33314888282611305,B,1351.1342000001605,Correct
9,109,334,A,67.79653032499331,85.53918896429829,3.389826516249666,1.3436464382213429,B,2113.064800000757,Incorrect
9,109,335,A,65.33050367453612,87.74347198672375,3.2665251837268054,1.3782712349697657,A,1221.7995000000883,Correct
9,109,336,A,26.48863345879397,36.20895485789344,1.3244316729396985,0.5687689328786123,A,2037.2534000007363,Correct
9,109,337,B,42.7058300220966,23.94401480401907,2.1352915011048297,0.3761117050287578,B,2922.8119999997944,Correct
9,109,338,B,39.99915258305557,25.252503034841254,1.9999576291527785,0.3966653900950562,B,1035.374000000047,Correct
9,109,339,A,56.560791047455204,84.45074303642247,2.82803955237276,1.326549169567121,A,1392.0789999992849,Correct
9,109,340,A,54.151421432368195,79.42384705815968,2.7075710716184096,1.2475868721887688,A,621.6113000000405,Correct
9,109,341,B,73.49850453947673,48.687204584698044,3.674925226973836,0.7647768212355535,B,2216.1238999997295,Correct
9,109,342,B,56.66066992050698,38.27892367769415,2.833033496025349,0.6012839270658417,B,1293.3531999997285,Correct
9,109,343,B,70.44555446764811,54.09598005526272,3.5222777233824054,0.8497376676517667,A,3656.728699999803,Incorrect
9,109,344,B,40.017414610497056,12.760469349492613,2.0008707305248525,0.2004409838236186,A,905.5552999998326,Incorrect
9,109,345,B,80.71169029884807,50.92618267060159,4.0355845149424034,0.799946606766669,B,1382.854500000576,Correct
9,109,346,A,29.8246032041434,53.73598268371434,1.4912301602071698,0.8440828421629264,A,663.6715000004187,Correct
9,109,347,B,80.75622088343071,49.633304246703446,4.037811044171536,0.779638119974153,B,2475.850100000571,Correct
9,109,348,A,16.23334122007955,40.50789764488985,0.8116670610039775,0.6362965682677663,A,560.0127999996403,Correct
9,109,349,A,51.53073656448233,70.61441279400472,2.576536828224117,1.1092086023560117,A,4822.667499999625,Correct
9,109,350,A,41.19716269009731,67.1833382159814,2.0598581345048657,1.0553134089148275,A,750.6591999999728,Correct
9,109,351,A,11.977923563429883,35.60325198342703,0.5988961781714941,0.5592545743752029,A,795.6570999995165,Correct
9,109,352,A,50.513858264563,63.05094001658579,2.52569291322815,0.9904018497901831,B,6556.781000000228,Incorrect
9,109,353,B,44.86154334667569,34.6040161113442,2.2430771673337846,0.543558614000509,B,1880.7105999994747,Correct
9,109,354,A,60.710068453591774,82.96853119466171,3.0355034226795885,1.3032666404014241,A,1167.9047999996328,Correct
9,109,355,A,48.039553742249694,73.97831578664136,2.4019776871124847,1.1620486670012915,A,4759.372999999869,Correct
9,109,356,B,66.77261164176346,56.18897265544031,3.338630582088173,0.8826143185354453,B,2955.548699999781,Correct
9,109,357,B,75.23495753508661,43.14106623818275,3.76174787675433,0.6776582838095279,B,2591.1773999996512,Correct
9,109,358,A,47.851960420893434,79.2393626401554,2.3925980210446713,1.2446889977272488,A,1429.8275000001013,Correct
9,109,359,B,64.98805828267479,41.54748730926254,3.2494029141337393,0.652626404529472,B,2094.147700000576,Correct
9,109,360,A,53.879887082628244,62.36559382130872,2.6939943541314118,0.9796364569289423,B,2370.843099999547,Incorrect
9,109,361,A,20.27859305621102,41.34634925042299,1.013929652810551,0.6494669352894336,A,574.172899999212,Correct
9,109,362,A,47.79767837798988,63.45925163869015,2.389883918899494,0.9968155937520752,A,1230.4784000007203,Correct
9,109,363,A,49.32821608412897,61.67750369217439,2.4664108042064483,0.968827962455462,A,867.9730000003474,Correct
9,109,364,A,49.20677429525634,63.32580987121884,2.460338714762817,0.9947194953702254,A,555.7617999993454,Correct
9,109,365,A,53.36769642498956,71.64272256691737,2.668384821249478,1.1253612544969966,A,3773.4073000001445,Correct
9,109,366,B,46.848041709115975,31.109894350289803,2.3424020854557988,0.48867307772412527,B,2492.07639999986,Correct
9,109,367,B,80.2905568174624,59.22040378321995,4.01452784087312,0.9302319273399249,B,15746.151600000303,Correct
9,109,368,A,52.53019473352181,78.59943050457605,2.6265097366760903,1.234636967247588,B,1701.2758999999278,Incorrect
9,109,369,B,59.644543929293924,42.83939215538513,2.982227196464696,0.6729195983980507,B,606.4388999993753,Correct
9,109,370,A,30.865302265787363,40.73880947754252,1.5432651132893682,0.6399237228532092,B,974.1598000000522,Incorrect
9,109,371,B,73.39069259200681,62.55483842824796,3.669534629600341,0.9826091042634013,B,1461.059500000374,Correct
9,109,372,A,40.81529001338033,57.71009981408644,2.0407645006690163,0.9065081280693383,B,1571.6977000001862,Incorrect
9,109,373,B,60.56340310739775,50.58101888119434,3.028170155369887,0.7945247866412338,B,671.8852999993032,Correct
9,109,374,B,69.54238138430537,51.29890124253595,3.4771190692152687,0.8058012564038961,B,634.1155999998591,Correct
9,109,375,B,45.750339347835734,30.647965554508392,2.287516967391787,0.48141711716758295,B,1458.9393999995082,Correct
9,109,376,B,74.57371132921482,54.84359910693347,3.7286855664607406,0.8614812402538295,B,583.9493000003131,Correct
9,109,377,A,25.880990127995467,51.2824199999133,1.2940495063997732,0.8055423696501695,B,1157.1862999999212,Incorrect
9,109,378,B,59.292000427439326,32.6226401571514,2.9646000213719663,0.5124352332920511,B,679.4215999998414,Correct
9,109,379,A,61.47835385494899,84.45255762261391,3.0739176927474494,1.3265776730203627,A,2453.510300000744,Correct
9,109,380,A,58.53164601364645,85.30413969369127,2.9265823006823224,1.3399542929124897,A,511.9982999995045,Correct
9,109,381,B,70.89162761050139,42.113180409076776,3.544581380525069,0.6615122909622859,B,789.5598999994036,Correct
9,109,382,A,47.1120815699231,78.37328936687075,2.355604078496155,1.231084750563141,B,1272.885899999892,Incorrect
9,109,383,B,65.18009707112127,49.03350476279447,3.2590048535560636,0.7702164917127762,B,1440.0827999998,Correct
9,109,384,B,55.079812071241435,35.213536085603856,2.753990603562072,0.5531329313672607,B,2934.7215000007054,Correct
9,109,385,B,49.06301596413999,19.40405200428764,2.4531507982069995,0.3047981361327218,B,738.0467000002682,Correct
9,109,386,A,54.21466582286881,66.43706940908294,2.7107332911434407,1.0435910459080509,A,2642.362100000355,Correct
9,109,387,B,41.91851266037432,13.526070035138122,2.095925633018716,0.2124670112716548,B,707.7782999995179,Correct
9,109,388,A,39.85803599507955,50.29356187731411,1.9929017997539773,0.7900094225831684,A,845.7344999997076,Correct
9,109,389,A,47.663962630151836,61.053712877715625,2.383198131507592,0.9590294792550598,A,597.9924000002939,Correct
9,109,390,B,40.86067735095583,21.122216771246244,2.0430338675477917,0.33178700518039156,B,3192.508799999814,Correct
9,109,391,B,66.9862039460613,50.72975073097548,3.349310197303065,0.79686106107437,A,9261.23060000009,Incorrect
9,109,392,A,53.896699132423585,62.78971753076819,2.6948349566211793,0.986298576578198,B,1074.2747999993298,Incorrect
9,109,393,A,43.396903900589194,75.88826977722657,2.1698451950294597,1.1920501541288766,A,632.9022999998415,Correct
9,109,394,B,62.49963748067293,38.97997903800135,3.124981874033647,0.6122960789143459,B,806.4350999993621,Correct
9,109,395,A,18.322986028388,37.2600715538847,0.9161493014194001,0.585279835329571,A,720.8958999999595,Correct
9,109,396,A,41.89970018809287,52.79766818431804,2.0949850094046436,0.8293438324726257,A,2129.240199999913,Correct
9,109,397,A,64.94042368660591,84.79464357035624,3.2470211843302956,1.3319511465219807,A,2012.811800000236,Correct
9,109,398,B,32.976480384500604,11.374374849538107,1.6488240192250303,0.1786682623324271,B,634.9156999995103,Correct
9,109,399,B,42.77847042581751,24.650802820946637,2.1389235212908755,0.38721390523688254,B,494.79599999995116,Correct
9,109,400,B,82.25662899975032,66.01283945013103,4.112831449987516,1.0369272572956707,A,8038.264099999651,Incorrect
9,109,401,B,61.40366664826814,29.994233045861087,3.070183332413407,0.471148310934687,B,3086.534400000346,Correct
9,109,402,B,80.59136315707012,51.48447457564846,4.0295681578535065,0.8087162355039386,B,531.8612999999459,Correct
9,109,403,B,72.86160034685693,45.613125295334456,3.643080017342846,0.7164892966754675,B,2809.123300000465,Correct
9,109,404,B,67.06726357996419,41.23768502712692,3.35336317899821,0.6477600416613587,B,551.2269999999262,Correct
9,109,405,B,81.27657096085551,57.269510951094425,4.063828548042776,0.8995873743931923,B,769.1690000001472,Correct
9,109,406,B,80.07610533239993,58.68195224683991,4.003805266619997,0.9217739503848967,B,707.0991000000504,Correct
9,109,407,B,45.92086201359257,33.085142669746176,2.2960431006796282,0.5197002057712239,B,1943.3036000000357,Correct
9,109,408,B,73.24749231195702,52.3352424457967,3.6623746155978507,0.8220800659577783,B,645.110399999794,Correct
9,109,409,B,55.00227729189912,26.81432266758935,2.7501138645949563,0.42119839551742483,B,4538.3734999995795,Correct
9,109,410,A,42.33456939389165,60.96935087243768,2.1167284696945825,0.9577043239749433,A,2941.4669999996477,Correct
9,109,411,B,86.16250546809609,67.33665042451761,4.308125273404804,1.0577216314550428,B,6176.76290000054,Correct
9,109,412,A,58.081861003605454,69.88046554013452,2.904093050180273,1.0976797858516067,B,1746.7222000004767,Incorrect
9,109,413,B,49.71945932222333,30.558436860065164,2.4859729661111665,0.48001080372384125,B,2499.8505000003206,Correct
9,109,414,A,55.54680954483297,74.597738669188,2.7773404772416486,1.1717785388876614,A,528.5713000002943,Correct
9,109,415,A,30.78267676882023,60.90135394176252,1.5391338384410116,0.9566362306855646,A,565.2749000000767,Correct
9,109,416,A,14.886504431247822,31.98608281476516,0.7443252215623911,0.5024362139399048,A,559.7758999992948,Correct
9,109,417,A,39.78549672595237,50.26158553246209,1.9892748362976187,0.7895071393327896,A,771.6986999994333,Correct
9,109,418,A,28.285478969766455,59.94592245778739,1.4142739484883229,0.9416283480302413,A,636.5313000005699,Correct
9,109,419,B,48.8330186384586,38.22756183393178,2.44165093192293,0.6004771371106481,A,2770.3219000004538,Incorrect
9,109,420,A,12.979978048051684,38.41974505075408,0.6489989024025843,0.6034959440212092,A,546.9248999997944,Correct
9,109,421,A,41.6662752207012,59.29494543499119,2.0833137610350603,0.9314028248678798,B,1212.6167000005807,Incorrect
9,109,422,B,43.603585217593746,24.738159923207093,2.1801792608796875,0.3885861073903842,A,1080.9984999996232,Incorrect
9,109,423,B,59.4432484323864,51.04841909326544,2.97216242161932,0.8018666920038783,B,2333.193100000244,Correct
9,109,424,A,64.02646753798106,86.52506067317177,3.2013233768990528,1.3591324748112377,A,795.0211000006675,Correct
9,109,425,B,57.09618905045331,47.62780705565844,2.8548094525226655,0.7481358437632433,B,825.9245999997802,Correct
9,109,426,A,32.849600321579814,42.99793539530006,1.6424800160789907,0.6754099897870159,B,5104.811000000154,Incorrect
9,109,427,A,62.416881426447816,78.82097252395624,3.120844071322391,1.2381169411503194,B,609.6786000007341,Incorrect
9,109,428,B,87.50858662175153,63.44235444203261,4.3754293310875765,0.9965501732076473,B,1121.1622999999236,Correct
9,109,429,B,40.392231592952186,28.39465037377692,2.0196115796476093,0.4460221250775412,A,851.9531000001734,Incorrect
9,109,430,B,71.72045385935478,40.20576669147401,3.586022692967739,0.6315507063493998,A,604.5241000001624,Incorrect
9,109,431,A,56.98243066364134,75.78079744360019,2.849121533182067,1.1903619826599525,A,610.5773999997837,Correct
9,109,432,A,52.76419289946512,69.8082931263405,2.6382096449732564,1.0965461042267708,A,594.6395000000848,Correct
9,109,433,A,41.332879818170724,58.313805368476,2.0666439909085366,0.915991112742346,A,585.2719999993496,Correct
9,109,434,B,49.503732256728306,19.23221163551163,2.4751866128364153,0.3020988739320373,B,649.8278999997638,Correct
9,109,435,B,41.89021383511281,24.695673313924907,2.0945106917556404,0.3879187292924,B,1933.9613000001918,Correct
9,109,436,A,66.43575191352754,77.90694786519154,3.321787595676377,1.2237594753844439,A,580.0748999999996,Correct
9,109,437,B,66.92183362998871,56.21063800073844,3.346091681499436,0.8829546369835758,A,561.080800000127,Incorrect
9,109,438,B,70.72591901562059,56.291929768933784,3.53629595078103,0.8842315650923749,B,729.6485000006214,Correct
9,109,439,A,54.045661962240985,78.95809551188026,2.702283098112049,1.2402708640078213,B,1039.4672000002174,Incorrect
9,109,440,A,14.030614127487954,42.573725839164055,0.7015307063743976,0.6687465216613186,A,471.7556000005061,Correct
9,109,441,A,68.47726435325207,89.68619586940734,3.4238632176626034,1.4087874703587269,A,5989.830299999994,Correct
9,109,442,B,49.782649497065265,34.63430314012628,2.4891324748532635,0.5440343615361131,B,775.5145000000994,Correct
9,109,443,A,58.53688349056109,75.88615890516893,2.9268441745280547,1.1920169966281318,A,1441.9895999999426,Correct
9,109,444,A,43.470538981622326,64.4975810747732,2.173526949081116,1.0131256343940978,A,1214.993599999616,Correct
9,109,445,A,52.0731369592185,73.87520319732319,2.6036568479609254,1.1604289782358186,A,516.5673999999854,Correct
9,109,446,A,67.44897978946273,88.51475215381683,3.372448989473136,1.3903864755037614,A,1335.0711000002775,Correct
9,109,447,B,57.1390734883385,38.454673898041214,2.856953674416925,0.6040446050713872,B,680.7262000002083,Correct
9,109,448,A,46.96037420475246,68.22626732705582,2.348018710237623,1.0716957010826595,A,3513.2588000005853,Correct
9,109,449,B,47.91768963721002,20.7365406115237,2.3958844818605005,0.3257288182301463,B,1423.9607999998043,Correct
9,109,450,A,69.28210594785801,85.22036927849422,3.4641052973929005,1.3386384303076335,A,767.9642000002787,Correct
9,109,451,B,46.58612330187096,28.355196062903858,2.329306165093548,0.44540237821158496,B,511.45610000003217,Correct
9,109,452,A,51.393269969029696,58.943274662063075,2.569663498451485,0.9258787932843138,A,1803.2790999995996,Correct
9,109,453,A,25.768357088128113,44.09279931329936,1.2884178544064055,0.6926080719943517,A,827.3702999995294,Correct
9,109,454,A,28.56335221888709,57.07848022287686,1.4281676109443544,0.8965866707313014,A,677.8532000007544,Correct
9,109,455,B,65.96766422815341,40.27297974922745,3.2983832114076703,0.6326064865917174,A,2229.8026000007667,Incorrect
9,109,456,B,50.670786710757326,43.24259662090289,2.5335393355378666,0.6792531193318766,B,965.8927999998923,Correct
9,109,457,B,70.38215467823095,41.7828718788269,3.5191077339115475,0.6563238167020308,B,823.5439000000042,Correct
9,109,458,A,23.39986823558222,54.5468425147052,1.1699934117791109,0.8568197986035864,B,790.4225000002043,Incorrect
9,109,459,A,36.57183124387734,65.691256059299,1.828591562193867,1.0318758372048984,A,623.6111999996865,Correct
9,109,460,B,78.71590595204466,66.85150433107691,3.935795297602233,1.0501009744396874,B,6287.352199999987,Correct
9,109,461,B,48.929602264383085,30.326320904733706,2.4464801132191543,0.4763647348235899,B,1622.8017000003092,Correct
9,109,462,B,65.73046503069115,38.909060824611,3.2865232515345575,0.6111820982233815,B,712.2087999996438,Correct
9,109,463,A,43.83449013307986,75.42057139733345,2.191724506653993,1.1847035651570363,A,1472.813600000336,Correct
9,109,464,A,56.733570716567186,70.6557487260405,2.8366785358283595,1.1098579056580762,A,637.5428999999713,Correct
9,109,465,B,58.88038578582046,40.12532586724154,2.9440192892910226,0.6302871448371126,B,1916.7086999996172,Correct
9,109,466,A,39.69002157422722,48.74489675346901,1.9845010787113608,0.7656830477034559,B,1056.5856000002896,Incorrect
9,109,467,B,71.8702995580861,40.59535514138507,3.5935149779043054,0.6376703474102199,B,671.7770999994173,Correct
9,109,468,B,83.3156478992822,59.64173123360129,4.16578239496411,0.9368501234542937,B,1287.5337999994372,Correct
9,109,469,B,43.119000419871576,34.40407788378876,2.1559500209935787,0.5404179916662092,A,762.8375999993295,Incorrect
9,109,470,B,61.64979342536378,38.66392975703433,3.0824896712681893,0.6073315884180542,B,1142.1658999997817,Correct
9,109,471,A,64.67240833931785,75.5809100534072,3.2336204169658926,1.187222158877075,A,768.687100000534,Correct
9,109,472,A,20.764571729205553,34.04273731396428,1.0382285864602776,0.5347420672681865,A,527.9020999996646,Correct
9,109,473,A,51.67164901875676,69.79395085645072,2.583582450937838,1.0963208163781633,A,1241.0165000001143,Correct
9,109,474,B,76.56118944105873,51.407327255234584,3.8280594720529364,0.8075044082286565,B,1494.2691999995077,Correct
9,109,475,A,45.108697035384765,76.04840726750626,2.255434851769238,1.1945655879440116,B,1767.3640000002706,Incorrect
9,109,476,A,59.6019925393573,79.49348253683345,2.980099626967865,1.2486807037299223,A,2151.669999999285,Correct
9,109,477,B,60.431335535215645,41.067159824451736,3.0215667767607823,0.6450814380414773,B,754.1643000004115,Correct
9,109,478,B,40.2039750412376,26.55808086134833,2.01019875206188,0.41717335863727795,B,1312.2942999998486,Correct
9,109,479,B,79.34426461917089,55.542184326757265,3.967213230958544,0.8724545912263538,B,1461.836499999663,Correct
9,109,480,A,26.561292079697935,45.0213334194538,1.3280646039848967,0.7071934516268635,B,1010.8286000004227,Incorrect
9,109,481,B,72.80058645333588,62.249939107301415,3.640029322666794,0.9778197569295505,B,968.0340000004435,Correct
9,109,482,B,46.813206550871016,30.558298348266568,2.340660327543551,0.4800086279855968,B,780.7738999999856,Correct
9,109,483,A,32.27443121697088,61.95949042504739,1.613721560848544,0.97325739969748,A,712.9279000000679,Correct
9,109,484,B,75.26655416024117,47.67121077577212,3.7633277080120586,0.7488176278044812,B,892.827199999374,Correct
9,109,485,A,48.57514205628707,60.416793150176055,2.4287571028143535,0.949024767570236,B,818.9228999999614,Incorrect
9,109,486,A,34.97178188024522,45.00862061924957,1.7485890940122608,0.7069937594282227,A,964.2785999994885,Correct
9,109,487,A,39.140633924889734,53.48588435342002,1.9570316962444867,0.8401543067772881,A,570.6958999999188,Correct
9,109,488,B,53.9806066636113,31.47276586860984,2.699030333180565,0.4943730502048813,B,551.3553999999203,Correct
9,109,489,B,33.54370293268072,15.470502127934886,1.6771851466340362,0.24301007916232747,B,1084.6522000001642,Correct
9,109,490,A,30.2766619021624,41.53587552643358,1.5138330951081198,0.652444007071319,B,7067.511899999772,Incorrect
9,109,491,B,63.28366464149861,42.20707701640283,3.164183232074931,0.6629872154211487,B,646.3687000004938,Correct
9,109,492,A,32.044414062650674,43.17403247114452,1.6022207031325337,0.6781761161859741,B,1164.9724999997488,Incorrect
9,109,493,A,16.88495898277782,31.897128537405873,0.844247949138891,0.5010389234186182,A,1496.288800000002,Correct
9,109,494,B,85.10465208064929,62.10081077204097,4.255232604032464,0.9754772545170689,B,648.3621000006679,Correct
9,109,495,B,67.1164590982943,56.83532091863758,3.3558229549147147,0.8927671333120505,B,1213.0591999994067,Correct
9,109,496,B,59.64663529150174,29.251713504721685,2.982331764575087,0.459484841256735,B,1645.6086999996842,Correct
9,109,497,B,72.52043102874998,59.65835355254577,3.626021551437499,0.9371112262297017,B,2560.940400000618,Correct
9,109,498,B,56.85776791068702,48.93152053547165,2.8428883955343514,0.768614527216079,A,1663.5958999995637,Incorrect
9,109,499,A,60.28150009105801,73.53998050377139,3.0140750045529,1.1551633124789242,A,646.8213000007381,Correct
9,109,500,A,22.589055358358006,34.290674063055235,1.1294527679179003,0.538636648615682,A,2311.0707000005277,Correct
9,109,501,B,55.85536118406724,31.010587536365065,2.792768059203362,0.48711316993873843,A,1086.012199999459,Incorrect
9,109,502,A,43.27394025840742,55.070620239650005,2.1636970129203714,0.8650472798675892,A,554.1495999996187,Correct
9,109,503,A,16.223165988892745,43.46301623858811,0.8111582994446372,0.6827154625900114,A,484.11699999996927,Correct
9,109,504,A,54.90836603418423,81.63681263814553,2.7454183017092118,1.2823480542324217,A,1613.4912999996232,Correct
9,109,505,A,19.48196674855857,32.55537555133716,0.9740983374279284,0.5113786433346879,A,1135.442800000419,Correct
9,109,506,A,48.223762339902464,61.02992240876365,2.411188116995123,0.9586557794426349,A,1393.6647000000448,Correct
9,109,507,A,12.69698294725093,31.06968307692793,0.6348491473625465,0.48804144051919945,A,523.104400000193,Correct
9,109,508,B,84.93384425912619,69.65124001241024,4.24669221295631,1.0940791196820374,A,1096.3865000003352,Incorrect
9,109,509,A,32.2481167450058,53.61366921523124,1.61240583725029,0.8421615466928186,A,722.3038000001907,Correct
9,109,510,A,61.897779261159855,71.88246196699615,3.0948889630579925,1.1291270721873141,A,4977.470999999241,Correct
9,109,511,A,13.940222866027511,35.608359908694865,0.6970111433013756,0.5593348094776855,A,683.7465999997221,Correct
9,109,512,A,14.673991154764039,39.42323004124697,0.733699557738202,0.6192586493918095,A,546.1220000006506,Correct
9,109,513,B,84.61756076493887,60.93346392971766,4.230878038246943,0.9571406131968981,B,1064.2111999995905,Correct
9,109,514,A,30.12644183618336,42.97941747088964,1.506322091809168,0.6751191109105784,B,1612.0691000005536,Incorrect
9,109,515,A,55.49913277578102,63.111268256489076,2.7749566387890514,0.991349483566604,B,707.298900000751,Incorrect
9,109,516,A,24.193565031048447,35.74065590662809,1.2096782515524225,0.5614129101537173,A,1646.3289000002987,Correct
9,109,517,A,59.55002314951011,84.13747597712486,2.9775011574755057,1.321628382106616,B,1011.0389000001305,Incorrect
9,109,518,B,59.95293837654527,53.013063560840685,2.9976469188272636,0.8327272551351294,B,565.2925999993386,Correct
9,109,519,A,46.9849759109302,66.32918786695375,2.34924879554651,1.0418964466069955,B,509.57350000044244,Incorrect
9,109,520,B,72.37556065535266,39.29245584889684,3.618778032767633,0.617204453181978,B,1657.448299999487,Correct
9,109,521,B,42.537357835272445,23.49853073745884,2.1268678917636223,0.3691140576747732,A,887.8228000003219,Incorrect
9,109,522,B,80.89741919728934,60.34762548580906,4.0448709598644665,0.9479382844390296,B,3355.953199999931,Correct
9,109,523,B,66.24532850720327,53.10564410821844,3.3122664253601637,0.8341815069726656,B,540.2735999996366,Correct
9,109,524,A,24.58541498978358,46.990776751286404,1.2292707494891788,0.7381293951415971,B,980.8526000006168,Incorrect
9,109,525,A,64.58052918041953,75.69212548418247,3.229026459020977,1.1889691267785218,B,1546.9175999996878,Incorrect
9,109,526,A,52.9913138469734,75.07233816230669,2.64956569234867,1.179233530292557,A,978.9400999998179,Correct
9,109,527,B,77.4596388431196,48.23028439897199,3.87298194215598,0.757599535741784,B,705.5565999999089,Correct
9,109,528,B,54.48010468483918,31.454141143726382,2.724005234241959,0.4940804937105363,B,917.4396999997043,Correct
9,109,529,A,21.071391659856484,45.514307745284995,1.0535695829928242,0.7149370742290618,B,530.9922999995251,Incorrect
9,109,530,B,84.50018789836797,54.913644490961396,4.225009394918398,0.8625815105732298,B,571.3019000004351,Correct
9,109,531,A,52.95579289019483,80.00235949394255,2.6477896445097415,1.2566741242800978,A,2113.661100000172,Correct
9,109,532,A,59.11546314345391,75.16077506878038,2.955773157172695,1.1806226939709765,A,697.1608000003471,Correct
9,109,533,B,66.4116053302762,55.11420853155268,3.3205802665138098,0.8657319631557089,B,1371.0948999996617,Correct
9,109,534,B,71.36841200230955,46.199260115801465,3.568420600115478,0.7256962809054291,B,709.0084999999817,Correct
9,109,535,A,64.1167805786808,75.86764885087658,3.20583902893404,1.1917262413752199,B,701.3302999994266,Incorrect
9,109,536,B,85.55951157904707,69.23786343741332,4.277975578952353,1.0875858156261553,B,1683.1370999998398,Correct
9,109,537,A,29.15245294669191,55.134659604842525,1.4576226473345955,0.866053207863736,B,1152.6497000004383,Incorrect
9,109,538,B,77.8219630570365,50.6999321210887,3.891098152851825,0.7963926714455671,B,694.4844999998168,Correct
9,109,539,B,48.30971971560979,40.7710361479891,2.4154859857804896,0.6404299382088323,A,2506.672299999991,Incorrect
9,109,540,A,50.69584777290556,59.67415589649427,2.5347923886452777,0.9373594488679922,B,2700.593200000185,Incorrect
9,109,541,A,18.858088344680088,44.97904726786681,0.9429044172340043,0.7065292223109922,A,791.6574999999284,Correct
9,109,542,A,43.64853563242394,73.46042109243736,2.182426781621197,1.1539135961680693,A,809.0674000004583,Correct
9,109,543,B,64.13987841785242,43.669686821281005,3.2069939208926206,0.685961836511517,B,1683.8608000007298,Correct
9,109,544,B,69.0295290148488,54.52686016172179,3.45147645074244,0.8565059165369158,B,458.2210999997187,Correct
9,109,545,A,40.46556894456509,70.74317486633613,2.023278447228255,1.1112311922584985,A,1326.12490000065,Correct
9,109,546,B,47.23377708460666,27.437398940089775,2.3616888542303327,0.43098565471899203,B,689.9741000006543,Correct
9,109,547,B,49.14660552735063,28.03836570142079,2.4573302763675313,0.44042561853123785,B,526.9397000001845,Correct
9,109,548,A,26.031212185525664,49.872791053130754,1.3015606092762833,0.7833999699326717,A,1004.7801000000618,Correct
9,109,549,A,12.19845391994161,33.9684453531746,0.6099226959970805,0.5335750918769984,A,496.3839000001826,Correct
