subject,day,trial,cat,x,y,xt,yt,resp,rt,fb
6,206,0,A,59.466025292108355,82.50332382333053,2.973301264605418,1.2959591801005748,B,691.9858999999633,Incorrect
6,206,1,A,55.208047317484585,66.89705325409122,2.760402365874229,1.0508164552492905,B,701.6399000001456,Incorrect
6,206,2,A,47.09381171052,78.23361873916187,2.3546905855260003,1.2288908094734785,A,777.270400000134,Correct
6,206,3,B,77.55912788626512,57.24357543111514,3.877956394313256,0.8991799801980225,B,528.1875999999102,Correct
6,206,4,B,33.27895606692004,10.433178951001572,1.663947803346002,0.16388399173027102,A,588.8930000000983,Incorrect
6,206,5,B,59.56573431227597,35.02751455316895,2.9782867156137987,0.5502109119687257,B,944.4853999998486,Correct
6,206,6,A,40.9943339987233,67.47209845276316,2.049716699936165,1.05984924410744,A,622.0043999999234,Correct
6,206,7,A,48.573322789029504,57.30760394048359,2.428666139451475,0.9001857376712836,B,614.3220999999812,Incorrect
6,206,8,A,31.354424089725818,55.25496554494775,1.567721204486291,0.867942969151825,A,598.3436000001348,Correct
6,206,9,B,78.11513805884937,65.60185804542088,3.9057569029424686,1.0304715764866736,B,818.7680999999429,Correct
6,206,10,B,56.11517460039866,24.82748976639168,2.805758730019933,0.38998929728585935,B,939.0872000001309,Correct
6,206,11,B,84.2538507884121,55.38679418098502,4.212692539420605,0.8700137285243621,B,543.766499999947,Correct
6,206,12,B,53.18545318979933,25.399798579414053,2.6592726594899663,0.3989791030987383,B,544.9272999999266,Correct
6,206,13,B,77.65972428960858,47.973594849928375,3.882986214480429,0.7535674657341406,B,464.32929999991757,Correct
6,206,14,B,39.78233362796776,16.745501085326186,1.989116681398388,0.2630377159517033,A,575.0026000000616,Incorrect
6,206,15,B,44.066896961090926,18.71644349621039,2.203344848054546,0.29399720694511505,B,1270.1862999999776,Correct
6,206,16,A,58.0864695118445,79.88889196490028,2.904323475592225,1.2548917805017967,A,1145.5025000000205,Correct
6,206,17,A,46.39127832105126,78.21644151706747,2.319563916052563,1.2286209902997742,A,1699.2256999999427,Correct
6,206,18,B,64.68237849148242,48.495116572727525,3.2341189245741213,0.761759509799307,B,696.4897000000292,Correct
6,206,19,A,34.244989093268266,45.352253186285736,1.7122494546634133,0.7123915271688976,A,614.8425999999745,Correct
6,206,20,A,59.87835946670322,69.32923384228499,2.9939179733351615,1.089021058589657,A,905.3129999999783,Correct
6,206,21,A,64.27211615382112,74.69730235147823,3.2136058076910556,1.1733424815518978,A,515.2837000000545,Correct
6,206,22,A,68.94975636361151,87.29174924851674,3.447487818180576,1.3711755907907126,A,970.767799999976,Correct
6,206,23,B,72.63627524166316,49.733478507097985,3.6318137620831576,0.7812116535768244,B,618.2552000000214,Correct
6,206,24,B,59.09062437996394,43.040033207110156,2.954531218998197,0.6760712606685901,B,619.6236000000681,Correct
6,206,25,A,42.3870952258825,53.50193902643339,2.1193547612941246,0.8404064929912609,A,651.0657000001174,Correct
6,206,26,B,81.74890498978678,52.841663642215366,4.087445249489338,0.8300349115092333,B,933.2840999998098,Correct
6,206,27,A,52.780207495617354,76.22316577849804,2.639010374780868,1.197310688215432,A,695.5302999999731,Correct
6,206,28,A,58.712084859024074,71.26574874600064,2.9356042429512037,1.1194397635650581,A,1455.2945000000364,Correct
6,206,29,B,72.19101073870354,60.964082044336465,3.609550536935177,0.9576215614166644,B,570.3725999999278,Correct
6,206,30,A,29.39961441305264,40.857445440574125,1.4699807206526319,0.6417872522027672,A,644.0185000001293,Correct
6,206,31,A,38.597606485110376,51.71514496432093,1.9298803242555187,0.8123395974962091,A,1193.7001999999666,Correct
6,206,32,B,55.25562377126862,41.424206884655824,2.762781188563431,0.6506899201480922,B,987.5320000001011,Correct
6,206,33,A,39.17818487414869,58.44878093885809,1.9589092437074345,0.9181113040439786,A,1210.113599999886,Correct
6,206,34,B,49.80741834133336,37.46500049589886,2.490370917066668,0.5884988516232692,B,770.7300000001851,Correct
6,206,35,B,53.30371889622195,40.79981869642871,2.6651859448110975,0.6408820534224796,B,597.4794000001111,Correct
6,206,36,A,31.587515817736985,56.96907540629826,1.579375790886849,0.8948681438911479,A,697.1183000000565,Correct
6,206,37,A,57.135038618559626,71.0225294019702,2.856751930927981,1.1156192830429734,A,878.1114999999318,Correct
6,206,38,B,64.03779833255396,45.22524153432909,3.201889916627698,0.7103964328053612,B,886.1385999998674,Correct
6,206,39,B,75.69043616515913,62.60986128980035,3.784521808257956,0.9834734013515637,B,559.7959000001538,Correct
6,206,40,A,58.90124698457434,85.19862029842918,2.945062349228717,1.3382967981276568,A,619.9501999999484,Correct
6,206,41,A,51.84055258510533,62.0036915461285,2.5920276292552664,0.9739517092838242,B,883.1403000001501,Incorrect
6,206,42,A,45.034788836479564,53.910501404089345,2.251739441823978,0.8468241758121465,B,1289.4885999999133,Incorrect
6,206,43,A,40.98115676781384,49.08096998644568,2.0490578383906923,0.7709620737023944,A,625.7916000001842,Correct
6,206,44,A,13.402324825702316,38.19331860753161,0.6701162412851158,0.5999392457681783,A,567.9010000001199,Correct
6,206,45,A,25.804737330000933,51.659741622300274,1.2902368665000465,0.811469323834827,A,1322.6376000000073,Correct
6,206,46,A,43.71421605315437,75.23817273054267,2.1857108026577183,1.181838453598964,A,817.8189999998722,Correct
6,206,47,A,19.843398328823763,34.1887883637298,0.9921699164411882,0.5370362317931486,A,572.8999999998905,Correct
6,206,48,A,44.8787302194914,52.491212784722364,2.24393651097457,0.824530042312512,B,744.7783999998592,Incorrect
6,206,49,A,37.68072677065696,57.83655753972782,1.8840363385328482,0.9084945213786614,A,1031.431300000122,Correct
6,206,50,A,55.6249413290751,73.14464845457478,2.781247066453755,1.1489534511715007,A,1307.0046999998794,Correct
6,206,51,A,42.069543635864335,53.13762767246596,2.1034771817932167,0.8346839036250437,B,677.8094999999666,Incorrect
6,206,52,A,15.084710714603364,35.29889968327406,0.7542355357301682,0.5544738196238843,A,512.3178999999709,Correct
6,206,53,B,73.71247809248156,41.002187995899284,3.685623904624078,0.6440608629451239,B,913.7057000000368,Correct
6,206,54,B,54.76011343708448,38.2879456586209,2.7380056718542236,0.6014256440108431,B,806.4450999997916,Correct
6,206,55,A,27.527461205881746,41.10204817378073,1.3763730602940873,0.6456294629512166,A,693.0393000000095,Correct
6,206,56,B,67.52726289601226,38.968206457879425,3.376363144800613,0.6121111556582217,B,697.2074000000248,Correct
6,206,57,B,72.72873434769872,55.15069111235813,3.636436717384936,0.8663050301949211,B,685.6526999999915,Correct
6,206,58,B,52.89748679212788,21.771687611431673,2.6448743396063943,0.3419888692816283,B,640.1298000000679,Correct
6,206,59,A,25.376767514567526,57.51393729279004,1.268838375728376,0.9034268143902662,A,623.3488999998826,Correct
6,206,60,B,77.16589471766814,54.26239777758335,3.858294735883407,0.8523517511211148,B,686.8090999998913,Correct
6,206,61,A,23.89200810119465,48.068706269152706,1.1946004050597325,0.7550614724136789,A,646.0208000000875,Correct
6,206,62,A,20.53988798272603,34.34720724627545,1.0269943991363015,0.5395246697811253,A,472.2145000000637,Correct
6,206,63,B,83.76893972231761,54.722193408240116,4.18844698611588,0.8595742039982347,B,643.5336000001826,Correct
6,206,64,B,66.37776170152266,46.23345660675451,3.318888085076133,0.7262334381292124,B,1038.3512000000792,Correct
6,206,65,A,41.311922385601015,68.67860384980321,2.0655961192800505,1.0788009865667272,A,627.0160999999916,Correct
6,206,66,A,33.730973210310175,43.66909109573121,1.6865486605155087,0.685952478876463,B,924.1546000000653,Incorrect
6,206,67,A,20.34319084059755,38.67922454163884,1.0171595420298774,0.6075718383328131,A,581.2745000000632,Correct
6,206,68,A,27.205643569681627,50.236428162152826,1.3602821784840813,0.7891119682840536,A,533.3110999999917,Correct
6,206,69,B,79.37182450404823,55.220685961126904,3.9685912252024114,0.8674045067083266,B,663.5055000001557,Correct
6,206,70,B,67.45164729542643,35.055668195332515,3.372582364771321,0.5506531483456899,B,1124.481299999843,Correct
6,206,71,B,86.56864790728439,67.57261859831095,4.32843239536422,1.0614282108613935,B,775.2854000000298,Correct
6,206,72,A,69.96889001438016,86.82587077282983,3.4984445007190086,1.3638575888072948,A,1109.069800000043,Correct
6,206,73,B,64.4483854666657,46.68658907427358,3.222419273333285,0.733351226284517,B,867.2042999999121,Correct
6,206,74,B,49.16335283748798,25.28654620387027,2.458167641874399,0.39720013894368855,B,1376.1793999999554,Correct
6,206,75,A,62.28423976604812,80.3023095975518,3.114211988302406,1.2613857294898094,A,610.9532999998919,Correct
6,206,76,A,29.76856592643135,58.97591319587143,1.4884282963215674,0.9263914781744949,A,632.5260000000981,Correct
6,206,77,A,63.14953948110245,81.04828740987502,3.1574769740551227,1.2731035215644875,A,1552.25449999989,Correct
6,206,78,A,44.53198834510762,69.6639157684,2.2265994172553807,1.094278229991518,A,925.214300000107,Correct
6,206,79,B,71.24850421800706,41.897077040829785,3.5624252109003525,0.6581177471917822,B,779.612699999916,Correct
6,206,80,B,44.02929048101048,19.912154766004587,2.201464524050524,0.312779395650115,B,966.9467999999597,Correct
6,206,81,B,36.84661481829504,12.848831026457436,1.842330740914752,0.2018289657996764,B,875.3552000000582,Correct
6,206,82,B,79.7187038556579,56.09765057738406,3.9859351927828954,0.8811798346877849,B,1111.2309999998615,Correct
6,206,83,A,23.580773895075716,51.50342593090976,1.1790386947537856,0.8090139226962609,A,543.2415000000219,Correct
6,206,84,A,43.92186849792257,74.53546244361657,2.1960934248961284,1.1708003062239185,A,773.0701000000408,Correct
6,206,85,A,66.6584647040925,85.58943713329818,3.3329232352046243,1.344435734614275,A,809.25040000011,Correct
6,206,86,B,77.50735446053177,65.43413544256612,3.8753677230265886,1.027836996001826,B,847.8929000000335,Correct
6,206,87,B,76.2037489299878,56.4463776447881,3.81018744649939,0.886657626653107,B,951.575400000138,Correct
6,206,88,A,57.23580113517832,73.72505304597297,2.8617900567589163,1.1580704251737324,A,688.1904000001668,Correct
6,206,89,B,56.63074697669244,32.9830785049648,2.831537348834622,0.5180969856198642,B,703.3828000000995,Correct
6,206,90,B,59.120838435403144,46.164779071160545,2.956041921770157,0.7251546539227689,B,1175.3951000000598,Correct
6,206,91,B,74.28492478726118,58.99577565348321,3.7142462393630584,0.9267034769290722,B,683.5330999999769,Correct
6,206,92,B,43.34412921651679,24.308344334202275,2.1672064608258395,0.38183457990630465,B,757.4551000000156,Correct
6,206,93,B,50.59469715763257,35.09888721695896,2.5297348578816283,0.5513320311498748,B,427.5729000000865,Correct
6,206,94,B,57.01662893803008,36.98880357062811,2.8508314469015037,0.5810187678128058,B,733.5064999997485,Correct
6,206,95,A,49.78155396832467,67.20596255298514,2.4890776984162333,1.0556687911694442,A,617.4286000000393,Correct
6,206,96,B,86.63476802232312,63.17052968063071,4.331738401116156,0.992280359840227,B,715.8972000001995,Correct
6,206,97,A,19.449913844261008,48.09189436334703,0.9724956922130503,0.755425710145537,A,593.1909999999334,Correct
6,206,98,B,59.00489071181491,44.90072368496075,2.9502445355907456,0.7052989183476897,B,831.5772000000834,Correct
6,206,99,A,17.144937694921932,36.311343791864616,0.8572468847460967,0.570377254492476,A,572.8174999999283,Correct
6,206,100,B,83.55976573658415,54.943526260910055,4.1779882868292075,0.8630508923179646,B,706.8793000003097,Correct
6,206,101,A,40.181158418430925,71.59805712367124,2.0090579209215464,1.1246596513551397,A,762.655999999879,Correct
6,206,102,B,61.88014364799952,32.27342995091872,3.0940071823999755,0.5069498521997552,B,860.5743999996776,Correct
6,206,103,B,58.6477382159069,38.5537079988404,2.9323869107953446,0.6056002290890152,B,757.438799999818,Correct
6,206,104,B,40.50289148211295,14.73254031604823,2.0251445741056475,0.23141820212806283,B,875.1927999996951,Correct
6,206,105,A,41.43971983371342,73.36658023084732,2.0719859916856707,1.1524395473611801,A,583.1318000000465,Correct
6,206,106,A,51.16416916736572,72.83229535360705,2.558208458368286,1.1440470201348698,A,786.9834000002811,Correct
6,206,107,B,85.13619784512593,59.15568869901183,4.256809892256297,0.9292153851743017,B,595.8451000001332,Correct
6,206,108,B,38.125672280006306,26.7778484439197,1.9062836140003154,0.420625459751795,B,1219.3090999999185,Correct
6,206,109,A,56.04075265662353,80.18418914024448,2.8020376328311767,1.2595302976852327,A,814.6468999998433,Correct
6,206,110,A,52.05281204548741,67.94027524520787,2.6026406022743704,1.0672033479660676,B,835.6275000001006,Incorrect
6,206,111,A,45.469352428094254,53.11830999228218,2.2734676214047127,0.834380462214295,B,1537.1731000000182,Incorrect
6,206,112,A,41.23127653097164,65.49044322004409,2.061563826548582,1.02872147650215,A,760.9041000000616,Correct
6,206,113,B,42.9389048381863,25.27828591696037,2.1469452419093153,0.39707038666032507,B,935.8259999999063,Correct
6,206,114,B,58.916807039069845,50.26966437201307,2.945840351953492,0.789634041447704,B,703.5722999999052,Correct
6,206,115,B,80.88776453963567,51.71051175273906,4.044388226981783,0.8122668191788682,B,595.9937000002355,Correct
6,206,116,A,63.67570843097032,75.5203636492672,3.1837854215485155,1.1862710981848374,A,819.7454000001017,Correct
6,206,117,B,53.92600355670049,36.22624560746451,2.696300177835025,0.5690405353377501,B,714.4006000003174,Correct
6,206,118,B,56.91651787154444,50.046513252733575,2.845825893577222,0.78612879186286,B,596.6214999998556,Correct
6,206,119,A,58.799161117377665,77.02592572243836,2.939958055868883,1.2099204119278268,A,611.5247000002455,Correct
6,206,120,B,50.67992508522862,21.95495329585335,2.5339962542614307,0.3448675999207995,B,1142.5899999999274,Correct
6,206,121,A,48.42379490798727,68.12459098854634,2.4211897453993636,1.070098572892133,A,724.4011000002502,Correct
6,206,122,A,58.10099328796876,66.62755218627727,2.9050496643984385,1.0465831423753962,A,1532.1341000003486,Correct
6,206,123,B,85.3909667140012,61.92063934946374,4.26954833570006,0.9726471284292918,B,603.3488000002762,Correct
6,206,124,A,52.64581306390607,82.54694983851624,2.6322906531953034,1.296644455944639,A,635.8915999999226,Correct
6,206,125,A,11.663165483826095,30.553626828639306,0.5831582741913047,0.47993524792688624,A,529.4401999999536,Correct
6,206,126,B,65.12771012026073,55.481379786906615,3.2563855060130367,0.8714994757478554,B,872.6188999999067,Correct
6,206,127,A,41.25519652693912,71.00886920426223,2.0627598263469564,1.1154047091591435,A,594.2847999999685,Correct
6,206,128,A,43.37164217157637,58.011155851359824,2.168582108578818,0.9112371052444228,B,580.2186999999321,Incorrect
6,206,129,B,60.84136125282306,41.08810852910405,3.042068062641153,0.6454104995246669,B,769.5048999999017,Correct
6,206,130,A,58.416879778144846,67.35714771688899,2.9208439889072424,1.0580436021707047,B,1210.644200000388,Incorrect
6,206,131,B,59.01289476740791,46.300979148983714,2.9506447383703955,0.7272940797423072,B,849.2679999999382,Correct
6,206,132,A,28.63311656754734,47.90697494071578,1.431655828377367,0.752521002647315,A,1693.7011999998504,Correct
6,206,133,A,51.480464305151926,73.33898178820846,2.5740232152575966,1.1520060320379566,A,774.5579000002181,Correct
6,206,134,A,35.798378867197506,64.60732444823537,1.7899189433598752,1.0148494792733425,A,557.7582000000803,Correct
6,206,135,B,77.86976614306809,59.774248014097495,3.8934883071534045,0.9389316921747147,A,1017.356099999688,Incorrect
6,206,136,A,58.017085198958014,84.17397625319917,2.9008542599479004,1.322201727102461,A,772.1314000000348,Correct
6,206,137,A,44.05503596341318,66.34328367075388,2.202751798170659,1.0421178629753203,A,1357.8333999998904,Correct
6,206,138,A,61.83994622557971,76.2697237476946,3.0919973112789854,1.1980420190854018,B,686.6328999999496,Incorrect
6,206,139,A,19.03863061890596,46.595387218870066,0.9519315309452979,0.7319186308898699,A,555.6517999998505,Correct
6,206,140,B,55.86566510426952,36.01608017073148,2.793283255213476,0.5657392643773552,B,656.3664000000244,Correct
6,206,141,B,72.68320842945201,56.107058144844856,3.6341604214726004,0.8813276084118998,B,547.6682999997138,Correct
6,206,142,A,31.314635442948457,58.924074015608795,1.5657317721474229,0.925577190235089,A,879.2954000000464,Correct
6,206,143,B,40.59853986446343,22.09063916344087,2.0299269932231714,0.34699894854484403,B,808.9538999997785,Correct
6,206,144,B,86.08333769624372,69.14923767441192,4.304166884812186,1.0861936853963352,B,964.5379999997203,Correct
6,206,145,B,41.69853298232525,14.381958558472437,2.0849266491162624,0.2259112767576493,B,1295.6187999998292,Correct
6,206,146,B,74.86295512779246,61.884763807963246,3.7431477563896234,0.972083596741184,B,3617.3029999999926,Correct
6,206,147,B,36.72630002140836,11.494318621470473,1.8363150010704181,0.18055233469616,B,1098.1403000000682,Correct
6,206,148,B,42.15273995449151,29.568174819084014,2.1076369977245752,0.46445580395846525,B,766.2574999999379,Correct
6,206,149,A,50.41921207017818,63.26332141381563,2.520960603508909,0.9937379289766651,B,855.9623000001011,Incorrect
6,206,150,A,21.654909945198533,53.30211653009171,1.0827454972599266,0.8372676885586159,A,612.9548999997496,Correct
6,206,151,B,68.42340633181742,48.20660396098632,3.421170316590871,0.7572275642917363,B,780.4388999998082,Correct
6,206,152,A,66.40082691901695,84.53398950472108,3.3200413459508473,1.327856802033342,A,590.9192999997686,Correct
6,206,153,B,62.5239587813246,49.86647348798523,3.12619793906623,0.783300733851423,B,641.1653000000115,Correct
6,206,154,B,44.04083778928613,20.64033253452292,2.202041889464306,0.324217585290538,B,608.0626000002667,Correct
6,206,155,A,15.783151634552816,38.876511952167974,0.7891575817276407,0.6106708217306335,A,643.934100000024,Correct
6,206,156,B,38.329324950142826,21.942227034726862,1.9164662475071412,0.3446676962784863,B,594.5896999996876,Correct
6,206,157,B,38.87512072045992,29.547615815480633,1.9437560360229957,0.4641328638850377,A,2059.7154000001865,Incorrect
6,206,158,B,82.53342988408804,55.82529476327509,4.126671494204402,0.8769016795639489,B,690.8980000002884,Correct
6,206,159,B,66.01789179424075,45.31128915519951,3.300894589712038,0.7117480656732882,B,1362.6506999999037,Correct
6,206,160,A,69.4364017127372,84.50108422995034,3.4718200856368595,1.3273399271859216,A,764.2955999999685,Correct
6,206,161,B,44.6334442344354,32.81253636143745,2.23167221172177,0.5154181158936992,B,992.7783000002819,Correct
6,206,162,B,72.03722785144866,47.63667500392522,3.601861392572433,0.74827514116888,B,677.748099999917,Correct
6,206,163,A,23.843842961625114,43.71743340663076,1.1921921480812556,0.6867118381203609,A,710.8778000001621,Correct
6,206,164,B,45.19841918069569,34.97586178114499,2.259920959034784,0.5493995521230856,B,715.5916000001525,Correct
6,206,165,A,33.78727353654839,52.174531872485964,1.6893636768274194,0.8195556301754421,A,1398.3663999997589,Correct
6,206,166,B,52.07138108854342,31.704788724352998,2.603569054427171,0.4980176567002194,B,760.2867999999035,Correct
6,206,167,A,33.57483828239057,51.7486261320207,1.6787419141195286,0.8128655184486051,A,778.5180000000764,Correct
6,206,168,B,73.36595305843889,46.12247572445807,3.6682976529219444,0.7244901545066551,B,549.0135000000009,Correct
6,206,169,A,39.584213722502575,68.27980569149955,1.9792106861251286,1.0725366797447675,A,648.3733999998549,Correct
6,206,170,A,40.340171131470235,50.87883866180216,2.017008556573512,0.79920292881549,B,1180.786100000205,Incorrect
6,206,171,A,46.020039011170866,59.49897590640752,2.3010019505585433,0.9346077280184298,A,1838.199799999984,Correct
6,206,172,B,59.625392755341366,49.31720285334479,2.981269637767068,0.7746728108983278,B,1384.1569999999592,Correct
6,206,173,A,37.26253042347052,69.69937479094054,1.8631265211735262,1.094835219015102,A,815.3446000001168,Correct
6,206,174,A,56.11967593054405,64.21386961407713,2.8059837965272028,1.0086691051907877,B,1852.3422000002938,Incorrect
6,206,175,A,42.136726801715504,51.191003638622064,2.106836340085775,0.8041064048049174,B,1087.6754000000801,Incorrect
6,206,176,A,64.32088532896236,88.36088567647572,3.2160442664481184,1.3879695465295183,A,660.1258000000598,Correct
6,206,177,B,38.2651161018183,21.229774066086378,1.9132558050909152,0.3334765112169404,B,626.9944000000578,Correct
6,206,178,A,35.08308051844647,50.04252756440433,1.7541540259223236,0.7860661848169869,A,659.5757000000049,Correct
6,206,179,B,74.57918448822717,48.90766664483276,3.7289592244113585,0.7682398311781258,B,729.6716999999262,Correct
6,206,180,B,39.409217524006195,28.43464131436995,1.9704608762003095,0.4466503013034273,B,763.3280000000013,Correct
6,206,181,A,19.02320589019292,33.537363408697466,0.9511602945096459,0.5268036725276755,A,539.6226999996543,Correct
6,206,182,A,29.232777865623326,39.096342501054465,1.4616388932811661,0.6141239119177155,A,571.1299999998118,Correct
6,206,183,B,62.887604029416686,41.73448466144362,3.144380201470834,0.655563752068736,B,606.9755999997142,Correct
6,206,184,A,64.01888538347055,83.00315171722616,3.2009442691735273,1.3038104582981838,A,646.1592000000564,Correct
6,206,185,A,15.252349418941666,35.86382916807726,0.7626174709470832,0.5633477112201544,A,574.7820999999931,Correct
6,206,186,A,21.69249255607027,37.47639088388972,1.0846246278035137,0.5886777714194372,A,553.2727999998315,Correct
6,206,187,A,28.18904578949775,39.81102477848606,1.4094522894748875,0.6253501148798652,A,1055.9080000002723,Correct
6,206,188,B,53.465518667424455,45.89788744762914,2.673275933371223,0.7209623301038145,B,1003.2034000000749,Correct
6,206,189,B,81.72106526084397,51.71742596003796,4.086053263042198,0.8123754272931464,B,656.7584999997962,Correct
6,206,190,B,50.52359911523545,32.9793869172759,2.5261799557617723,0.5180389982960466,B,945.3168999998525,Correct
6,206,191,B,65.12540412563686,45.777734660958515,3.256270206281843,0.7190749745442504,B,892.388100000062,Correct
6,206,192,B,64.89783160177808,48.69964973808139,3.244891580088904,0.7649723092477629,B,633.3726000002571,Correct
6,206,193,B,86.29439960874456,69.02575832664927,4.3147199804372285,1.0842540763373292,A,942.6444000000629,Incorrect
6,206,194,B,46.99668994514784,33.70490336857801,2.349834497257392,0.5294353840633927,B,1124.9847000003683,Correct
6,206,195,B,83.688178401189,57.22249585702342,4.18440892005945,0.8988488630224857,B,704.3395000000601,Correct
6,206,196,A,47.21235318736203,70.61807307998946,2.3606176593681014,1.10926609799381,A,846.9466000001376,Correct
6,206,197,A,33.50227332591954,56.62219443965857,1.675113666295977,0.8894193504088209,A,712.35119999983,Correct
6,206,198,B,40.36764657684171,25.83635249466129,2.0183823288420855,0.4058364759639212,B,784.900899999684,Correct
6,206,199,B,33.57885444885612,11.462660063459904,1.6789427224428062,0.18005504322981372,B,1064.6664999999302,Correct
6,206,200,A,32.69106731906778,47.31065686105344,1.6345533659533888,0.7431540601559651,A,873.2460999999603,Correct
6,206,201,A,34.63908550524805,55.253786799741036,1.7319542752624022,0.8679244534654158,A,888.994399999774,Correct
6,206,202,B,37.269046370426466,20.271085950791587,1.8634523185213232,0.3184174735164706,B,646.2237000000641,Correct
6,206,203,A,61.864831140165016,80.49851467131182,3.093241557008251,1.264467711581417,A,701.9875000000866,Correct
6,206,204,A,42.76359815037972,56.989274302555756,2.1381799075189862,0.8951854274116136,B,622.8322000001754,Incorrect
6,206,205,A,52.17696098539504,75.97161834988714,2.6088480492697523,1.1933593904466648,A,928.7823999998182,Correct
6,206,206,B,52.324071792138135,37.72846581378215,2.616203589606907,0.5926373551589583,B,692.6667000002453,Correct
6,206,207,B,41.68628582071124,32.06946613328192,2.0843142910355623,0.5037459960443258,B,1215.1570999999421,Correct
6,206,208,A,50.8511854526884,75.9325600462406,2.54255927263442,1.1927458640476765,A,962.4945999999,Correct
6,206,209,B,46.01867548689856,20.676214445807595,2.300933774344928,0.32478121703498153,B,757.543700000042,Correct
6,206,210,A,53.66827083050012,77.809366850911,2.6834135415250056,1.222226676396476,A,607.5015999999778,Correct
6,206,211,A,64.36720111471077,82.59085423832592,3.2183600557355385,1.2973341046441507,A,767.2242999997252,Correct
6,206,212,A,33.05141931553918,44.478658245009555,1.652570965776959,0.6986691299202655,B,702.7290000000903,Incorrect
6,206,213,A,40.735640782147705,72.21308332323174,2.036782039107385,1.1343204603066623,A,933.8724999997794,Correct
6,206,214,A,51.02921956022132,79.49805032778625,2.551460978011066,1.2487524544224244,A,717.8863999997702,Correct
6,206,215,A,65.62135511308196,83.34626287631703,3.281067755654098,1.3092000357820064,A,672.9949999999008,Correct
6,206,216,B,43.35154805042395,27.477824323182677,2.167577402521198,0.43162065515170817,B,755.4654000000482,Correct
6,206,217,B,75.44795735696046,56.158655480436586,3.7723978678480226,0.8821380974640988,B,919.3685000000187,Correct
6,206,218,A,40.92545613002211,65.61440352424572,2.0462728065011055,1.030668640407233,A,1007.3523999999452,Correct
6,206,219,A,29.0485912856344,39.55656163653744,1.4524295642817202,0.6213530171930893,A,1067.2558000001118,Correct
6,206,220,A,38.69771622540988,49.90622377853842,1.9348858112704936,0.7839251299553226,A,760.2050000000418,Correct
6,206,221,A,42.55099163048048,68.58106054206658,2.127549581524024,1.077268779871766,A,861.7900999997801,Correct
6,206,222,A,56.09151532762792,76.4095428829022,2.804575766381396,1.2002382929253992,A,1078.622400000313,Correct
6,206,223,A,46.00165005147583,58.99905217525991,2.300082502573791,0.9267549444127872,A,1717.2419000003174,Correct
6,206,224,A,19.928878700938178,48.03625057544639,0.996443935046909,0.7545516595691042,A,450.26350000034654,Correct
6,206,225,B,82.66748320662447,61.16565224733755,4.133374160331224,0.9607878187613182,B,530.7997999998406,Correct
6,206,226,B,60.33466437704275,36.94515063742162,3.016733218852137,0.58033306914146,B,1258.8301000000683,Correct
6,206,227,B,47.50458562895493,30.529615828482015,2.3752292814477465,0.4795580840183888,B,794.5732999996835,Correct
6,206,228,B,48.81919876788572,22.447188699311543,2.440959938394286,0.3525996155575048,B,543.5816000003797,Correct
6,206,229,A,32.24429946236408,47.939652546434516,1.6122149731182043,0.7530343012776295,A,780.5558999998539,Correct
6,206,230,B,42.683581388920175,21.419649305117556,2.1341790694460085,0.33645906449713514,B,1357.6980999996522,Correct
6,206,231,B,69.44380366403864,44.42976837036715,3.4721901832019317,0.697901169565208,B,1259.1959999999744,Correct
6,206,232,B,61.144618522763366,39.458596450689505,3.0572309261381685,0.6198141836522523,B,589.9764999999206,Correct
6,206,233,B,56.54799081745741,25.282967707594253,2.8273995408728707,0.39714392805563037,B,554.6979999999166,Correct
6,206,234,A,49.396316956640405,80.844054092614,2.4698158478320202,1.26989543211886,A,665.5838000001495,Correct
6,206,235,A,56.10924389522356,72.57949137212651,2.805462194761178,1.140075984479782,B,1158.5963000002266,Incorrect
6,206,236,B,39.69928381691918,24.183963204128826,1.9849641908459588,0.37988080568388494,A,2334.0800999999374,Incorrect
6,206,237,B,60.535260123746205,31.704151239889597,3.0267630061873105,0.4980076431176844,B,681.6638000000239,Correct
6,206,238,B,41.11041698706434,30.61023379678401,2.055520849353217,0.48082442810321324,B,2213.852699999734,Correct
6,206,239,A,29.503832146775864,55.360444343415814,1.4751916073387932,0.8695998262437088,A,1137.4373000003288,Correct
6,206,240,A,60.49338593175631,70.92905620793734,3.024669296587815,1.1141510095445673,B,1034.5707000001312,Incorrect
6,206,241,A,23.706758490661095,49.37185695172936,1.1853379245330546,0.7755313154681955,A,485.64329999999245,Correct
6,206,242,B,67.96680405797643,53.72398581270616,3.398340202898822,0.8438943957537998,B,557.633800000076,Correct
6,206,243,B,58.67804241527914,42.315423449612865,2.933902120763957,0.6646891172142251,A,1333.118900000045,Incorrect
6,206,244,B,55.499953404398404,44.550892297190664,2.77499767021992,0.6998037797586215,B,686.2429999996493,Correct
6,206,245,B,75.16406577232473,62.17066012109849,3.758203288616237,0.9765744455263548,B,886.5320000004431,Correct
6,206,246,B,83.26127826348724,62.95327747744274,4.163063913174362,0.9888677702126695,B,637.1871999999712,Correct
6,206,247,B,53.854592909591744,23.51496870888348,2.6927296454795875,0.369372264726111,B,788.3646000000226,Correct
6,206,248,A,40.35397570692583,49.87148360297123,2.0176987853462918,0.7833794325535911,A,782.8682999997909,Correct
6,206,249,B,51.766335110049525,40.075517151528395,2.588316755502476,0.6295047513602668,B,468.9336999999796,Correct
6,206,250,B,39.89427767250051,30.730064761093637,1.9947138836250253,0.48270672848895174,B,647.4327000000812,Correct
6,206,251,A,41.91141841434718,60.378120625942394,2.0955709207173587,0.9484173009800949,A,760.8497999999599,Correct
6,206,252,B,36.68914333413318,16.25299994293477,1.834457166706659,0.255301526097596,A,670.91819999996,Incorrect
6,206,253,A,62.597053747206864,81.79676888325648,3.129852687360343,1.2848606410551038,A,1149.8291999996582,Correct
6,206,254,A,37.71540940116528,49.99143916253061,1.8857704700582643,0.7852636900769364,A,1042.8113000002668,Correct
6,206,255,A,32.582025111828735,50.341365369827294,1.6291012555914366,0.7907603180876452,A,750.413700000081,Correct
6,206,256,B,54.44863475444897,41.12978750896553,2.7224317377224487,0.6460651914093767,B,719.5597999998427,Correct
6,206,257,B,57.17764988708769,42.2950937631374,2.8588824943543845,0.6643697792458196,B,808.1240999999864,Correct
6,206,258,A,36.452590393055885,52.867794872796416,1.8226295196527942,0.8304453799193467,B,529.5347999999649,Incorrect
6,206,259,B,49.48275287150599,27.240332072634143,2.4741376435752995,0.4278901356036693,B,920.4431000002842,Correct
6,206,260,B,47.89095151530759,18.707811677582875,2.3945475757653796,0.2938616186551785,B,805.6877000003624,Correct
6,206,261,B,68.63275859280739,58.11817915164647,3.4316379296403694,0.9129182233141402,B,1199.3902999997772,Correct
6,206,262,B,57.33324974987802,38.25751562507331,2.866662487493901,0.6009476501616352,B,645.1892000000043,Correct
6,206,263,B,38.38579738334434,28.47397063043912,1.9192898691672169,0.4472680847555953,A,1043.2921999999962,Incorrect
6,206,264,A,41.89603710868999,72.463869324175,2.0948018554344996,1.1382597975975948,A,667.3005000002377,Correct
6,206,265,A,68.57501529293698,87.54522445845097,3.4287507646468494,1.3751571700776952,A,739.3505999998524,Correct
6,206,266,B,38.41750847194325,18.683758550024507,1.9208754235971626,0.29348379301101235,B,539.6003000000746,Correct
6,206,267,A,43.90346662627936,67.79082328938239,2.1951733313139683,1.0648557621336379,A,661.2684000001536,Correct
6,206,268,A,14.841045396373438,36.39102461849563,0.7420522698186719,0.5716288779903559,A,572.6733999999851,Correct
6,206,269,B,54.02328637434077,32.859023443984505,2.701164318717039,0.5161483332787826,B,586.2942000003386,Correct
6,206,270,B,80.80761491144182,68.12428806596056,4.040380745572091,1.0700938145952825,A,716.5530000002036,Incorrect
6,206,271,B,50.24839082622379,28.86644149157149,2.5124195413111896,0.4534330026260029,B,633.4764000002906,Correct
6,206,272,B,66.24157626280594,41.13189500747448,3.312078813140297,0.6460982959185425,B,1645.0902999999926,Correct
6,206,273,A,29.15703347543859,58.68561292375425,1.4578516737719296,0.9218314521634028,A,654.2300000000978,Correct
6,206,274,A,51.66815042068808,63.13627449160548,2.5834075210344043,0.9917422805892822,A,801.0453000001689,Correct
6,206,275,A,14.0863011489681,38.94350969116478,0.7043150574484051,0.6117232197538309,A,593.0456999999478,Correct
6,206,276,A,34.615443436257515,62.8038023822056,1.730772171812876,0.9865198209072115,A,719.1193999997267,Correct
6,206,277,A,23.9955028387097,40.562931211966784,1.199775141935485,0.637161033517915,A,527.9467000000295,Correct
6,206,278,A,49.834731774227606,70.39197295475194,2.4917365887113805,1.1057145255317005,A,751.4375000000655,Correct
6,206,279,A,64.66123924385813,83.1611284359995,3.2330619621929064,1.3062919507938664,A,544.2398000000139,Correct
6,206,280,B,59.098636595902384,35.10458765357004,2.954931829795119,0.551421573398773,B,598.6218000002737,Correct
6,206,281,A,29.783258305370687,55.246076238383075,1.4891629152685342,0.8678033362508294,A,991.4677000001575,Correct
6,206,282,A,37.74641333986855,57.924036121350056,1.8873206669934277,0.9098686317255158,A,809.9790000001121,Correct
6,206,283,B,41.94272871155226,24.502360955377366,2.097136435577613,0.38488218586509454,B,562.258699999802,Correct
6,206,284,A,45.45753470215174,56.555904676038146,2.272876735107587,0.8883780732368304,B,628.5048999998253,Incorrect
6,206,285,A,62.268314925454305,81.25546639055258,3.1134157462727154,1.2763578813828618,A,856.6270000001168,Correct
6,206,286,B,82.74811385399694,60.23056829216037,4.137405692699847,0.9460995543409467,B,620.2625000000808,Correct
6,206,287,A,36.05065308683383,68.50324357177473,1.8025326543416917,1.0760464337607987,A,573.6311000000569,Correct
6,206,288,B,52.82438507435338,45.25152617763536,2.641219253717669,0.7108093110169272,B,581.9126999999753,Correct
6,206,289,B,85.85280386784274,63.80039810696343,4.2926401933921365,1.0021743099447025,B,581.1678999998549,Correct
6,206,290,A,37.593979216480164,60.78502505677731,1.8796989608240082,0.9548089408332155,A,550.2688000001399,Correct
6,206,291,A,59.008872154498036,67.19666369059213,2.9504436077249014,1.0555227249805412,A,913.3015999996132,Correct
6,206,292,B,77.72333318110613,64.61104954306852,3.886166659055306,1.014907992926151,A,1649.8609999998735,Incorrect
6,206,293,A,29.586742618668985,48.04556575581231,1.479337130933449,0.7546979820801266,A,721.0437999997339,Correct
6,206,294,B,51.602438560406284,42.34467081775617,2.5801219280203145,0.6651485337987043,B,930.2076000003581,Correct
6,206,295,A,51.80382629585115,73.90047067125359,2.5901913147925573,1.160825878788191,A,561.6366999997808,Correct
6,206,296,A,35.585335516969295,50.09420622975507,1.7792667758484646,0.786877951394053,A,864.5814000001337,Correct
6,206,297,A,32.847777275571,41.87403518468177,1.6423888637785498,0.6577558065617839,A,578.8046000002396,Correct
6,206,298,B,41.43259777498552,14.36204695689397,2.0716298887492757,0.22559850605144866,B,1131.0930999998163,Correct
6,206,299,A,51.4458061155688,77.31907483437517,2.57229030577844,1.2145251874101624,A,824.0664999998444,Correct
6,206,300,A,26.381742053753552,47.903199549366576,1.3190871026876776,0.7524616989386795,A,530.0280000001294,Correct
6,206,301,B,40.13398628326017,28.602530240000615,2.0066993141630087,0.44928749438032917,A,781.6501000002063,Incorrect
6,206,302,B,70.74898597176795,55.83910592593837,3.5374492985883976,0.8771186247997514,B,1125.9202999999616,Correct
6,206,303,A,40.11170438246716,55.56324128021825,2.005585219123358,0.872785353077854,A,914.3773999999212,Correct
6,206,304,A,61.47639198813924,85.058958054394,3.073819599406962,1.3361029887284326,A,616.1766000000171,Correct
6,206,305,A,68.76408535495962,85.99759356145044,3.438204267747981,1.3508470407952682,A,636.0451999998986,Correct
6,206,306,B,47.468169287152044,37.21419595849438,2.373408464357602,0.5845592231622845,B,662.8253999997469,Correct
6,206,307,B,74.64975977167636,54.59138558646336,3.7324879885838183,0.8575194795386051,B,706.4494999999624,Correct
6,206,308,A,24.889744519267005,55.39615181063802,1.2444872259633502,0.8701607178272265,A,570.1937000003454,Correct
6,206,309,B,33.593979705707376,22.381037089483115,1.6796989852853688,0.3515605085002042,A,765.5248999999458,Incorrect
6,206,310,B,45.915272114498826,36.46557184157083,2.2957636057249413,0.5727998630321487,B,714.4766999999774,Correct
6,206,311,B,41.58687413840001,17.884505633037556,2.079343706920001,0.2809291575491803,B,770.5120000000534,Correct
6,206,312,B,59.92987149732663,40.32817656491193,2.9964935748663315,0.6334735161449969,B,677.5422999999137,Correct
6,206,313,A,37.23346069806424,63.10195745848483,1.8616730349032122,0.9912032298935581,A,738.2825999998204,Correct
6,206,314,A,30.999812941498814,48.07852456863877,1.5499906470749405,0.7552156979013597,A,610.3060999998888,Correct
6,206,315,A,64.39144798084197,88.6028889908519,3.219572399042099,1.3917709257024613,A,687.8193999996256,Correct
6,206,316,B,50.181355048346404,28.26239538395904,2.5090677524173204,0.44394466855547904,B,869.0654000001814,Correct
6,206,317,B,75.06415273252733,48.26183972822117,3.7532076366263665,0.7580952056945381,B,667.748599999868,Correct
6,206,318,A,40.8366541784575,72.2948867967853,2.041832708922875,1.1356054262644324,A,596.8548000000737,Correct
6,206,319,B,69.52306134013631,38.56901134457694,3.4761530670068157,0.6058406134817216,B,642.6589000002423,Correct
6,206,320,A,62.017737618002556,78.31484427836689,3.100886880900128,1.2301666972597305,A,784.7317999999177,Correct
6,206,321,B,58.29638988308278,49.16613042637326,2.914819494154139,0.772299770764659,B,780.628699999852,Correct
6,206,322,B,53.878487465701205,46.42187503691869,2.6939243732850606,0.729193107909236,B,1147.8078999998615,Correct
6,206,323,A,20.82369054808442,45.14605108765042,1.041184527404221,0.7091525121777602,A,1069.504500000221,Correct
6,206,324,A,52.67473129486328,61.02757060630038,2.6337365647431636,0.9586188374159282,B,914.7428000001128,Incorrect
6,206,325,B,75.38202253505001,53.771172768452146,3.7691011267525005,0.8446356067213839,B,710.9018999999535,Correct
6,206,326,A,37.48860213773747,70.28524669467562,1.8744301068868736,1.104038073358696,A,496.33319999975356,Correct
6,206,327,B,85.59390857825572,61.86229008720748,4.2796954289127855,0.9717305803610584,B,1416.6134000001875,Correct
6,206,328,A,65.24961169774409,81.67904296416523,3.262480584887204,1.283011406642333,A,732.2288000000299,Correct
6,206,329,B,65.65559732137876,54.34361217288512,3.282779866068938,0.8536274638593437,B,634.0408999999454,Correct
6,206,330,B,84.68948696671741,65.21562396385642,4.234474348335871,1.0244046257206287,B,1205.077000000074,Correct
6,206,331,A,65.48382671456805,78.78546820911859,3.274191335728403,1.2375592406769957,A,738.0450999999084,Correct
6,206,332,B,65.45244020302279,32.175481111066404,3.272622010151139,0.5054112754212169,B,786.9007999997848,Correct
6,206,333,A,35.654074775530404,45.42313127713467,1.78270373877652,0.7135048776164552,A,513.5364000002482,Correct
6,206,334,B,70.7734990102428,46.66851534313385,3.53867495051214,0.7330673247796593,B,601.0142999998607,Correct
6,206,335,B,69.84684599132501,56.73311990605501,3.4923422995662508,0.8911617635604563,B,598.5577000001285,Correct
6,206,336,A,65.65560589071896,83.03171918823753,3.282780294535948,1.3042591950834885,A,609.6031000001858,Correct
6,206,337,A,16.109872923470917,36.47314471810129,0.8054936461735458,0.5729188174985219,A,558.0375999998068,Correct
6,206,338,A,43.837993203538886,75.23951206063447,2.191899660176944,1.1818594917468495,A,887.409999999818,Correct
6,206,339,B,82.79411732182746,63.27482620097311,4.139705866091373,0.9939186457507404,B,685.8041999998932,Correct
6,206,340,A,50.456467620536124,79.08631737671158,2.5228233810268064,1.2422849683507393,A,1237.253100000089,Correct
6,206,341,A,24.916208625904346,46.79263270756854,1.2458104312952174,0.735016955781114,A,694.1264000001865,Correct
6,206,342,A,57.946298931719596,84.75450260090696,2.8973149465859795,1.3313206136483315,A,820.9934999999859,Correct
6,206,343,B,83.44001488815071,60.56751047883208,4.172000744407535,0.9513922298326083,B,1605.8635999997932,Correct
6,206,344,B,53.37066903203677,38.989158544874485,2.668533451601838,0.612440270271127,B,966.4351000001261,Correct
6,206,345,A,28.740686054623463,43.6800991162668,1.4370343027311732,0.686125392458689,A,591.0204000001613,Correct
6,206,346,A,26.29334426961821,55.47787619737238,1.3146672134809105,0.8714444414921456,A,726.7477000000326,Correct
6,206,347,A,67.25519823125818,84.4522763951315,3.362759911562909,1.3265732555093992,A,858.9200000001256,Correct
6,206,348,A,26.957884867605728,50.34170200558714,1.3478942433802865,0.7907656059497954,A,779.5100000003004,Correct
6,206,349,B,79.16412110183694,52.26256801613974,3.958206055091847,0.8209384986862075,B,1074.695299999803,Correct
6,206,350,A,38.82845455268696,63.73724360942014,1.941422727634348,1.0011822814170865,A,563.5336999998799,Correct
6,206,351,A,43.2876229921778,58.27084529502897,2.1643811496088903,0.915316297486652,A,577.8800000002775,Correct
6,206,352,A,48.95957410227541,62.510852032596254,2.4479787051137705,0.981918167576215,B,604.948400000012,Incorrect
6,206,353,A,56.44873075153875,65.88115843703224,2.8224365375769374,1.0348588167788284,B,909.4936000001326,Incorrect
6,206,354,A,28.430441575145203,55.679605498172535,1.4215220787572602,0.8746131979391834,A,628.1348000002254,Correct
6,206,355,A,45.215122079704585,55.51130899613551,2.2607561039852295,0.8719696026670616,A,1501.5450999999302,Correct
6,206,356,B,35.18233390783615,17.629167171063944,1.7591166953918076,0.2769183103676042,B,1979.901400000017,Correct
6,206,357,B,84.72924762180861,68.01495680254695,4.236462381090431,1.0683764431255431,B,780.213300000014,Correct
6,206,358,B,73.42567829594479,54.03759453448191,3.6712839147972396,0.8488205500359617,B,1113.1678000001557,Correct
6,206,359,B,58.97063050912044,36.58330518080903,2.948531525456022,0.5746492140003153,B,676.2413999999808,Correct
6,206,360,A,27.282814122985613,45.84740435104076,1.3641407061492805,0.7201693434769518,A,872.9464999996708,Correct
6,206,361,A,55.58771565903302,68.90800526312276,2.7793857829516515,1.0824044155407662,A,1142.4811000001682,Correct
6,206,362,A,28.771988099376067,44.47078405970343,1.4385994049688033,0.6985454425067119,A,809.5604000000094,Correct
6,206,363,B,57.50601780706296,40.983141141495985,2.875300890353148,0.643761675655787,B,633.81789999994,Correct
6,206,364,A,25.55032502729311,36.64992700188674,1.2775162513646554,0.5756957071186478,A,740.610000000288,Correct
6,206,365,B,56.783231355615925,36.55276578303503,2.8391615677807964,0.5741695022618559,B,1442.7160999998705,Correct
6,206,366,A,45.89258676957211,54.4178414679768,2.2946293384786056,0.8547934549000497,A,952.233200000137,Correct
6,206,367,B,73.93917527307354,50.66506542577864,3.696958763653677,0.795844986676362,B,603.5518999997294,Correct
6,206,368,A,55.04340116113058,83.43522953014562,2.752170058056529,1.310597520712418,A,795.3063999998449,Correct
6,206,369,A,48.634483168214054,79.95812670856444,2.4317241584107028,1.2559793173121394,A,647.17040000005,Correct
6,206,370,B,39.54648009678572,14.888622020975752,1.9773240048392862,0.2338699278158632,B,1019.6367000003193,Correct
6,206,371,A,64.2744619672083,87.00272253353472,3.213723098360415,1.3666355697683192,A,927.2172000000865,Correct
6,206,372,A,34.32309149747155,58.61273465590911,1.7161545748735776,0.9206866830090596,A,832.9223000000638,Correct
6,206,373,B,46.007818208726405,18.50778758364691,2.3003909104363203,0.29071964753492757,B,603.3652999999504,Correct
6,206,374,B,73.75496922778129,55.266018692196404,3.6877484613890648,0.8681165915828021,B,486.20149999987916,Correct
6,206,375,B,47.08865865649822,39.006717952972735,2.3544329328249107,0.6127160928085412,B,943.8385000003109,Correct
6,206,376,A,22.081068751377966,52.05275528593344,1.1040534375688984,0.8176427680269789,A,645.3781000000163,Correct
6,206,377,B,49.694521916782435,33.49043132096706,2.4847260958391217,0.5260664650175181,B,777.5605000001633,Correct
6,206,378,B,40.217809349619316,24.60122663181655,2.010890467480966,0.38643516427906227,B,526.5466000000742,Correct
6,206,379,A,44.349472425464285,55.44958919222145,2.2174736212732142,0.8710001102542746,A,708.6306999999579,Correct
6,206,380,B,85.39976999907758,59.870789263170934,4.269988499953879,0.9404481585690023,B,554.1540000003806,Correct
6,206,381,A,55.896769720413815,76.6683878116149,2.7948384860206907,1.2043042195577132,A,591.657700000269,Correct
6,206,382,A,28.336722320208146,38.76027172320544,1.4168361160104073,0.608844924483832,B,1114.1637999999148,Incorrect
6,206,383,B,59.37015108144219,35.55266601575537,2.9685075540721098,0.5584599718531429,B,587.0190999999068,Correct
6,206,384,A,15.093031693476878,44.0852793235905,0.7546515846738439,0.6924899482722295,A,494.89790000006906,Correct
6,206,385,B,75.3437308899476,44.16186837025954,3.7671865444973798,0.6936930062040341,B,507.3485999996592,Correct
6,206,386,B,45.40888305722574,17.99695629636283,2.270444152861287,0.28269552843815016,B,694.6873000001688,Correct
6,206,387,A,24.41773123385247,40.997465426404005,1.2208865616926234,0.6439866809969618,A,587.9096999997273,Correct
6,206,388,A,45.06949032191617,56.517700347735214,2.2534745160958085,0.8877779610511712,B,859.4153000003644,Incorrect
6,206,389,B,60.3879923151229,44.21106659883681,3.019399615756145,0.694465810171374,B,564.785000000029,Correct
6,206,390,A,15.689665717600377,40.03256441135964,0.7844832858800188,0.6288300512954381,A,482.8944999999294,Correct
6,206,391,A,59.765959684171435,84.24958228030664,2.9882979842085717,1.323389343799101,A,703.320800000256,Correct
6,206,392,A,49.628164668134374,66.88323007511185,2.481408233406719,1.0505993212616365,B,737.2685999998794,Incorrect
6,206,393,A,24.41861798912474,44.6532743547741,1.2209308994562371,0.7014119933584391,A,548.2916999999361,Correct
6,206,394,A,50.645742503826426,79.8996041586274,2.5322871251913215,1.2550600472473816,A,833.5854000001746,Correct
6,206,395,B,66.62970590081859,33.53116454897293,3.3314852950409293,0.5267063010668194,B,574.2681000001539,Correct
6,206,396,B,79.64852089631219,48.247133552303836,3.9824260448156097,0.7578642016234167,B,487.379200000305,Correct
6,206,397,B,48.077245294862536,37.45820968165989,2.4038622647431267,0.5883921817626437,B,557.5008000000707,Correct
6,206,398,A,51.205335868448145,60.15137208124006,2.5602667934224077,0.9448555431688498,B,927.7160999999978,Incorrect
6,206,399,B,44.7326469941887,16.841400365589344,2.236632349709435,0.2645440983234997,B,612.130900000011,Correct
6,206,400,B,50.61573764996621,38.03997524689825,2.5307868824983104,0.5975305338919656,B,541.8068999997558,Correct
6,206,401,B,63.83698199521865,32.71794711874524,3.1918490997609323,0.513932311543947,B,558.4522999997716,Correct
6,206,402,A,22.627816647718934,41.77749086106141,1.1313908323859467,0.6562392918726263,A,1425.6970999999794,Correct
6,206,403,B,83.4248092082873,68.36389994707542,4.1712404604143645,1.073857629222399,A,973.5617000001184,Incorrect
6,206,404,A,13.938641309418163,39.36729210395528,0.6969320654709081,0.6183799783275469,A,648.6328000000867,Correct
6,206,405,B,61.25404693710669,33.79885415809547,3.0627023468553345,0.5309111596141278,B,584.9553000002743,Correct
6,206,406,B,67.81217973916941,48.636017492853085,3.390608986958471,0.7639727762770596,B,650.0522999999703,Correct
6,206,407,A,39.11033570470948,68.0902343431944,1.955516785235474,1.0695588999689347,A,548.8292999998521,Correct
6,206,408,B,56.26903308601173,43.018968347647316,2.8134516543005867,0.6757403746299032,B,911.8850999998358,Correct
6,206,409,B,82.70246945688883,66.1707451634406,4.135123472844442,1.0394076344401366,B,977.0257000000129,Correct
6,206,410,B,66.70658918137099,54.07333350638635,3.335329459068549,0.8493819364938708,B,704.7913999999764,Correct
6,206,411,B,78.70817965357527,56.940258299765574,3.9354089826787635,0.8944154858402439,B,602.1441999996568,Correct
6,206,412,A,47.62986290875946,65.01307164371791,2.381493145437973,1.0212229413160554,B,832.5149000002057,Incorrect
6,206,413,A,56.89847502838998,65.75260285316672,2.8449237514194987,1.0328394703895791,B,723.8612000001012,Incorrect
6,206,414,B,50.200721946365164,35.90297356216949,2.510036097318258,0.5639625899247012,B,1304.549699999825,Correct
6,206,415,A,55.975687196313366,83.69462191540367,2.7987843598156683,1.3146720467720374,A,672.3071999999775,Correct
6,206,416,B,31.029917285262805,14.057758675763395,1.5514958642631402,0.2208187569085823,A,705.4401000000325,Incorrect
6,206,417,B,40.98616695301294,23.805562477500406,2.049308347650647,0.37393690096944054,B,1069.2973999998685,Correct
6,206,418,A,63.51163529294392,87.65384140136379,3.1755817646471964,1.3768633210272467,A,1375.0073000001066,Correct
6,206,419,A,45.6601189021809,77.33421323231084,2.283005945109045,1.2147629808088716,A,872.3743999998987,Correct
6,206,420,A,32.455197854078726,60.520879568373346,1.6227598927039364,0.9506597532039716,A,1213.089399999717,Correct
6,206,421,B,66.66063667528482,45.71165158371516,3.333031833764241,0.718036943994279,B,903.3156999998937,Correct
6,206,422,A,44.781533960695974,59.64236961659101,2.2390766980347987,0.9368601511508471,A,1166.798799999924,Correct
6,206,423,B,78.35704448873628,57.06875909841619,3.917852224436814,0.8964339716653498,B,522.3967000001721,Correct
6,206,424,A,54.247629337910055,78.42195937246318,2.7123814668955024,1.2318492572232378,A,1038.5643999998138,Correct
6,206,425,A,22.6292676083452,36.135235975655036,1.13146338041726,0.5676109593842573,A,708.1147000003511,Correct
6,206,426,A,41.93514621387055,67.36027463035701,2.0967573106935276,1.0580927196126024,A,574.0504000000328,Correct
6,206,427,B,47.047007330437296,35.14482683862588,2.352350366521865,0.5520536490395623,B,645.7853000001705,Correct
6,206,428,B,75.48773323223448,50.85779274248014,3.7743866616117234,0.7988723402878395,B,699.6089999997821,Correct
6,206,429,B,64.21649145118487,37.75368967539021,3.2108245725592433,0.5930335706505735,B,582.0653999999195,Correct
6,206,430,B,56.94698394195598,26.292707612244147,2.847349197097799,0.4130048853880532,B,566.072499999791,Correct
6,206,431,A,48.89569662026611,72.41899185393511,2.4447848310133056,1.137554863943508,A,1052.4537999999666,Correct
6,206,432,A,66.18307771483647,78.76801778687778,3.3091538857418237,1.237285130085427,B,576.9178999998985,Incorrect
6,206,433,B,75.31194050886691,48.46699400699569,3.7655970254433453,0.7613177615697909,B,592.9101000001538,Correct
6,206,434,B,45.141698253169764,26.656311241193567,2.257084912658488,0.41871635783568373,B,990.186000000449,Correct
6,206,435,B,39.05009973179887,16.361045277290962,1.9525049865899435,0.2569986982409363,B,672.9443999997784,Correct
6,206,436,A,46.569166433095106,55.36662094777696,2.3284583216547556,0.8696968481181342,B,1583.8948000000528,Incorrect
6,206,437,A,43.76699735423368,70.62255693303874,2.1883498677116844,1.109336530192807,A,643.2025999997677,Correct
6,206,438,A,55.76676186263885,75.83248188874377,2.7883380931319426,1.1911738400257923,A,549.4448999997985,Correct
6,206,439,B,79.0626396155736,50.55134626803131,3.9531319807786804,0.794058690323605,A,491.7956999997841,Incorrect
6,206,440,A,46.06122870998194,62.599430577667036,2.3030614354990973,0.9833095561085151,A,582.8338999999687,Correct
6,206,441,A,20.508491300455766,41.64472662367933,1.0254245650227884,0.6541538361085313,A,508.6541999999099,Correct
6,206,442,B,52.91061524092598,25.259496607996955,2.6455307620462984,0.3967752448852977,B,555.5383000000802,Correct
6,206,443,A,39.66306084454296,50.23060289233448,1.9831530422271482,0.7890204651597212,B,720.015400000193,Incorrect
6,206,444,A,38.4550715956678,57.04160026727202,1.9227535797833901,0.8960073617433366,A,647.4693000000116,Correct
6,206,445,B,66.38448017195306,39.95075096249914,3.3192240085976525,0.6275449286459133,B,764.4594000003053,Correct
6,206,446,A,17.77744506411525,38.27474212290476,0.8888722532057625,0.6012182433568071,A,564.202000000023,Correct
6,206,447,B,33.13211544575506,11.6335851128133,1.6566057722877532,0.18273992762662922,B,683.9339000002838,Correct
6,206,448,B,63.77964613353775,33.6848281882418,3.1889823066768876,0.5291200438680741,B,710.731499999838,Correct
6,206,449,B,45.21760747895536,19.81604948208428,2.260880373947768,0.311269777380439,B,608.4138999999595,Correct
6,206,450,B,72.19691501623907,43.5986080804081,3.609845750811954,0.6848453342607534,B,838.1762999997591,Correct
6,206,451,B,56.16490202866892,36.71059401977471,2.808245101433446,0.576648662407208,B,617.5410000000738,Correct
6,206,452,A,65.54286589118993,78.00652848926633,3.2771432945594965,1.22532368416961,A,711.0818999999537,Correct
6,206,453,B,62.086972765704616,43.47225089381451,3.1043486382852308,0.6828605202151,B,587.2014999999919,Correct
6,206,454,B,74.01836942659638,63.09383750604724,3.7009184713298193,0.9910756819789308,A,1272.756400000162,Incorrect
6,206,455,B,73.30766371373414,63.515547808959425,3.665383185686707,0.9976998919267912,B,996.0725000000821,Correct
6,206,456,B,42.96993736580105,21.666768487443647,2.1484968682900525,0.34034080353591895,B,602.4791999998342,Correct
6,206,457,B,73.38949295175455,40.55095676345619,3.6694746475877276,0.6369729393205565,B,608.0200999999761,Correct
6,206,458,A,18.347111986689686,48.49257094770606,0.9173555993344843,0.7617195232149759,A,523.2906999999614,Correct
6,206,459,B,75.73532055507037,48.04719795273266,3.7867660277535187,0.7547236205693972,B,625.6658000002062,Correct
6,206,460,A,41.54512271259343,69.48461264754806,2.0772561356296717,1.091461743155347,A,598.6243000002105,Correct
6,206,461,A,56.29937634300754,64.94926486451256,2.814968817150377,1.0202206667720515,A,593.1729999997515,Correct
6,206,462,B,81.52572388549926,66.14352382927433,4.076286194274963,1.0389800427229483,A,536.8881999997939,Incorrect
6,206,463,B,59.44340403939339,28.890752495189638,2.9721702019696696,0.4538148789778438,B,631.2947999999778,Correct
6,206,464,B,69.77702768518411,51.32484674836384,3.4888513842592057,0.8062088074564091,B,861.362900000131,Correct
6,206,465,A,25.804023546614253,38.54010720561334,1.2902011773307125,0.6053865883285896,A,615.0250000000597,Correct
6,206,466,B,57.12486252322385,30.09021770999165,2.8562431261611927,0.47265603451313626,B,634.929700000157,Correct
6,206,467,B,47.46124049635622,38.086185854150344,2.373062024817811,0.5982564084132711,B,615.3185999996822,Correct
6,206,468,B,36.91501445292498,16.122977926379683,1.845750722646249,0.253259145037524,A,467.7785999997468,Incorrect
6,206,469,B,70.65605508148244,39.715270247150436,3.532802754074122,0.6238460062189055,B,506.9208999998409,Correct
6,206,470,A,67.25096573875385,82.4440251453237,3.3625482869376926,1.2950277186446058,A,706.694299999981,Correct
6,206,471,B,35.54680225654444,14.71044329832377,1.7773401128272217,0.23107110298531583,A,2068.3672999998635,Incorrect
6,206,472,A,52.81339563447933,75.66145643537637,2.6406697817239664,1.1884873784864127,B,1147.8089000002,Incorrect
6,206,473,B,81.23423572083381,65.50582956325921,4.06171178604169,1.028963164616201,B,702.3269000001164,Correct
6,206,474,A,37.57913350984259,45.66456412721854,1.8789566754921296,0.7172972959572489,A,802.2175000000971,Correct
6,206,475,A,48.320646258360426,71.36824034307229,2.4160323129180212,1.121049697807133,A,935.497999999825,Correct
6,206,476,A,12.802177354373974,33.324916731729154,0.6401088677186988,0.5234665679294594,A,558.9531999999053,Correct
6,206,477,B,75.34338853491256,50.670055899224224,3.767169426745628,0.7959233768499349,B,614.1217999997934,Correct
6,206,478,B,63.959029663517455,49.3235440763006,3.197951483175873,0.7747724185955918,B,617.4341999999342,Correct
6,206,479,A,43.289239071909634,73.995343234451,2.164461953595482,1.1623161335260324,A,605.0844000001234,Correct
6,206,480,B,68.40893954878197,41.14919383901423,3.4204469774390986,0.6463700253289474,B,942.2076000000743,Correct
6,206,481,A,58.68131508799728,73.46425856270037,2.934065754399864,1.1539738750100026,A,1106.6460000001825,Correct
6,206,482,B,76.31668746882819,61.73042393242169,3.81583437344141,0.9696592316453976,B,1158.5135000000264,Correct
6,206,483,A,49.91483114274368,66.26266585658229,2.495741557137184,1.0408515213115705,A,1397.3820999999589,Correct
6,206,484,B,35.24223537065552,16.77188619020013,1.762111768532776,0.2634521722098842,A,1013.9767000000575,Incorrect
6,206,485,A,24.764819960676654,52.09566667685717,1.2382409980338327,0.8183168185793852,A,737.8527000000759,Correct
6,206,486,B,41.66628915635686,20.84826829313368,2.0833144578178433,0.32748383254888885,B,940.3999999999542,Correct
6,206,487,B,65.49218064652646,55.61807218861051,3.274609032326323,0.8736466349728279,B,868.1355999997322,Correct
6,206,488,A,37.206246477655874,61.90592487816965,1.8603123238827937,0.9724159940546968,B,1963.3309000000736,Incorrect
6,206,489,B,65.3868387044783,43.71753901758383,3.2693419352239146,0.6867134970533325,B,610.2553000000626,Correct
6,206,490,A,49.570077544626876,56.22802512577539,2.478503877231344,0.8832277533049913,B,726.6528999998627,Incorrect
6,206,491,A,47.50607983311588,63.10224849819241,2.3753039916557936,0.9912078015345941,B,1297.1831999998358,Incorrect
6,206,492,A,46.33274265570353,69.9315546570248,2.3166371327851762,1.0984822918231112,A,777.712000000065,Correct
6,206,493,B,73.33677824306247,44.443504190279185,3.666838912153123,0.6981169313198413,B,904.4020999999702,Correct
6,206,494,A,43.14497694554959,69.68643660450448,2.1572488472774793,1.0946319864578107,A,565.3561999997692,Correct
6,206,495,A,41.38052180888431,64.60101995196793,2.0690260904442157,1.0147504484775505,A,496.6899999999441,Correct
6,206,496,B,72.65950756546316,53.004923530794784,3.632975378273158,0.8325993918421682,B,613.6661000000458,Correct
6,206,497,B,66.69001802580357,37.58766941768415,3.3345009012901783,0.5904257305407913,B,651.1905999996088,Correct
6,206,498,B,75.0515163998716,62.621808885159226,3.7525758199935804,0.9836610737406013,B,541.701600000124,Correct
6,206,499,B,52.62708842643291,28.275122217180638,2.6313544213216455,0.4441445811842411,B,547.4951000001056,Correct
6,206,500,B,85.70907231699715,66.71880012354318,4.285453615849858,1.048016461622245,A,1006.2860999996701,Incorrect
6,206,501,A,36.50301568369204,58.48593495429755,1.825150784184602,0.9186949179537585,A,611.8513000001258,Correct
6,206,502,A,57.47897231245251,77.33573047929377,2.8739486156226257,1.2147868136687476,A,977.3457999999664,Correct
6,206,503,B,48.79821517211337,26.941982764678983,2.4399107586056688,0.42320367563329153,B,679.1788000000452,Correct
6,206,504,A,18.39752726086154,34.436953046492334,0.919876363043077,0.5409343935143848,A,750.6253999999899,Correct
6,206,505,B,73.15966340997713,54.389834950877116,3.6579831704988566,0.8543535295581846,B,853.5466000002998,Correct
6,206,506,B,75.83675940648811,53.76441384254428,3.791837970324406,0.8445294377614925,B,795.6727999999202,Correct
6,206,507,B,59.72040230709324,52.42120253104997,2.986020115354662,0.8234303238194463,B,961.7541000002348,Correct
6,206,508,B,65.42739827637513,44.97395874619416,3.2713699138187566,0.7064492919994699,B,771.1530999999923,Correct
6,206,509,B,67.46055315815356,56.202905911496146,3.373027657907678,0.8828331816097733,B,677.9234000000542,Correct
6,206,510,B,55.68488835567835,47.05405442671302,2.784244417783918,0.7391233585428795,B,585.7656999996834,Correct
6,206,511,B,46.078692182380465,33.363227470777844,2.303934609119023,0.5240683516112042,B,505.82170000006954,Correct
6,206,512,A,56.9118862945313,75.62608299647735,2.845594314726565,1.1879317338075261,A,791.3477000001876,Correct
6,206,513,A,35.485777938151216,54.55352201613445,1.7742888969075608,0.8569247199666852,B,804.3379000000641,Incorrect
6,206,514,B,50.29296877215489,22.24973680462426,2.5146484386077446,0.3494980484485701,B,680.483600000116,Correct
6,206,515,A,57.85834166126118,78.18968345268445,2.8929170830630593,1.2282006756073245,A,903.4120000001167,Correct
6,206,516,B,52.97845614769055,23.610294926894664,2.648922807384528,0.3708696454571032,B,574.5743000002221,Correct
6,206,517,B,47.780069641178606,28.129356876558056,2.3890034820589303,0.4418549045680016,B,1114.5069999997759,Correct
6,206,518,B,33.17955377381897,15.451321186458532,1.6589776886909482,0.24270878563817225,A,628.4009000000879,Incorrect
6,206,519,B,64.56170067030263,42.61962868962621,3.228085033515131,0.6694675619502723,B,904.5912000001408,Correct
6,206,520,B,82.32424033146404,66.49022283203017,4.1162120165732015,1.0444259779232716,B,616.6146999999,Correct
6,206,521,B,54.16886513287839,31.06678716384807,2.7084432566439194,0.4879959516229139,B,557.2861999999077,Correct
6,206,522,A,55.41064886878557,78.90786385269901,2.770532443439279,1.239481826950514,A,633.4770000003118,Correct
6,206,523,B,69.77680338280977,60.82740079805863,3.4888401691404884,0.9554745774207147,B,610.5739000004178,Correct
6,206,524,A,21.44899285824527,49.91141663837648,1.0724496429122636,0.7840066992069146,A,511.2707999996928,Correct
6,206,525,A,32.963264027031826,53.78225085245443,1.6481632013515912,0.8448096208579712,A,442.0796999997947,Correct
6,206,526,B,37.356669311595155,22.62798296767592,1.867833465579758,0.35543952528402817,B,800.170199999684,Correct
6,206,527,B,33.5134832121091,21.320111833711863,1.675674160605455,0.33489553355251,B,638.8086000001749,Correct
6,206,528,B,55.67213559561407,41.240924269800956,2.783606779780704,0.6478109235662984,B,1252.622699999847,Correct
6,206,529,B,60.0680841011891,37.53504054345804,3.0034042050594554,0.589599038117614,B,725.9955000004084,Correct
6,206,530,B,81.0670329151678,60.63341634004936,4.05335164575839,0.9524274766797519,B,514.9873999998817,Correct
6,206,531,A,45.098319602617494,76.23566330285199,2.2549159801308747,1.197506998868924,A,550.0190999996448,Correct
6,206,532,A,54.50451751506412,64.11710037244859,2.725225875753206,1.0071490574978195,A,598.8631999998688,Correct
6,206,533,A,51.63465596862282,73.68457220653507,2.5817327984311413,1.157434553634786,A,1089.9196000000302,Correct
6,206,534,B,85.30523915661817,56.997889872637224,4.265261957830909,0.895320760469986,B,557.8338000000258,Correct
6,206,535,A,58.877133310901044,70.25322864996956,2.943856665545052,1.1035351350885416,B,597.8506999999809,Incorrect
6,206,536,A,42.569585342550496,63.34604332898316,2.128479267127525,0.9950373217815711,A,567.5206000000799,Correct
6,206,537,A,30.163922942366394,42.9875365950053,1.5081961471183198,0.6752466458139553,A,607.5517000003856,Correct
6,206,538,A,43.57012421503856,63.02003937866301,2.178506210751928,0.9899164637047358,A,1326.4454000000114,Correct
6,206,539,A,18.891689336466605,35.6400429883205,0.9445844668233303,0.5598324861286604,A,541.6399999999157,Correct
6,206,540,B,47.208124888838405,22.07910348259396,2.3604062444419203,0.34681774649383,B,1437.670799999978,Correct
6,206,541,B,78.80601542094544,66.21002904982736,3.940300771047272,1.0400247042845219,B,862.5028000001294,Correct
6,206,542,A,61.87423999875642,76.09693133949972,3.0937119999378213,1.195327802284496,A,1283.208100000138,Correct
6,206,543,A,29.87323410094829,50.25665667712801,1.4936617050474146,0.7894297170542487,A,867.7661000001535,Correct
6,206,544,A,54.287148767944174,73.03254874236005,2.714357438397209,1.1471925930096842,B,486.2927999997737,Incorrect
6,206,545,B,74.92803688091857,44.812408368976726,3.7464018440459284,0.7039116646082152,B,521.3365999998132,Correct
6,206,546,B,88.02387667464434,65.83751355530154,4.401193833732217,1.0341732445797687,B,615.4287999997905,Correct
6,206,547,A,54.091571707961286,78.48807887314122,2.704578585398064,1.2328878599111834,A,628.9735000000292,Correct
6,206,548,A,62.77582294351207,82.9860805027904,3.1387911471756036,1.3035423042888874,A,1025.6995999998253,Correct
6,206,549,A,52.00928240156079,78.11635380799578,2.6004641200780396,1.2270488162421032,A,589.5324999996774,Correct
