subject,day,trial,cat,x,y,xt,yt,resp,rt,fb
9,409,0,A,38.59817532848361,67.95814197787804,1.9299087664241807,1.067483997946569,A,623.9900000000489,Correct
9,409,1,B,70.94981650440003,52.517175884709786,3.5474908252200015,0.8249378697334366,B,367.4812000008387,Correct
9,409,2,B,51.944989986229366,22.07348893313126,2.5972494993114683,0.3467295533571038,B,419.9067000008654,Correct
9,409,3,A,18.31230140402383,37.925169297039545,0.9156150702011915,0.595727166248643,A,375.4962000002706,Correct
9,409,4,A,53.04559489146938,68.65579731386929,2.6522797445734687,1.078442742338008,A,1275.6630999992922,Correct
9,409,5,A,36.83474211029074,44.66658736102085,1.8417371055145368,0.7016211135715491,B,1370.3120999998646,Incorrect
9,409,6,B,77.3011287379864,54.8539054527499,3.8650564368993203,0.8616431319553409,B,388.24510000085866,Correct
9,409,7,B,85.59566274239793,56.86949844947924,4.279783137119897,0.8933039927111005,B,401.2443000010535,Correct
9,409,8,A,49.55986785769794,80.40946968886335,2.477993392884897,1.2630689962679214,A,339.72520000133954,Correct
9,409,9,A,29.45695545578038,49.447429118629415,1.4728477727890192,0.776718400289941,A,423.90469999918423,Correct
9,409,10,A,32.68570759310734,58.03348081672785,1.634285379655367,0.911587784980382,A,375.0927999990381,Correct
9,409,11,A,28.57350558821999,49.10992491603976,1.4286752794109996,0.7714168966728843,A,342.8119999989576,Correct
9,409,12,B,66.79343007247283,53.65470077443773,3.339671503623641,0.8428060689176607,B,354.9540000003617,Correct
9,409,13,B,44.32399413049271,30.059390207732953,2.2161997065246353,0.4721717972400141,B,417.34030000043276,Correct
9,409,14,A,46.42617958619298,61.90491676218822,2.321308979309649,0.9724001586058907,A,399.4194000006246,Correct
9,409,15,A,31.173834437430926,50.87739291333029,1.5586917218715461,0.7991802190515991,A,376.8254999995406,Correct
9,409,16,B,79.02999113029534,50.30932111419546,3.9514995565147673,0.7902569680972319,B,343.18879999955243,Correct
9,409,17,B,70.81590932979455,57.766673215634476,3.5407954664897274,0.9073967809827976,B,842.5021000002744,Correct
9,409,18,B,42.56748970580509,23.015473344093227,2.128374485290254,0.36152620988347495,B,536.0343000011198,Correct
9,409,19,B,60.16630989575221,51.504794461995296,3.00831549478761,0.8090354195322833,B,370.7730999994965,Correct
9,409,20,A,59.73308457856477,83.20168696622616,2.9866542289282387,1.3069290426968687,A,357.3075999993307,Correct
9,409,21,B,44.54431155817557,17.930309928646498,2.2272155779087783,0.2816486497421199,B,335.51880000050005,Correct
9,409,22,B,44.533509733991686,21.07008186184476,2.2266754866995844,0.3309680719385352,B,336.09729999989213,Correct
9,409,23,B,36.7528801684066,27.17161025547096,1.8376440084203298,0.4268106558239632,B,341.3428000003478,Correct
9,409,24,A,39.09997397482275,46.39941764041309,1.9549986987411376,0.728840347949832,A,435.4446999986976,Correct
9,409,25,A,29.995964545095454,50.0870634820071,1.4997982272547727,0.7867657533747956,A,384.70419999976,Correct
9,409,26,A,68.40359382402893,84.65157734153686,3.4201796912014464,1.329703867454802,B,338.92050000031304,Incorrect
9,409,27,A,63.902198558013396,76.9109355507436,3.19510992790067,1.2081141505346706,A,562.6765000015439,Correct
9,409,28,B,52.65100699525837,35.51570903336196,2.632550349762919,0.5578794529312129,B,433.2841000014014,Correct
9,409,29,A,34.24674305214642,63.10525856284346,1.7123371526073212,0.991255083519567,A,340.92190000046685,Correct
9,409,30,B,66.91773896942696,42.77529980663643,3.3458869484713483,0.6719128381381496,B,405.205200000637,Correct
9,409,31,B,67.60719743005009,36.170734220438916,3.3803598715025043,0.5681685645093992,B,424.2521000014676,Correct
9,409,32,A,24.662689740533672,55.91346030653576,1.2331344870266836,0.8782865806789862,A,312.84190000042145,Correct
9,409,33,A,33.047557274796844,52.21331231239833,1.6523778637398423,0.8201647919011005,A,335.7398000007379,Correct
9,409,34,A,42.8694111161052,74.88037716085928,2.14347055580526,1.1762182139329422,A,325.2959999990708,Correct
9,409,35,B,60.007328471838896,33.399604738796825,3.000366423591945,0.5246397644010348,B,339.62979999887466,Correct
9,409,36,A,64.26663332960194,85.02913234707412,3.2133316664800975,1.3356344876134116,A,357.03169999942475,Correct
9,409,37,A,14.121460656538972,33.71954676631703,0.7060730328269486,0.5296654020171953,A,436.1905999994633,Correct
9,409,38,B,63.262747026969414,34.0899300244949,3.163137351348471,0.5354833686317164,B,433.7241000012,Correct
9,409,39,B,53.68387941185526,27.93157548164475,2.684193970592763,0.4387481616816196,B,358.96560000037425,Correct
9,409,40,A,51.04997579210102,58.96126297545438,2.552498789605051,0.9261613530503168,A,368.08879999989585,Correct
9,409,41,B,76.25280702591955,47.44261201081679,3.8126403512959772,0.7452268068014645,B,390.5053999988013,Correct
9,409,42,A,56.618908902604616,71.32461749498282,2.830945445130231,1.1203644717117,A,364.00870000034047,Correct
9,409,43,B,82.1560705376225,57.787199681114295,4.107803526881125,0.9077192099485755,B,384.1510999991442,Correct
9,409,44,A,40.310111652150425,49.603043134131084,2.0155055826075214,0.7791627795294193,A,371.24470000162546,Correct
9,409,45,A,61.97527033991277,82.12266834519988,3.0987635169956382,1.289979857832355,A,393.30189999964205,Correct
9,409,46,B,43.74236808934284,14.47003494201936,2.187118404467142,0.22729477735517814,B,401.05380000022706,Correct
9,409,47,B,52.27620230644658,20.461623529049305,2.613810115322329,0.3214104307969068,B,349.4700000010198,Correct
9,409,48,A,23.19348221854646,42.95573466128825,1.159674110927323,0.674747102207278,A,467.5831000004109,Correct
9,409,49,B,68.13262896451884,54.2778866991334,3.4066314482259425,0.852595050531883,B,1047.4697000008746,Correct
9,409,50,A,59.313872182623825,70.67137232921131,2.965693609131191,1.1101033206427962,A,497.67979999887757,Correct
9,409,51,A,45.89236632516263,57.14043112920552,2.2946183162581315,0.8975597932923278,A,360.8405999984825,Correct
9,409,52,B,67.65557520941393,47.36264963410538,3.3827787604706963,0.7439707607252638,B,949.0057999992132,Correct
9,409,53,A,38.819492733040136,68.38845702459332,1.9409746366520069,1.0742433708940182,A,336.89400000002934,Correct
9,409,54,A,58.98772277893128,67.46556604614804,2.9493861389465637,1.0597466333042784,A,352.38270000081684,Correct
9,409,55,B,72.96105493047224,55.07112435634311,3.648052746523612,0.8650551985140873,B,2166.71099999985,Correct
9,409,56,A,67.820052742742,82.30187964564054,3.3910026371371003,1.2927949023568783,A,356.27629999908095,Correct
9,409,57,B,76.9099275890095,51.09956229125345,3.845496379450475,0.8026700474792793,B,407.860499999515,Correct
9,409,58,A,64.48402285151765,88.24581622064699,3.2242011425758825,1.386162039744098,A,336.71440000034636,Correct
9,409,59,A,38.9571291828803,57.45447081595012,1.947856459144015,0.9024927171563902,A,368.49139999867475,Correct
9,409,60,A,24.79287480557808,44.38520628666629,1.239643740278904,0.6972011899912915,A,399.3324000002758,Correct
9,409,61,B,40.41627745440755,26.603490144288724,2.0208138727203773,0.41788664598572955,B,414.2547999999806,Correct
9,409,62,A,38.34465143158147,63.704448905987284,1.9172325715790735,1.00066714342018,A,377.85489999987476,Correct
9,409,63,A,14.910140210460348,32.34537440981188,0.7455070105230175,0.5080799531173815,A,400.4889000007097,Correct
9,409,64,A,59.97633648630038,84.00012358470508,2.9988168243150195,1.3194708557717207,A,425.8945000001404,Correct
9,409,65,B,78.6268448075293,49.19986976996526,3.931342240376465,0.772829747134487,B,410.19239999877755,Correct
9,409,66,A,57.544075868799894,72.09197095294509,2.8772037934399948,1.132418031642905,A,337.3980999986088,Correct
9,409,67,A,38.41448793991925,45.52221152169753,1.9207243969959622,0.715061226458628,A,367.76520000057644,Correct
9,409,68,B,55.21451724293814,31.60412208161509,2.760725862146907,0.49643638877378465,B,370.22869999964314,Correct
9,409,69,B,40.04609250392059,29.82232533407051,2.0023046251960297,0.46844799091240347,B,393.46109999860346,Correct
9,409,70,B,33.01551361392298,12.324256193965287,1.6507756806961487,0.1935889635995992,B,471.7856999996002,Correct
9,409,71,B,46.9763797481816,28.161070804813534,2.3488189874090803,0.44235306578812095,B,402.56010000121023,Correct
9,409,72,B,78.01217458829262,63.869638605157,3.900608729414631,1.0032619371469815,B,564.5525999989331,Correct
9,409,73,A,44.90290388363947,64.3709296320929,2.245145194181973,1.011136198184643,A,458.8909000012791,Correct
9,409,74,B,71.42979510319589,39.548681260550936,3.5714897551597944,0.6212292325365556,B,332.5546000014583,Correct
9,409,75,B,42.56021113703598,34.87081131141096,2.128010556851799,0.5477494232032226,B,400.73600000141596,Correct
9,409,76,A,24.29631858607015,53.49091477019076,1.2148159293035077,0.8402333243791452,A,317.132500000298,Correct
9,409,77,A,48.0881900562046,71.98953083354748,2.40440950281023,1.1308089060102433,A,340.5858000005537,Correct
9,409,78,B,64.30065918409701,54.270743764821226,3.2150329592048505,0.8524828495820821,B,343.65230000003066,Correct
9,409,79,A,29.868729785304332,43.685260734068066,1.4934364892652168,0.6862064709615144,A,340.0889999993524,Correct
9,409,80,A,38.236739782221775,53.018543576301354,1.9118369891110887,0.8328133350166933,A,329.05680000112625,Correct
9,409,81,A,46.93221161841666,55.438900821305914,2.346610580920833,0.870832217716539,A,355.8216999990691,Correct
9,409,82,B,77.98912121242198,60.019605682836556,3.899456060621099,0.9427857614227776,B,388.6650999993435,Correct
9,409,83,B,88.20349524239717,61.98462249616055,4.410174762119858,0.9736521733473731,B,397.52340000086406,Correct
9,409,84,A,37.525408407502795,55.323744872731496,1.8762704203751397,0.8690233523062463,A,362.4878999999055,Correct
9,409,85,B,44.26940319681578,27.013196818923113,2.213470159840789,0.4243223033815201,B,542.086699999345,Correct
9,409,86,B,41.346546638908436,22.731220516473524,2.0673273319454215,0.35706117690841405,B,410.7932000006258,Correct
9,409,87,B,32.14343283783164,13.840523774484943,1.607171641891582,0.21740643905878387,B,429.8693999990064,Correct
9,409,88,B,51.72989049695512,28.896469758246397,2.5864945248477564,0.4539046855359326,B,461.045699999886,Correct
9,409,89,B,59.47153480630671,33.547717358814495,2.9735767403153353,0.5269663119957919,B,342.985299999782,Correct
9,409,90,A,24.613160873724496,50.55122154691878,1.230658043686225,0.7940567312089507,A,393.75699999982317,Correct
9,409,91,A,52.28060947357789,80.00069573312315,2.6140304736788944,1.25664798998626,A,416.69589999946766,Correct
9,409,92,B,86.74352311730246,63.015044880275,4.337176155865123,0.9898380103075152,B,380.28080000003683,Correct
9,409,93,A,35.02544193396649,46.16983659879303,1.7512720966983244,0.7252340973810468,A,334.2721999997593,Correct
9,409,94,B,56.60583095904891,29.19066475851039,2.8302915479524455,0.4585258897936936,B,334.7512000000279,Correct
9,409,95,A,34.26768687933522,43.522505405368754,1.7133843439667613,0.6836499162366426,A,374.27170000046317,Correct
9,409,96,A,27.720221349185618,42.28027351823509,1.386011067459281,0.6641369833832722,A,380.35320000017236,Correct
9,409,97,B,66.84425056587833,53.93610857097431,3.342212528293916,0.8472264122489719,B,414.2604999997275,Correct
9,409,98,B,84.78493877296486,63.407016762475266,4.239246938648243,0.9959950902351858,B,369.637399999192,Correct
9,409,99,B,89.14243528296963,64.965483041166,4.457121764148481,1.0204754212951967,B,423.15009999947506,Correct
9,409,100,B,40.901638004936075,16.984149740533823,2.045081900246804,0.26678640026165024,B,422.3456999989139,Correct
9,409,101,B,53.832195255238894,43.62755038421911,2.6916097627619444,0.6852999589059066,B,426.21299999882467,Correct
9,409,102,A,38.017128451703066,57.76392336542493,1.9008564225851532,0.9073535864367138,A,413.54060000048776,Correct
9,409,103,B,58.60466571621773,34.50467657432908,2.930233285810887,0.5419981922020204,B,343.23140000014973,Correct
9,409,104,B,42.029115021884536,16.93306130835715,2.101455751094227,0.265983905045602,B,374.9564999998256,Correct
9,409,105,B,31.855332655395756,18.63572377951212,1.5927666327697878,0.2927292646002194,B,362.5567000017327,Correct
9,409,106,B,40.594108272778655,20.90561152754857,2.0297054136389328,0.3283845779687434,B,399.792799998977,Correct
9,409,107,B,65.11515920781908,44.72721464785455,3.255757960390954,0.7025734447661682,B,482.3054999997112,Correct
9,409,108,B,34.5600465575326,14.609197316579571,1.7280023278766299,0.2294807348230505,B,475.71029999926395,Correct
9,409,109,A,41.66931800479305,58.86447092215344,2.0834659002396525,0.9246409470324362,A,375.3253000013501,Correct
9,409,110,A,46.149634255571726,71.6989209454183,2.3074817127785865,1.1262440165622074,A,331.4712999999756,Correct
9,409,111,B,53.061635513220985,30.92209586627579,2.653081775661049,0.4857231460354567,B,408.9555999998993,Correct
9,409,112,A,57.347485504517735,84.10385024203455,2.867374275225887,1.3211001902949597,A,331.2040999990131,Correct
9,409,113,A,17.610174962485775,32.64397371519519,0.8805087481242887,0.5127703400381775,A,526.0056999995868,Correct
9,409,114,A,59.82467441204629,78.24764497938948,2.991233720602315,1.2291111331397613,A,360.21249999976135,Correct
9,409,115,A,22.65991751177843,50.21296441015448,1.1329958755889216,0.7887434005295352,A,371.5308000009827,Correct
9,409,116,A,54.52638429822603,77.07040273025895,2.7263192149113014,1.2106190551329412,A,356.937000000471,Correct
9,409,117,B,46.0196152804742,28.855795937052278,2.30098076402371,0.4532657826466482,B,359.15879999993194,Correct
9,409,118,B,86.91117416277291,59.188529035882894,4.345558708138645,0.9297312399795794,B,613.2502000000386,Correct
9,409,119,B,62.41146236309311,35.65610882964941,3.120573118154655,0.5600848477741238,B,399.21099999992293,Correct
9,409,120,A,55.92754707459112,73.77980978116253,2.796377353729556,1.1589305419587628,A,357.86189999998896,Correct
9,409,121,A,16.881621091490896,38.42783295775021,0.8440810545745449,0.603622988567219,A,387.3349999994389,Correct
9,409,122,B,67.54537550916962,34.36198120893263,3.377268775458481,0.5397567386438664,B,393.16970000072615,Correct
9,409,123,A,25.241773108760285,36.31384160502985,1.2620886554380142,0.5704164900499259,A,364.5071999999345,Correct
9,409,124,B,56.3081100878115,42.498931500355305,2.815405504390575,0.6675716549346603,B,907.6657000005071,Correct
9,409,125,B,44.08174066731233,29.369102670206885,2.2040870333656164,0.46132878595623167,B,447.29820000065956,Correct
9,409,126,B,37.241220334355454,21.438313635620837,1.8620610167177727,0.33675224311510155,B,400.69840000069235,Correct
9,409,127,A,26.339451882863372,38.1694335637026,1.3169725941431687,0.5995640603770588,A,376.70839999918826,Correct
9,409,128,B,45.54159562315773,25.079730206240285,2.2770797811578865,0.3939514808496925,B,416.4277999989281,Correct
9,409,129,A,35.07909838382179,67.04213331832368,1.7539549191910893,1.0530953675691659,A,349.97930000099586,Correct
9,409,130,A,46.88186570124232,68.24692369654484,2.3440932850621157,1.0720201705758423,A,406.25400000135414,Correct
9,409,131,B,49.34348162686406,29.47282113997141,2.467174081343203,0.4629579918695006,B,396.0618000000977,Correct
9,409,132,A,31.523713403944853,62.77751657373354,1.5761856701972425,0.9861069243932639,A,352.22280000016326,Correct
9,409,133,B,49.156748189815424,40.559620207632406,2.457837409490771,0.6371090243834505,B,407.1518999990076,Correct
9,409,134,B,57.75429158616684,25.19191386722558,2.8877145793083425,0.3957136576757136,B,439.4503999992594,Correct
9,409,135,A,60.264195358443374,80.07601445394464,3.0132097679221688,1.2578310936863126,A,328.5538000000088,Correct
9,409,136,A,17.92050594255887,31.81064754079003,0.8960252971279433,0.49968048310040086,A,350.6474000005255,Correct
9,409,137,A,14.240595255558937,35.403239229170126,0.7120297627779467,0.5561127813782142,A,333.86029999928724,Correct
9,409,138,A,44.43318873027156,61.958717047417046,2.221659436513578,0.9732452515100706,A,335.74679999946966,Correct
9,409,139,B,52.33237705778906,33.634122650152015,2.616618852889453,0.5283235631382782,B,454.10090000041237,Correct
9,409,140,B,74.11670229182545,56.66241266982591,3.7058351145912725,0.8900510968909915,B,933.8730999988911,Correct
9,409,141,A,21.00036799720729,42.847669221663814,1.0500183998603645,0.6730496142511225,A,457.50220000081754,Correct
9,409,142,A,47.48210999655228,76.9792546122251,2.374105499827614,1.2091873038429228,A,421.91210000055435,Correct
9,409,143,B,39.176919264601345,19.4191429657034,1.9588459632300672,0.3050351844003185,B,363.4535999990476,Correct
9,409,144,B,48.597352059176,20.253532039728665,2.4298676029588,0.31814173732628537,B,379.7452000017074,Correct
9,409,145,B,54.96122435732607,25.98803043539708,2.7480612178663035,0.4082190274855571,B,405.36750000137545,Correct
9,409,146,A,25.030299926812138,49.36749355386406,1.251514996340607,0.7754627753748039,A,360.74770000050194,Correct
9,409,147,B,56.48248831773876,33.44957624741944,2.824124415886938,0.5254247150229228,B,382.26399999985006,Correct
9,409,148,A,51.411507887331396,71.8741539985721,2.5705753943665695,1.128996570924478,A,423.3765000008134,Correct
9,409,149,A,50.89542405629756,76.22801235567923,2.5447712028148777,1.1973868180717693,A,349.7311000010086,Correct
9,409,150,B,31.909391150182167,14.254966927705631,1.5954695575091082,0.22391649688622736,B,357.46610000023793,Correct
9,409,151,B,86.43430342860468,62.85259359101691,4.321715171430234,0.9872862314230182,B,468.1160000000091,Correct
9,409,152,A,24.131757057834378,43.919187012388505,1.2065878528917189,0.6898809763487799,A,368.248599999788,Correct
9,409,153,B,62.083871857572,47.35940373833306,3.1041935928786,0.7439197743137006,B,632.8606999995827,Correct
9,409,154,B,60.51118914004008,44.11233128153033,3.025559457002004,0.6929148794338745,B,365.55199999929755,Correct
9,409,155,B,67.86054308253273,57.51061252589814,3.3930271541266364,0.9033745890740537,B,388.15770000110206,Correct
9,409,156,A,15.212806118244966,40.956225069228026,0.7606403059122484,0.6433388789812843,A,346.5142000004562,Correct
9,409,157,B,42.19179427924098,19.174074396964087,2.109589713962049,0.3011856563244326,B,375.22700000045006,Correct
9,409,158,A,22.58761738821853,47.42132550113987,1.1293808694109264,0.7448924390893567,A,339.1025000000809,Correct
9,409,159,A,50.324244314667695,64.02194889594523,2.5162122157333844,1.0056544216000134,A,486.9597999986581,Correct
9,409,160,A,25.492553417314458,37.30575929807125,1.274627670865723,0.5859974967370488,A,419.9920999999449,Correct
9,409,161,B,49.248065172520526,37.33071590405768,2.462403258626026,0.5863895141871764,B,462.20790000006673,Correct
9,409,162,A,39.43015060768814,59.29807353268052,1.9715075303844072,0.9314519609114823,A,381.08529999954044,Correct
9,409,163,B,61.960950754225046,35.48154602233666,3.098047537711252,0.5573428216089049,B,336.7029000000912,Correct
9,409,164,A,11.572376028597407,34.086688408302976,0.5786188014298703,0.5354324494436449,A,346.94350000063423,Correct
9,409,165,A,38.70821522825433,51.509302306334604,1.9354107614127167,0.809106228585583,A,356.63369999929273,Correct
9,409,166,A,26.10675043104205,48.84265679814123,1.3053375215521026,0.7672186588942403,A,364.6017999999458,Correct
9,409,167,B,46.5866700032515,19.937282706955035,2.329333500162575,0.3131741044235638,B,358.02289999992354,Correct
9,409,168,B,42.3534061480782,21.222467046789397,2.11767030740391,0.3333617328262252,B,351.68119999980263,Correct
9,409,169,B,68.78397777295497,52.022581606237864,3.4391988886477485,0.8171688009746619,B,842.7410000003874,Correct
9,409,170,B,47.757642902077365,28.074500710122003,2.387882145103868,0.4409932259206035,B,501.77870000152325,Correct
9,409,171,B,74.2522005898763,59.20342180068725,3.7126100294938147,0.9299651749820844,B,383.45119999939925,Correct
9,409,172,A,31.898828132725185,44.64687590973195,1.5949414066362593,0.7013114868187451,A,326.3545999998314,Correct
9,409,173,A,41.31377478373938,71.8094897169156,2.065688739186969,1.1279808267634692,A,366.66300000069896,Correct
9,409,174,B,78.30763207428672,56.6365709561991,3.915381603714336,0.8896451762025608,B,381.0161000001244,Correct
9,409,175,A,39.56926384835199,63.4654007376031,1.9784631924175995,0.9969121835719307,A,351.78239999913785,Correct
9,409,176,B,80.34539921802731,58.69807377618409,4.017269960901365,0.9220271867756581,B,368.378400000438,Correct
9,409,177,A,10.606283495133049,32.666598820136315,0.5303141747566524,0.5131257343555262,A,354.30900000028487,Correct
9,409,178,A,43.663633133369956,72.70883566588327,2.1831816566684976,1.142107719895032,A,349.0940000010596,Correct
9,409,179,A,46.204161891327104,56.87692178590309,2.310208094566355,0.8934205982069721,A,408.0814000008104,Correct
9,409,180,B,39.036552049121596,23.313604529691276,1.95182760245608,0.3662092435958792,B,363.4593999995559,Correct
9,409,181,B,37.49914543786446,26.94134109942553,1.874957271893223,0.42319359637906,B,449.2738000008103,Correct
9,409,182,A,36.25154442607326,45.574898746278635,1.8125772213036628,0.7158888354470381,A,410.14279999944847,Correct
9,409,183,B,69.7844761720034,39.67147938240181,3.48922380860017,0.6231581409239624,B,387.2117999999318,Correct
9,409,184,A,63.99058179422997,80.30276560668382,3.1995290897114983,1.261392892464505,A,366.8481000004249,Correct
9,409,185,B,84.89544307449222,64.63829482123968,4.244772153724611,1.0153359607548889,B,429.4694999989588,Correct
9,409,186,B,73.44604462837981,46.944661934884394,3.6723022314189904,0.7374050252994462,B,355.8271000001696,Correct
9,409,187,A,26.824673029453205,56.551223754872176,1.3412336514726602,0.8883045454990951,A,323.05879999876197,Correct
9,409,188,B,70.12239200718754,50.669232224211235,3.5061196003593773,0.7959104385930862,B,339.89240000119025,Correct
9,409,189,A,62.44484294457631,77.32326218193822,3.1222421472288153,1.214590962111873,A,362.482500000624,Correct
9,409,190,A,30.769430208916518,42.42407204539837,1.5384715104458258,0.666395765365938,A,469.8266999985208,Correct
9,409,191,A,15.626967648760193,44.109498673519454,0.7813483824380097,0.6928703849312873,A,396.20130000002973,Correct
9,409,192,A,17.792219242016806,33.290694067945026,0.8896109621008403,0.522928999583807,A,354.79189999932714,Correct
9,409,193,A,48.46025619227968,60.53412196084723,2.423012809613984,0.950867764218531,A,492.20299999979034,Correct
9,409,194,B,65.55943265015092,46.663779614833835,3.2779716325075463,0.7329929361334757,B,383.5481999994954,Correct
9,409,195,B,77.85022019712244,64.30010550348354,3.892511009856122,1.0100236953739627,B,507.68520000019635,Correct
9,409,196,A,41.307088487663805,55.02180842368312,2.06535442438319,0.8642805456553394,A,681.7870999984734,Correct
9,409,197,A,48.79879203414086,65.60929276965322,2.439939601707043,1.0305883608618225,A,373.361300000397,Correct
9,409,198,A,19.810186991970504,51.20784337622652,0.9905093495985252,0.8043709227846499,A,417.5352999991446,Correct
9,409,199,B,84.7606448156715,63.264714599172734,4.238032240783575,0.99375981308108,B,428.31630000000587,Correct
9,409,200,A,67.44175203444017,89.94362138610302,3.3720876017220087,1.4128311009192152,A,432.72799999976996,Correct
9,409,201,B,38.70702063618083,21.084739914320902,1.9353510318090414,0.33119832008841016,B,385.26869999986957,Correct
9,409,202,B,57.65606245073764,44.90979783893472,2.8828031225368824,0.7054414548250004,B,364.8898999999801,Correct
9,409,203,A,61.883518985191586,87.75408419908834,3.0941759492595793,1.3784379312117803,A,359.4152999994549,Correct
9,409,204,B,65.56838647186785,42.938182251162125,3.2784193235933925,0.6744713895937529,B,333.4735999997065,Correct
9,409,205,B,84.31015866496001,58.49571017482201,4.215507933248,0.9188484667586926,B,376.81960000008985,Correct
9,409,206,B,73.176404873484,47.32100336435783,3.6588202436742,0.7433165826498223,B,350.347800000236,Correct
9,409,207,B,69.22192601702668,57.878112245493064,3.461096300851334,0.9091472611704323,B,413.0008000011003,Correct
9,409,208,B,57.41481698466215,43.32601445155359,2.8707408492331075,0.6805634435516299,B,411.8904000006296,Correct
9,409,209,A,25.87570530155928,44.90957616851108,1.2937852650779638,0.7054379728341283,A,357.8546999997343,Correct
9,409,210,B,41.66588922250571,32.70029369728911,2.0832944611252855,0.5136550122481603,B,402.2755000005418,Correct
9,409,211,A,45.507424382361926,56.33107558050788,2.2753712191180964,0.8848464660626748,A,381.32240000049933,Correct
9,409,212,A,45.57062135641603,62.1086012594711,2.2785310678208015,0.9755996272074609,A,426.60270000124,Correct
9,409,213,A,25.939284483082467,42.55460616849494,1.2969642241541235,0.668446190576753,A,355.1426000012725,Correct
9,409,214,B,33.834137008279505,14.064138768168057,1.6917068504139752,0.2209189751657209,B,367.0182999994722,Correct
9,409,215,B,52.07108293256318,44.224038087512156,2.6035541466281593,0.694669565839017,A,506.6160000005766,Incorrect
9,409,216,A,28.525003118797507,51.71071637906052,1.4262501559398755,0.8122700334416096,A,389.9909000010666,Correct
9,409,217,B,49.925621383197395,21.223635915873864,2.4962810691598696,0.33338009337886904,B,356.5657999988616,Correct
9,409,218,B,71.26826692884273,59.22426043643212,3.563413346442137,0.9302925075069189,B,509.40259999879345,Correct
9,409,219,B,49.41250631061556,27.197058386783574,2.470625315530778,0.4272103941358598,B,402.9413999996905,Correct
9,409,220,A,25.964762668442567,58.39039046623934,1.2982381334221285,0.9171941086448849,A,370.9720999995625,Correct
9,409,221,B,74.38528231865624,59.53235582520677,3.7192641159328117,0.9351320585568156,B,345.34139999959734,Correct
9,409,222,B,48.69320047809394,35.72032665008895,2.4346600239046974,0.5610935789387357,B,384.7932000007859,Correct
9,409,223,A,29.401829318208414,46.01331530852854,1.4700914659104205,0.7227754667029201,A,364.6621000007144,Correct
9,409,224,A,41.15612929606462,62.11255745490105,2.057806464803231,0.9756617709799553,A,305.39820000012696,Correct
9,409,225,B,57.75965476634372,45.076474439073486,2.887982738317186,0.7080596047376067,B,630.0802000005206,Correct
9,409,226,B,58.02488407269547,28.174842821963487,2.9012442036347736,0.442569396127638,B,980.7328000006237,Correct
9,409,227,A,26.702192194312822,55.133201293241186,1.3351096097156412,0.8660303007586689,A,422.1325999988039,Correct
9,409,228,A,46.32036767042195,68.38649624046812,2.3160183835210977,1.0742125709690031,A,579.3919999996433,Correct
9,409,229,B,88.17818539720561,65.87212834023089,4.40890926986028,1.0347169723499667,B,407.8105999997206,Correct
9,409,230,B,37.53818142247946,13.618766791222917,1.8769090711239729,0.2139230885112928,B,418.88549999930547,Correct
9,409,231,A,17.978298737570437,38.07975121714267,0.8989149368785219,0.598155333371512,A,396.00119999886374,Correct
9,409,232,B,32.81038972346505,14.324022576544227,1.6405194861732526,0.2250012204816284,B,335.8408000003692,Correct
9,409,233,B,53.37540247554488,35.92140789407068,2.668770123777244,0.5642521557330743,B,490.0744999995368,Correct
9,409,234,A,24.943417715366742,41.424589621694025,1.247170885768337,0.6506959321674297,A,409.02880000066943,Correct
9,409,235,A,11.637613665411866,31.07547663661453,0.5818806832705933,0.4881324455419473,A,422.5249999999505,Correct
9,409,236,B,49.505870471026356,31.68312883921707,2.4752935235513176,0.4976774240201162,B,428.92030000075465,Correct
9,409,237,B,68.10988992084677,57.423716105391264,3.4054944960423383,0.9020096232926155,B,561.605500000951,Correct
9,409,238,B,31.986875983222816,15.393537136443896,1.599343799161141,0.24180111590306905,B,358.5935999999492,Correct
9,409,239,B,35.66313099583748,16.895984237245127,1.783156549791874,0.2654014997744912,B,388.1204000008438,Correct
9,409,240,A,13.584605459412405,37.27190409170636,0.6792302729706202,0.5854657003990403,A,374.6179999998276,Correct
9,409,241,B,64.61649862993961,47.29819446979235,3.2308249314969806,0.7429583013718051,B,332.7236000004632,Correct
9,409,242,A,44.09591889403773,66.99823390534964,2.204795944701887,1.052405797202685,A,444.44470000053116,Correct
9,409,243,A,41.20384758508874,51.03296027144391,2.060192379254437,0.8016238653985397,A,577.9668999985006,Correct
9,409,244,B,57.39111366452707,40.42362357552091,2.869555683226354,0.6349727942816783,B,409.69459999905666,Correct
9,409,245,A,20.955382743591628,40.13020258295106,1.0477691371795814,0.630363748108346,A,370.0155000005907,Correct
9,409,246,B,40.44768113459366,26.131811788821437,2.022384056729683,0.41047753970376283,B,362.0050999998057,Correct
9,409,247,A,24.22284838067027,44.21830875880923,1.2111424190335136,0.6945795697542014,A,353.20710000087274,Correct
9,409,248,B,73.81624975150014,46.25167870510438,3.6908124875750072,0.7265196701807569,B,344.94120000090334,Correct
9,409,249,B,46.28992653412372,21.063338407830965,2.3144963267061858,0.33086214601058744,B,385.23820000045816,Correct
9,409,250,A,64.55212692064399,78.75152917420367,3.2276063460321995,1.2370261275632026,A,360.4168000001664,Correct
9,409,251,A,29.97598702221976,41.45860580983606,1.498799351110988,0.6512302572012805,A,1438.2163000009314,Correct
9,409,252,A,42.83595390352417,61.011870547720655,2.1417976951762085,0.9583722214724535,A,383.92100000055507,Correct
9,409,253,A,48.009263534707394,74.2266813376467,2.4004631767353697,1.1659499839535072,A,384.4719000007899,Correct
9,409,254,B,31.381516281647958,17.913863285107336,1.569075814082398,0.28139030646952556,B,329.6223999986978,Correct
9,409,255,A,38.76302184742573,47.88461036586278,1.9381510923712866,0.7521697007270207,A,364.3709999996645,Correct
9,409,256,A,57.1699635229268,76.61400331493996,2.8584981761463397,1.2034499498815971,A,358.32529999970575,Correct
9,409,257,A,40.49562477044831,65.11494333485295,2.0247812385224155,1.0228231380984485,A,369.3660999997519,Correct
9,409,258,B,47.78662658588102,30.630232910794454,2.3893313292940506,0.48113857345148076,B,327.7467000007164,Correct
9,409,259,A,14.826503019108248,31.810053985172328,0.7413251509554124,0.4996711595505606,A,454.6128999991197,Correct
9,409,260,A,38.655596113310025,66.33459198288064,1.9327798056655012,1.041981334261471,A,369.1219000011188,Correct
9,409,261,A,21.035040200664056,45.803363460058755,1.0517520100332027,0.7194775507791188,A,349.5751000009477,Correct
9,409,262,A,48.731258791119934,74.82956020877684,2.4365629395559965,1.1754199831162422,A,357.85179999948014,Correct
9,409,263,B,41.156002448383916,29.5638460805299,2.0578001224191955,0.4643878082922606,B,373.0392999987089,Correct
9,409,264,A,40.67015253049099,57.94043828343563,2.0335076265245493,0.9101262762850709,A,348.51939999862225,Correct
9,409,265,B,67.8451652094732,54.76167517715445,3.3922582604736595,0.8601943821740947,B,448.6589999996795,Correct
9,409,266,B,77.49419955057027,65.66104645316048,3.8747099775285134,1.0314013058213356,B,391.56240000011167,Correct
9,409,267,A,37.61594356553185,69.02043365686492,1.8807971782765924,1.0841704366199425,A,338.12829999988026,Correct
9,409,268,A,45.150954797895785,59.84439290181263,2.257547739894789,0.9400335254943787,A,400.9693999996671,Correct
9,409,269,A,12.935090415649121,31.270462767090706,0.646754520782456,0.49119528051722655,A,400.4280999997718,Correct
9,409,270,A,36.40920406397522,63.41751725728278,1.8204602031987607,0.9961600316219176,A,305.2773999988858,Correct
9,409,271,A,42.29967184028783,66.95288355611402,2.1149835920143913,1.0516934355827035,A,343.1196000001364,Correct
9,409,272,B,58.14169896018351,33.71468899342299,2.9070849480091754,0.5295890962990116,B,377.35149999934947,Correct
9,409,273,B,75.2988006320646,55.79048636848744,3.76494003160323,0.8763549105772083,B,331.2740000001213,Correct
9,409,274,B,50.07688391967102,30.732412077173763,2.503844195983551,0.48274360004371664,B,424.80219999924884,Correct
9,409,275,B,54.155859074377304,42.59813023922445,2.707792953718865,0.6691298650810438,B,347.3023999995348,Correct
9,409,276,A,23.81604180484859,36.546200941977546,1.1908020902424297,0.5740663819796652,A,347.3083000008046,Correct
9,409,277,B,76.52853835301518,63.71734084067535,3.8264269176507586,1.0008696494567129,B,373.2209999998304,Correct
9,409,278,B,77.71394935570777,56.51993511928676,3.8856974677853886,0.8878130647606152,B,376.330399998551,Correct
9,409,279,A,35.66342398701555,51.115179986424586,1.7831711993507775,0.8029153696613575,A,332.43510000102106,Correct
9,409,280,B,55.7780638724027,44.976432472648455,2.788903193620135,0.706488149203749,B,785.4565999987244,Correct
9,409,281,B,62.474510447972314,46.68316909920509,3.123725522398616,0.7332975054417636,B,373.8853000013478,Correct
9,409,282,A,42.30582287325588,65.65070541548236,2.1152911436627937,1.0312388691813352,A,398.45950000017183,Correct
9,409,283,A,53.736755496513226,83.31619636951491,2.6868377748256616,1.3087277521975633,A,385.7595000008587,Correct
9,409,284,A,32.11553309291813,60.34809047402405,1.6057766546459065,0.9479455884568306,A,324.5663000016066,Correct
9,409,285,B,58.869937926715636,33.22181699931417,2.9434968963357817,0.5218470811197494,B,332.8531999995903,Correct
9,409,286,B,67.13651472226655,47.224836293753306,3.356825736113328,0.7418059938371803,B,406.2494000008883,Correct
9,409,287,B,48.82202907065437,21.866900986326513,2.4411014535327182,0.3434844774770938,B,391.6162000004988,Correct
9,409,288,B,80.77926437765994,50.64308186221855,4.038963218882997,0.7954996696674616,B,418.9693999996962,Correct
9,409,289,B,62.08717559127846,39.91396547604592,3.1043587795639227,0.6269671035759123,B,333.7166999990586,Correct
9,409,290,A,64.36152566828072,78.6911168831964,3.2180762834140357,1.2360771735151277,A,499.5329999983369,Correct
9,409,291,B,86.76293203962634,64.55173552220376,4.338146601981316,1.013976290465133,B,407.65169999940554,Correct
9,409,292,A,36.10548568358706,61.362143192948366,1.8052742841793532,0.9638742913174576,A,328.81649999944784,Correct
9,409,293,A,66.7413629846543,89.84121457126618,3.337068149232715,1.4112224984333703,A,453.23800000005576,Correct
9,409,294,B,68.18351441887374,41.69471014840236,3.4091757209436873,0.6549389754788832,B,381.5067000014096,Correct
9,409,295,A,19.743832346390626,43.05565204059964,0.9871916173195313,0.6763166007313312,A,344.5721999996749,Correct
9,409,296,B,71.8052257655041,60.55495072462683,3.5902612882752054,0.9511949416748978,B,837.8817000011622,Correct
9,409,297,B,53.40084894670676,24.730336957100473,2.670042447335338,0.3884632245261351,B,384.9057999996148,Correct
9,409,298,B,63.75956363446374,51.37814733291708,3.187978181723187,0.8070460510807316,B,673.1493999996019,Correct
9,409,299,A,33.92103910072143,54.269916792551804,1.6960519550360715,0.8524698595320505,A,333.07849999982864,Correct
9,409,300,A,56.68029618752912,80.61458100324504,2.834014809376456,1.2662908772600696,A,373.892399999022,Correct
9,409,301,B,70.2325019993385,52.39806666140235,3.511625099966925,0.8230669064288493,B,336.1435999995592,Correct
9,409,302,B,47.77772462414923,27.12708898899481,2.3888862312074615,0.4261113174055133,B,358.23579999851063,Correct
9,409,303,B,39.493642331167564,13.374248082034612,1.974682116558378,0.2100821976090366,B,427.7180999997654,Correct
9,409,304,A,40.79077066222084,58.29629041586044,2.039538533111042,0.9157159885100212,A,411.48509999948146,Correct
9,409,305,A,33.35108861104639,59.04207972959456,1.6675544305523198,0.9274308196557856,A,392.4776000003476,Correct
9,409,306,B,35.74766346671931,18.21197554549032,1.7873831733359653,0.2860730429053468,B,428.5994000001665,Correct
9,409,307,B,33.59179469800506,19.017942412951616,1.679589734900253,0.2987331408546127,B,477.19790000155626,Correct
9,409,308,B,79.7468784130424,64.45076625673724,3.98734392065212,1.0123902689519932,A,324.88569999986794,Incorrect
9,409,309,B,56.66671010424389,24.54783871876505,2.8333355052121942,0.3855965489018968,B,347.2794999997859,Correct
9,409,310,A,57.43170457281772,85.61603982769637,2.871585228640886,1.3448536087607101,A,381.79419999869424,Correct
9,409,311,A,24.696124646449128,53.55993861211911,1.2348062323224565,0.8413175483527685,A,437.5288000010187,Correct
9,409,312,B,61.08003547919609,33.434952214310464,3.0540017739598047,0.5251950012480177,B,1109.7862999995414,Correct
9,409,313,B,32.85445266123001,13.811383567731319,1.6427226330615008,0.21694870576147748,B,560.3217999996559,Correct
9,409,314,B,52.84821853450144,38.321493311484716,2.6424109267250717,0.6019526093097538,B,916.751299999305,Correct
9,409,315,A,35.13862255855498,56.33761014989768,1.7569311279277489,0.8849491108386216,A,389.27809999950114,Correct
9,409,316,B,44.952607165902165,21.674380769172362,2.2476303582951083,0.34046037697769893,B,407.79120000115654,Correct
9,409,317,A,13.27502566260068,38.235475062732604,0.6637512831300341,0.6006014378179825,A,363.4163000006083,Correct
9,409,318,A,21.378304793677223,53.21288933845523,1.068915239683861,0.8358661111098878,A,359.8489999985759,Correct
9,409,319,A,56.52887040121707,71.07380065256291,2.8264435200608533,1.1164246499639854,A,509.11200000155077,Correct
9,409,320,A,50.57474638117377,75.63769275020968,2.5287373190586884,1.1881140993927033,A,394.67229999900155,Correct
9,409,321,A,39.92967093214866,54.25915369480462,1.996483546607433,0.8523007931879882,A,362.0998000005784,Correct
9,409,322,A,41.4345676583133,55.0439949875141,2.071728382915665,0.8646290513850384,A,375.9114000004047,Correct
9,409,323,A,45.44950920553693,52.9988862518412,2.272475460276846,0.832504558486127,A,354.6740999991016,Correct
9,409,324,A,50.235867781002675,74.50712212906795,2.511793389050134,1.170355137603987,A,391.9497999995656,Correct
9,409,325,B,67.2382206863891,52.99092046469042,3.3619110343194554,0.8323794321941622,B,348.1019999999262,Correct
9,409,326,B,74.21300220444505,61.79508271863955,3.7106501102222524,0.970674889484258,B,359.150000000227,Correct
9,409,327,B,72.80663326282419,51.03162285071417,3.6403316631412097,0.8016028572428433,B,326.91500000146334,Correct
9,409,328,B,71.66202551168936,46.61226465985709,3.5831012755844682,0.7321837411129509,B,336.55130000079225,Correct
9,409,329,B,76.18860605159239,47.44572510512672,3.8094303025796195,0.7452757071725347,B,330.2162000018143,Correct
9,409,330,A,29.54903230353851,50.39018245628846,1.4774516151769257,0.7915271350886255,A,458.49009999983537,Correct
9,409,331,B,66.07953458644138,36.52873156069921,3.303976729322069,0.5737919735802312,B,345.71370000048773,Correct
9,409,332,A,29.065386721990926,40.88183548824829,1.4532693360995463,0.6421703701757366,A,475.3693000002386,Correct
9,409,333,B,51.82850617320653,28.889733524255348,2.5914253086603263,0.45379887301983685,B,374.4351999994251,Correct
9,409,334,A,54.429053095684445,69.06789285817447,2.721452654784222,1.0849159240108392,A,387.9506000012043,Correct
9,409,335,B,69.71963292918002,55.69374755092191,3.485981646459001,0.8748353407843041,B,389.0592999996443,Correct
9,409,336,A,57.526376364411796,73.39276964407357,2.87631881822059,1.1528509297021476,A,397.6566000001185,Correct
9,409,337,A,34.33943582942227,62.569400160427676,1.7169717914711133,0.9828378394175982,A,405.1340000005439,Correct
9,409,338,B,49.906509916270934,28.75815756243155,2.4953254958135465,0.4517320826445635,B,346.91190000012284,Correct
9,409,339,A,19.692091287360828,47.51145332509129,0.9846045643680413,0.7463081636374056,A,348.8531000002695,Correct
9,409,340,B,74.9069847767509,46.715782639235194,3.7453492388375453,0.7338097977305943,B,350.5510000013601,Correct
9,409,341,B,78.5920360931322,65.30944651066818,3.9296018046566097,1.0258783868396537,B,412.5810999994428,Correct
9,409,342,B,45.34201516938809,37.192096658792146,2.2671007584694047,0.5842120881743145,B,395.5487000002904,Correct
9,409,343,A,26.028009940399528,49.301287526944,1.3014004970199764,0.7744228135358269,A,358.01619999983814,Correct
9,409,344,A,21.984743601895012,36.942221698041685,1.0992371800947507,0.580287061469266,A,382.87320000017644,Correct
9,409,345,A,21.929646956289073,43.12058753831249,1.0964823478144536,0.6773366051441905,A,368.5568000000785,Correct
9,409,346,A,31.055535203178422,56.22471229005316,1.552776760158921,0.8831757154031538,A,397.5119000006089,Correct
9,409,347,B,37.15402293036483,12.661862753835397,1.8577011465182414,0.19889207504105755,B,366.9015999985277,Correct
9,409,348,A,30.971754243871985,41.086126084893216,1.5485877121935994,0.6453793593638225,A,436.7447999993601,Correct
9,409,349,B,63.95477137915985,43.84259568228435,3.197738568957993,0.6886778825488605,B,349.8550000003888,Correct
9,409,350,A,38.56428116103905,48.86280344186226,1.9282140580519525,0.7675351216337827,A,660.734399998546,Correct
9,409,351,A,14.945093641908741,40.454020752178735,0.7472546820954371,0.6354502720160687,A,409.4697000000451,Correct
9,409,352,B,48.97708342627096,40.930357331908496,2.4488541713135477,0.6429325495136442,B,494.4305999997596,Correct
9,409,353,A,50.58073822233969,76.04656712150971,2.529036911116984,1.19453668299829,A,482.8796000001603,Correct
9,409,354,A,50.52959105119493,62.02056331388789,2.5264795525597465,0.9742167303920541,A,729.7877000000881,Correct
9,409,355,B,63.42643645682796,47.4463888910083,3.171321822841398,0.7452861338967802,B,435.229700000491,Correct
9,409,356,A,17.796781141607816,33.69333114922208,0.8898390570803909,0.5292536080668212,A,434.91630000062287,Correct
9,409,357,B,41.48309007883614,20.194735716063178,2.074154503941807,0.31721816683385745,B,431.89929999971355,Correct
9,409,358,B,50.751391190595115,31.34042465780682,2.537569559529756,0.4922942393267516,B,471.9581000008475,Correct
9,409,359,A,32.3724350271346,43.53554173339448,1.61862175135673,0.6838546903984197,A,335.1148000001558,Correct
9,409,360,A,67.17537846992214,79.65130978773668,3.3587689234961067,1.2511598483897917,A,516.9418999994377,Correct
9,409,361,A,49.03485333529207,56.719615594027324,2.4517426667646034,0.8909496383231666,A,415.1502000004257,Correct
9,409,362,B,59.042145059199086,30.660212113580073,2.952107252959954,0.4816094856676397,B,344.82439999919734,Correct
9,409,363,A,42.31997670743118,60.89436414140428,2.115998835371559,0.9565264351582872,A,403.8561999986996,Correct
9,409,364,A,42.607753616407294,60.17951121625747,2.130387680820365,0.945297551668095,A,359.7393000000011,Correct
9,409,365,B,72.05041377968806,43.944112518745925,3.6025206889844026,0.6902725052870773,B,335.77490000061516,Correct
9,409,366,A,30.365485039958834,62.54740296036384,1.5182742519979415,0.9824923082069975,A,327.22539999849687,Correct
9,409,367,B,40.68174071488148,28.24763691842543,2.034087035744074,0.44371284312098574,B,367.25529999966966,Correct
9,409,368,A,52.15186182027669,65.28547554114577,2.6075930910138343,1.0255018517308985,A,447.2630999989633,Correct
9,409,369,A,56.54990742481089,66.66604157995164,2.8274953712405444,1.0471877323574386,A,362.2724000015296,Correct
9,409,370,A,38.74097507747326,48.089759354905766,1.937048753873663,0.755392173511365,A,431.2881000005291,Correct
9,409,371,A,41.13309041782639,69.62691195642844,2.0566545208913194,1.0936969754722947,A,340.2996999993775,Correct
9,409,372,A,20.90668977675001,36.87474768606961,1.0453344888375005,0.5792271821676676,A,327.90659999955096,Correct
9,409,373,B,73.0462838488341,46.3066227676075,3.652314192441705,0.7273827294963479,B,348.57110000120883,Correct
9,409,374,A,56.537332377601956,68.07820807645018,2.8268666188800977,1.069369991812666,A,639.6220000005997,Correct
9,409,375,A,35.78774369376464,58.14090799700321,1.7893871846882319,0.9132752471821266,A,345.8456999996997,Correct
9,409,376,A,37.70437139897016,56.42947529070723,1.885218569948508,0.8863921250960629,A,362.42119999951683,Correct
9,409,377,B,81.91753845416176,65.74027752302068,4.095876922708088,1.0326458645563799,B,361.34039999888046,Correct
9,409,378,A,57.15106612836672,71.65654017320738,2.8575533064183363,1.125578300949051,A,390.03930000035325,Correct
9,409,379,A,45.25433865709559,75.92709800840672,2.2627169328547794,1.1926600665580138,A,429.7421999999642,Correct
9,409,380,B,65.56495733947497,53.56277494798015,3.2782478669737487,0.8413621014122893,B,400.5728000011004,Correct
9,409,381,A,44.85341308094444,73.1639617556998,2.242670654047222,1.1492568237961553,A,347.60450000067067,Correct
9,409,382,A,59.69257990840727,81.12952118149337,2.9846289954203633,1.2743795386651855,A,372.42849999893224,Correct
9,409,383,A,12.898329599268987,36.479455199447344,0.6449164799634494,0.5730179423077087,A,419.08390000025975,Correct
9,409,384,A,36.11097579528977,61.78786089548691,1.8055487897644884,0.9705614493514485,A,395.08980000027805,Correct
9,409,385,A,19.968856446809603,39.03887228789143,0.9984428223404802,0.6132211719203493,A,413.86920000149985,Correct
9,409,386,B,69.12599602512242,41.18508929157895,3.4562998012561206,0.6469338697793204,B,396.76630000030855,Correct
9,409,387,A,67.53400262174384,85.34080529653284,3.3767001310871922,1.3405302348551222,A,561.4599999989878,Correct
9,409,388,B,38.6151768447265,15.750839877346571,1.930758842236325,0.24741361423270572,B,358.48779999832914,Correct
9,409,389,A,21.41017845856477,49.30699769757484,1.0705089229282385,0.7745125086863499,A,369.5265999995172,Correct
9,409,390,A,24.471562121996733,52.18354816465181,1.2235781060998365,0.8196972577615963,A,382.468499999959,Correct
9,409,391,A,31.334543290336427,51.3736646239489,1.5667271645168213,0.8069756368529184,A,381.96849999985716,Correct
9,409,392,A,32.16556798119014,48.869953901265916,1.6082783990595066,0.7676474407874442,A,337.01529999962077,Correct
9,409,393,A,29.878551748154262,56.50323699353716,1.4939275874077131,0.8875507712146968,A,300.3360000002431,Correct
9,409,394,A,14.275359528533205,33.14151529883476,0.7137679764266602,0.5205857049582652,A,323.82719999986875,Correct
9,409,395,B,32.4214957603468,18.184922401691434,1.62107478801734,0.2856480931162714,A,348.09210000094026,Incorrect
9,409,396,B,41.51477815108425,25.379434120733293,2.0757389075542125,0.3986592189298092,B,528.2070000012027,Correct
9,409,397,A,24.777286055755237,44.70906547378878,1.238864302787762,0.7022883582065996,A,426.19920000106504,Correct
9,409,398,A,64.81877816533365,81.17263303864684,3.2409389082666826,1.2750567381337652,B,331.0353999986546,Incorrect
9,409,399,A,31.037677812198904,42.949736278489425,1.5518838906099452,0.6746528798306071,A,882.4944000007235,Correct
9,409,400,A,67.44712124922282,86.22054091264977,3.372356062461141,1.3543490895985937,A,449.19579999987036,Correct
9,409,401,B,80.75334490505962,51.323882270600166,4.037667245252981,0.8061936574751246,B,364.7659999987809,Correct
9,409,402,A,33.361533493698886,46.79512828881741,1.6680766746849442,0.7350561562797033,A,421.297400000185,Correct
9,409,403,B,53.63768258775339,35.75390841804668,2.681884129387669,0.5616210801162885,B,388.7795999999071,Correct
9,409,404,A,36.12732492309775,67.788445411326,1.8063662461548875,1.0648184105124725,A,338.8661000008142,Correct
9,409,405,B,55.42586003390028,33.734430118354254,2.771293001695014,0.5298991891642999,B,345.2104000007239,Correct
9,409,406,A,35.93951031871511,52.15788482079349,1.7969755159357554,0.8192941388989371,A,344.124199998987,Correct
9,409,407,B,38.213185295303475,25.845136461907938,1.9106592647651737,0.40597445419877837,B,388.26699999845005,Correct
9,409,408,A,30.3493494491769,42.24368984444165,1.5174674724588448,0.6635623283791182,A,386.69149999986985,Correct
9,409,409,B,53.906365176738944,30.62045811601492,2.6953182588369473,0.4809850313341321,B,343.6357999999018,Correct
9,409,410,B,74.25017857778965,58.17432442583461,3.712508928889483,0.9138001512187564,B,420.8851000003051,Correct
9,409,411,B,51.52834563823939,43.16446863622562,2.5764172819119695,0.6780258878183673,B,518.7893999991502,Correct
9,409,412,B,43.287976629312965,32.86162872619575,2.164398831465648,0.5161892569560593,B,364.89479999909236,Correct
9,409,413,B,74.9244920403928,47.989595616860434,3.74622460201964,0.7538188051933684,B,423.96390000067186,Correct
9,409,414,B,75.85620940219529,63.541103918463115,3.7928104701097647,0.9981013263561468,A,443.3253000006516,Incorrect
9,409,415,A,63.80696814976892,87.45561588208325,3.190348407488446,1.373749601851618,A,425.38729999978386,Correct
9,409,416,B,69.73920278614528,59.19360326305895,3.486960139307264,0.929810945753674,B,527.184099999431,Correct
9,409,417,A,42.06949651621468,50.77110031877219,2.103474825810734,0.7975105788806254,A,598.9012000009097,Correct
9,409,418,A,21.017335071299915,51.25064171673165,1.0508667535649956,0.8050431975452336,A,438.924500000212,Correct
9,409,419,A,43.7148315013713,68.43896075522795,2.185741575068565,1.0750366816397214,A,355.1012999996601,Correct
9,409,420,B,86.22821975964031,69.49847216703328,4.311410987982016,1.0916794479783325,B,364.4741999996768,Correct
9,409,421,A,30.53346113573364,43.064429389753606,1.5266730567866817,0.6764544750094316,A,370.33859999974084,Correct
9,409,422,B,50.47034217152239,32.42874956704673,2.5235171085761197,0.5093896070246859,B,421.89520000101766,Correct
9,409,423,B,61.633980397126926,45.93409633083677,3.0816990198563463,0.7215310979112134,B,345.2103999989049,Correct
9,409,424,B,34.79816728744419,14.938859603460816,1.7399083643722093,0.23465905791620917,B,509.0780000009545,Correct
9,409,425,A,42.24198219872599,65.12574628480768,2.1120991099363,1.0229928304395226,A,355.99790000014764,Correct
9,409,426,B,40.027280806692346,21.52742647824144,2.001364040334617,0.3381520243736885,B,339.4742000000406,Correct
9,409,427,A,58.615496028830826,72.75767687637018,2.9307748014415416,1.1428749158353226,A,375.62009999965085,Correct
9,409,428,A,55.02219713560288,64.99543355380584,2.751109856780144,1.0209458828476,A,441.5933000000223,Correct
9,409,429,A,41.93980972314264,74.23847954797039,2.096990486157132,1.1661353098078993,A,381.1841999995522,Correct
9,409,430,B,63.234079100870844,44.43983824619231,3.1617039550435426,0.6980593468047824,B,359.4032999990304,Correct
9,409,431,B,67.97479985274177,38.05362427995046,3.398739992637088,0.5977449324017928,B,393.35419999952137,Correct
9,409,432,B,47.07361855662484,21.576796238895035,2.353680927831242,0.33892752276058263,B,394.1891000013129,Correct
9,409,433,B,58.758174243947266,43.713015822939816,2.9379087121973635,0.6866424468780106,B,350.05269999965094,Correct
9,409,434,B,57.97542736319936,47.61437127348805,2.898771368159968,0.7479247949904346,B,362.5016999994841,Correct
9,409,435,B,81.15161681322164,67.58391252280076,4.057580840661082,1.0616056154124303,B,392.8708000003098,Correct
9,409,436,A,26.847433912976356,40.164604331821096,1.3423716956488179,0.6309041295159497,A,421.8448999999964,Correct
9,409,437,A,15.146422814107328,33.89271324802395,0.7573211407053664,0.5323854947510875,A,390.9523000002082,Correct
9,409,438,A,25.02298525796607,49.149867888659095,1.2511492628983034,0.7720443194196014,A,383.5432999985642,Correct
9,409,439,B,42.361961094086794,19.96784460089095,2.1180980547043395,0.3136541695309081,B,400.3634000000602,Correct
9,409,440,B,83.73429861779985,64.87214045559705,4.186714930889992,1.0190091993897445,B,539.4144000001688,Correct
9,409,441,B,45.35574778360434,37.024527667620966,2.267787389180217,0.5815799206161504,B,394.61500000106753,Correct
9,409,442,A,43.21336608714162,63.96796451784327,2.160668304357081,1.0048064369717449,A,447.04149999961373,Correct
9,409,443,A,40.41484368129906,52.78890576035731,2.020742184064953,0.8292061926389123,A,388.86210000055144,Correct
9,409,444,B,58.49175619754945,48.29674504871214,2.924587809877472,0.7586434971866665,A,694.7775999997248,Incorrect
9,409,445,B,59.56525666306818,36.215019878377205,2.978262833153409,0.5688642019975907,B,383.3560999992187,Correct
9,409,446,B,39.02502895241233,22.27517777853664,1.9512514476206164,0.3498976743322866,B,417.04089999984717,Correct
9,409,447,A,31.75768734619325,58.556725681394134,1.5878843673096625,0.9198068960947029,A,432.2023000004265,Correct
9,409,448,A,59.280467155268994,84.45968020362051,2.9640233577634496,1.3266895542611874,A,431.94059999950696,Correct
9,409,449,B,64.9534552570869,37.1604232717552,3.2476727628543447,0.5837145637741666,B,388.11729999906674,Correct
9,409,450,B,39.17458410471963,28.362143598655827,1.9587292052359815,0.4455115098479796,B,395.55230000041774,Correct
9,409,451,B,75.09281581261173,63.36475608430708,3.7546407906305865,0.9953312610548414,B,447.7093999994395,Correct
9,409,452,A,10.963136318963972,31.942214745986536,0.5481568159481987,0.5017471359268942,A,463.7564000004204,Correct
9,409,453,A,55.20096289397379,72.63106367538488,2.7600481446986898,1.1408860803250083,A,548.185800000283,Correct
9,409,454,A,37.667535786006816,45.88760469820362,1.8833767893003408,0.7208008090535448,A,497.7257999998983,Correct
9,409,455,A,40.75062969721887,72.53275291241809,2.0375314848609434,1.1393418184714819,A,409.7233000011329,Correct
9,409,456,B,57.868209229856426,35.002734382635225,2.8934104614928216,0.5498216659602084,B,393.20500000030734,Correct
9,409,457,B,34.63991316842581,15.572875268558132,1.7319956584212903,0.244618152694862,B,414.9972999985039,Correct
9,409,458,B,61.83920645767319,42.11062447703708,3.0919603228836596,0.661472142475691,B,565.6278999995266,Correct
9,409,459,B,73.40293572617881,42.52127510768177,3.670146786308941,0.667922627497818,B,414.46650000034424,Correct
9,409,460,B,55.11771415519148,31.8874163932779,2.755885707759574,0.5008863654154029,B,455.8707999985927,Correct
9,409,461,A,14.943475858999882,34.47664595915468,0.7471737929499941,0.5415578883284828,A,427.7454000002763,Correct
9,409,462,A,50.63981005498869,58.4643722490273,2.5319905027494345,0.9183562117714157,A,571.192900000824,Correct
9,409,463,A,23.019038520762187,50.83560780257862,1.1509519260381094,0.7985238600667649,A,445.7228000010218,Correct
9,409,464,B,65.88037611524894,52.997714793517375,3.294018805762447,0.8324861572618065,B,599.4064999995317,Correct
9,409,465,B,46.31343773072664,16.733727068366292,2.315671886536332,0.26285277012578107,B,393.8813000004302,Correct
9,409,466,B,42.61144776120236,23.14847941330664,2.130572388060118,0.36361546433309344,B,424.2380999985471,Correct
9,409,467,B,76.52860084211365,50.39965514920779,3.8264300421056823,0.7916759318010509,B,361.6309999997611,Correct
9,409,468,B,78.09016823194031,52.090803361512656,3.9045084115970154,0.8182404258005933,B,427.053800000067,Correct
9,409,469,B,64.18750237868782,42.008747447444044,3.2093751189343913,0.659871861836996,B,451.3154999986,Correct
9,409,470,A,69.55785860231866,85.06248328621072,3.4778929301159334,1.3361583629403209,A,526.3919000008173,Correct
9,409,471,A,16.687512894518484,40.98928971302934,0.8343756447259242,0.6438582571915834,A,458.2598000015423,Correct
9,409,472,A,61.60731696361276,84.17723299745649,3.080365848180638,1.322252883921628,A,458.2654999994702,Correct
9,409,473,A,20.867547708067203,51.52101153082632,1.0433773854033601,0.809290156653795,A,390.4346999988775,Correct
9,409,474,A,16.63703186457538,33.162221386156716,0.831851593228769,0.5209109554173413,A,612.2321000002557,Correct
9,409,475,A,16.271110341630553,36.733991795872385,0.8135555170815277,0.5770161938147021,A,424.6880999999121,Correct
9,409,476,A,41.22042305336072,52.11778457893879,2.0610211526680358,0.8186642457728476,A,540.814699999828,Correct
9,409,477,A,49.127791965566765,71.85751495879471,2.456389598278338,1.1287352054988407,A,369.24480000016047,Correct
9,409,478,B,54.03107489656374,30.017789797457926,2.7015537448281868,0.4715183395234823,B,445.6750000008469,Correct
9,409,479,B,40.7527547454104,26.0549315958462,2.0376377372705203,0.40926990845647504,B,448.44499999999243,Correct
9,409,480,A,48.65601960945147,79.01066386181421,2.4328009804725736,1.2410966057176405,A,487.0807999996032,Correct
9,409,481,A,56.702030288497575,83.73168722928133,2.835101514424879,1.3152542673609429,A,372.62009999903967,Correct
9,409,482,B,49.54050717535334,41.52039494751888,2.4770253587676674,0.6522008387063604,B,376.78690000029746,Correct
9,409,483,A,22.606237948334552,48.11554700983702,1.1303118974167277,0.7557972450477918,A,355.8106000000407,Correct
9,409,484,B,35.26115371721241,10.612666473795873,1.7630576858606204,0.16670337514537903,B,388.95810000030906,Correct
9,409,485,B,40.49424202595472,26.181546467250747,2.024712101297736,0.41125877020567364,B,389.2305999997916,Correct
9,409,486,A,25.40145739417291,47.0492622368636,1.2700728697086454,0.7390480830007518,A,413.2465000002412,Correct
9,409,487,A,41.12483656202037,48.20874184263795,2.0562418281010184,0.7572611460581912,A,460.7082000002265,Correct
9,409,488,A,61.09767839544901,86.40654331788495,3.0548839197724504,1.3572708085477778,A,395.3455999999278,Correct
9,409,489,A,37.38686503901095,59.40418134973521,1.8693432519505475,0.9331186986042198,A,376.3338999997359,Correct
9,409,490,B,55.42540488142814,43.85924952647505,2.771270244071407,0.6889394805216781,B,390.4430999991746,Correct
9,409,491,B,70.99177173458946,42.28648734849608,3.549588586729473,0.6642345900007651,B,376.927400000568,Correct
9,409,492,A,16.683756781635505,42.3714169706884,0.8341878390817753,0.6655686613865228,A,348.5058000005665,Correct
9,409,493,A,45.96465831627085,77.53121613708504,2.2982329158135424,1.2178574952007437,A,424.131200001284,Correct
9,409,494,A,61.02888293048187,84.66460147826679,3.0514441465240933,1.3299084501161524,A,535.5663000009372,Correct
9,409,495,B,73.80247548197815,49.95111177193844,3.6901237740989075,0.7846302289068223,B,447.3627999996097,Correct
9,409,496,B,71.22674457734907,50.95347435490808,3.561337228867453,0.8003753035412757,B,417.273799999748,Correct
9,409,497,B,42.8055009365946,31.965781940074415,2.14027504682973,0.5021173285459554,B,480.4762000003393,Correct
9,409,498,B,49.343349954592924,31.727323267693855,2.4671674977296463,0.4983716284792776,B,377.87980000030075,Correct
9,409,499,B,83.52602966941046,65.77724284649123,4.176301483470524,1.033226514499643,B,452.6447000007465,Correct
9,409,500,A,25.07947486474309,44.91702026592064,1.2539737432371545,0.7055549044428007,A,442.43660000029195,Correct
9,409,501,A,40.061144416764705,48.665056325710395,2.0030572208382353,0.7644289171969264,A,560.7839000003878,Correct
9,409,502,A,36.54868435919497,57.51802382467761,1.8274342179597485,0.9034910054830495,A,408.24330000032205,Correct
9,409,503,B,75.73300651009082,61.665656124661524,3.786650325504541,0.9686418613001554,B,407.7154000005976,Correct
9,409,504,B,53.39023208208005,42.268676178510546,2.6695116041040023,0.6639548127968731,B,730.487799999537,Correct
9,409,505,A,55.33688951673025,81.80522115398105,2.7668444758365127,1.284993409013176,A,354.8140000002604,Correct
9,409,506,A,17.464107221143635,39.92788963220804,0.8732053610571817,0.6271858237094443,A,405.8459000007133,Correct
9,409,507,B,56.904679583279595,38.559776298481346,2.84523397916398,0.6056955497168741,B,414.1258999989077,Correct
9,409,508,B,49.830383484950346,23.800605076982784,2.491519174247517,0.3738590303042052,B,425.74840000088443,Correct
9,409,509,A,30.656943622968157,42.763155783370316,1.532847181148408,0.6717220802667604,A,352.6233000011416,Correct
9,409,510,B,69.95443439390318,41.62036802092857,3.497721719695159,0.6537712120712637,B,376.37329999961366,Correct
9,409,511,A,19.48430541513265,36.56461282077808,0.9742152707566325,0.5743555950955579,A,336.1258999993879,Correct
9,409,512,A,51.12450712985368,73.99660472685045,2.556225356492684,1.1623359490023057,A,450.3654000000097,Correct
9,409,513,B,53.91510654330001,46.51677383531648,2.6957553271650005,0.7306837747486408,B,432.69020000116143,Correct
9,409,514,B,33.27687816985484,20.8177443063906,1.663843908492742,0.3270043628863372,B,409.2581999993854,Correct
9,409,515,B,56.8687470015788,34.611967154726564,2.84343735007894,0.5436835086979009,B,380.60939999922994,Correct
9,409,516,A,27.84396727382083,38.11118472903906,1.3921983636910413,0.5986490898217631,A,4603.262299999187,Correct
9,409,517,B,44.863364610155976,27.630326427784837,2.243168230507799,0.43401615260908377,B,479.9769999990531,Correct
9,409,518,A,49.426188796315145,78.12438979592159,2.4713094398157573,1.2271750452452632,A,379.315599999245,Correct
9,409,519,B,54.69359320236435,47.24812437653729,2.7346796601182173,0.7421718021861319,B,388.44630000130564,Correct
9,409,520,B,65.51664779716002,41.48705387136312,3.2758323898580013,0.6516771183067919,B,361.9768999997177,Correct
9,409,521,B,44.77189999896383,17.23376773131489,2.2385949999481913,0.2707073904918585,B,428.7206999997579,Correct
9,409,522,B,58.58248854043529,47.35927300163477,2.9291244270217645,0.743917720706446,B,534.2887000006158,Correct
9,409,523,B,82.28612299151058,54.788142069427096,4.114306149575529,0.8606101231457302,B,366.70090000006894,Correct
9,409,524,B,56.51318525434122,47.12946993869574,2.825659262717061,0.7403079826349376,B,327.5322999998025,Correct
9,409,525,B,57.57150019903375,25.332591856989346,2.878575009951687,0.3979234223715317,B,377.7307000000292,Correct
9,409,526,A,19.543356887396673,50.269244618126535,0.9771678443698336,0.7896274479690728,A,406.1800999988918,Correct
9,409,527,B,42.27511593906614,20.97229103511891,2.113755796953307,0.3294319772243833,B,359.04350000055274,Correct
9,409,528,B,77.24295798159632,65.4122292677941,3.8621478990798157,1.027492894613166,B,672.1401999984664,Correct
9,409,529,B,81.69781184073608,67.35259980693823,4.084890592036804,1.0579721637682522,B,357.69620000064606,Correct
9,409,530,A,65.8368216489485,84.75229593424044,3.291841082447425,1.331285951409389,A,367.0968999995239,Correct
9,409,531,B,33.59366890003621,13.08085718969183,1.6796834450018105,0.20547362424896543,B,374.80630000027304,Correct
9,409,532,B,69.07316362976307,54.952294137023934,3.4536581814881537,0.8631886177938992,B,553.5671999987244,Correct
9,409,533,B,74.38911610640119,61.538930855077716,3.719455805320059,0.966651265420412,B,500.339599999279,Correct
9,409,534,B,37.231327253966555,19.86803935773845,1.8615663626983276,0.31208643243751993,B,448.4866000002512,Correct
9,409,535,B,68.0503166657396,59.728322776307095,3.40251583328698,0.9382103002264314,B,505.09340000098746,Correct
9,409,536,B,45.39380256412677,37.04159744874486,2.2696901282063386,0.5818480521110363,B,420.7375999994838,Correct
9,409,537,A,37.182499578600954,46.07651712935073,1.8591249789300477,0.7237682385828624,A,431.18779999895196,Correct
9,409,538,A,35.65980472841722,52.32241436498949,1.782990236420861,0.8218785629356601,A,398.6421000008704,Correct
9,409,539,B,53.675343064225075,30.57992563960302,2.683767153211254,0.480348348683495,B,368.5854000013933,Correct
9,409,540,A,43.063123514629254,64.12813939876148,2.1531561757314623,1.007322458117656,A,381.03899999987334,Correct
9,409,541,A,39.718179182380524,59.59598208970952,1.9859089591190264,0.9361314975825017,A,391.53240000086953,Correct
9,409,542,A,62.66625833618814,85.23318087103212,3.133312916809407,1.338839674332623,A,467.10999999959313,Correct
9,409,543,A,26.322915473514414,53.60096372997174,1.3161457736757205,0.8419619693970609,A,342.9962999998679,Correct
9,409,544,B,43.70750348113053,20.966795925013294,2.185375174056526,0.3293456602366908,B,405.9006000006775,Correct
9,409,545,A,25.32455217870934,45.13959671338899,1.266227608935467,0.709051127103944,A,456.40520000051765,Correct
9,409,546,B,50.247352207656625,19.45746880710574,2.512367610382831,0.3056372053092798,B,348.84039999997185,Correct
9,409,547,A,39.79283381878906,70.60553104629764,1.9896416909394532,1.1090690881892735,A,363.7674000001425,Correct
9,409,548,B,54.52705568149027,25.593240259767825,2.726352784074513,0.4020176779082257,B,356.3372000007803,Correct
9,409,549,B,61.76707310749884,50.69252860646153,3.0883536553749416,0.7962763773097498,A,334.53150000059395,Incorrect
