subject,day,trial,cat,x,y,xt,yt,resp,rt,fb
3,503,0,B,49.56019648219811,35.884550222670256,2.4780098241099053,0.5636731967845742,B,514.4120999998449,Correct
3,503,1,B,31.91662429971296,18.464658304488626,1.595831214985648,0.29004217440213614,B,1247.1229999996467,Correct
3,503,2,B,42.19259393127848,33.6159925113443,2.109629696563924,0.5280387755838438,B,3150.6148000003122,Correct
3,503,3,A,59.739753415415514,87.18785665998783,2.9869876707707754,1.3695436498262885,A,803.0462000001535,Correct
3,503,4,B,74.98111269049514,58.290305869700546,3.749055634524757,0.9156219834787663,B,1534.0681000002405,Correct
3,503,5,A,32.98651453510297,51.665051434901116,1.6493257267551484,0.8115527301761207,A,1010.505799999919,Correct
3,503,6,B,31.598206285541035,17.36124890599427,1.5799103142770516,0.2727098601010771,B,827.8953000003639,Correct
3,503,7,B,65.17008068070531,33.96396723346391,3.2585040340352656,0.5335047497370734,B,544.6648000001915,Correct
3,503,8,A,25.1752554430789,45.37019005230901,1.258762772153945,0.7126732788015335,A,533.3468999997422,Correct
3,503,9,B,68.8084385165769,51.90356197480194,3.440421925828845,0.8152992449759017,B,499.71670000013546,Correct
3,503,10,A,16.756231508647755,34.27376959776238,0.8378115754323878,0.5383711138957974,A,580.543999999918,Correct
3,503,11,A,61.82191637290296,76.78980387858805,3.091095818645148,1.206211418677866,A,658.9183999999477,Correct
3,503,12,B,67.86548178951338,41.68277612615074,3.3932740894756694,0.6547515162957159,B,450.1000999998723,Correct
3,503,13,B,65.82486734761147,45.29656196705058,3.2912433673805737,0.7115167315428045,B,433.55719999999565,Correct
3,503,14,A,35.979924991404005,56.23900440901194,1.7989962495702003,0.8834002154827794,A,652.5899999996909,Correct
3,503,15,A,33.41456792251668,63.53524096885752,1.6707283961258341,0.9980092313591001,A,532.9044000000067,Correct
3,503,16,A,46.52812435323016,73.55451886344015,2.3264062176615083,1.155391680498577,A,672.784600000341,Correct
3,503,17,B,70.33087735786658,48.41882292033469,3.516543867893329,0.7605610919099427,B,473.939099999825,Correct
3,503,18,A,31.0674920101784,50.28784278064171,1.55337460050892,0.7899195872227125,A,466.7554999996355,Correct
3,503,19,A,20.600065251076117,40.159613402262835,1.0300032625538058,0.6308257321777756,A,518.3781000000636,Correct
3,503,20,B,61.51813710900663,37.42060336116658,3.0759068554503313,0.5878014630616922,B,413.2921999998871,Correct
3,503,21,B,89.81815147942277,67.52607469534286,4.490907573971139,1.0606971009432238,B,1676.1956000000282,Correct
3,503,22,B,76.52742448285548,57.21519872603934,3.826371224142774,0.8987342399570264,B,1588.2461000001058,Correct
3,503,23,B,65.71334772752361,49.798469726043834,3.285667386376181,0.7822325332567652,B,512.9366000001028,Correct
3,503,24,B,69.53226378271167,59.77275012102817,3.476613189135583,0.9389081633254024,B,516.2635000001501,Correct
3,503,25,B,66.83198014730932,56.91156194604129,3.341599007365466,0.8939647245700186,B,658.0869999997958,Correct
3,503,26,B,40.158009852868304,16.104827492459062,2.007900492643415,0.2529740386882016,B,611.2453000000642,Correct
3,503,27,B,74.2151163760254,60.71321511753008,3.7107558188012706,0.9536809529452465,B,701.1438999998063,Correct
3,503,28,A,30.436432223654926,45.945865768634775,1.5218216111827463,0.7217159718078288,A,669.1468999997596,Correct
3,503,29,B,62.49904185537414,55.128855191715274,3.124952092768707,0.8659620323555411,B,518.8398000000234,Correct
3,503,30,A,42.2959326940389,56.52975866529806,2.114796634701945,0.8879673726605216,A,1006.8618000000242,Correct
3,503,31,B,53.85970872355279,21.970836063937522,2.69298543617764,0.345117085858459,B,445.5289999996239,Correct
3,503,32,B,51.5768216306807,34.13369675713081,2.578841081534035,0.5361708548603195,B,600.5722999998397,Correct
3,503,33,A,33.54338279076393,42.532491304493604,1.6771691395381965,0.6680988111053443,A,1235.3287000000819,Correct
3,503,34,B,52.449959333913,25.658022298887026,2.62249796669565,0.4030352717991329,B,432.5898999995843,Correct
3,503,35,B,64.0760077234978,40.45605537653161,3.20380038617489,0.6354822318206678,B,426.81009999978414,Correct
3,503,36,A,43.96895644072367,66.51442856256725,2.198447822036184,1.0448062006494219,A,564.1955999999482,Correct
3,503,37,B,59.415854056767934,46.863211030848134,2.9707927028383967,0.7361255974907033,B,422.1324000000095,Correct
3,503,38,B,52.45287106532755,27.46536104490056,2.6226435532663777,0.4314248824342544,B,414.1773999999714,Correct
3,503,39,B,35.656451212227445,24.92057816312896,1.7828225606113721,0.39145152640248077,B,828.8135999996484,Correct
3,503,40,A,43.0029510519183,66.2397245003593,2.1501475525959153,1.0404911593307031,A,552.6829999998881,Correct
3,503,41,A,58.429827950485986,84.06264712864409,2.9214913975242998,1.3204529733032968,A,426.92659999966054,Correct
3,503,42,B,72.32418809954541,57.96170677086306,3.6162094049772704,0.9104603609043458,B,401.5610999999808,Correct
3,503,43,A,44.807111363950845,60.06336048693035,2.240355568197542,0.9434730602782793,A,672.7309000002606,Correct
3,503,44,B,72.58336193148483,53.1232214309689,3.6291680965742414,0.8344576109127786,B,464.47729999999865,Correct
3,503,45,B,63.214300559725515,46.719393436737164,3.160715027986276,0.7338665160051233,B,420.64099999970495,Correct
3,503,46,A,39.94681914356629,57.65970764562121,1.9973409571783145,0.905716569738094,A,1052.652500000022,Correct
3,503,47,A,17.713895062232524,45.02336501105788,0.8856947531116262,0.7072253637931558,A,453.4755999998197,Correct
3,503,48,A,44.40357502828521,57.26290501650018,2.220178751414261,0.8994836086152355,A,881.6702000003716,Correct
3,503,49,A,32.36736769526661,65.50486991849945,1.6183683847633303,1.0289480905515647,A,669.0029999999751,Correct
3,503,50,A,54.61366531929379,80.81807499899091,2.7306832659646894,1.269487353470494,A,861.2406000002011,Correct
3,503,51,B,56.2882365044238,40.376309290105766,2.81441182522119,0.634229583224328,B,582.6888000001418,Correct
3,503,52,A,47.64914284586471,61.33739149226388,2.3824571422932355,0.9634854925122864,A,733.0030000002807,Correct
3,503,53,A,57.95441796276619,70.48982089334297,2.8977208981383096,1.1072515173569328,A,480.38210000004256,Correct
3,503,54,B,40.25453011561487,18.1527099529235,2.0127265057807433,0.28514210115425404,B,570.8877999995821,Correct
3,503,55,B,63.867933454212015,52.860246734139096,3.193396672710601,0.8303268140345763,B,881.2124000000949,Correct
3,503,56,B,79.4502297117028,47.60061392224574,3.9725114855851404,0.7477086950224563,B,472.4080999999387,Correct
3,503,57,A,35.99975571264233,52.7683185101035,1.7999877856321165,0.8288828088681374,A,962.3632999996516,Correct
3,503,58,A,61.738777830092715,86.11714969179344,3.086938891504636,1.352725024099154,A,515.7776999999442,Correct
3,503,59,B,78.92486865116976,52.948108491136495,3.9462434325584876,0.8317069432861487,B,494.5348000001104,Correct
3,503,60,B,70.16011940556207,59.03587712107536,3.5080059702781035,0.9273333893090006,B,479.3905999999879,Correct
3,503,61,B,70.02262846725796,55.22277930494609,3.501131423362898,0.8674373888761454,B,387.8452999997535,Correct
3,503,62,A,20.531787261745464,40.471938942300284,1.026589363087273,0.6357317302883262,A,512.2818999998344,Correct
3,503,63,B,61.611141614820696,32.30147987253849,3.0805570807410345,0.5073904593382275,B,366.08609999984765,Correct
3,503,64,A,30.132708652851765,56.178577894267534,1.5066354326425884,0.8824510380087642,A,811.35519999998,Correct
3,503,65,A,63.29351010107366,87.32540535928248,3.1646755050536832,1.371704259742363,A,516.7177999996966,Correct
3,503,66,A,64.22931272925032,87.23665382701134,3.211465636462516,1.3703101539334737,A,815.2116999999635,Correct
3,503,67,A,35.10252418557508,63.28197030055704,1.7551262092787538,0.9940308650045873,A,545.4286999997748,Correct
3,503,68,A,40.05590245763782,72.53164118701592,2.0027951228818908,1.1393243555297006,A,479.5723000001999,Correct
3,503,69,A,16.507343868890658,40.897590063619205,0.8253671934445329,0.6424178424669651,A,473.2286999997086,Correct
3,503,70,A,34.003686633311744,43.664859694591144,1.7001843316655874,0.685886012182783,A,941.886500000237,Correct
3,503,71,A,46.078756914446366,54.815793307289496,2.3039378457223183,0.8610444677743861,A,2169.8003000001336,Correct
3,503,72,B,56.09015896567878,36.039302747282754,2.804507948283939,0.5661040437568097,B,476.86290000001463,Correct
3,503,73,A,40.720967425750295,59.7365482562809,2.036048371287515,0.9383395057637212,A,887.3607999998967,Correct
3,503,74,A,69.03709771726902,83.44251653749234,3.451854885863451,1.3107119847561537,A,604.8718000001827,Correct
3,503,75,A,18.872288021183774,45.28061159581672,0.9436144010591887,0.7112661836973532,A,482.7085000001716,Correct
3,503,76,B,66.33709706161684,53.0560893717552,3.3168548530808426,0.8334031029925483,B,465.0439000001825,Correct
3,503,77,B,41.27153751634272,15.75357109749174,2.063576875817136,0.2474565161384227,B,468.6647999997149,Correct
3,503,78,B,36.25424035638561,14.21549843768566,1.8127120178192804,0.22329652729475227,B,544.2610000000059,Correct
3,503,79,A,28.697225675615996,55.37167843280422,1.4348612837807997,0.8697762909071705,A,515.5922000003557,Correct
3,503,80,A,57.81279338867684,83.8611595831962,2.890639669433842,1.3172880143404522,A,526.9312999998874,Correct
3,503,81,B,72.93232968334128,45.224833801417915,3.6466164841670636,0.7103900281517694,B,457.4249000002055,Correct
3,503,82,A,44.0827855154825,61.1864371992708,2.204139275774125,0.961114308022812,A,624.0562999996655,Correct
3,503,83,A,28.85030173838483,54.273799076516696,1.4425150869192414,0.8525308423059667,A,481.43119999986084,Correct
3,503,84,A,68.35482344005106,82.44360045897491,3.417741172002553,1.2950210476870383,A,580.2268000002186,Correct
3,503,85,A,38.75322579514345,68.59383948923197,1.9376612897571726,1.077469511104443,A,516.7826000001696,Correct
3,503,86,B,74.11862553967984,63.28359083098115,3.705931276983992,0.9940563202369638,B,640.0949000003493,Correct
3,503,87,A,33.38470484008479,60.25236932369992,1.6692352420042393,0.9464420041435733,A,505.5077000001802,Correct
3,503,88,B,74.89263760603575,50.6732873397096,3.7446318803017875,0.7959741361983818,B,391.6236999998546,Correct
3,503,89,B,76.43073947039684,65.67824675388766,3.821536973519842,1.0316714875133557,B,695.0850000002902,Correct
3,503,90,B,78.88097257075123,63.556283756634244,3.944048628537561,0.9983397706965522,B,492.04329999975016,Correct
3,503,91,B,56.16705125149027,38.62516690715463,2.808352562574514,0.6067227029959827,B,463.9458999999988,Correct
3,503,92,B,44.403099917368294,22.93423556909965,2.220154995868415,0.3602501298979059,B,419.0072000001237,Correct
3,503,93,B,59.37653557913112,27.62831995828048,2.968826778956556,0.43398463505981105,B,374.3080999997801,Correct
3,503,94,A,27.151798328182423,37.89431150071934,1.3575899164091212,0.5952424531175154,A,960.5495000000701,Correct
3,503,95,B,77.22784590632115,60.82941900711147,3.8613922953160573,0.9555062793743837,B,423.4184000001733,Correct
3,503,96,B,65.295076532672,48.016055768581836,3.2647538266336,0.7542344402846726,B,385.11479999988296,Correct
3,503,97,B,37.973018942561325,27.47312254245999,1.8986509471280664,0.4315467997528223,A,1782.9356000002008,Incorrect
3,503,98,B,59.67407563291643,31.4806952355089,2.983703781645821,0.49449760440886986,B,434.002099999816,Correct
3,503,99,B,48.83127058767289,21.90398330209521,2.4415635293836444,0.34406696513107904,B,550.7035999999061,Correct
3,503,100,B,56.824442117708394,29.951856372932422,2.8412221058854197,0.4704826597129057,B,492.5058999997418,Correct
3,503,101,A,33.81074899477864,54.617957761947785,1.690537449738932,0.8579368742950639,A,599.0182000000459,Correct
3,503,102,A,44.86499923290791,52.23962498144349,2.2432499616453954,0.8205781103399434,A,1238.7416999999914,Correct
3,503,103,B,81.06719113593167,50.62488594112217,4.053359556796583,0.795213848807253,B,528.9654000002884,Correct
3,503,104,A,16.84482033207833,41.67711799990788,0.8422410166039165,0.6546626386565275,A,520.1641000003292,Correct
3,503,105,A,19.267275765223378,37.70300729121173,0.9633637882611689,0.5922374536215659,A,438.24739999990925,Correct
3,503,106,B,53.202407291154685,39.310089079081834,2.6601203645577347,0.6174814353140191,B,631.3780999998926,Correct
3,503,107,A,63.98924154168327,82.66620214487742,3.1994620770841635,1.2985176667925784,A,532.3278999999275,Correct
3,503,108,A,55.835691903524065,84.16262276176607,2.7917845951762037,1.322023386876067,A,734.8484000003737,Correct
3,503,109,A,66.8329188348697,85.16186502783931,3.341645941743485,1.3377194476873278,A,816.2238999998408,Correct
3,503,110,A,23.68920070491061,45.36330060759245,1.1844600352455306,0.7125650596569891,A,598.6210999999457,Correct
3,503,111,B,59.107460594134494,41.374975491964655,2.955373029706725,0.6499165952400696,B,874.24239999973,Correct
3,503,112,B,37.496819527858094,17.87782189178191,1.8748409763929046,0.28082416958704415,B,1273.9709000002222,Correct
3,503,113,A,42.72147000366762,51.24978536316389,2.1360735001833806,0.8050297459748469,A,929.7177000003103,Correct
3,503,114,B,32.419373146888375,19.74141390448036,1.6209686573444189,0.31009740446895445,B,442.572200000086,Correct
3,503,115,A,46.16646760018992,75.70421764298783,2.308323380009496,1.1891590699648669,A,454.689000000144,Correct
3,503,116,B,81.52199132276269,52.8922163284137,4.076099566138135,0.8308289912471329,B,690.0390000000698,Correct
3,503,117,A,67.89804857767862,84.36166614967823,3.3949024288839316,1.3251499531021194,A,432.11920000021564,Correct
3,503,118,A,20.14182532243498,42.306355193844,1.007091266121749,0.6645466733857035,A,466.89470000001165,Correct
3,503,119,B,65.100140032919,34.38894025562263,3.25500700164595,0.5401802103590118,B,696.9767000000502,Correct
3,503,120,B,64.0323981551037,40.86853750930193,3.2016199077551852,0.6419614860109092,B,660.8329000000595,Correct
3,503,121,A,61.96281581968672,73.32313857470191,3.0981407909843357,1.1517571674221496,A,639.1031999996812,Correct
3,503,122,B,50.89933793983444,39.38190255443836,2.544966896991722,0.6186094787470634,B,722.1675999999206,Correct
3,503,123,A,42.8747235763976,69.42676281312198,2.14373617881988,1.0905530400811252,A,520.5046000000948,Correct
3,503,124,B,49.33075295855153,37.3816672940679,2.4665376479275762,0.5871898567499078,B,812.9341000003478,Correct
3,503,125,A,52.27717542413428,62.818353707051784,2.613858771206714,0.9867483925833952,B,1210.7605000001058,Incorrect
3,503,126,B,39.518456465991015,15.160026948162518,1.975922823299551,0.23813314644285327,B,970.4962999999225,Correct
3,503,127,B,42.72370805195358,30.887437195005365,2.136185402597679,0.4851787289002249,B,661.2788000002183,Correct
3,503,128,A,28.295102170856598,41.379304955315945,1.4147551085428298,0.6499846022913615,A,551.5055999999277,Correct
3,503,129,B,36.759159804900634,19.63549908717396,1.8379579902450316,0.308433698409174,B,424.0596999998161,Correct
3,503,130,B,54.449609520557985,23.381925698827942,2.7224804760278993,0.3672824300111012,B,670.1514999999745,Correct
3,503,131,A,43.70299308841725,62.14648805473952,2.185149654420863,0.9761947515958774,A,555.9760000001006,Correct
3,503,132,A,64.30540321143773,87.04062196454626,3.2152701605718867,1.3672308926385246,A,603.7269999997079,Correct
3,503,133,A,61.878287593757605,73.80401683585907,3.09391437968788,1.1593107854847615,A,1049.23830000007,Correct
3,503,134,A,65.29890208078966,82.66868905951544,3.2649451040394832,1.2985567311563633,A,495.8972999997968,Correct
3,503,135,A,48.49730927549509,56.96000120387403,2.4248654637747546,0.8947256066527822,B,1373.135600000296,Incorrect
3,503,136,B,59.78160223481736,45.872450111220175,2.989080111740868,0.7205627613578678,B,598.8285999997061,Correct
3,503,137,B,52.19081603713988,26.723779715021664,2.609540801856994,0.4197761501443199,B,476.5994999997929,Correct
3,503,138,A,61.74778093330903,85.40629307358925,3.087389046665452,1.3415589144516242,A,519.6996999998191,Correct
3,503,139,B,73.84132678451657,42.08419184758538,3.6920663392258284,0.6610569397031886,B,460.10500000011234,Correct
3,503,140,A,28.05402528575315,60.08151549700359,1.4027012642876573,0.9437582385096389,A,524.4139000001269,Correct
3,503,141,A,23.03806435186871,48.934412445665046,1.1519032175934354,0.7686599532351713,A,873.3702999998059,Correct
3,503,142,B,64.94828308723784,38.17226762038824,3.2474141543618917,0.5996085776353762,B,495.44809999997597,Correct
3,503,143,A,50.54055976949895,78.18583258947803,2.527027988474947,1.228140186389528,A,589.8305999999138,Correct
3,503,144,B,58.81911319232321,44.45132650660804,2.9409556596161606,0.6982398039774054,B,542.1011999997063,Correct
3,503,145,B,81.16778581361818,61.542283814320996,4.05838929068091,0.9667039335810443,B,1384.6341999997094,Correct
3,503,146,B,63.440197812492116,30.956003793738375,3.1720098906246057,0.48625577051453117,B,397.3225999998249,Correct
3,503,147,A,33.17316546735625,63.8687847470253,1.6586582733678126,1.0032485247748126,A,547.4116000000322,Correct
3,503,148,A,35.96008965350894,45.334005923278305,1.7980044826754469,0.7121048998318364,A,628.5170999999536,Correct
3,503,149,B,74.02110497705371,62.549677098102364,3.7010552488526853,0.9825280302790608,B,432.13879999984783,Correct
3,503,150,A,48.86843632373603,73.95625585258895,2.4434218161868015,1.161702150367503,A,562.3413000002984,Correct
3,503,151,B,85.77349515656977,61.85157299167334,4.288674757828488,0.9715622366180692,B,430.7758999998441,Correct
3,503,152,B,36.56408087915254,16.18629238300797,1.828204043957627,0.25425368619657135,B,839.3298999999388,Correct
3,503,153,A,46.81151187895837,58.170752451183326,2.3405755939479183,0.9137440427721399,B,1482.9678999999487,Incorrect
3,503,154,A,66.11401060360272,86.94971564562039,3.305700530180136,1.3658029395200124,A,660.0969999999506,Correct
3,503,155,B,72.79632527506773,56.4406041515731,3.6398162637533864,0.8865669368337581,B,563.2816000002094,Correct
3,503,156,B,71.97931842952583,59.00726352698126,3.598965921476292,0.9268839280240064,B,582.8750999999102,Correct
3,503,157,B,86.49544868053424,68.34250351663196,4.324772434026712,1.073521534878928,B,609.1188999998849,Correct
3,503,158,A,51.98798796891444,73.28804523392016,2.599399398445722,1.1512059225142,A,597.2795000002407,Correct
3,503,159,B,59.46588694808993,28.09721172098022,2.9732943474044964,0.4413499696449424,B,551.2262999995983,Correct
3,503,160,A,23.248611266906984,55.304898866788875,1.162430563345349,0.8687273199371519,A,460.195499999827,Correct
3,503,161,B,59.837570867883336,36.829661400872894,2.991878543394167,0.5785189684559093,B,449.2176999997355,Correct
3,503,162,B,69.37496767570534,52.89433104108301,3.4687483837852664,0.8308622090760646,B,522.297399999843,Correct
3,503,163,B,48.37061832385369,19.68475609063753,2.418530916192685,0.30920742561026904,B,461.34429999983695,Correct
3,503,164,A,44.153346684038006,56.431877131750035,2.2076673342019,0.8864298531269389,A,1237.9369000000224,Correct
3,503,165,B,62.8616742661058,42.04340976687693,3.14308371330529,0.6604163362774297,B,542.7607000001444,Correct
3,503,166,A,58.04910409605869,77.5227970642931,2.902455204802935,1.217725248714578,A,577.8414999999768,Correct
3,503,167,B,50.48763008869936,23.326325392703747,2.524381504434968,0.3664090624448157,B,529.5888000000559,Correct
3,503,168,A,40.76723056956263,67.62612699083655,2.0383615284781316,1.0622687187257127,A,610.6761000000915,Correct
3,503,169,B,76.65322505441355,57.27991300036017,3.8326612527206776,0.8997507694009699,B,490.41540000007444,Correct
3,503,170,B,71.87032164934182,61.57386418463335,3.5935160824670906,0.967199996877899,B,529.88890000006,Correct
3,503,171,A,26.80589109083185,53.98824148304684,1.3402945545415923,0.8480453141168585,A,531.5662000002703,Correct
3,503,172,B,46.17712483871932,29.810817817560032,2.308856241935966,0.4682672312657516,B,505.67000000000917,Correct
3,503,173,B,69.42095536264391,38.43892271189193,3.471047768132195,0.6037971860179276,B,404.7025999998368,Correct
3,503,174,B,72.06549398507404,52.78593199790704,3.6032746992537024,0.8291594808875757,B,574.9275000002854,Correct
3,503,175,A,60.68232936913332,83.14965888168928,3.034116468456666,1.3061117874560617,A,554.8333000001548,Correct
3,503,176,B,83.96957381212096,62.43058777324804,4.1984786906060485,0.980657379538644,B,513.4315000000242,Correct
3,503,177,A,29.266486242582964,55.21934176163671,1.4633243121291484,0.8673833920721097,A,585.1719999996021,Correct
3,503,178,A,16.81045085759262,31.77635398975805,0.8405225428796311,0.49914180126046304,A,539.1577999998844,Correct
3,503,179,B,37.91323589460164,28.180147899284712,1.8956617947300822,0.44265272808733347,B,550.1971000003323,Correct
3,503,180,A,67.81739783365336,87.11827677271401,3.3908698916826676,1.3684506915128032,A,440.40580000000773,Correct
3,503,181,A,54.67123015645075,67.53155237182375,2.7335615078225373,1.0607831440841793,A,784.7113000002537,Correct
3,503,182,A,65.00718562796578,84.21187559077762,3.250359281398289,1.3227970485050229,A,483.49710000002233,Correct
3,503,183,A,55.47375629134622,83.74060115560896,2.7736878145673107,1.3153942869882702,A,866.9304000000011,Correct
3,503,184,A,65.63195268062903,81.34719926095563,3.281597634031451,1.2777988179416164,A,506.4056999999593,Correct
3,503,185,B,65.78464081320982,56.63854475126989,3.289232040660491,0.8896761805030312,B,488.7706999998045,Correct
3,503,186,A,20.833253585156804,39.04058762389838,1.04166267925784,0.6132481163553388,A,636.116800000309,Correct
3,503,187,A,22.641968353040294,36.001045701205484,1.1320984176520148,0.5655031034822877,A,1084.933799999817,Correct
3,503,188,B,63.07781697181775,41.73693286364004,3.153890848590887,0.6556022083389099,B,442.4524000000929,Correct
3,503,189,A,25.552091532730298,37.65663720236233,1.277604576636515,0.591509073969188,A,485.24630000019897,Correct
3,503,190,A,58.63204289034592,80.78893440800894,2.9316021445172957,1.2690296141377428,A,497.96550000019124,Correct
3,503,191,A,67.10653532091028,82.87556145859719,3.355326766045514,1.3018062752022916,A,505.1674000001185,Correct
3,503,192,B,60.97100949022992,50.03554918578066,3.0485504745114955,0.7859565687018963,B,434.53679999993255,Correct
3,503,193,A,68.7255024496443,86.89706162785498,3.436275122482215,1.3649758521430435,A,498.28230000002804,Correct
3,503,194,B,78.77666844888842,49.16070381381078,3.9388334224444206,0.7722145297338584,B,453.0490000001919,Correct
3,503,195,A,31.186464087460692,58.61129594380061,1.5593232043730347,0.9206640837721063,A,579.1357999996762,Correct
3,503,196,B,48.78826776994247,30.5117549778196,2.439413388497124,0.47927752643224925,B,508.5478000000876,Correct
3,503,197,A,67.77497664675954,89.77124995117141,3.3887488323379773,1.410123496750866,A,558.7725999998838,Correct
3,503,198,A,15.783972353707977,31.49499687313293,0.7891986176853989,0.4947222540073396,A,540.306800000053,Correct
3,503,199,B,51.29669370297776,21.834953245974702,2.5648346851488886,0.3429826435451537,B,846.7944999997599,Correct
3,503,200,A,39.15848294083208,52.56302267154132,1.957924147041604,0.8256580293769397,A,903.6398000002919,Correct
3,503,201,B,75.48516126168924,42.89541410811312,3.774258063084462,0.6737995891737009,B,694.3031999999221,Correct
3,503,202,B,46.729789061743105,17.027820280371344,2.336489453087155,0.2674723754973095,B,841.3324999996803,Correct
3,503,203,A,52.86081890652491,70.69317261475706,2.643040945326246,1.1104457587273797,A,855.7141999999658,Correct
3,503,204,A,64.91045306695456,79.91037073916047,3.245522653347728,1.2552291682989165,A,860.3698000001714,Correct
3,503,205,B,40.25187504137141,16.678969058178097,2.012593752068571,0.26199263331311895,B,776.5620999998646,Correct
3,503,206,A,11.87933376172408,36.53987937396863,0.593966688086204,0.5739670830215853,A,1190.9256000003552,Correct
3,503,207,A,24.524781920713053,40.97627097924254,1.2262390960356526,0.6436537593994651,A,851.9223000002967,Correct
3,503,208,B,61.985411353213266,39.8770858073685,3.0992705676606636,0.6263877990949934,B,474.25840000005337,Correct
3,503,209,A,56.847639513856734,73.54613558364822,2.842381975692837,1.1552599962475407,A,750.171500000306,Correct
3,503,210,B,70.56767996791311,40.43581464800324,3.5283839983956558,0.6351642912004277,B,796.262200000001,Correct
3,503,211,B,85.5563382891323,69.15821777485641,4.277816914456615,1.0863347444842597,B,2842.907099999593,Correct
3,503,212,A,31.871340667510083,43.621265139924766,1.593567033375504,0.685201230519401,A,512.6970999999685,Correct
3,503,213,B,57.96589649633941,31.599026538241418,2.89829482481697,0.4963563481656408,B,487.3265999999603,Correct
3,503,214,A,36.00573643306034,46.158189162513835,1.8002868216530172,0.7250511398798073,A,841.5400999997473,Correct
3,503,215,A,52.409848786484,81.81202531440563,2.6204924393241997,1.2851002885151945,A,669.4385999999213,Correct
3,503,216,A,52.7251150846961,65.23449434398817,2.6362557542348046,1.0247010409585908,A,613.4506999997029,Correct
3,503,217,A,30.365460803912768,46.04578370208051,1.5182730401956384,0.7232854790362039,A,657.3390000003201,Correct
3,503,218,B,89.57236144366126,67.34458560272256,4.478618072183064,1.0578462769428105,B,795.8450000000994,Correct
3,503,219,B,53.97389223938321,29.212384803553412,2.698694611969161,0.4588670674634076,B,630.9003000001212,Correct
3,503,220,B,85.32317882887018,58.513018451140454,4.26615894144351,0.9191203445273344,B,602.7828000001136,Correct
3,503,221,A,56.50441854345351,66.43842643647679,2.825220927172676,1.0436123620445068,A,1417.4315000000206,Correct
3,503,222,B,69.05383678014987,53.57472080585978,3.4526918390074934,0.8415497465090667,B,746.5402000002541,Correct
3,503,223,A,23.694622663971373,35.794570979950166,1.1847311331985686,0.5622598061450491,A,447.21009999966554,Correct
3,503,224,A,34.138230807519406,61.83473819439074,1.7069115403759703,0.9712977962407305,A,498.8274000002093,Correct
3,503,225,A,39.599252893971105,69.07437685585336,1.9799626446985554,1.0850177744082088,A,555.1230999999461,Correct
3,503,226,A,39.674278843599474,47.85364593459939,1.9837139421799737,0.7516833125781226,A,769.5145999996384,Correct
3,503,227,A,44.02519592449902,74.80897984959867,2.201259796224951,1.1750967075902303,A,515.7251000000542,Correct
3,503,228,B,65.56574228399012,52.074562298082256,3.278287114199506,0.8179853117727962,B,535.8608000001368,Correct
3,503,229,B,64.8198462812363,40.846917245785534,3.240992314061815,0.6416218757057502,B,558.7855000003401,Correct
3,503,230,A,42.27506997389282,53.46011038262497,2.1137534986946407,0.8397494501907701,A,1410.1223999996364,Correct
3,503,231,A,43.118221392342434,73.54419890455618,2.1559110696171215,1.155229574963501,A,479.6661000000313,Correct
3,503,232,B,61.11069371776688,37.03388522638274,3.055534685888344,0.5817269088054581,B,471.38940000013463,Correct
3,503,233,A,20.197537590946265,32.58060054841668,1.0098768795473132,0.5117748766622472,A,566.5657000004103,Correct
3,503,234,A,37.9992802982499,45.462551486283594,1.8999640149124952,0.7141240888137812,A,961.0449000001609,Correct
3,503,235,B,33.529107273051864,15.199391505131956,1.6764553636525932,0.2387514834577883,B,935.7559999998557,Correct
3,503,236,B,85.56321548161398,68.73132257429002,4.278160774080699,1.0796290903544992,B,2143.736600000011,Correct
3,503,237,B,71.86461429861615,57.869726839103606,3.5932307149308076,0.9090155435148799,B,729.1259999997237,Correct
3,503,238,B,69.63587987737581,47.763982576713815,3.481793993868791,0.7502748838459751,B,743.2175999997526,Correct
3,503,239,A,33.067700953339845,57.80212558266707,1.6533850476669922,0.9079536654619075,A,926.6967000003206,Correct
3,503,240,B,56.6659742820487,29.99691010543831,2.833298714102435,0.4711903620881921,B,682.5670000002901,Correct
3,503,241,B,78.1738912753548,53.37801528056796,3.90869456376774,0.8384599033431801,B,829.6162999999979,Correct
3,503,242,B,77.7568757110408,58.90716260332377,3.8878437855520405,0.9253115463921068,B,1062.756299999819,Correct
3,503,243,A,51.206883405430276,79.39172331920668,2.560344170271514,1.247082273677266,A,795.7393000001503,Correct
3,503,244,B,60.67897125587297,35.734720693742595,3.0339485627936487,0.5613196800477245,B,789.9621999999908,Correct
3,503,245,B,80.06283862583322,66.60939797719718,4.003141931291662,1.0462979767260074,B,1212.5934000000598,Correct
3,503,246,B,50.67151766923195,40.90081951505401,2.5335758834615976,0.6424685705714785,B,826.1518999997861,Correct
3,503,247,B,35.038809305390004,24.460483787916512,1.7519404652695,0.3842243808568538,B,2094.872299999679,Correct
3,503,248,B,67.20358615463714,45.28874404707097,3.360179307731857,0.7113939279429331,B,702.867999999853,Correct
3,503,249,B,77.20746841900774,66.04240470372788,3.860373420950387,1.0373916672131775,B,779.3182000000343,Correct
3,503,250,A,31.179346855260583,44.5474587008016,1.558967342763029,0.6997498449526651,A,1806.3310000002275,Correct
3,503,251,B,40.19112996823365,24.491278599136717,2.009556498411683,0.38470810462034416,B,841.9601999999031,Correct
3,503,252,B,42.547437275616474,14.752266932320516,2.1273718637808234,0.23172806709186883,B,788.7643999997636,Correct
3,503,253,B,54.47353704356685,30.166519457947782,2.7236768521783428,0.4738545795673116,B,825.7518999998865,Correct
3,503,254,B,47.45711938403904,26.79970965251617,2.372855969201952,0.4209688548134214,B,881.7506000000321,Correct
3,503,255,B,38.02965900718981,17.387113762571243,1.9014829503594906,0.27311614431811904,B,822.4301000000196,Correct
3,503,256,A,36.89347497957955,48.21656225282043,1.8446737489789775,0.757383988774078,A,1291.44290000022,Correct
3,503,257,B,44.41416587616587,17.043634392482534,2.2207082938082934,0.26772078298946733,B,790.7748000002357,Correct
3,503,258,A,68.85342967086163,85.46087257398602,3.4426714835430814,1.3424162472390397,A,1010.8651000000464,Correct
3,503,259,A,48.88519008176979,74.94636741189048,2.44425950408849,1.177254786372183,A,866.3836999999148,Correct
3,503,260,A,40.94155357376155,62.855954242543724,2.0470776786880776,0.9873390204137577,A,1713.8350000000173,Correct
3,503,261,A,28.315800634119586,38.143456681160885,1.4157900317059793,0.5991560164602777,A,1002.7353999998923,Correct
3,503,262,A,65.4868276582762,85.5657816939052,3.2743413829138097,1.3440641558412028,A,817.3612000000503,Correct
3,503,263,A,61.357889514946415,71.98832343483113,3.067894475747321,1.130789940235557,A,1978.1732999999804,Correct
3,503,264,B,41.46721110322833,23.3065110520268,2.0733605551614165,0.36609781950928355,B,906.2238000001344,Correct
3,503,265,A,35.19593775765022,66.91909199149055,1.7597968878825112,1.0511626389268314,A,884.1424000002007,Correct
3,503,266,A,64.94530048781034,79.34030668465334,3.2472650243905172,1.2462746230703403,A,2146.81550000023,Correct
3,503,267,A,59.86413454029476,84.73425763633277,2.9932067270147376,1.3310026064884395,A,995.082999999795,Correct
3,503,268,A,30.773795967296877,43.78623555330628,1.5386897983648438,0.687792579713096,A,719.2371000001003,Correct
3,503,269,A,13.22466174126139,36.44381465545382,0.6612330870630694,0.5724581019518088,A,821.8940000001567,Correct
3,503,270,A,39.50461712547922,69.94470810265568,1.975230856273961,1.098688905663928,A,712.0991000001595,Correct
3,503,271,A,18.291358128042837,36.36275974797407,0.9145679064021419,0.5711848944424298,A,693.9410999998472,Correct
3,503,272,B,72.59782844276347,51.29973282868028,3.6298914221381735,0.8058143189285054,B,814.756700000089,Correct
3,503,273,A,30.06632619164206,43.32423259159668,1.503316309582103,0.6805354541608781,A,1041.0239000002548,Correct
3,503,274,A,17.64052728919308,43.61234527878284,0.882026364459654,0.6850611176682282,A,852.341300000262,Correct
3,503,275,B,41.04424830997861,33.026991411658415,2.0522124154989307,0.5187867679451963,B,766.8023999999605,Correct
3,503,276,A,33.85235277007504,56.98598114464781,1.6926176385037521,0.8951336986081602,A,1061.4815999997518,Correct
3,503,277,A,46.802732345658825,74.52387750339945,2.3401366172829414,1.170618330408527,A,752.7816000001621,Correct
3,503,278,B,79.75077639682746,56.26382288241371,3.9875388198413733,0.8837900631513411,B,797.2382999996626,Correct
3,503,279,B,53.26049315612379,43.41545017554711,2.6630246578061896,0.6819682966189624,B,669.817200000125,Correct
3,503,280,A,61.041318446071955,82.00053883957943,3.0520659223035977,1.2880614520441362,A,869.5541000001867,Correct
3,503,281,B,68.97782679793102,44.00929802468171,3.4488913398965506,0.6912964368199194,B,807.7821999995649,Correct
3,503,282,B,63.006941734331896,33.220665982664684,3.150347086716595,0.5218290009924986,B,865.9950999999637,Correct
3,503,283,A,62.1127070437117,87.74160239811198,3.105635352185585,1.378241867540526,A,831.8404000001465,Correct
3,503,284,B,49.5373743066761,40.65356937547875,2.476868715333805,0.6385847744610352,B,1167.8271000000677,Correct
3,503,285,B,50.42751308455509,43.16998117849878,2.521375654227754,0.6781124786299071,B,703.0220000001464,Correct
3,503,286,A,39.947813661343126,67.99615199264217,1.9973906830671564,1.068081057862298,A,899.1445000001477,Correct
3,503,287,A,34.20045457454532,52.60748056172242,1.710022728727266,0.826356372282875,A,979.4623999996475,Correct
3,503,288,A,65.508233056363,85.99483066130662,3.27541165281815,1.3508036412612958,A,796.8883000003188,Correct
3,503,289,A,41.532011731064784,64.85943177665409,2.0766005865532393,1.0188095719277244,A,887.9053000000567,Correct
3,503,290,B,64.95925973254094,56.90468025405999,3.247962986627047,0.893856627205155,B,873.023799999828,Correct
3,503,291,A,32.79933402834072,52.029861944496886,1.6399667014170363,0.8172831602606129,A,904.502699999739,Correct
3,503,292,B,50.97072521123505,26.57263509106545,2.5485362605617525,0.4174019759430679,B,929.9086000000898,Correct
3,503,293,B,40.54394999836035,17.04591086369258,2.0271974999180173,0.26775654171561525,B,974.9064000002363,Correct
3,503,294,A,42.208351886048376,67.22503598006456,2.110417594302419,1.055968395861402,A,972.7096999999958,Correct
3,503,295,A,35.227844339737565,52.42108033226644,1.7613922169868783,0.8234284043254432,A,737.1167000001151,Correct
3,503,296,A,18.35880081724259,41.96078601593457,0.9179400408621293,0.6591184854325669,A,633.6943999999676,Correct
3,503,297,B,71.7732000471867,47.431701027531496,3.5886600023593354,0.7450554174768018,B,520.6324000000677,Correct
3,503,298,B,78.94089965253023,59.55506055497554,3.9470449826265117,0.9354887036180322,B,860.5066000000079,Correct
3,503,299,B,74.84398657832655,62.63706371307647,3.742199328916328,0.9839006960171842,B,1000.087700000222,Correct
3,503,300,B,74.84387924611835,54.43077367029556,3.7421939623059175,0.8549965934590463,B,1052.4970000001304,Correct
3,503,301,B,61.45978501618871,35.3777383256353,3.0729892508094356,0.5557122141221897,B,495.8896999996796,Correct
3,503,302,B,38.521411705310484,15.366621423843068,1.926070585265524,0.24137832487820457,B,625.2552999999352,Correct
3,503,303,A,14.42609958670726,39.40123710434401,0.7213049793353631,0.6189131851467836,A,515.7617999998365,Correct
3,503,304,B,72.45201325877241,50.587489997027724,3.6226006629386207,0.7946264346910471,B,424.7443999997813,Correct
3,503,305,A,20.72103587608761,34.403302988358405,1.0360517938043805,0.5404058196372528,A,546.1772999997265,Correct
3,503,306,B,58.63315101596276,51.07678138555062,2.9316575507981377,0.8023122058492886,B,1588.6481000002277,Correct
3,503,307,A,60.52336379531137,71.86213485271426,3.0261681897655683,1.1288077746228309,A,541.7554000000564,Correct
3,503,308,A,14.839718026713772,41.56880599735486,0.7419859013356885,0.6529612776989467,A,475.56680000025153,Correct
3,503,309,B,53.76060534797659,42.31713444822369,2.6880302673988297,0.6647159935175555,B,463.17369999997027,Correct
3,503,310,A,23.726884417523014,48.20855897355873,1.1863442208761505,0.757258273557412,A,524.1713000000345,Correct
3,503,311,A,50.830982315912735,69.82146132508018,2.541549115795637,1.0967529498088788,A,631.4762000001792,Correct
3,503,312,A,62.14287580480622,81.9774168893968,3.107143790240311,1.287698253299984,A,493.2946999997512,Correct
3,503,313,A,25.65454003652242,46.38164396115235,1.2827270018261208,0.728561159648868,A,731.9129000002249,Correct
3,503,314,B,75.7163083625207,53.900974097905824,3.785815418126035,0.8466745212365733,B,744.6468000002824,Correct
3,503,315,B,39.820721001685826,30.41450377635597,1.9910360500842912,0.4777499081318947,B,2026.5438999999787,Correct
3,503,316,A,14.179802875755918,37.77070441813116,0.7089901437877958,0.593300837604562,A,511.29370000035124,Correct
3,503,317,A,40.538244856012696,61.68099103853419,2.0269122428006345,0.9688827415639844,A,689.7840000001452,Correct
3,503,318,B,89.63520056919953,65.46961776868758,4.481760028459976,1.0283943510772036,B,822.5022999999965,Correct
3,503,319,B,52.061146577920404,34.49691186169723,2.6030573288960204,0.541876224381213,B,564.0490000000682,Correct
3,503,320,B,43.536644296198794,21.772190251209558,2.1768322148099397,0.3419967647287963,B,665.3329000000667,Correct
3,503,321,B,50.160830173818525,34.5413986946779,2.5080415086909262,0.5425750219195807,B,518.2737000000088,Correct
3,503,322,B,36.38389992916116,13.235769942330034,1.8191949964580578,0.20790698807714317,B,623.1207999999242,Correct
3,503,323,B,81.6645774400041,61.61340135867296,4.083228872000205,0.9678210453554317,B,431.7240000000311,Correct
3,503,324,B,44.72389123247346,18.61682202138313,2.236194561623673,0.2924323564778296,B,437.50890000001164,Correct
3,503,325,B,44.645722460074595,25.870391803876842,2.2322861230037296,0.4063711641827454,B,502.0724999999402,Correct
3,503,326,A,20.672975930086213,38.08603552167939,1.0336487965043106,0.5982540469963394,A,1230.941199999961,Correct
3,503,327,B,70.86705664172189,50.76790423416409,3.5433528320860943,0.7974603749010002,B,444.4578999996338,Correct
3,503,328,A,16.384325283001655,36.60831230253709,0.8192162641500828,0.5750420249498567,A,485.86969999996654,Correct
3,503,329,A,49.77326133685734,67.86662387950493,2.4886630668428666,1.0660464350189716,A,715.1244000001498,Correct
3,503,330,A,40.70154569635665,63.96760466871139,2.0350772848178327,1.0048007844747993,A,1297.2153999999136,Correct
3,503,331,B,73.89356569428766,57.561264123974425,3.694678284714383,0.9041702225160989,B,494.47719999989204,Correct
3,503,332,A,41.30349020542735,61.3335323367849,2.0651745102713677,0.9634248730397773,A,847.9062999999769,Correct
3,503,333,B,86.85060022586475,66.07705486004599,4.3425300112932375,1.037935950595851,B,949.3798000003153,Correct
3,503,334,A,31.400012619313152,48.4418731523811,1.5700006309656576,0.7609231641082455,A,1452.3042000000714,Correct
3,503,335,B,76.99565270940312,62.52724296841655,3.8497826354701554,0.9821756357940075,B,1073.0444000000716,Correct
3,503,336,A,30.41746733555319,63.756306777217794,1.5208733667776597,1.0014817249566228,A,672.7619999996932,Correct
3,503,337,A,59.37379123630586,72.58286860880669,2.9686895618152933,1.1401290339895014,A,679.9507000000631,Correct
3,503,338,B,53.89514454047037,27.054677109044974,2.6947572270235183,0.42497387425509814,B,495.3949000000648,Correct
3,503,339,B,66.07926196375185,41.429898139453734,3.3039630981875923,0.6507793181694065,B,844.1153999997368,Correct
3,503,340,A,18.68781064303571,45.94964526287956,0.9343905321517855,0.7217753399645972,A,1251.572699999997,Correct
3,503,341,A,49.76453252780823,75.82597577231766,2.4882266263904116,1.191071642187954,A,671.4708999998038,Correct
3,503,342,B,51.253255467899734,32.53204058190552,2.5626627733949867,0.511012098491997,B,698.2213999999658,Correct
3,503,343,A,27.278499266311606,48.42461525526363,1.36392496331558,0.7606520776942423,A,614.1332000001967,Correct
3,503,344,A,43.62331740565986,61.00979700777792,2.1811658702829932,0.9583396503831982,A,684.747299999799,Correct
3,503,345,A,56.46882347030337,79.57417216648768,2.8234411735151683,1.2499481734686355,A,549.8848000001999,Correct
3,503,346,A,45.73998338680295,67.11797835731103,2.2869991693401475,1.0542867386556352,A,544.9101000003793,Correct
3,503,347,A,15.138301132077522,37.785961580133225,0.756915056603876,0.5935404965448635,A,1288.123899999846,Correct
3,503,348,A,42.27465204354047,56.21387949022634,2.1137326021770235,0.883005554181385,A,1440.4132999998183,Correct
3,503,349,A,45.95357041294375,77.59870889140439,2.2976785206471875,1.218917668906445,A,459.47919999980513,Correct
3,503,350,B,48.42742724356749,40.755239741191296,2.4213713621783746,0.6401818088310869,B,606.8086000000221,Correct
3,503,351,B,66.07130496343233,45.55779859954476,3.3035652481716165,0.715620226970266,B,412.34799999983807,Correct
3,503,352,B,53.76845996439541,42.42207824484907,2.6884229982197705,0.6663644468201461,B,862.5601000003371,Correct
3,503,353,A,32.08224081572285,49.542692783546855,1.6041120407861424,0.7782147984392344,A,687.1114999999008,Correct
3,503,354,A,26.737156932848073,54.422983145776946,1.3368578466424037,0.8548742201860698,A,577.103299999635,Correct
3,503,355,B,51.32018641000245,41.96619653782615,2.5660093205001226,0.6592034737117002,B,499.5968000002904,Correct
3,503,356,B,40.34518284091349,30.365030796761534,2.0172591420456745,0.47697278838566926,B,607.4770000000171,Correct
3,503,357,A,26.645929333368393,38.23240736481752,1.3322964666684198,0.6005532505318152,A,804.7235999997611,Correct
3,503,358,A,48.73781249993938,78.00051569912745,2.436890624996969,1.2252292354829708,A,484.19840000042313,Correct
3,503,359,A,32.48255304428189,59.2715452584963,1.6241276522140948,0.9310352557550345,A,648.838699999942,Correct
3,503,360,B,41.37197822908878,29.394977152444504,2.0685989114544387,0.4617352213727973,B,545.710599999893,Correct
3,503,361,A,29.0734043396613,54.51392758322726,1.453670216983065,0.8563027720689637,A,555.6634999998096,Correct
3,503,362,A,14.47575123452711,31.70026523978767,0.7237875617263555,0.4979466019708241,A,670.9856999996191,Correct
3,503,363,A,10.051477166497364,33.28073091076648,0.5025738583248682,0.5227724986768135,A,744.3975999999566,Correct
3,503,364,A,35.05027829842754,55.0954205045254,1.752513914921377,0.8654368415172873,A,818.8782000001993,Correct
3,503,365,A,53.88571801869323,77.55702446045899,2.6942859009346614,1.2182628913963092,A,467.50040000006265,Correct
3,503,366,A,45.90084478502571,58.37858740843923,2.2950422392512855,0.9170087066465114,A,1379.4426999997995,Correct
3,503,367,A,31.86306137601956,43.398344316824584,1.593153068800978,0.6816995984184823,A,929.3081999999231,Correct
3,503,368,A,47.17045896255141,64.11810872258924,2.3585229481275705,1.00716489662479,A,706.4282999999705,Correct
3,503,369,B,34.285063455332065,19.055811855188907,1.7142531727666033,0.29932799266225374,B,1262.0443000000705,Correct
3,503,370,B,61.661442369892505,42.72469145375986,3.0830721184946253,0.671117883990113,B,820.6775999997262,Correct
3,503,371,A,23.481228785705323,45.91936851887083,1.1740614392852662,0.7212997539818351,A,641.9190000001436,Correct
3,503,372,A,23.34718887547699,42.379072405173915,1.1673594437738495,0.6656889126702215,A,576.0062999997899,Correct
3,503,373,B,53.937416624251924,38.06527144467402,2.696870831212596,0.5979278856374461,B,637.2979000002488,Correct
3,503,374,A,13.9350394523629,40.85220348215147,0.696751972618145,0.6417049117124121,A,945.1716999997188,Correct
3,503,375,B,58.637135871361856,28.96867885816767,2.931856793568093,0.4550389434251076,B,802.2688000000926,Correct
3,503,376,A,40.7440444350046,71.36697600380988,2.0372022217502295,1.121029837612441,A,671.252099999947,Correct
3,503,377,B,89.80590503209847,66.38636477313352,4.490295251604923,1.0427945793490425,B,571.1130999998204,Correct
3,503,378,A,13.61429788533685,41.98926807377728,0.6807148942668425,0.6595658805509559,A,487.0125999996162,Correct
3,503,379,B,66.61352088066458,39.60133879691314,3.330676044033229,0.6220563751835139,B,386.3424999999552,Correct
3,503,380,A,43.198289259287236,72.06360779906466,2.1599144629643616,1.1319725042635882,A,559.8701999997502,Correct
3,503,381,B,71.48159122027448,51.18433884599207,3.574079561013724,0.8040017144870968,B,536.97880000027,Correct
3,503,382,B,60.943266056027625,34.922853728553974,3.047163302801381,0.5485669035800804,B,753.2768999999462,Correct
3,503,383,A,18.694909136302932,35.87905756650013,0.9347454568151465,0.5635869183432104,A,743.1102000000465,Correct
3,503,384,B,86.87896964581677,58.77761578284982,4.3439484822908385,0.9232766296946222,B,701.4440000002651,Correct
3,503,385,B,50.93033041362567,43.56602762839063,2.5465165206812834,0.6843335617172097,B,1836.3538999997218,Correct
3,503,386,B,48.190458654212094,23.664325406292058,2.4095229327106047,0.3717183542428272,B,579.5768000002681,Correct
3,503,387,A,21.67860337922925,47.22780730864314,1.0839301689614627,0.7418526624299381,A,760.0339999999051,Correct
3,503,388,A,44.18565861332081,63.09732894649676,2.2092829306660406,0.9911305253972642,A,1074.2637000003015,Correct
3,503,389,B,71.71874964167904,59.63093978875618,3.585937482083952,0.9366806118350585,B,455.23769999999786,Correct
3,503,390,B,38.645870832087766,21.244094336932953,1.9322935416043885,0.3337014535053855,B,843.0947000001652,Correct
3,503,391,A,18.996616091909033,40.174053207252086,0.9498308045954517,0.6310525521041431,A,512.9197999999633,Correct
3,503,392,A,43.5739646663048,67.33845342784213,2.17869823331524,1.0577499529650363,A,651.392400000077,Correct
3,503,393,B,38.12170742193321,17.512129785690743,1.9060853710966603,0.2750798914171852,B,731.4244999997754,Correct
3,503,394,A,30.562220962537186,45.9071448916925,1.5281110481268592,0.7211077456951167,A,1270.5164000003606,Correct
3,503,395,B,60.674293875272575,35.50229593828791,3.033714693763629,0.5576687605264802,B,792.1490999997332,Correct
3,503,396,A,39.197343413458384,63.176443881659615,1.9598671706729192,0.9923732598927484,A,1105.554000000211,Correct
3,503,397,A,63.61342645279427,78.36958139032501,3.1806713226397134,1.231026505803762,A,921.3073999999324,Correct
3,503,398,B,71.61986083292409,51.19887433296178,3.580993041646204,0.8042300373824987,B,1180.6295000001228,Correct
3,503,399,A,19.925231772851827,43.62930678727447,0.9962615886425914,0.6853275484205839,A,868.0684999999357,Correct
3,503,400,B,64.51388961617899,32.70208265624662,3.225694480808949,0.5136831131497529,B,735.9772999998313,Correct
3,503,401,B,37.5562811852475,16.141344238221055,1.8778140592623749,0.253547642389296,B,966.5761000001112,Correct
3,503,402,A,39.07411520802073,68.17287068582101,1.9537057604010364,1.070856948603511,A,595.3043999998044,Correct
3,503,403,B,31.719663438159376,13.840034314208854,1.5859831719079687,0.2173987506347459,B,656.851799999913,Correct
3,503,404,B,66.85705974043874,46.45778991411346,3.342852987021937,0.7297572574809844,B,1251.8721000001278,Correct
3,503,405,B,84.70627312678268,66.50197872180584,4.235313656339134,1.0446106390080498,B,1278.970500000014,Correct
3,503,406,A,38.76160853794631,67.12138700096733,1.9380804268973153,1.054340281504982,A,553.457100000287,Correct
3,503,407,A,59.86438722813476,83.50148233878792,2.993219361406738,1.3116382173969698,A,570.0299000000086,Correct
3,503,408,B,77.64491015314148,54.818816088541666,3.8822455076570743,0.8610919495112622,B,567.549500000041,Correct
3,503,409,B,45.569005828575044,31.409823973080833,2.278450291428752,0.49338436122189655,B,523.6920000002101,Correct
3,503,410,A,49.95215370663701,67.06574895427244,2.4976076853318507,1.0534663211111983,A,1057.792299999619,Correct
3,503,411,B,32.02603972791047,11.476931999182106,1.6013019863955236,0.18027922627190063,B,1212.0608000000175,Correct
3,503,412,A,28.136551412094143,41.99363137784526,1.4068275706047073,0.6596344191709825,A,1048.4643999998298,Correct
3,503,413,B,74.19935802271895,50.23480639927898,3.709967901135948,0.7890864936924019,B,741.9942999999876,Correct
3,503,414,B,65.72640905157117,41.57960657605464,3.2863204525785585,0.6531309327924355,B,555.5433999998058,Correct
3,503,415,A,44.91568461355439,61.40937936167949,2.2457842306777196,0.9646162753208049,A,642.1475000001919,Correct
3,503,416,A,15.8808517438313,35.092321783839814,0.7940425871915651,0.5512289015676012,A,959.4481999997697,Correct
3,503,417,B,49.74326217303129,37.865174926702885,2.4871631086515644,0.5947847768831112,B,810.4996000001847,Correct
3,503,418,A,41.24433491800492,51.589206272349806,2.062216745900246,0.8103613571487133,A,1196.1378000000877,Correct
3,503,419,B,63.535134959363695,37.84672832551284,3.176756747968185,0.5944950183491993,B,655.5011000000377,Correct
3,503,420,B,84.70025202600547,58.407738524598386,4.235012601300274,0.9174666113083592,B,739.9355000002288,Correct
3,503,421,B,78.9444279067093,62.07345469460715,3.9472213953354647,0.9750475462575835,B,925.8739000001697,Correct
3,503,422,A,14.859983555251887,44.331522130331386,0.7429991777625944,0.696357921235512,A,1050.3092999997534,Correct
3,503,423,A,28.09504641438366,38.73443855822538,1.404752320719183,0.6084391380772304,A,1019.6952999999667,Correct
3,503,424,A,29.091777640001272,42.0560677694983,1.4545888820000636,0.6606151677176517,A,1179.954600000201,Correct
3,503,425,B,62.832954714705224,40.62012984328887,3.1416477357352615,0.6380595075176991,B,979.7504999996818,Correct
3,503,426,A,30.292234978162753,49.13414206539357,1.5146117489081377,0.7717972987653885,A,1159.6036000000822,Correct
3,503,427,A,26.29068024360295,46.9881832093981,1.3145340121801474,0.7380886558808817,A,858.6743999999271,Correct
3,503,428,A,32.85662950208065,61.32136633415507,1.6428314751040325,0.9632337699173501,A,1461.7306999998618,Correct
3,503,429,B,38.637857627360574,24.5971994214387,1.9318928813680287,0.38637190500637464,B,2310.3031000000556,Correct
3,503,430,B,71.69449413924687,49.33950781955418,3.584724706962344,0.7750231764882378,B,1137.3763000001418,Correct
3,503,431,A,31.691928882732405,59.583704925174175,1.5845964441366203,0.9359386483329457,A,1228.9511999997558,Correct
3,503,432,B,39.04333592324454,28.623795643545982,1.952166796162227,0.4496215305580979,A,1219.0518000002157,Incorrect
3,503,433,A,58.220155273449635,77.30911449796805,2.9110077636724814,1.214368730811743,A,643.379300000106,Correct
3,503,434,B,60.18787076974006,39.52680858852457,3.009393538487003,0.6208856574077936,B,801.7210000002706,Correct
3,503,435,B,62.10438055266544,29.645680107195556,3.105219027633272,0.46567325417719313,B,760.9064000002945,Correct
3,503,436,B,51.020007380785756,34.424392265394204,2.5510003690392877,0.5407370892262785,B,811.6543999999521,Correct
3,503,437,A,24.993008118291762,53.52880732458618,1.249650405914588,0.8408285392317172,A,851.4058999999179,Correct
3,503,438,A,56.55173677902673,71.41960784032564,2.827586838951337,1.121856576567155,A,574.4740999998612,Correct
3,503,439,B,59.65600746707779,48.70942513420493,2.9828003733538897,0.7651258608110011,B,597.3692000002302,Correct
3,503,440,B,57.963889787226535,37.22410506318385,2.8981944893613267,0.584714875014765,B,537.8401000002668,Correct
3,503,441,A,12.467263982090397,35.692081023057796,0.6233631991045199,0.5606498976668502,A,584.4458000001396,Correct
3,503,442,B,56.55553863391829,30.919188371106635,2.8277769316959143,0.4856774752081379,B,502.27279999944585,Correct
3,503,443,A,46.95416490077193,68.4132845290576,2.3477082450385964,1.0746333604221783,A,772.6202999992893,Correct
3,503,444,A,18.518870223203702,44.81709107469609,0.9259435111601851,0.7039852203776495,A,657.5886000000537,Correct
3,503,445,A,49.88534010459594,57.85437177949452,2.494267005229797,0.9087743468025631,A,3201.060100000177,Correct
3,503,446,A,20.637699188695187,47.57124400703693,1.0318849594347594,0.7472473534731735,A,524.9689000002036,Correct
3,503,447,B,78.8987030506612,63.18436594274891,3.94493515253306,0.9924976993373454,B,548.1178,Correct
3,503,448,A,64.81188739633878,87.9033727122171,3.2405943698169386,1.3807829496923336,A,505.92219999998633,Correct
3,503,449,B,73.24046497735438,50.640427993609855,3.6620232488677185,0.7954579827968382,B,762.5406000006478,Correct
3,503,450,A,29.20804240808196,42.687802375026926,1.4604021204040978,0.6705384316963876,A,708.7620999991486,Correct
3,503,451,B,59.038336042581676,32.57207157131108,2.9519168021290842,0.5116409038031591,B,422.9752000001099,Correct
3,503,452,A,42.56174118310569,54.255973734769945,2.1280870591552845,0.8522508424925701,A,565.6211000004987,Correct
3,503,453,B,74.01112983782345,49.483738978714086,3.700556491891172,0.7772887542384153,B,489.2294999999649,Correct
3,503,454,B,64.79252487562877,31.859937910267057,3.2396262437814385,0.5004547344136097,B,553.5255000004327,Correct
3,503,455,B,75.61766698577856,63.61275961311803,3.7808833492889278,0.9992268913757256,B,1469.0953999997873,Correct
3,503,456,B,51.63271794645064,30.634354296797454,2.5816358973225317,0.48120331203142896,B,532.3309000004883,Correct
3,503,457,B,52.80852582574616,43.13041980457269,2.640426291287308,0.6774910500214464,B,496.1704999996073,Correct
3,503,458,A,60.26820536538852,87.33422959237939,3.013410268269426,1.371842870471717,A,553.0357000006916,Correct
3,503,459,B,32.73323424073429,12.136792269806293,1.6366617120367146,0.1906442871648442,B,743.6496999998781,Correct
3,503,460,A,53.108015017288885,74.92102122860453,2.655400750864444,1.1768566494561448,A,581.9968999994671,Correct
3,503,461,A,42.57201275166882,74.0799330255458,2.1286006375834408,1.163644866857393,A,566.5984000006574,Correct
3,503,462,B,31.72358292463646,10.238117891149606,1.5861791462318229,0.16081997976710916,B,733.4851999994498,Correct
3,503,463,B,78.96072657606112,47.46432400212514,3.948036328803056,0.7455678579634101,B,469.5220000003246,Correct
3,503,464,A,40.837444597141385,69.39837455039513,2.041872229857069,1.0901071182929711,A,534.3651000002865,Correct
3,503,465,B,48.60102100493492,23.027272073464825,2.430051050246746,0.3617115438910525,B,520.8564000004117,Correct
3,503,466,B,50.33580457137025,39.87689449371608,2.5167902285685124,0.6263847939471686,B,541.5634000000864,Correct
3,503,467,A,38.34980313922069,58.75967411531594,1.9174901569610343,0.9229948026400344,A,431.77300000024843,Correct
3,503,468,B,77.43664407960854,63.433128734536666,3.8718322039804267,0.9964052561331799,B,602.2970999993049,Correct
3,503,469,B,50.3703863662548,36.923110275879864,2.5185193183127397,0.57998685995195,B,403.41520000038145,Correct
3,503,470,A,58.37915471687458,78.53919553732877,2.9189577358437293,1.2336907985946215,A,485.3782999998657,Correct
3,503,471,B,69.82367035471967,39.024587331907604,3.491183517735983,0.6129967843564711,B,534.24509999968,Correct
3,503,472,B,57.81167622257049,50.31509069009254,2.8905838111285242,0.7903475963834945,B,1085.9522000000652,Correct
3,503,473,A,39.90247211354065,55.692289335346985,1.9951236056770325,0.8748124351876163,A,1503.0385999998543,Correct
3,503,474,B,79.82808531696043,60.29795578710686,3.991404265848021,0.9471580746362853,B,917.1753999999055,Correct
3,503,475,B,48.896186140261264,41.56157318515193,2.444809307013063,0.6528476649505393,B,817.3025999994934,Correct
3,503,476,B,83.02730823164228,68.2922983565361,4.151365411582114,1.0727329140682804,B,770.7181999994646,Correct
3,503,477,A,25.22710562286224,49.36670395009356,1.261355281143112,0.7754503723077807,A,1633.6515000002692,Correct
3,503,478,A,33.84675168952744,54.96821276431111,1.6923375844763717,0.8634386670066023,A,1760.8282000001054,Correct
3,503,479,B,65.93672637068072,45.69601459723112,3.296836318534036,0.7177913187849663,B,999.1922999997769,Correct
3,503,480,B,70.69180605571142,41.446892643891324,3.5345903027855714,0.6510462672208691,B,892.4882999999681,Correct
3,503,481,B,51.78866925616821,40.1817240570093,2.589433462808411,0.6311730455303634,B,1007.7805999999327,Correct
3,503,482,A,69.4297009392374,86.93825709533667,3.4714850469618703,1.3656229490330518,A,867.6912999999331,Correct
3,503,483,B,49.74174129420511,20.695055148806475,2.4870870647102556,0.32507716610563026,B,694.6915999997145,Correct
3,503,484,B,53.69459709631692,25.15952165133332,2.684729854815846,0.3952048419383105,B,447.3110999997516,Correct
3,503,485,A,41.180577360753624,50.17261100019814,2.0590288680376814,0.7881095306482047,A,823.6157999999705,Correct
3,503,486,B,37.537116475999326,21.9097929617059,1.8768558237999662,0.3441582230508431,B,491.7709000001196,Correct
3,503,487,A,21.303209273832667,38.981688232609514,1.0651604636916334,0.6123229268804686,A,557.4139999998806,Correct
3,503,488,B,37.40216738511907,13.127568553257284,1.8701083692559535,0.20620736463204736,B,1295.10560000017,Correct
3,503,489,A,61.31200542811874,86.07724726989113,3.0656002714059367,1.3520982383216102,A,532.6070999999502,Correct
3,503,490,A,25.10829184589192,54.94239507625504,1.255414592294596,0.8630331237109543,A,597.4740000001475,Correct
3,503,491,A,68.94022686928005,83.48278279662921,3.447011343464003,1.3113444856756133,A,537.8882999993948,Correct
3,503,492,B,78.65276293935058,49.58768204206472,3.9326381469675287,0.778921488059485,B,483.0221000001984,Correct
3,503,493,A,45.678843241896644,63.66119861375114,2.283942162094832,0.9999877694184066,A,1378.7253999998939,Correct
3,503,494,B,49.988882117446195,21.675279220013685,2.4994441058723096,0.3404744898105125,B,518.9001999997345,Correct
3,503,495,B,48.32459578020206,31.501478792565404,2.416229789010103,0.4948240717596906,B,445.54169999992155,Correct
3,503,496,B,42.41913318268245,19.556097221677042,2.1209566591341225,0.3071864568225418,B,515.6280999999581,Correct
3,503,497,B,80.72598676328302,67.7373100760189,4.0362993381641505,1.0640151785437741,B,648.6089999998512,Correct
3,503,498,A,25.95493162948564,38.0959114124374,1.297746581474282,0.5984091771256045,A,661.8986000003133,Correct
3,503,499,A,41.708822513190235,49.927441307045925,2.0854411256595116,0.7842584141137553,A,1105.1701999995203,Correct
3,503,500,A,46.6025369240726,75.15400295687252,2.33012684620363,1.1805163178858817,A,671.2964999996984,Correct
3,503,501,A,55.0185882730253,82.09009741871165,2.7509294136512654,1.289468234915475,A,617.4919000004593,Correct
3,503,502,B,52.873748201813065,30.223062296659766,2.6436874100906533,0.4747427524008649,B,634.6370000001116,Correct
3,503,503,B,84.49938921762717,61.65534045905545,4.224969460881358,0.9684798232037307,B,570.1289999997243,Correct
3,503,504,A,58.18229568704143,74.9523941473113,2.909114784352072,1.177349454110799,A,567.6520000006349,Correct
3,503,505,A,33.31573438126507,50.92126929468718,1.6657867190632532,0.7998694276382837,A,747.787999999673,Correct
3,503,506,B,80.8762164807647,65.98408044971814,4.043810824038235,1.0364755119735618,B,1089.8925000001327,Correct
3,503,507,A,28.456386885932332,60.54210563766333,1.4228193442966164,0.9509931715207017,A,540.6604000008883,Correct
3,503,508,A,29.391482771739682,52.337662228117864,1.469574138586984,0.8221180758095954,A,988.6605000001509,Correct
3,503,509,A,29.00276619325912,46.82813665010857,1.4501383096629559,0.7355746504063999,A,600.2730999998676,Correct
3,503,510,A,22.782756093201517,43.19104689644651,1.1391378046600757,0.678443378153643,A,491.0466000001179,Correct
3,503,511,A,57.41893813351068,66.51723675234472,2.8709469066755338,1.0448503115912957,A,600.6029999998646,Correct
3,503,512,A,50.92873156925031,79.65019093322631,2.5464365784625156,1.2511422734642406,A,517.5601999999344,Correct
3,503,513,A,34.190598165674025,58.85053095665445,1.7095299082837014,0.9244219785664215,A,474.8190999998769,Correct
3,503,514,B,86.04663252072105,64.5709444651254,4.302331626036053,1.0142780238349625,B,669.8719999994864,Correct
3,503,515,A,35.992456305966996,43.65140685039607,1.7996228152983498,0.6856746954003173,B,1745.1783999995314,Incorrect
3,503,516,B,76.49088593612825,47.989202625388124,3.8245442968064127,0.7538126320977566,B,556.8047000006118,Correct
3,503,517,B,68.5357575313243,54.86079717973865,3.4267878765662148,0.861751386949733,B,808.4002000005057,Correct
3,503,518,B,51.00290994520212,41.989182507321644,2.550145497260106,0.6595645364762137,B,439.04509999993024,Correct
3,503,519,A,48.60046248496887,56.51864744280674,2.430023124248444,0.8877928379857659,B,774.8043999999936,Incorrect
3,503,520,A,23.781990004762008,54.23318952557546,1.1890995002381004,0.8518929489714541,A,1065.5554000004486,Correct
3,503,521,A,41.05893354806471,70.22355064407992,2.0529466774032357,1.1030689540621614,A,590.2912000001379,Correct
3,503,522,B,36.294370620838905,12.1889285052041,1.8147185310419451,0.19146324123540212,B,797.4660999998378,Correct
3,503,523,B,63.75562877489882,33.79778894232643,3.187781438744941,0.5308944272439552,B,459.55099999991944,Correct
3,503,524,A,18.024198800898503,33.92277043126495,0.9012099400449252,0.5328576318813751,A,577.9047999994873,Correct
3,503,525,A,22.786301790100033,50.56654441471945,1.1393150895050015,0.7942974222535232,A,504.82370000008814,Correct
3,503,526,B,86.757877836789,60.929844133184936,4.3378938918394505,0.9570837535659248,B,615.7763000001069,Correct
3,503,527,A,54.349736789784984,71.00340417495534,2.717486839489249,1.1153188646795327,A,573.8488999995752,Correct
3,503,528,B,65.03356267235404,50.04211273929294,3.251678133617702,0.7860596687593744,B,436.1671999995451,Correct
3,503,529,B,39.345551227752196,27.835221614367153,1.96727756138761,0.43723463867369833,B,651.0835999997653,Correct
3,503,530,B,81.04152652328045,53.78475133587261,4.052076326164023,0.8448488983596562,B,685.3277999998681,Correct
3,503,531,B,64.06743076385685,32.30883884164112,3.2033715381928425,0.5075060537545815,B,439.0237999996316,Correct
3,503,532,A,51.05824845604048,79.2197655673434,2.552912422802024,1.2443811676273582,A,545.7578000005014,Correct
3,503,533,A,54.85013371064679,82.80503848306876,2.7425066855323394,1.3006985028931446,A,593.2253000000856,Correct
3,503,534,A,27.050402068445653,59.62336011866869,1.3525201034222827,0.9365615506557412,A,514.3426999993608,Correct
3,503,535,B,65.94883290405515,48.61409245235087,3.297441645202758,0.7636283785462025,B,394.36860000023444,Correct
3,503,536,B,71.11979207736624,51.9806203512661,3.555989603868312,0.8165096751228883,B,365.42280000048777,Correct
3,503,537,B,32.44258744037492,13.248926116543071,1.6221293720187462,0.20811364477842828,B,484.5920000007027,Correct
3,503,538,B,49.80246510837976,31.69212640008012,2.490123255418988,0.49781875737565423,B,450.97460000033607,Correct
3,503,539,B,44.26280681517406,16.55320964150956,2.213140340758703,0.26001720901549086,B,672.7517999997872,Correct
3,503,540,B,79.83274797992433,50.04019497668091,3.9916373989962164,0.7860295446147081,B,443.3023999999932,Correct
3,503,541,B,78.3068401444954,46.64245764111838,3.9153420072247695,0.732658011353553,B,389.529300000504,Correct
3,503,542,A,40.55584023008039,67.9125297582242,2.0277920115040193,1.0667675228756768,A,573.5334999999395,Correct
3,503,543,B,54.36686810249787,38.54482558252665,2.7183434051248936,0.6054607044198282,B,593.9712999997937,Correct
3,503,544,A,43.833417702711955,50.75335434652313,2.191670885135598,0.7972318258003833,A,1215.1990000002115,Correct
3,503,545,B,80.93886244301785,65.72312203773161,4.046943122150893,1.0323763868236155,B,617.4226000002818,Correct
3,503,546,B,65.99278658115117,33.39560334002273,3.299639329057558,0.5245769105760709,B,495.514500000354,Correct
3,503,547,A,48.82644289541572,76.83645967916229,2.4413221447707856,1.206944286279523,A,538.5613999997076,Correct
3,503,548,A,20.45115456663004,47.489133671232295,1.022557728331502,0.7459575673344351,A,463.0288999996992,Correct
3,503,549,B,46.56485715638644,39.42515198814882,2.3282428578193217,0.6192888392631468,B,654.7684999995909,Correct
