subject,day,trial,cat,x,y,xt,yt,resp,rt,fb
5,505,0,B,58.7206333079173,39.93463351066134,2.9360316653958654,0.6272917563044722,B,500.25779999941733,Correct
5,505,1,B,67.73931189906068,39.44319832865318,3.386965594953034,0.6195723105169102,B,426.62949999976263,Correct
5,505,2,B,70.8797563675482,53.13991759979782,3.5439878183774103,0.834719873719459,B,477.4006999996345,Correct
5,505,3,A,39.37705055155051,62.52916688603414,1.9688525275775255,0.9822058566212751,A,508.320800000547,Correct
5,505,4,B,56.117940234800386,32.98772157580063,2.805897011740019,0.5181699188060038,B,454.0008999993006,Correct
5,505,5,B,64.91039664902249,54.93666428881185,3.2455198324511243,0.8629431047123002,B,474.70220000013796,Correct
5,505,6,A,45.39870253885498,60.54799637651784,2.269935126942749,0.9510857030302492,A,687.6856999997472,Correct
5,505,7,A,50.23714351221844,61.240907686342865,2.511857175610922,0.9619699284329272,B,946.7571000004682,Incorrect
5,505,8,B,76.82479930566171,51.569430547318674,3.8412399652830858,0.810050720786327,B,486.05489999954443,Correct
5,505,9,B,84.96439662493384,61.33965740559778,4.248219831246692,0.9635210853957037,B,486.08879999937926,Correct
5,505,10,B,43.4365350957336,18.060790532917125,2.17182675478668,0.2836982342811826,B,887.1792999998434,Correct
5,505,11,B,63.4663161526032,45.21090524978676,3.17331580763016,0.7101712389743716,B,513.719300000048,Correct
5,505,12,B,85.22937703881362,58.81726854276726,4.2614688519406805,0.9238994937908782,B,523.3545000000959,Correct
5,505,13,A,30.282608551825998,43.8827146175211,1.5141304275913,0.6893080693099086,A,498.84909999946103,Correct
5,505,14,B,78.49507272356793,63.86795023779176,3.9247536361783966,1.0032354163344255,B,463.2753000005323,Correct
5,505,15,B,60.229262286370385,27.752161966527492,3.011463114318519,0.43592994077638414,B,546.3387999998304,Correct
5,505,16,A,37.646215997642464,66.78971522741712,1.8823107998821231,1.0491303934690397,A,547.1858999999313,Correct
5,505,17,B,77.04799729529489,45.55196074763406,3.8523998647647444,0.715528526206889,B,541.6835000005449,Correct
5,505,18,A,59.09332543742374,77.46700818465656,2.9546662718711874,1.2168489190424872,A,522.9271999996854,Correct
5,505,19,A,13.24332080815542,35.617231361718666,0.6621660404077709,0.5594741619359168,A,596.5949000001274,Correct
5,505,20,B,73.55024568771569,58.178065678927524,3.6775122843857844,0.913858918684916,B,518.5676000000967,Correct
5,505,21,A,33.902709343125466,45.868245908544864,1.6951354671562735,0.720496721896673,A,640.7841999998709,Correct
5,505,22,A,54.828835636343555,74.18321802255231,2.741441781817178,1.1652672637965014,A,820.6375999998272,Correct
5,505,23,A,29.313924283337926,54.17914619200133,1.4656962141668963,0.8510440382727941,A,648.0021999996097,Correct
5,505,24,B,41.103273325036106,19.72625941313396,2.055163666251805,0.30985935827554073,B,758.9146999998775,Correct
5,505,25,B,33.72009015730782,10.11054141437208,1.6860045078653911,0.15881601315603341,B,636.7099999997663,Correct
5,505,26,A,26.788314215698655,44.53080888423383,1.3394157107849327,0.6994883102456004,A,705.977300000086,Correct
5,505,27,A,39.66438077075886,69.90608966768411,1.9832190385379431,1.0980822887059287,A,664.3472000005204,Correct
5,505,28,B,75.02059864487588,55.96105652003035,3.7510299322437937,0.8790342202522525,B,593.9864000001762,Correct
5,505,29,B,63.19458297337957,48.81394684179163,3.1597291486689785,0.7667676839544764,B,643.4524000005695,Correct
5,505,30,A,24.102341546771086,51.59729091254161,1.2051170773385542,0.8104883503798805,A,625.7832000001144,Correct
5,505,31,A,33.09447248478206,44.994949957409105,1.6547236242391028,0.7067790211741841,A,728.9589000001797,Correct
5,505,32,A,28.900264003667655,42.072571578861734,1.4450132001833829,0.6608744089489137,A,712.4297000000297,Correct
5,505,33,B,68.14863486548165,37.828945166766935,3.4074317432740826,0.5942156811448307,B,522.9375999997501,Correct
5,505,34,A,36.54078429275374,68.33436105450625,1.8270392146376873,1.0733936333829466,A,791.3743999997678,Correct
5,505,35,A,31.906332872267072,50.14218491751011,1.5953166436133535,0.7876315988589534,A,620.9141999997883,Correct
5,505,36,A,49.90627733461692,59.47752580899218,2.4953138667308457,0.9342707906761357,A,1100.3765999994357,Correct
5,505,37,B,36.73936639020541,25.093441492272824,1.8369683195102706,0.394166857227048,B,810.4681000004348,Correct
5,505,38,B,57.67044549239989,40.67947982584052,2.8835222746199944,0.6389917748635738,B,638.9054000001124,Correct
5,505,39,B,35.23677803449844,10.654837127292904,1.7618389017249223,0.1673657902214958,B,870.6308999999237,Correct
5,505,40,A,32.8191508521345,53.53067256743423,1.6409575426067249,0.8408578383978603,A,867.6313999994818,Correct
5,505,41,A,61.9458909033428,80.14473562666403,3.0972945451671396,1.2589105633431192,A,769.9745999998413,Correct
5,505,42,A,65.83318826566585,83.38992230164938,3.2916594132832926,1.3098858364314265,A,751.2285000002521,Correct
5,505,43,A,49.50596283449107,57.90518665613013,2.4752981417245534,0.9095725450182207,A,1435.09129999984,Correct
5,505,44,A,29.03983290056926,53.073748557940725,1.451991645028463,0.8336804928404924,A,708.2559000000401,Correct
5,505,45,A,16.81936967994359,36.25727809868049,0.8409684839971796,0.5695279925698835,A,650.6048000001101,Correct
5,505,46,B,53.85490720907862,27.37565124822772,2.692745360453931,0.4300157242433422,B,747.1877000007225,Correct
5,505,47,B,47.38667818586592,35.630727072229924,2.369333909293296,0.5596861520609024,B,514.9195000003601,Correct
5,505,48,B,39.959501729750585,24.097918281137893,1.9979750864875292,0.37852921519414995,B,725.4079000003912,Correct
5,505,49,B,68.51638807224069,48.54634988763118,3.4258194036120346,0.7625642808279088,B,596.8886000000566,Correct
5,505,50,A,17.4173162652163,44.81469441133355,0.870865813260815,0.7039475736775851,A,498.703100000057,Correct
5,505,51,B,62.07126186082783,45.72783565827842,3.1035630930413913,0.7182911628430443,B,521.3254000000234,Correct
5,505,52,B,38.70138576617528,21.33372241193854,1.9350692883087641,0.33510932801535015,B,531.2404000005699,Correct
5,505,53,A,29.651172443452957,59.904411739032824,1.4825586221726479,0.9409762991848183,A,556.1269999998331,Correct
5,505,54,B,54.42196240814113,32.65427432625783,2.721098120407056,0.5129321416583869,B,600.2832000003764,Correct
5,505,55,A,13.341103222086605,37.207955749470855,0.6670551611043303,0.5844612021881588,A,505.4057000006651,Correct
5,505,56,B,76.05611310352687,45.696674965809976,3.802805655176343,0.717801691830346,B,499.8921000005794,Correct
5,505,57,B,39.79381355151922,25.994226534985643,1.9896906775759613,0.4083163555902988,B,397.2965999992084,Correct
5,505,58,B,47.97271830448861,39.38914435377427,2.3986359152244305,0.6187232326650256,B,556.7709999995714,Correct
5,505,59,A,46.694106554358875,78.11211750307345,2.334705327717944,1.226982272519991,A,540.2618000007351,Correct
5,505,60,B,66.16723289367488,51.962548221435334,3.308361644683744,0.816225798771333,B,506.8535999998858,Correct
5,505,61,A,39.60116302780926,70.3281658502723,1.980058151390463,1.1047122458783,A,622.4708999998256,Correct
5,505,62,B,60.10751241023489,45.64214465585975,3.0053756205117446,0.7169451317246581,B,548.5778000002028,Correct
5,505,63,B,39.10056769759871,23.840099406957684,1.9550283848799355,0.3744794057887432,B,547.1873999995296,Correct
5,505,64,B,86.4811588049687,66.75195675969167,4.3240579402484345,1.0485372848449543,B,605.1954000004116,Correct
5,505,65,A,39.52149754631597,65.02831031544983,1.9760748773157986,1.0214623098118727,A,1128.736100000424,Correct
5,505,66,B,72.1358883124458,48.21387037692862,3.6067944156222898,0.7573417048864476,B,535.1185999998052,Correct
5,505,67,A,39.790694026188845,69.13400540091801,1.9895347013094422,1.0859544174038056,A,710.2832999999009,Correct
5,505,68,B,74.05447106492174,58.321054915576894,3.7027235532460874,0.9161049883619163,B,492.6676999994015,Correct
5,505,69,A,58.01646510629842,79.53356911176337,2.9008232553149207,1.2493103821764593,A,588.9626999996835,Correct
5,505,70,A,68.35346981863196,82.98397825106977,3.4176734909315987,1.3035092821960799,A,617.0939999992697,Correct
5,505,71,B,88.76386100037374,66.3539524813789,4.438193050018686,1.0422854482607309,B,526.076600000124,Correct
5,505,72,A,44.454495057835985,55.47469681746162,2.222724752891799,0.8713944999092924,B,841.1560000004101,Incorrect
5,505,73,A,60.2479585088593,85.47401863406378,3.012397925442965,1.3426227450678592,A,883.9410000000498,Correct
5,505,74,B,36.042907593742925,21.708592469506502,1.8021453796871463,0.3409977731098817,B,787.1323999997912,Correct
5,505,75,A,19.806339966099284,44.699679358505364,0.9903169983049642,0.7021409214524988,A,669.0812999995615,Correct
5,505,76,A,31.980769707362256,51.02937885192623,1.5990384853681128,0.801567608592309,A,675.145799999882,Correct
5,505,77,B,45.36370720250456,24.52296326005147,2.2681853601252278,0.38520580611015054,B,578.070900000057,Correct
5,505,78,A,47.98755481996268,67.02969313762313,2.399377740998134,1.0528999576676747,A,574.810900000557,Correct
5,505,79,B,39.129048109830876,21.55996125606509,1.9564524054915438,0.3386630794686733,B,447.36569999986386,Correct
5,505,80,A,54.15315159268897,69.09363554204191,2.7076575796344486,1.0853202891434475,A,624.1658999997526,Correct
5,505,81,B,63.82792260456719,34.610985780135344,3.1913961302283598,0.5436680933018698,B,630.0080999999409,Correct
5,505,82,B,49.9980571120295,22.441748562098397,2.499902855601475,0.35251416208198816,B,703.1235000004017,Correct
5,505,83,B,55.02920573340921,39.43850733800866,2.7514602866704605,0.6194986246081757,B,576.7810999996072,Correct
5,505,84,A,63.35574279619802,78.73094401120659,3.167787139809901,1.2367027765789798,A,539.8459999996703,Correct
5,505,85,A,30.649150211390506,41.24280652603954,1.5324575105695255,0.6478404899781549,A,619.0428999998403,Correct
5,505,86,B,48.32323437868082,33.07368466625498,2.416161718934041,0.5195202238732601,B,591.451500000403,Correct
5,505,87,B,47.73479989177271,40.2941376644203,2.3867399945886354,0.632938834346393,B,516.1834999998973,Correct
5,505,88,B,51.46514142466139,40.507129303760664,2.573257071233069,0.6362844991935317,B,473.17889999976614,Correct
5,505,89,B,58.046719121729794,38.713851368633875,2.9023359560864894,0.6081157552593367,B,486.70039999979053,Correct
5,505,90,B,61.137781367458096,50.7020630661824,3.0568890683729046,0.796426144252825,B,522.0701000007466,Correct
5,505,91,B,77.05581410047179,60.11759268683523,3.85279070502359,0.9443249376823251,B,507.70699999975477,Correct
5,505,92,B,85.27953528280837,63.56046911581309,4.263976764140418,0.9984055141647968,B,421.0979999998017,Correct
5,505,93,A,45.82398681488609,74.94800856831232,2.2911993407443045,1.1772805655969742,A,604.2649000000893,Correct
5,505,94,A,25.899117818546614,47.75751563484423,1.2949558909273307,0.7501733013606317,A,602.6432999997269,Correct
5,505,95,A,23.44908145362677,54.29407432732239,1.1724540726813386,0.8528493252008712,A,479.33050000028743,Correct
5,505,96,B,59.15815603533747,47.831655502362395,2.9579078017668734,0.7513378876762976,B,572.8404999999839,Correct
5,505,97,A,42.69600576325182,53.91804518955611,2.134800288162591,0.8469426733171599,B,645.4704999996466,Incorrect
5,505,98,A,27.210482969032135,46.786083188537965,1.3605241484516069,0.734914076176759,A,520.7658999997875,Correct
5,505,99,B,52.68430684055428,20.870544638817485,2.634215342027714,0.32783374856863423,B,512.2177000002921,Correct
5,505,100,A,47.94362572200651,59.085698700392804,2.3971812861003254,0.9281159848468701,B,703.7103000002389,Incorrect
5,505,101,B,67.3735517984164,42.39857957668565,3.36867758992082,0.6659953306037895,B,578.7768000000142,Correct
5,505,102,B,69.80368250014595,57.159784299857634,3.4901841250072976,0.8978637921860496,B,577.3945999999341,Correct
5,505,103,B,38.935913733345416,23.993962332135414,1.9467956866672709,0.3768962789657342,B,463.7643999994907,Correct
5,505,104,B,86.39383885959879,67.85883950441242,4.319691942979939,1.0659241583409544,B,446.1263000002873,Correct
5,505,105,A,45.827660791781824,75.57229453633063,2.2913830395890913,1.1870868266513017,A,566.7039999998451,Correct
5,505,106,A,55.39383138405879,65.52648724028909,2.76969156920294,1.0292876546481875,A,691.9875999992655,Correct
5,505,107,B,63.31790936973218,37.61640210877212,3.165895468486609,0.5908770625969905,B,576.1137999998027,Correct
5,505,108,A,44.527821457818234,76.56555091279148,2.2263910728909115,1.202688861328405,A,591.5796999997838,Correct
5,505,109,A,33.525406557978094,63.752680391013506,1.6762703278989048,1.0014247618153305,A,519.049300000006,Correct
5,505,110,B,47.282070436372365,30.612288403474608,2.364103521818618,0.48085670178963924,B,578.3555999996679,Correct
5,505,111,B,57.29761163876552,41.40461732739837,2.8648805819382757,0.6503822081022569,B,500.3462999993644,Correct
5,505,112,A,46.28335254684506,70.52130026775725,2.314167627342253,1.1077459942139305,A,537.8407999996853,Correct
5,505,113,A,22.60665784470509,50.73217096184212,1.1303328922352547,0.7968990779719233,A,501.46479999966687,Correct
5,505,114,B,66.32697729622576,46.11555665072431,3.3163488648112884,0.7243814699505969,B,583.6874999995416,Correct
5,505,115,B,54.77701647912213,38.913846422180725,2.7388508239561067,0.6112572702142222,B,596.9476000000213,Correct
5,505,116,B,81.02145105801787,53.91203138572506,4.0510725529008935,0.8468482087074809,B,429.5120999995561,Correct
5,505,117,A,45.86832900428668,55.93585792923506,2.293416450214334,0.8786384017136363,B,398.09580000019196,Incorrect
5,505,118,A,47.63844126621483,75.40672666000167,2.381922063310742,1.1844860925315743,A,879.1648999995232,Correct
5,505,119,B,68.7865141329886,37.045189109549234,3.43932570664943,0.5819044697870224,B,451.66319999952975,Correct
5,505,120,B,64.24740701276842,37.24922249899588,3.212370350638421,0.5851094187738854,B,528.0948999998145,Correct
5,505,121,A,58.55601295900667,68.69406473870357,2.9278006479503333,1.079043845641664,A,585.7151000000158,Correct
5,505,122,B,58.28030343286654,50.05286051532019,2.9140151716433267,0.7862284944304226,A,915.1235000008455,Incorrect
5,505,123,A,10.085199442721745,33.126445221549524,0.5042599721360872,0.5203489847378234,A,512.6557999992656,Correct
5,505,124,A,57.818856453509184,67.9665111642961,2.890942822675459,1.0676154608194064,A,563.4365000005346,Correct
5,505,125,A,58.53461196699719,74.7077664561266,2.9267305983498595,1.1735068513233466,A,721.2523999996847,Correct
5,505,126,B,65.24437003194677,52.230426151590365,3.262218501597339,0.8204336154585025,B,629.9405999998271,Correct
5,505,127,A,29.908979071071162,59.01706708106573,1.495448953553558,0.9270379218914606,A,519.0766000005169,Correct
5,505,128,B,51.40263032405573,28.854113387822856,2.5701315162027862,0.45323935322515596,B,540.6226999994033,Correct
5,505,129,B,41.97711252245158,27.270848812960423,2.098855626122579,0.42836949143977193,B,417.59040000033565,Correct
5,505,130,A,52.85011311289732,71.19798528587563,2.642505655644866,1.1183753376225052,A,615.1387999998406,Correct
5,505,131,A,11.283734303140523,35.10449940208338,0.5641867151570261,0.551420187147662,A,625.0821999992695,Correct
5,505,132,A,54.14022879957797,62.73315996875445,2.7070114399788987,0.9854101724715615,A,657.3615000006612,Correct
5,505,133,A,28.63773594110281,48.41891695573669,1.4318867970551405,0.7605625690145833,A,446.876500000144,Correct
5,505,134,B,64.01742218282969,56.26333749340556,3.2008711091414845,0.8837824386786305,B,574.6453000001566,Correct
5,505,135,A,39.22279054725812,49.51087921841871,1.961139527362906,0.7777150721267789,A,521.4358000002903,Correct
5,505,136,A,31.13395651365022,59.722441028523406,1.556697825682511,0.9381179099482938,A,598.12729999976,Correct
5,505,137,B,50.02361891381021,23.69944040096556,2.5011809456905105,0.3722699392893126,B,535.5112999995981,Correct
5,505,138,A,39.96691392227234,67.85706516614648,1.998345696113617,1.0658962871006483,A,533.8808000005884,Correct
5,505,139,B,81.6764083758858,59.01964982150744,4.08382041879429,0.9270784914834497,B,488.67909999989934,Correct
5,505,140,A,52.41186269464237,71.46328202036703,2.6205931347321187,1.122542608983003,A,545.5144999996264,Correct
5,505,141,B,54.89626961545807,27.086367896653798,2.7448134807729034,0.42547167198278996,B,446.47580000037124,Correct
5,505,142,A,48.26961619973949,68.4348054433697,2.4134808099869742,1.0749714101536851,A,449.5398999997633,Correct
5,505,143,B,51.859564368102085,34.60531708082006,2.5929782184051042,0.5435790495812485,B,519.078499999523,Correct
5,505,144,B,66.54208011514092,34.76801667733441,3.3271040057570462,0.546134728867006,B,453.99170000018785,Correct
5,505,145,B,57.39678186217044,25.072693871108306,2.869839093108522,0.39384095435589844,B,383.4123999995427,Correct
5,505,146,B,79.56136317311675,60.35500031731938,3.9780681586558377,0.948054128021501,B,596.6431999995621,Correct
5,505,147,A,41.14977908490957,69.02725539489398,2.0574889542454784,1.084277592230327,A,484.1166999995039,Correct
5,505,148,A,39.612090009616345,57.13552121963761,1.9806045004808173,0.8974826686131863,A,589.5115999992413,Correct
5,505,149,B,58.30254034324557,47.01826002080762,2.9151270171622787,0.7385611013297195,B,466.48890000051324,Correct
5,505,150,B,34.619918126638105,15.287584501607839,1.7309959063319054,0.24013681580692178,B,659.0630999999121,Correct
5,505,151,B,64.59090489512634,46.8832129315447,3.2295452447563173,0.7364397866121339,B,476.73570000006293,Correct
5,505,152,A,42.56155410970993,69.21220583424515,2.1280777054854965,1.087182786938046,A,433.983700000681,Correct
5,505,153,A,33.32450230423773,61.39987858576952,1.6662251152118868,0.964467037481794,A,612.4479000000065,Correct
5,505,154,B,78.74781453267249,55.62492735295096,3.9373907266336245,0.8737543156424833,B,481.4915999995719,Correct
5,505,155,B,58.80451973669461,37.08475532291198,2.9402259868347307,0.5825259744131763,B,685.3479000001244,Correct
5,505,156,B,60.55983253233531,51.827771766174635,3.0279916266167652,0.8141087351627136,B,1040.9305999992284,Correct
5,505,157,A,45.39351122634503,52.78494721212037,2.2696755613172517,0.8291440119086119,B,824.4236999998975,Incorrect
5,505,158,A,31.04032392467493,64.26042392569353,1.5520161962337466,1.0094003786076229,A,713.0215999995926,Correct
5,505,159,A,40.267652568051695,73.22290259054273,2.0133826284025846,1.1501826642648503,A,526.5215999997963,Correct
5,505,160,B,44.63801012870531,15.341766496507901,2.2319005064352653,0.24098790459259617,B,631.641099999797,Correct
5,505,161,A,50.01019868924159,68.81186953060465,2.5005099344620794,1.0808943189856344,A,867.5180999998702,Correct
5,505,162,A,50.318779248814344,74.37719689975029,2.515938962440717,1.1683142768742854,A,590.6009000000267,Correct
5,505,163,A,19.698704740795375,37.08919097650801,0.9849352370397688,0.582595649496932,A,535.404500000368,Correct
5,505,164,A,41.45240545132202,51.23289747421448,2.072620272566101,0.8047644716355565,A,610.4722999998557,Correct
5,505,165,A,44.75083008690392,67.12906548705901,2.237541504345196,1.0544608948824634,A,681.6663999998127,Correct
5,505,166,B,70.94747823989997,49.62153155116208,3.547373911994998,0.7794531949050245,B,465.94050000021525,Correct
5,505,167,A,59.657363880810436,82.74202905769891,2.9828681940405217,1.2997087531539004,A,595.1007000003301,Correct
5,505,168,A,39.1157997146138,71.90337993937769,1.95578998573069,1.1294556509291231,A,493.0047999996532,Correct
5,505,169,A,54.797490481644054,68.6321175847656,2.739874524082203,1.0780707820230522,A,586.5466999994169,Correct
5,505,170,A,52.86761026153707,66.32623052122007,2.643380513076853,1.0418499927288403,A,613.0984999999782,Correct
5,505,171,B,45.700953574801275,20.7139744245283,2.2850476787400638,0.32537434939372484,B,497.19850000019505,Correct
5,505,172,B,49.978078449215914,30.632579902536037,2.4989039224607956,0.48117543991154776,B,415.8370000004652,Correct
5,505,173,A,45.886168448825345,73.97281127811867,2.2943084224412673,1.1619622023836091,A,509.96349999968515,Correct
5,505,174,B,48.14933743005279,23.308732217528288,2.4074668715026393,0.36613270949539306,B,515.480099999877,Correct
5,505,175,B,37.98021826290348,18.781548865704366,1.8990109131451738,0.2950198796976728,B,469.947300000058,Correct
5,505,176,B,54.35581982026638,41.686234462517604,2.717790991013319,0.6548058397163348,B,552.7454000002763,Correct
5,505,177,A,14.908850979273634,39.706285771752476,0.7454425489636818,0.6237048784093725,A,546.6740000001664,Correct
5,505,178,A,44.013678902827486,60.63890779198315,2.200683945141374,0.9525137362050158,A,604.6059999998761,Correct
5,505,179,B,70.71024196921188,59.788012617785114,3.535512098460594,0.9391479060638378,B,557.7468999999837,Correct
5,505,180,A,17.388172893756302,43.71120097718594,0.8694086446878151,0.6866139393475716,A,461.2341000001834,Correct
5,505,181,B,76.3878394848743,57.71897426003052,3.819391974243715,0.9066475275402511,B,532.9522000001816,Correct
5,505,182,B,62.60995214467555,45.53381636803658,3.1304976072337776,0.715243514958652,B,388.6808999995992,Correct
5,505,183,A,50.45232658199958,61.84177415741371,2.522616329099979,0.9714083168894503,A,547.3543000007339,Correct
5,505,184,A,34.88047999095239,66.62208682556633,1.7440239995476192,1.0464972926901024,A,548.7324999994598,Correct
5,505,185,B,50.71724133739737,27.73715893867129,2.535862066869868,0.4356942737659109,B,522.5609999997687,Correct
5,505,186,A,61.34774044549444,79.54828904472893,3.0673870222747217,1.2495416023427892,A,534.6833000003244,Correct
5,505,187,A,25.6116493826785,57.976928603882044,1.2805824691339251,0.9106994648982788,A,435.95189999996364,Correct
5,505,188,A,30.08683236950304,43.86937381197606,1.504341618475152,0.6890985124264422,A,413.6340000004566,Correct
5,505,189,A,64.71629158866429,78.83231584282355,3.2358145794332143,1.2382951215864235,B,429.9057999996876,Incorrect
5,505,190,B,72.85238186690374,51.69394906745482,3.642619093345187,0.8120066531268049,B,516.5663999996468,Correct
5,505,191,B,30.581587315318597,12.44355258006495,1.5290793657659298,0.19546286685045186,A,422.7928000000247,Incorrect
5,505,192,B,74.34007978281383,61.11874957580139,3.7170039891406916,0.9600510733196596,A,850.112099999933,Incorrect
5,505,193,A,54.44014404028049,81.23976717171078,2.7220072020140242,1.2761112786299593,A,831.3543999993271,Correct
5,505,194,B,40.36262870940873,13.535846393246914,2.0181314354704365,0.21262057794572198,B,630.5683999999019,Correct
5,505,195,B,82.22219681349873,64.80984625665681,4.111109840674937,1.018030684400985,B,632.5188999999227,Correct
5,505,196,B,77.63796564638919,48.439318238398016,3.88189828231946,0.7608830316132464,B,518.0766000003132,Correct
5,505,197,B,86.1634841994463,69.08264219849282,4.308174209972315,1.0851476061067864,B,736.8409000000611,Correct
5,505,198,A,16.89873468873374,44.76995812249505,0.8449367344366869,0.7032448576957656,A,470.36560000015015,Correct
5,505,199,A,36.48794107812577,44.93091217204483,1.8243970539062886,0.7057731179939213,A,921.6855000004216,Correct
5,505,200,A,22.529087507931024,48.99805381969161,1.1264543753965512,0.7696596296007022,A,488.5913999996774,Correct
5,505,201,A,62.79106132781163,72.77830995884423,3.1395530663905817,1.1431990195369295,A,670.4068999997617,Correct
5,505,202,A,46.89371132363628,66.07548641980583,2.3446855661818145,1.0379113135941707,A,442.3041000000012,Correct
5,505,203,A,12.678773494687182,39.234849157187995,0.633938674734359,0.6162995693846274,A,641.4801999999327,Correct
5,505,204,A,46.39369269413694,77.95695322788795,2.319684634706847,1.2245449577848793,A,633.5009000003993,Correct
5,505,205,A,34.29618012528464,62.00064540338537,1.7148090062642323,0.9739038605855063,A,426.06980000073236,Correct
5,505,206,B,60.750727790297546,48.821698994187635,3.0375363895148775,0.7668894544795603,B,625.5541999998968,Correct
5,505,207,B,68.09347936528896,37.85285600254353,3.4046739682644476,0.5945912716749153,B,533.9658000002601,Correct
5,505,208,B,31.198242223165995,12.920514502901089,1.5599121111582996,0.2029549672145722,A,508.0948000004355,Incorrect
5,505,209,B,54.367498581835044,24.57763776803229,2.7183749290917523,0.38606463127320634,B,467.2233999999662,Correct
5,505,210,A,40.45736718602289,52.57842081596091,2.0228683593011447,0.8258999028638772,A,611.2691999996969,Correct
5,505,211,B,71.13875410928102,56.69980588068775,3.556937705464051,0.8906384680736799,B,526.050800000121,Correct
5,505,212,B,82.32473861826284,62.77380336032961,4.116236930913142,0.9860485973735089,B,462.85010000065085,Correct
5,505,213,A,55.111244235005124,64.40240623153204,2.755562211750256,1.0116306314524328,A,605.7765999994444,Correct
5,505,214,B,75.48321517318323,55.702116775154444,3.7741607586591615,0.8749668042511299,B,541.8128999999681,Correct
5,505,215,B,57.01378456558565,27.14703873727977,2.8506892282792826,0.4264246873187783,B,590.3885999996419,Correct
5,505,216,B,54.85525908936865,46.10609880872276,2.7427629544684327,0.7242329065158426,B,501.57000000035623,Correct
5,505,217,B,58.48562862610251,50.86106699923306,2.924281431305126,0.7989237721926442,B,519.2348999999012,Correct
5,505,218,A,66.6734768749086,87.65325792935388,3.33367384374543,1.3768541558703473,A,483.93469999973604,Correct
5,505,219,A,38.32410845779326,55.821480056750666,1.916205422889663,0.8768417582939851,A,715.1181999997789,Correct
5,505,220,A,68.50857341203123,87.9118990335561,3.4254286706015615,1.3809168808347372,A,551.5813000001799,Correct
5,505,221,B,77.30173053610466,59.980818146077155,3.8650865268052326,0.9421764882201067,B,677.6369999997769,Correct
5,505,222,A,10.531297310442426,35.273401391966736,0.5265648655221213,0.5540732934006335,A,457.2701999995843,Correct
5,505,223,A,53.089778040729605,73.50395739435085,2.6544889020364804,1.154597462799349,A,494.21650000022055,Correct
5,505,224,A,27.911282563393094,54.473528245029826,1.3955641281696547,0.855668180748509,A,426.11759999999776,Correct
5,505,225,A,38.93791826842976,65.28038298225539,1.9468959134214883,1.0254218580029084,A,671.951799999988,Correct
5,505,226,B,51.99321329648167,35.162344283181575,2.5996606648240834,0.5523288124151914,B,542.8476999995837,Correct
5,505,227,A,57.34708883280289,84.24559455346696,2.867354441640144,1.3233267047323805,A,617.8969000002326,Correct
5,505,228,B,47.975557422681575,24.420116679400643,2.3987778711340786,0.38359029579905324,B,630.5983000002016,Correct
5,505,229,B,73.25860714607177,56.81361077944983,3.6629303573035883,0.8924261112431474,B,584.8230999999942,Correct
5,505,230,B,66.07419474850526,34.78927236592874,3.303709737425263,0.5464686124426806,B,542.3800000007759,Correct
5,505,231,A,29.01539755117639,54.17761477541695,1.4507698775588196,0.8510199828373386,A,467.04959999988205,Correct
5,505,232,A,37.73638079533658,63.62498149670207,1.886819039766829,0.9994188722741288,A,446.1114000005182,Correct
5,505,233,B,84.82158576279261,56.684792900677124,4.24107928813963,0.8904026447351308,B,528.9108000006308,Correct
5,505,234,A,36.09079441604328,58.04720978629282,1.804539720802164,0.9118034391300154,A,503.241600000365,Correct
5,505,235,A,32.047900573808604,55.41238383375061,1.60239502869043,0.8704156898500437,A,509.06990000021324,Correct
5,505,236,A,33.44295497926142,57.654297370682016,1.6721477489630712,0.9056315853380799,A,507.3984000000564,Correct
5,505,237,B,84.18811884116275,56.02503159815253,4.209405942058138,0.88003913842946,B,518.4576000001471,Correct
5,505,238,A,24.795257225053618,42.7769529720954,1.239762861252681,0.6719388060004549,A,450.0495000002047,Correct
5,505,239,A,10.315290756687798,32.36055158368518,0.5157645378343899,0.5083183556070945,A,455.3422999997565,Correct
5,505,240,B,55.47302644238722,44.81147752318832,2.773651322119361,0.7038970429167628,B,486.27510000005714,Correct
5,505,241,A,48.90391679720598,80.0985187432266,2.4451958398602986,1.2581845902357252,A,581.9904999998471,Correct
5,505,242,A,63.638717007075854,80.20662848159017,3.181935850353793,1.2598827740348477,A,523.8130999996429,Correct
5,505,243,A,51.36253393928652,62.31571897035627,2.568126696964326,0.9788530246021868,A,492.38710000008723,Correct
5,505,244,A,22.04676960208564,44.93412261520242,1.1023384801042821,0.7058235475171145,A,467.2921999999744,Correct
5,505,245,A,21.07383931270515,45.728135513917906,1.0536919656352575,0.7182958729644151,A,421.51730000023235,Correct
5,505,246,A,41.91981978445379,53.835948839752994,2.09599098922269,0.8456531068700198,A,463.17530000033,Correct
5,505,247,A,38.78839375691609,64.01680557810998,1.9394196878458048,1.005573630552382,A,550.0812999998743,Correct
5,505,248,B,75.6774846605167,64.13996441074482,3.783874233025835,1.0075082049715336,B,517.8274999998393,Correct
5,505,249,B,44.939890709090825,35.77719871843193,2.2469945354545415,0.5619869232992396,B,718.9665999994759,Correct
5,505,250,B,42.19559211365902,19.754629292584536,2.109779605682951,0.31030499129986655,B,396.4807000002111,Correct
5,505,251,A,26.246627515289227,42.420173055480234,1.3123313757644612,0.666334520175522,A,419.677199999569,Correct
5,505,252,B,75.82209064925476,56.96014160953197,3.7911045324627377,0.8947278121396998,B,558.9850999995178,Correct
5,505,253,B,45.581544155560756,36.20325185626349,2.279077207778038,0.5686793503384922,B,475.9747999996762,Correct
5,505,254,B,87.2245888501381,67.2262992931509,4.361229442506906,1.055988239936958,A,803.1303999996453,Incorrect
5,505,255,A,28.690785074614325,58.56497777787102,1.4345392537307162,0.9199365197230454,A,503.91119999949296,Correct
5,505,256,B,67.72437609702061,35.1018505467064,3.38621880485103,0.5513785790246984,B,560.9921000004761,Correct
5,505,257,B,81.75288711134883,53.927179789124516,4.087644355567441,0.8470861592716475,B,362.10190000019793,Correct
5,505,258,A,58.36534679994392,77.81924555943021,2.9182673399971963,1.2223818507870303,A,651.7871999994895,Correct
5,505,259,B,51.77059412570087,41.74705662904052,2.5885297062850436,0.6557612320739539,B,1038.5297000002538,Correct
5,505,260,A,67.74292529462299,82.74245252889587,3.3871462647311494,1.2997154050239073,A,681.0912999999346,Correct
5,505,261,B,77.66134995285442,58.43745409666406,3.8830674976427213,0.9179333824228528,B,1827.0211999997628,Correct
5,505,262,A,44.81912615049734,70.02289655273094,2.240956307524867,1.0999170869656878,A,899.8864999994112,Correct
5,505,263,B,58.448981011729884,45.07531827099158,2.922449050586494,0.7080414436918446,B,696.86559999991,Correct
5,505,264,B,43.390391683870305,28.588819410408426,2.169519584193515,0.449072125172722,B,457.44699999977456,Correct
5,505,265,B,62.88788883705641,44.21295461566557,3.1443944418528202,0.6944954670703696,B,475.6446999999753,Correct
5,505,266,A,55.37954469720435,69.96307636169684,2.7689772348602175,1.0989774336022424,A,499.11379999957717,Correct
5,505,267,A,42.72676829966231,73.92287555782977,2.1363384149831153,1.1611778139235522,A,426.5852000007726,Correct
5,505,268,B,71.83044815200688,46.004596003778104,3.5915224076003436,0.7226385041841783,B,463.82119999998395,Correct
5,505,269,A,19.40031890213881,37.75948534115879,0.9700159451069404,0.5931246087555798,A,475.4290000000765,Correct
5,505,270,A,45.93473123238481,65.93094042513678,2.2967365616192406,1.03564079041938,A,552.1383000004789,Correct
5,505,271,B,73.61751093716406,52.20288148753093,3.680875546858203,0.8200009448872289,B,763.1831000007878,Correct
5,505,272,A,42.85501568665104,62.08343829328072,2.142750784332552,0.9752043682588298,A,502.5206000000253,Correct
5,505,273,B,56.165933791891156,43.43585690494319,2.808296689594558,0.6822888447747351,B,642.0984000005774,Correct
5,505,274,B,74.7167335774673,53.18810100480031,3.7358366788733646,0.8354767368753627,B,562.422100000731,Correct
5,505,275,B,34.2187877643278,11.306679336016941,1.71093938821639,0.1776049036926317,A,486.8560000004436,Incorrect
5,505,276,A,56.10585780048376,66.38720339688078,2.8052928900241882,1.04280775242006,A,632.2546999999759,Correct
5,505,277,B,45.174091020957896,28.440197011525242,2.2587045510478947,0.4467375699902704,B,476.6692000002877,Correct
5,505,278,B,62.19561759466106,44.98934359912196,3.109780879733053,0.7066909567041426,B,499.2872000002535,Correct
5,505,279,B,56.90812246737828,44.57632290413686,2.845406123368914,0.700203242798414,B,477.8218999999808,Correct
5,505,280,A,60.12531969953827,68.73384474916851,3.0062659849769138,1.079668708584846,A,583.7459000003946,Correct
5,505,281,B,61.70623255683627,47.8530359399831,3.085311627841813,0.7516737308050961,B,540.4948000004879,Correct
5,505,282,B,34.47303230329284,11.791805387577046,1.723651615164642,0.18522524589086298,B,600.0490999995236,Correct
5,505,283,A,37.19349684708309,49.85904584259876,1.8596748423541545,0.7831840606705248,A,639.251399999921,Correct
5,505,284,B,57.34315398722355,26.381577282223027,2.8671576993611776,0.4144008468997162,B,471.2536999995791,Correct
5,505,285,A,24.73277990926576,54.49836819270928,1.236638995463288,0.8560583657342357,A,553.7802999997439,Correct
5,505,286,B,63.049733314659484,37.063970116691614,3.152486665732974,0.5821994811573501,B,531.9908999999825,Correct
5,505,287,B,46.02342094175808,20.21054096208333,2.301171047087904,0.3174664350577829,B,470.2142999994976,Correct
5,505,288,A,46.50020507762982,65.49153116216615,2.325010253881491,1.028738565857041,A,397.9354000002786,Correct
5,505,289,A,33.1556126599639,47.565616264111505,1.657780632998195,0.7471589530940195,A,461.6529000004448,Correct
5,505,290,A,29.918552246752576,44.83780976918885,1.4959276123376286,0.7043106688697017,A,457.5841000005312,Correct
5,505,291,B,59.82547391956837,31.36551892372468,2.9912736959784185,0.49268841913402545,B,761.0376000002361,Correct
5,505,292,A,30.379100282439314,59.95959466421064,1.5189550141219659,0.9418431105465296,A,488.80170000029466,Correct
5,505,293,B,34.66475630277387,14.039546306167654,1.7332378151386933,0.22053267767595008,B,618.6941999994815,Correct
5,505,294,A,30.72953008499435,62.93556672829738,1.5364765042497175,0.9885895704156463,A,454.62489999954414,Correct
5,505,295,B,58.538157116578034,29.573133137605605,2.9269078558289015,0.46453368904367315,B,458.22099999986676,Correct
5,505,296,B,38.67211024187907,26.786855356986088,1.9336055120939535,0.4207669400113994,B,416.8309999995472,Correct
5,505,297,A,63.133427452425295,74.1726253111381,3.1566713726212647,1.1651008738746993,A,576.0473000000275,Correct
5,505,298,B,68.39117756235501,37.07575022058112,3.4195588781177504,0.582384522596539,B,487.8042000000278,Correct
5,505,299,B,42.96317450276321,23.49233693393612,2.14815872513816,0.36901676563654945,B,415.79150000052323,Correct
5,505,300,B,56.855642972246144,49.580763976465654,2.842782148612307,0.7788128193391698,B,497.78449999939767,Correct
5,505,301,B,60.56503801130517,40.73629072374997,3.0282519005652584,0.6398841583611546,B,484.495099999549,Correct
5,505,302,A,19.46780658100852,41.88833615188575,0.973390329050426,0.6579804456293201,A,420.25509999984934,Correct
5,505,303,B,76.72125019008881,65.26758927781833,3.8360625095044405,1.02522089496355,B,499.4253999993816,Correct
5,505,304,B,48.298123163917666,18.57800059802339,2.4149061581958833,0.2918225509856853,B,534.7854000001462,Correct
5,505,305,B,66.0272805350867,50.22834071513932,3.3013640267543347,0.7889849309634338,B,464.16619999945397,Correct
5,505,306,A,30.71211467648248,43.221032103968454,1.535605733824124,0.6789143846919795,A,608.7531000002855,Correct
5,505,307,B,51.26029749048349,31.472799731486983,2.5630148745241748,0.4943735821217117,B,504.76270000035584,Correct
5,505,308,A,29.317129974464528,49.3108054693954,1.4658564987232265,0.77457232102624,A,425.04619999999704,Correct
5,505,309,A,63.2693549299657,79.89998269748395,3.1634677464982848,1.2550659933218358,A,425.6201999996847,Correct
5,505,310,A,43.10354608338517,52.11101149492504,2.1551773041692583,0.8185578544179489,A,411.5566000000399,Correct
5,505,311,A,20.04557122744277,44.021427747254585,1.0022785613721386,0.6914869700565445,A,468.9669999997932,Correct
5,505,312,B,64.28396549443914,55.29220965828389,3.2141982747219573,0.8685279983160563,B,491.6259000001446,Correct
5,505,313,A,48.7376920915798,73.32304793861388,2.43688460457899,1.151755743713808,A,533.2680000001346,Correct
5,505,314,A,57.684009160271636,77.6723620069481,2.884200458013582,1.2200746093399757,A,531.1032999998133,Correct
5,505,315,B,63.68108474415395,30.393567995520762,3.1840542372076976,0.47742104965554943,B,427.372899999682,Correct
5,505,316,B,57.29002139146654,39.596394970312424,2.8645010695733273,0.6219787177368669,B,419.67010000007576,Correct
5,505,317,A,39.129117214887586,54.16421671496986,1.9564558607443792,0.850809526595974,A,459.12889999999607,Correct
5,505,318,A,36.8608294829395,44.63892574184045,1.843041474146975,0.7011866058735314,A,752.3965999998836,Correct
5,505,319,A,47.852794114650635,58.515714547538224,2.392639705732532,0.9191626947105173,A,683.1730000003517,Correct
5,505,320,A,64.51021906114823,78.42864180342056,3.2255109530574115,1.2319542246032567,A,493.69169999954465,Correct
5,505,321,B,59.95817797323776,37.67235611092146,2.9979088986618883,0.591755986007447,B,455.07629999974597,Correct
5,505,322,A,53.236442489648624,72.77164592349848,2.6618221244824314,1.1430943411145023,A,474.3585999995048,Correct
5,505,323,B,60.34329748663352,27.52856780565837,3.0171648743316757,0.43241773191052413,B,396.06739999999263,Correct
5,505,324,A,37.86410018396098,62.21455195751754,1.8932050091980488,0.977263896880588,A,396.3624999996682,Correct
5,505,325,A,38.78367174269706,57.29409540496736,1.939183587134853,0.8999735460915909,A,390.5767000005653,Correct
5,505,326,B,33.669380957238985,10.118117376288374,1.6834690478619492,0.15893501608753396,A,425.0843999998324,Incorrect
5,505,327,A,17.403942395791702,33.50709249100626,0.8701971197895851,0.526328178064495,A,485.2459000003364,Correct
5,505,328,A,19.383958987188795,46.444093482332164,0.9691979493594397,0.7295421144336617,A,467.5896999997349,Correct
5,505,329,A,35.503777941813325,48.00935873730162,1.7751888970906662,0.7541292435633186,A,680.3171000001385,Correct
5,505,330,B,68.30602388799322,34.930752279868436,3.4153011943996607,0.548690973733998,B,424.59899999994377,Correct
5,505,331,A,44.03400606185197,67.13817507788599,2.201700303092599,1.05460398800056,A,452.169899999717,Correct
5,505,332,B,66.66093290073061,40.162230608284275,3.3330466450365304,0.630866843153825,B,436.7747000005693,Correct
5,505,333,B,71.13267173094668,42.48885956358325,3.5566335865473344,0.6674134453218078,B,425.2313000006325,Correct
5,505,334,A,30.935503397953838,59.725775962869285,1.5467751698976917,0.9381702949744999,A,471.0251000005883,Correct
5,505,335,A,15.500472529722323,35.20248313147713,0.7750236264861161,0.5529593119698358,A,383.5741999992024,Correct
5,505,336,A,36.854095543600494,53.20687826544609,1.8427047771800247,0.8357716893958594,A,488.9469999998255,Correct
5,505,337,A,36.80898144780183,57.15762688671684,1.8404490723900915,0.8978299036196803,A,362.93530000057217,Correct
5,505,338,A,35.911328855860496,58.42702786767889,1.7955664427930247,0.9177696076009305,A,523.7395000003744,Correct
5,505,339,B,57.39454167724896,24.88688649350898,2.869727083862448,0.39092229889365426,B,443.77020000047196,Correct
5,505,340,B,77.64794294663426,59.17814862829451,3.882397147331713,0.9295681849184746,B,420.05540000081965,Correct
5,505,341,A,21.54496553978321,36.38143283018917,1.0772482769891605,0.571478210531964,A,405.4575999998633,Correct
5,505,342,A,40.6560032849652,72.89935307519337,2.0328001642482603,1.1451003603623802,A,433.05270000018936,Correct
5,505,343,A,41.649852146712774,52.18715665175013,2.0824926073356385,0.8197539397443896,A,499.55380000028526,Correct
5,505,344,A,27.662775558430333,41.54400702804078,1.3831387779215165,0.6525717363998783,A,414.9046999991697,Correct
5,505,345,B,83.32046786573281,60.574857656880496,4.16602339328664,0.9515076390355159,B,515.063600000758,Correct
5,505,346,B,34.88993533017155,18.898338877095732,1.7444967665085773,0.29685441290667164,B,646.9348000000537,Correct
5,505,347,A,27.12456594822684,42.125048510367755,1.3562282974113422,0.6616987146614249,A,452.7373000000807,Correct
5,505,348,A,13.340513919291489,34.90857520545244,0.6670256959645744,0.548342617063681,A,409.42290000020876,Correct
5,505,349,B,61.69643348363325,34.795114433714716,3.0848216741816623,0.5465603794288717,B,474.55599999921105,Correct
5,505,350,A,15.030515172729437,33.4581903197582,0.7515257586364719,0.5255600245548074,A,414.9771000002147,Correct
5,505,351,B,51.71574593245767,36.98160073210185,2.585787296622884,0.5809056258898105,B,450.0617000003331,Correct
5,505,352,A,56.28187522390838,81.99863623270546,2.814093761195419,1.2880315659652466,A,441.7734999997265,Correct
5,505,353,B,79.26104795811119,50.72633237526807,3.9630523979055594,0.7968073656684813,B,464.1681000002791,Correct
5,505,354,A,46.06592003276526,55.75498732692239,2.3032960016382633,0.875797292936257,A,429.4024000000718,Correct
5,505,355,B,60.90050595613937,30.658740007337926,3.0450252978069683,0.4815863618768615,B,512.200699999994,Correct
5,505,356,A,26.463031757380087,56.00448916183908,1.3231515878690043,0.8797164585944144,A,412.3285000005126,Correct
5,505,357,B,73.0864126658138,48.09889218822179,3.6543206332906895,0.7555356317216251,B,491.780800000015,Correct
5,505,358,A,41.380140472668806,55.36855993063091,2.0690070236334406,0.8697273055895812,A,409.0537000001859,Correct
5,505,359,B,44.21672853052116,26.766727601121104,2.210836426526058,0.4204507739616061,B,502.0390999998199,Correct
5,505,360,B,76.69776423712545,48.77265706141456,3.834888211856273,0.7661191056009716,B,467.8509000004851,Correct
5,505,361,B,72.24191431667995,40.048637932413094,3.612095715833998,0.6290825335737324,B,378.22589999996126,Correct
5,505,362,A,68.29594062193188,86.04670447176204,3.414797031096594,1.351618473170498,A,392.30940000015835,Correct
5,505,363,B,86.50461355699882,60.83980205776362,4.325230677849941,0.9556693759526368,B,432.8765000000203,Correct
5,505,364,B,70.29234331001827,37.233957998729466,3.5146171655009137,0.584869644564397,B,413.8515999993615,Correct
5,505,365,B,54.269874682456916,47.540658102703986,2.713493734122846,0.7467669112113946,B,446.9563999991806,Correct
5,505,366,A,58.51204234206756,82.67425500497951,2.925602117103378,1.2986441608232642,A,648.9038999998229,Correct
5,505,367,B,52.4203210189728,45.10123636102314,2.62101605094864,0.7084485640980358,B,493.3429000002434,Correct
5,505,368,A,24.255178726568822,35.43665388787475,1.2127589363284412,0.5566376576097574,A,449.7647999996843,Correct
5,505,369,A,59.21077418450821,68.24414543948407,2.96053870922541,1.0719765298159827,A,443.49199999942357,Correct
5,505,370,A,15.900418651383148,36.441869752612796,0.7950209325691574,0.5724275514894223,A,633.7878999993336,Correct
5,505,371,B,76.90485509126384,53.61926828954,3.8452427545631918,0.8422494967463953,B,530.9356999996453,Correct
5,505,372,B,79.12267547391704,53.13745917907741,3.956133773695852,0.8346812569370856,B,428.3244000007471,Correct
5,505,373,A,44.566527692035535,54.572659391413815,2.228326384601777,0.8572253291546184,A,554.1375999991942,Correct
5,505,374,B,37.759174319395356,11.80803692972734,1.8879587159697677,0.1854802103587419,B,484.3565999999555,Correct
5,505,375,B,39.5465879980525,19.762032424230195,1.9773293999026251,0.31042127941982434,B,567.9221000000325,Correct
5,505,376,B,84.62411286031359,65.46656928930824,4.231205643015679,1.0283464656750896,A,489.35660000006465,Incorrect
5,505,377,B,55.396941676565895,36.396086361260984,2.7698470838282945,0.5717083876597858,B,500.94350000017585,Correct
5,505,378,B,30.73712038718341,15.08826706806132,1.5368560193591705,0.23700594488211124,B,636.4214999994147,Correct
5,505,379,B,35.67467714069808,10.993961922926065,1.783733857034904,0.1726927500545522,B,395.33639999990555,Correct
5,505,380,A,69.33554909538883,85.5074539876487,3.4667774547694417,1.343147946373822,A,456.30479999999807,Correct
5,505,381,A,59.81331960741866,71.95795291393617,2.990665980370933,1.1303128812089107,A,546.2876000001415,Correct
5,505,382,B,66.57589918110745,44.60997276038874,3.3287949590553723,0.7007318135043903,B,762.834400000429,Correct
5,505,383,B,77.67686091286846,57.63419353076249,3.883843045643423,0.905315794959079,B,503.00269999934244,Correct
5,505,384,A,47.74767042880553,67.47585651616131,2.387383521440276,1.0599082756292568,A,536.9303999996191,Correct
5,505,385,A,23.766709932406318,36.63658823568848,1.188335496620316,0.5754861822691657,A,539.1455000008136,Correct
5,505,386,B,42.544978326569804,27.82623337391602,2.1272489163284902,0.43709345172284836,B,645.3892999998061,Correct
5,505,387,A,43.77687886348192,56.63669444162015,2.188843943174096,0.8896471159070186,A,464.46629999991274,Correct
5,505,388,B,33.00291250710866,14.727689031810467,1.650145625355433,0.23134199833345367,B,530.6485999999495,Correct
5,505,389,B,47.10015321039744,17.32317958865408,2.3550076605198718,0.27211186866266157,B,458.9452000000165,Correct
5,505,390,A,39.097870631395224,63.09374989981598,1.954893531569761,0.9910743058634681,A,485.43529999915336,Correct
5,505,391,A,42.378323770158346,74.13285885744294,2.1189161885079173,1.1644762238807587,A,465.6233000005159,Correct
5,505,392,A,49.993001377188065,77.42682404990643,2.4996500688594034,1.2162177081298777,A,495.4197999995813,Correct
5,505,393,A,43.27876452164648,51.81064370795344,2.163938226082324,0.8138396882533236,B,609.0988999994806,Incorrect
5,505,394,B,36.08420748114566,13.203930170854079,1.804210374057283,0.20740685011633897,B,447.7279000002454,Correct
5,505,395,A,50.272076320343956,67.65532151801492,2.5136038160171976,1.0627273052862556,A,606.0889000000316,Correct
5,505,396,B,64.76687232955891,53.15550865134973,3.2383436164779456,0.8349647773845449,B,449.1410000000542,Correct
5,505,397,A,22.95241130793793,53.617755335031305,1.1476205653968963,0.8422257313125464,A,392.5922999997056,Correct
5,505,398,A,50.805717386516584,81.38923427712872,2.5402858693258294,1.2784591024316307,A,481.1935000006997,Correct
5,505,399,A,42.8289732751685,68.6972518754072,2.141448663758425,1.0790939090679346,A,465.18290000039997,Correct
5,505,400,A,40.203862423180986,54.45682882024163,2.0101931211590496,0.8554058667973401,A,672.3558000003322,Correct
5,505,401,B,44.89509967218849,16.925493026990644,2.244754983609425,0.2658650227598954,B,444.5471999997608,Correct
5,505,402,A,32.65030504773778,50.47142360172473,1.632515252386889,0.7928032680169844,A,793.2784999993601,Correct
5,505,403,A,46.94680364871938,69.64937098562129,2.347340182435969,1.0940497610778896,A,604.8491000001377,Correct
5,505,404,B,36.18977249474913,13.810470379608482,1.8094886247374564,0.21693436143598727,B,694.5140000007086,Correct
5,505,405,A,44.93669895276615,62.20632385425953,2.2468349476383076,0.9771346501368462,A,663.362799999959,Correct
5,505,406,A,57.967647876657956,76.8399064036693,2.8983823938328976,1.206998427301474,B,1025.3428999994867,Incorrect
5,505,407,A,40.15498608636382,67.39483266205627,2.0077493043181907,1.058635555905147,A,1632.2659999996176,Correct
5,505,408,B,84.87562443059676,60.54862791793511,4.243781221529838,0.9510956232596339,B,508.41200000013487,Correct
5,505,409,B,58.7595210830706,33.56240315758788,2.93797605415353,0.5271969959834848,B,501.5172999992501,Correct
5,505,410,A,12.633283823309846,30.309108895716314,0.6316641911654923,0.47609436921817705,A,458.7528000001839,Correct
5,505,411,A,32.15585027797266,62.65943405392285,1.607792513898633,0.9842520885094908,A,493.8328999996884,Correct
5,505,412,B,62.423776114161875,44.23535731056553,3.1211888057080936,0.6948473677789612,B,487.2227000005296,Correct
5,505,413,B,76.1516919024886,46.038325573635035,3.80758459512443,0.7231683270285347,B,437.85119999938615,Correct
5,505,414,B,71.71153160305433,47.055446505779656,3.585576580152716,0.7391452252697243,B,419.3886000002749,Correct
5,505,415,B,70.81854216050439,61.16324578311398,3.54092710802522,0.960750018109689,B,415.791999999783,Correct
5,505,416,B,79.454777889551,65.96963012186777,3.97273889447755,1.0362485267544785,B,407.55560000070545,Correct
5,505,417,B,31.35051443062048,17.478037326051947,1.5675257215310239,0.2745443683134649,A,525.3929999998945,Incorrect
5,505,418,A,18.28503770326604,36.24534991250859,0.9142518851633019,0.5693406250596422,A,638.7469999999666,Correct
5,505,419,B,74.32630678731513,50.10324725363074,3.716315339365757,0.7870199674649966,B,649.81330000046,Correct
5,505,420,A,30.001551869519496,59.65160546417725,1.5000775934759747,0.9370052275054802,A,805.989800000134,Correct
5,505,421,A,37.57939447262915,61.8696787909217,1.8789697236314573,0.9718466418475992,A,528.4725000001345,Correct
5,505,422,B,52.751955397927084,42.735859689518975,2.637597769896354,0.671293314227185,B,732.5840000003154,Correct
5,505,423,B,34.926728748164734,12.859277706369657,1.7463364374082369,0.20199306186400956,B,621.4787999997498,Correct
5,505,424,A,38.68525771438666,69.21389839629755,1.934262885719333,1.0872093736405937,A,1079.4204999992871,Correct
5,505,425,A,26.470593006195763,43.03921223953546,1.3235296503097882,0.6760583649400825,A,1059.3164000001707,Correct
5,505,426,B,69.36150515025044,60.13560659920648,3.4680752575125218,0.9446078995561648,B,601.4006999994308,Correct
5,505,427,A,38.491757328216835,70.37585435726618,1.9245878664108418,1.1054613351944633,A,500.6981000005908,Correct
5,505,428,A,48.87915874032409,56.75223941806908,2.4439579370162043,0.8914620921528745,A,652.680700000019,Correct
5,505,429,A,66.99826512502467,78.82841924493412,3.3499132562512335,1.2382339139699068,A,522.2966000001179,Correct
5,505,430,A,36.032673242920566,55.7765743490737,1.8016336621460283,0.8761363810872742,A,449.4684999999663,Correct
5,505,431,A,52.053038719786976,72.3587811814395,2.602651935989349,1.1366090769116082,A,448.09080000050017,Correct
5,505,432,A,41.00909934569909,72.27861183574008,2.0504549672849546,1.1353497797741465,A,608.3832000003895,Correct
5,505,433,B,59.535645067453665,46.90492891451557,2.9767822533726833,0.736780900474968,B,533.9229000001069,Correct
5,505,434,B,67.20390206329614,39.07680182813284,3.360195103164807,0.6138169677452315,B,387.43239999985235,Correct
5,505,435,A,49.024979100539774,69.63430810214078,2.4512489550269887,1.0938131538574682,A,789.1545000002225,Correct
5,505,436,B,44.340022488925655,31.57313807864514,2.217001124446283,0.4959496931932386,B,1309.693299999708,Correct
5,505,437,B,48.780723057276205,27.172800766423812,2.4390361528638103,0.4268293563262807,B,409.2923000007431,Correct
5,505,438,B,48.098811391494216,18.686684773012665,2.404940569574711,0.2935297580142242,B,467.25939999942057,Correct
5,505,439,B,52.166954276115845,40.73239534879288,2.6083477138057924,0.6398229699544139,B,497.05919999996695,Correct
5,505,440,A,54.9952112340255,70.20658771002195,2.749760561701275,1.1028025009170621,A,501.75469999976485,Correct
5,505,441,A,37.42396771782665,50.98102232808106,1.8711983858913326,0.8008080260919834,A,452.67520000015793,Correct
5,505,442,A,51.968194773108834,74.83211688488394,2.598409738655442,1.1754601432906204,A,418.7885000001188,Correct
5,505,443,B,51.32766189388942,38.85819646062261,2.566383094694471,0.6103831226622045,B,494.9243999999453,Correct
5,505,444,B,62.887793928792064,39.586610420169535,3.144389696439603,0.6218250223826287,B,685.0178000004234,Correct
5,505,445,B,45.25552745270136,21.82908356129624,2.262776372635068,0.34289044275382996,B,538.8265000001411,Correct
5,505,446,B,81.7742052371836,61.2543611290354,4.0887102618591795,0.962181254616569,B,525.320599999759,Correct
5,505,447,B,58.97016258493174,44.45129043283221,2.948508129246587,0.6982392373318596,B,433.18659999931697,Correct
5,505,448,B,75.82772856501182,44.00820941095198,3.7913864282505916,0.6912793369154396,B,412.52499999973224,Correct
5,505,449,B,43.01257012226534,27.57866239434684,2.150628506113267,0.43320461586956566,B,627.1832000002178,Correct
5,505,450,B,40.37443464482677,22.59743291108409,2.0187217322413384,0.35495964611724995,B,477.1213000003627,Correct
5,505,451,A,17.244113392883264,44.22703663510411,0.8622056696441632,0.6947166669144487,A,493.1266000003234,Correct
5,505,452,B,48.34178026181097,34.032813189811975,2.4170890130905485,0.5345861794905356,B,604.5605000008436,Correct
5,505,453,A,33.1400395757798,62.17255749527306,1.6570019787889902,0.9766042494101945,A,442.1370999998544,Correct
5,505,454,B,87.70176299748745,60.915269284195176,4.385088149874372,0.9568548123733577,B,418.9636999999493,Correct
5,505,455,A,40.26565554241388,52.28119019224916,2.013282777120694,0.8212310151445035,A,672.5237999999081,Correct
5,505,456,B,52.70428926341022,23.72492934757394,2.635214463170511,0.3726703187263758,B,436.9349999997212,Correct
5,505,457,B,40.735923856972406,27.496420119525823,2.0367961928486205,0.4319127572376045,B,515.5695000003107,Correct
5,505,458,A,45.36167879306683,56.75242999312684,2.2680839396533417,0.8914650856988816,A,639.1610999999102,Correct
5,505,459,B,56.386926955294065,33.14154796005745,2.819346347764703,0.5205862179995514,B,450.50220000030095,Correct
5,505,460,B,56.942708658513595,47.59802429024447,2.84713543292568,0.7476680171781027,B,510.14329999998154,Correct
5,505,461,A,57.52349595055348,77.28274933321785,2.876174797527674,1.2139545877722935,A,472.32439999970666,Correct
5,505,462,A,27.302798929229787,48.73980813151039,1.3651399464614895,0.7656031158166455,A,398.1579999999667,Correct
5,505,463,B,70.9657133907591,60.47061410785315,3.548285669537955,0.9498701851964738,B,546.5979999999035,Correct
5,505,464,B,45.98268553308108,26.86901645962211,2.299134276654054,0.4220575235936603,B,553.7606999996569,Correct
5,505,465,A,34.437412526231554,51.34015649932136,1.7218706263115777,0.8064492924620912,A,429.07279999963066,Correct
5,505,466,B,66.62072230237392,53.245695599289775,3.331036115118696,0.8363814306500358,B,808.137799999713,Correct
5,505,467,B,45.83262576375964,20.68988162121973,2.2916312881879817,0.3249959005243319,B,459.48979999957373,Correct
5,505,468,A,55.986871744583695,80.04900951890667,2.7993435872291847,1.2574069011586828,A,411.4800999996078,Correct
5,505,469,B,66.1380473102752,46.694781575187605,3.3069023655137597,0.733479913787947,B,479.36699999991106,Correct
5,505,470,B,35.4731801593274,14.885704371265522,1.7736590079663699,0.23382409748138613,B,483.81679999965854,Correct
5,505,471,A,63.49914051736471,74.26943216392132,3.1749570258682356,1.1666215123623036,A,539.8160000004282,Correct
5,505,472,A,36.24340099154146,54.00876864083528,1.8121700495770734,0.8483677539573945,A,506.9782000000487,Correct
5,505,473,B,61.69030685550028,31.78378924610984,3.0845153427750143,0.4992585939941248,B,431.96720000014466,Correct
5,505,474,A,48.35691204962474,77.30018276400946,2.4178456024812367,1.2142284314628025,A,493.78280000019004,Correct
5,505,475,A,32.347535812542276,62.16530979829681,1.6173767906271137,0.9764904028523141,A,449.6650999999474,Correct
5,505,476,B,68.8897525992408,43.7214048826501,3.44448762996204,0.6867742219197923,B,473.4110999997938,Correct
5,505,477,B,66.18657097740237,57.44838213456745,3.3093285488701185,0.9023970763728812,B,520.8872000002884,Correct
5,505,478,A,35.91031106818552,44.286835118066136,1.7955155534092762,0.695655979288295,B,683.8964999997188,Incorrect
5,505,479,A,24.61035681613092,51.653621751881396,1.230517840806546,0.8113731931350826,A,510.7135999996899,Correct
5,505,480,B,60.98171417369926,47.88075747284543,3.0490857086849634,0.7521091796250289,B,385.45650000014575,Correct
5,505,481,A,20.374461833969196,44.97236576938014,1.0187230916984598,0.7064242695781886,A,597.3521000005348,Correct
5,505,482,B,89.20626258662459,67.8997452516391,4.4603131293312295,1.066566704315839,B,862.4674999991839,Correct
5,505,483,A,34.32584234333793,63.84070999449415,1.7162921171668968,1.0028075275932964,A,464.4163999992088,Correct
5,505,484,A,44.045150615269925,54.23361502826709,2.202257530763496,0.8518996327521043,A,543.891899999835,Correct
5,505,485,B,47.98277871777724,28.235151153586692,2.399138935888862,0.44351671718552665,B,449.8642000007749,Correct
5,505,486,B,36.5464738821576,12.26380054043462,1.82732369410788,0.19263932841459971,B,444.03669999974227,Correct
5,505,487,B,71.59244229301623,43.10645156582549,3.5796221146508116,0.6771145578076079,B,441.86919999992824,Correct
5,505,488,B,53.566012111691975,43.78191343367313,2.6783006055845986,0.687724688016659,B,378.45459999971354,Correct
5,505,489,A,46.73733300723554,72.1044747472946,2.336866650361777,1.1326144407852574,A,660.9293000001344,Correct
5,505,490,A,57.490626868894786,76.5593827538485,2.8745313434447395,1.2025919721142975,A,584.8372999998901,Correct
5,505,491,A,62.328989338620985,86.37937171811045,3.1164494669310496,1.3568439980565885,A,558.6090000006152,Correct
5,505,492,A,46.89853235372774,65.33444007671193,2.344926617686387,1.0262709848570037,A,550.0955999996222,Correct
5,505,493,A,50.93887468606604,58.03264302299015,2.5469437343033023,0.9115746249471242,A,510.3447999999844,Correct
5,505,494,B,74.62062962471202,46.09932119002391,3.7310314812356014,0.7241264439302769,B,529.4355999994877,Correct
5,505,495,A,53.020377586912346,61.181074994282895,2.6510188793456173,0.9610300787038266,A,478.4290999996301,Correct
5,505,496,A,31.051793160413002,42.54075319997097,1.55258965802065,0.6682285886560265,A,487.2752999999648,Correct
5,505,497,A,17.728640672143644,42.424798950839346,0.8864320336071821,0.6664071835699042,A,406.18350000022474,Correct
5,505,498,A,45.496762602811856,64.40723865105467,2.274838130140593,1.0117065389207895,A,558.759800000189,Correct
5,505,499,B,43.94270322693855,29.600479520973785,2.197135161346927,0.4649632450291318,A,529.546400000072,Incorrect
5,505,500,B,49.78492635010137,40.13930706132431,2.489246317505069,0.6305067609202069,B,426.11350000061066,Correct
5,505,501,B,43.61777200199945,26.979091572360268,2.1808886000999723,0.4237865794212666,B,588.0056000005425,Correct
5,505,502,A,43.95206667390721,52.3130640920536,2.1976033336953607,0.8217316891918378,B,860.6105999997453,Incorrect
5,505,503,A,55.75906195372981,64.79922459380138,2.787953097686491,1.0178638397110074,A,583.3897000002253,Correct
5,505,504,B,45.46433913434609,19.539354136102947,2.2732169567173046,0.30692345704935176,B,444.90010000026814,Correct
5,505,505,A,41.01519502505293,69.4379023560805,2.050759751252647,1.0907280196127394,A,449.6386999999231,Correct
5,505,506,A,52.594174285551134,73.32623784069602,2.629708714277557,1.1518058505785427,A,543.7203999999838,Correct
5,505,507,A,15.598970644320943,30.610038262301337,0.7799485322160471,0.4808213566547418,A,539.3227999993542,Correct
5,505,508,A,38.604862322962994,58.8104726925761,1.9302431161481497,0.9237927448257011,A,527.7108999998745,Correct
5,505,509,A,24.735775953163678,56.33530027623743,1.236788797658184,0.8849128274280128,A,469.8433000003206,Correct
5,505,510,A,52.422127942767645,74.73791156298222,2.6211063971383823,1.173980369554543,A,724.7494000002916,Correct
5,505,511,B,76.52967606174838,54.33956030198885,3.826483803087419,0.8535638172201386,B,599.2464000000837,Correct
5,505,512,A,25.05594225851563,37.334737838863944,1.2527971129257813,0.5864526905913792,A,418.02629999983765,Correct
5,505,513,B,85.79652307645624,61.076815297182335,4.289826153822812,0.9593923712114436,B,477.3513999998613,Correct
5,505,514,B,65.61718977209665,49.56668438805867,3.2808594886048326,0.7785916576816451,B,432.38730000030046,Correct
5,505,515,A,39.7640903097189,53.10118966755653,1.9882045154859451,0.8341115367823692,A,469.0920000002734,Correct
5,505,516,A,19.60655133274966,43.566696819425594,0.980327566637483,0.6843440733454061,A,445.0778000000355,Correct
5,505,517,A,54.04836066197268,84.04358176412721,2.702418033098634,1.3201534952577756,A,496.67650000083086,Correct
5,505,518,A,17.9170457616983,44.97708111765071,0.8958522880849151,0.7064983380956184,A,493.9838000000236,Correct
5,505,519,B,84.88574610815522,55.59970482952947,4.244287305407761,0.8733581211710535,B,427.2337000002153,Correct
5,505,520,B,41.103550812188445,23.930082700222986,2.055177540609422,0.3758928600540836,B,476.91649999978836,Correct
5,505,521,B,75.7951583310114,48.37451504058616,3.78975791655057,0.7598651053623723,B,610.1524000005156,Correct
5,505,522,A,41.25126395271459,69.63193310760215,2.0625631976357295,1.0937758475304942,A,551.6877000000022,Correct
5,505,523,A,38.748079415319246,67.2654713019628,1.9374039707659623,1.056603552412507,A,523.0381999999736,Correct
5,505,524,B,59.10143400610332,45.389333350301044,2.955071700305166,0.7129739810232196,A,923.3282000004692,Incorrect
5,505,525,B,55.304253842630025,43.44051473020594,2.765212692131501,0.6823620097228709,B,565.2560000007725,Correct
5,505,526,A,38.54390548426322,46.51506395945171,1.927195274213161,0.7306569160813642,A,696.5927000001102,Correct
5,505,527,B,65.96635414852807,50.21038899034879,3.2983177074264036,0.7887029459298279,B,555.9208000004219,Correct
5,505,528,B,72.08047697090788,41.4177570134712,3.6040238485453937,0.6505886058084412,B,554.5608000002176,Correct
5,505,529,A,15.55181573334055,44.678897971013015,0.7775907866670275,0.701814488181112,A,488.3780999998635,Correct
5,505,530,A,64.01082104609235,78.88830801660573,3.2005410523046174,1.2391746445954868,A,623.2995000000301,Correct
5,505,531,A,36.75016814248559,54.467558748535126,1.8375084071242795,0.8555744121168422,A,513.5026999996626,Correct
5,505,532,A,45.82910828768321,63.04394116881671,2.2914554143841603,0.9902919121465085,A,432.4213999998392,Correct
5,505,533,B,64.39784835805642,40.046948311452404,3.219892417902821,0.6290559930697451,B,477.41150000001653,Correct
5,505,534,B,74.89726622888398,46.70115745623229,3.7448633114441985,0.7335800658931978,B,529.0205999999671,Correct
5,505,535,B,58.2334571639483,27.133984120188444,2.9116728581974147,0.4262196258730306,B,434.09109999993234,Correct
5,505,536,B,61.56947985447398,54.4274182213357,3.078473992723699,0.8549438861900374,B,501.73890000041865,Correct
5,505,537,A,51.98407025313141,80.51027371024098,2.5992035126565702,1.2646524221329825,A,381.73809999989317,Correct
5,505,538,B,62.327916023924296,42.153407432585006,3.116395801196215,0.6621441755699322,B,400.5150000002686,Correct
5,505,539,B,65.19338382805473,47.40931967236009,3.2596691914027365,0.7447038519718825,B,442.1861999999237,Correct
5,505,540,B,80.77429698202835,61.282749547647214,4.038714849101417,0.9626271788533585,B,444.1530000003695,Correct
5,505,541,B,41.994061712331415,15.050976826293834,2.0997030856165706,0.23642019113417467,B,481.9582000000082,Correct
5,505,542,A,56.32867030775729,77.7646313269746,2.816433515387865,1.2215239724297102,A,472.01750000022,Correct
5,505,543,B,67.60405417271393,59.385175439227325,3.3802027086356965,0.9328201544600879,B,497.44640000062645,Correct
5,505,544,B,63.19870192750728,31.23529692294244,3.159935096375364,0.4906428967290592,B,567.8020000004835,Correct
5,505,545,B,73.72981379244042,47.48620650049315,3.6864906896220213,0.7459115874439857,B,511.5371000001687,Correct
5,505,546,A,12.24497834118888,30.985616554252264,0.6122489170594441,0.48672092666894595,A,483.4244999992734,Correct
5,505,547,B,48.00675384608706,20.196332422600044,2.400337692304353,0.3172432478414883,B,376.4192999997249,Correct
5,505,548,A,47.94487094708192,65.52711444491116,2.397243547354096,1.0292975067553525,A,475.9807999998884,Correct
5,505,549,B,54.53082385079355,32.1453999964583,2.726541192539678,0.5049387623778938,B,441.8006999994759,Correct
