subject,day,trial,cat,x,y,xt,yt,resp,rt,fb
18,518,0,A,31.339232749448634,46.520545134703454,1.5669616374724316,0.7307430141808838,A,515.8166000001074,Correct
18,518,1,B,42.61422509521738,26.639425607296726,2.1307112547608686,0.418451118918676,B,996.9511999997849,Correct
18,518,2,B,37.77744165149542,15.06486990048781,1.8888720825747711,0.2366384230332925,A,645.7679999998618,Incorrect
18,518,3,B,71.47067901585015,59.32777325918299,3.5735339507925072,0.9319184831244514,B,470.09269999989556,Correct
18,518,4,A,57.48726454342219,81.19899405861347,2.8743632271711097,1.2754708160671067,A,586.2443000000894,Correct
18,518,5,B,57.56937755027313,26.24108592395367,2.8784688775136567,0.4121940138045568,B,376.01130000030025,Correct
18,518,6,A,62.01700682331781,85.1412316685896,3.1008503411658905,1.3373953396381384,A,286.1323000001903,Correct
18,518,7,A,43.8004852472122,62.262294965143546,2.1900242623606103,0.9780138422906788,B,515.3897000000143,Incorrect
18,518,8,B,73.90342368715615,52.83513357584387,3.6951711843578074,0.8299323374665326,A,399.8234999999113,Incorrect
18,518,9,A,35.215132268937666,57.046090352427015,1.7607566134468835,0.8960778918360215,A,423.8423000001603,Correct
18,518,10,B,46.419050434755746,18.774612657479484,2.3209525217377873,0.2949109259936575,B,476.26720000016576,Correct
18,518,11,B,57.98582681675925,42.63360475851525,2.8992913408379626,0.6696870975270117,B,413.37720000001354,Correct
18,518,12,B,57.2697832905611,24.534006863633675,2.863489164528055,0.3853792786295655,A,397.9676999997537,Incorrect
18,518,13,B,49.33011847422073,25.99640173578917,2.4665059237110367,0.40835052356462104,B,469.7016000000076,Correct
18,518,14,A,28.976649130890387,48.91838218042444,1.4488324565445194,0.7684081504175962,A,410.9816000000137,Correct
18,518,15,A,47.20321489642943,64.05526345255237,2.360160744821471,1.0061777254314865,B,356.3666000000012,Incorrect
18,518,16,B,47.47016234328524,28.63188834414183,2.373508117164262,0.44974865040179607,A,296.52089999990494,Incorrect
18,518,17,B,41.557091045957755,31.096986424792398,2.0778545522978877,0.48847032050454664,B,195.2784000000065,Correct
18,518,18,B,34.61712840750077,21.213384727106188,1.7308564203750387,0.3332190680822536,A,508.70990000021266,Incorrect
18,518,19,B,50.62087795123465,30.141432632483763,2.5310438975617324,0.47346051663441324,B,264.3084999999701,Correct
18,518,20,A,13.930107362619378,34.39491713806994,0.696505368130969,0.5402740950089511,A,494.9554999998327,Correct
18,518,21,A,15.637342291665181,31.7144609453961,0.781867114583259,0.498169587593084,A,363.93390000012005,Correct
18,518,22,A,26.69791983055569,58.40248699991327,1.3348959915277845,0.9173841205515046,A,491.66620000005423,Correct
18,518,23,B,69.4710136535551,38.580106248986084,3.4735506826777556,0.6060148918326417,B,385.46279999991384,Correct
18,518,24,B,69.24466210247924,55.17730387586093,3.4622331051239623,0.8667230625064816,B,516.8115000001308,Correct
18,518,25,B,30.830625466090442,11.260709924985274,1.541531273304522,0.17688281787269705,A,525.666199999705,Incorrect
18,518,26,A,45.407263985671804,74.46116892877733,2.27036319928359,1.169633306421777,B,380.8530999999675,Incorrect
18,518,27,A,29.295390089996133,47.934751883420844,1.4647695044998068,0.7529573218430221,A,356.0548000000381,Correct
18,518,28,B,78.60324313207822,63.08202890133795,3.930162156603911,0.9908901928499116,B,479.3859000001248,Correct
18,518,29,B,59.47422004649135,33.10871010983493,2.9737110023245674,0.5200704022544577,A,527.3601000003509,Incorrect
18,518,30,A,39.5311396342221,46.51975404594366,1.9765569817111048,0.7307305877877032,B,173.47209999979896,Incorrect
18,518,31,B,66.69259578301867,52.48385808978021,3.3346297891509336,0.8244145150345138,B,526.318899999751,Correct
18,518,32,A,29.778576162877748,46.91749589412498,1.4889288081438874,0.7369783021290617,A,549.805600000127,Correct
18,518,33,B,80.5757257220683,58.48565968070063,4.028786286103415,0.9186905939662093,B,504.2945000000145,Correct
18,518,34,A,41.730238803566365,51.149035951009495,2.086511940178318,0.8034471779094582,A,497.13500000007116,Correct
18,518,35,B,54.842929240683446,25.78779844698225,2.7421464620341727,0.4050737907664686,B,496.31890000000567,Correct
18,518,36,B,32.78514766300603,17.53058681745004,1.6392573831503015,0.2753698137940956,A,455.79510000015944,Incorrect
18,518,37,B,39.09018188505068,18.396897072273124,1.9545090942525343,0.2889777834555041,B,435.12020000025586,Correct
18,518,38,B,70.69978659002024,42.550488364680234,3.534989329501012,0.6683815082656869,B,440.6438999999409,Correct
18,518,39,A,60.871242952079385,84.79194337396058,3.0435621476039696,1.3319087319361815,A,630.7409999999436,Correct
18,518,40,B,79.23633551618525,55.088226866496,3.9618167758092624,0.8653238441153586,B,479.31030000017927,Correct
18,518,41,A,35.98457588497217,44.2142590368406,1.7992287942486087,0.6945159568702728,A,356.33359999974346,Correct
18,518,42,A,54.404306283418336,69.66674148172015,2.720215314170917,1.0943226161925568,B,355.77039999998306,Incorrect
18,518,43,B,84.00682859484144,67.8960099317033,4.200341429742071,1.0665080300474938,B,544.4685999996182,Correct
18,518,44,A,61.260135548611316,83.7047222542068,3.0630067774305654,1.3148307025229506,B,495.3805000000102,Incorrect
18,518,45,B,46.44399912984386,21.257995227292707,2.322199956492193,0.3339198081805483,B,453.1587999999829,Correct
18,518,46,A,20.95927119088388,43.647798295184515,1.047963559544194,0.6856180123476038,A,448.7920999999915,Correct
18,518,47,A,34.10830637056078,57.641806211357014,1.7054153185280392,0.9054353746662285,A,372.12870000030307,Correct
18,518,48,A,39.34300751533287,46.88819699991405,1.9671503757666438,0.7365180761750048,A,583.7218000001485,Correct
18,518,49,B,37.59205043954015,19.884421665297047,1.8796025219770076,0.3123437651228946,A,485.55449999958,Incorrect
18,518,50,B,42.59968172626693,23.13961306177802,2.1299840863133466,0.3634761920089612,B,394.50829999987036,Correct
18,518,51,A,21.797354705320043,43.42582132859121,1.0898677352660022,0.6821312063100256,B,644.448999999895,Incorrect
18,518,52,A,31.074867030384365,47.4386371011322,1.5537433515192183,0.7451643690661456,A,368.06750000005195,Correct
18,518,53,B,64.40909076573969,37.33600406437601,3.2204545382869845,0.5864725804152117,B,530.2993999998762,Correct
18,518,54,B,88.56162924893452,62.619622555749615,4.428081462446726,0.9836267309585436,B,683.1660999996529,Correct
18,518,55,B,39.736875623962085,22.440885761552103,1.9868437811981041,0.3525006092426994,A,367.8280999997696,Incorrect
18,518,56,B,77.47715700308243,55.2621737527602,3.8738578501541214,0.8680561954153706,B,480.4183000001103,Correct
18,518,57,A,24.206163997177388,36.057700631173034,1.2103081998588694,0.5663930370411662,A,441.5439999997943,Correct
18,518,58,A,65.75150736441773,89.0044912678102,3.287575368220887,1.3980792795172472,B,518.2385999996768,Incorrect
18,518,59,A,36.78641373380802,68.51779999944276,1.8393206866904008,1.0762750855919205,A,367.65550000018266,Correct
18,518,60,A,16.388702497456254,33.252186798286544,0.8194351248728127,0.5223241288064625,A,390.3154999998151,Correct
18,518,61,B,51.34088970682106,42.11041317391094,2.567044485341053,0.6614688233339473,B,332.0536999999604,Correct
18,518,62,A,59.889269472495094,86.03376456267736,2.9944634736247546,1.3514152135539055,A,381.51190000007773,Correct
18,518,63,A,17.39299594421095,31.221613371542706,0.8696497972105475,0.4904279560062971,B,287.1718999999757,Incorrect
18,518,64,B,72.32837699044364,54.12320692035487,3.6164188495221823,0.8501653462485353,B,560.8390000002146,Correct
18,518,65,B,71.50195328337725,49.89051750934507,3.5750976641688625,0.783678416455757,B,583.7349999997059,Correct
18,518,66,B,61.17423215078865,28.25146316496489,3.0587116075394323,0.44377294566108166,A,604.1854000000058,Incorrect
18,518,67,B,75.27674756697273,64.74671971206726,3.7638373783486365,1.0170390949573398,B,344.6332999997139,Correct
18,518,68,A,42.225644767368024,69.91885209295488,2.111282238368401,1.0982827604132919,A,372.50870000025316,Correct
18,518,69,A,29.779553952633723,49.55647289368199,1.4889776976316862,0.7784312559030654,B,469.34590000000753,Incorrect
18,518,70,A,67.35437319182749,86.19115285492005,3.367718659591375,1.3538874630672586,A,566.1776000001737,Correct
18,518,71,A,33.627717362901514,66.14176805015917,1.6813858681450755,1.0389524630091007,B,585.223699999915,Incorrect
18,518,72,B,40.75408786286822,30.58496996037833,2.037704393143411,0.4804275846889453,A,448.1341999999131,Incorrect
18,518,73,B,62.03466629918962,38.503055213557055,3.101733314959481,0.6048045769983652,B,484.2788999999357,Correct
18,518,74,B,79.76433834860705,49.17143528273688,3.9882169174303526,0.7723830992535607,A,641.2837000002582,Incorrect
18,518,75,A,42.827193669105895,65.52636440359649,2.1413596834552946,1.0292857251339322,A,575.8949000000939,Correct
18,518,76,B,39.57191413881671,30.63679203720553,1.9785957069408355,0.4812416039682159,B,373.4540999998899,Correct
18,518,77,B,49.56946320961994,24.390983264187433,2.4784731604809966,0.38313266918301425,A,516.6545000001861,Incorrect
18,518,78,A,30.629360208277536,50.7718119207792,1.5314680104138767,0.7975217566988131,B,238.009200000306,Incorrect
18,518,79,A,37.61626222675333,60.846957296305774,1.8808131113376663,0.9557817701768305,A,280.5495000002338,Correct
18,518,80,B,43.56231882582472,16.664745359836886,2.178115941291236,0.26176920798204073,A,319.45660000019416,Incorrect
18,518,81,A,64.57483602518599,82.43118509136482,3.228741801259299,1.2948260275486612,B,275.06510000011986,Incorrect
18,518,82,A,57.48513863504266,78.21290186415425,2.8742569317521327,1.228565389561832,A,259.0914000002158,Correct
18,518,83,A,61.62600243993497,77.69464747320815,3.081300121996749,1.2204246686253977,B,312.05569999974614,Incorrect
18,518,84,B,84.68209477178556,59.988680446722384,4.234104738589278,0.9422999889498436,A,413.07240000014644,Incorrect
18,518,85,A,44.866641672420144,71.98219018846173,2.243332083621007,1.1306935994268732,B,333.08130000023084,Incorrect
18,518,86,A,25.198014275242514,43.801641958300294,1.2599007137621256,0.6880345829568332,A,518.4628000001794,Correct
18,518,87,A,33.13402830138767,59.67588542026103,1.6567014150693837,0.9373866161637916,A,549.0724999999657,Correct
18,518,88,A,33.83427656067643,55.73766670220932,1.6917138280338213,0.8755252211994863,A,359.0606000002481,Correct
18,518,89,A,40.46149314908413,50.346733591089176,2.0230746574542064,0.7908446419100411,A,514.9199000002227,Correct
18,518,90,A,54.122410789764764,74.42538999822003,2.706120539488238,1.1690712922948163,A,523.2049000001098,Correct
18,518,91,A,47.80851628396516,57.57222244938247,2.390425814198258,0.9043423554890866,B,402.12979999978415,Incorrect
18,518,92,A,60.70629259448924,87.00297875115261,3.035314629724462,1.3666395944252494,B,410.9478999998828,Incorrect
18,518,93,B,71.58591562210167,51.54210595543741,3.579295781105083,0.8096215071007443,B,362.991399999828,Correct
18,518,94,B,84.78089426249136,69.16480767323081,4.239044713124568,1.0864382583658643,B,359.41720000028,Correct
18,518,95,A,49.405562183145236,63.01453116464862,2.470278109157262,0.9898299408813258,A,361.6364999998041,Correct
18,518,96,A,48.733697693284306,75.89729779676078,2.4366848846642153,1.1921919659281022,A,385.39570000011736,Correct
18,518,97,A,49.93127888418634,76.85258842390246,2.496563944209317,1.2071976360094596,A,330.51590000013675,Correct
18,518,98,B,87.19688214606379,69.07401453154249,4.359844107303189,1.0850120830312424,B,523.0879000000641,Correct
18,518,99,B,34.58667151110189,18.497488327690604,1.7293335755550945,0.2905578672006787,A,338.5646000001543,Incorrect
18,518,100,A,11.846064591067673,38.76488137806694,0.5923032295533837,0.6089173327730744,A,424.3344999999863,Correct
18,518,101,A,27.989029768079682,45.827933446558276,1.3994514884039841,0.7198634952245473,A,514.003700000103,Correct
18,518,102,B,86.64809629323105,65.46576794332736,4.332404814661553,1.0283338781618572,B,447.30529999969804,Correct
18,518,103,B,55.23698555184249,37.0494975992842,2.761849277592124,0.5819721473855196,A,447.58150000006935,Incorrect
18,518,104,B,74.71408175891105,50.84648878609443,3.7357040879455523,0.7986947781561503,B,327.89669999965554,Correct
18,518,105,B,83.65100517604562,65.65261006191463,4.182550258802281,1.0312687872975317,B,405.13659999987794,Correct
18,518,106,B,58.06807889725375,37.13556230662356,2.903403944862687,0.5833240486470731,A,530.1070999998956,Incorrect
18,518,107,B,64.59670382880208,56.881645470641494,3.2298351914401042,0.8934947976733323,B,442.1392000003834,Correct
18,518,108,A,34.4235273040695,45.14949586539825,1.721176365203475,0.7092066226200894,A,369.0611000001809,Correct
18,518,109,A,47.411569410850824,69.02156976594216,2.3705784705425414,1.0841882825795963,A,445.4900999999154,Correct
18,518,110,A,68.76266635302966,86.79557558360936,3.438133317651483,1.3633817130878239,B,431.68850000029124,Incorrect
18,518,111,B,57.02507919092453,27.858924785942477,2.8512539595462267,0.4376069672221375,A,339.852399999927,Incorrect
18,518,112,A,43.49990268801789,73.18655934904359,2.1749951344008944,1.1496117859623438,B,193.11229999993884,Incorrect
18,518,113,A,13.895063229258483,31.16704131935149,0.6947531614629241,0.4895707402150208,A,230.66930000004504,Correct
18,518,114,A,58.699916835183245,66.99086611202884,2.934995841759162,1.0522900641758364,B,361.4127999999255,Incorrect
18,518,115,B,46.429951312744144,24.720986300505785,2.321497565637207,0.38831634475581445,A,365.02539999992223,Incorrect
18,518,116,B,32.716059490624126,11.23332138403201,1.6358029745312064,0.17645259967744045,B,339.6381000002293,Correct
18,518,117,A,58.42260963275781,66.26257628366095,2.9211304816378907,1.0408501143034123,B,429.3351999999686,Incorrect
18,518,118,B,45.67394580321657,24.89938950902433,2.2836972901608283,0.39111869580210795,A,335.8506999998099,Incorrect
18,518,119,B,84.69249215152709,67.38510589931406,4.234624607576354,1.0584827682732763,B,308.8189999998576,Correct
18,518,120,B,37.17941438771967,18.49194511713805,1.8589707193859835,0.29047079465293274,A,407.87479999971765,Incorrect
18,518,121,B,57.36608668128582,38.42810667113254,2.868304334064291,0.6036272880469745,B,425.2461000000949,Correct
18,518,122,A,57.407568340454716,82.18292848834146,2.8703784170227356,1.2909264219473444,B,365.1539000002231,Incorrect
18,518,123,A,23.519067732207933,36.57316064256261,1.1759533866103966,0.5744898639661703,A,168.4586000001218,Correct
18,518,124,B,57.152261297070915,31.203491218927688,2.857613064853546,0.4901432938986842,A,350.5683999997018,Incorrect
18,518,125,A,20.03049595925879,34.233092530277844,1.0015247979629394,0.5377321600139024,B,263.6317000001327,Incorrect
18,518,126,A,61.48071281959814,78.76275788705107,3.074035640979907,1.237202507772156,A,509.76700000001074,Correct
18,518,127,A,31.386011125744744,42.381064522325545,1.5693005562872373,0.6657202047732647,A,531.0084000002462,Correct
18,518,128,A,30.04946966397543,40.13789369219839,1.5024734831987714,0.6304845597698928,A,374.06259999988833,Correct
18,518,129,B,46.62066572000585,23.70706763457488,2.331033286000293,0.37238974759468396,A,308.3998000001884,Incorrect
18,518,130,B,69.17489296357579,37.41204456738667,3.458744648178789,0.5876670218433795,B,452.72760000034395,Correct
18,518,131,A,56.76688537895711,68.06607539344515,2.8383442689478557,1.0691794120736813,A,457.40340000020296,Correct
18,518,132,B,66.58195046521202,39.18052838705235,3.3290975232606006,0.6154463007226499,B,450.51409999996395,Correct
18,518,133,A,42.28536790620808,51.88525378971473,2.114268395310404,0.815011660677049,A,377.7215999998589,Correct
18,518,134,B,56.426121074569636,38.48476825737773,2.821306053728482,0.6045173261624177,B,401.7592999998669,Correct
18,518,135,A,54.22777659734905,70.98431437753237,2.711388829867452,1.11501900284282,A,588.2541999999376,Correct
18,518,136,A,51.18660501351741,77.9989816728932,2.5593302506758704,1.225205139055231,A,328.14239999970596,Correct
18,518,137,A,26.717542799569372,36.64328205394021,1.3358771399784686,0.5755913285203863,B,343.0466999998316,Incorrect
18,518,138,A,26.91798553998639,49.578991891671926,1.3458992769993194,0.7787849834963222,A,359.0524000001096,Correct
18,518,139,B,79.6361264986489,65.21177224979506,3.981806324932445,1.0243441231376345,B,511.06639999989056,Correct
18,518,140,B,50.67036227924404,24.243199363582534,2.533518113962202,0.38081128510071816,A,471.6878000003817,Incorrect
18,518,141,A,48.58053621206322,65.43083648911815,2.4290268106031614,1.0277851761622427,B,472.7781000001414,Incorrect
18,518,142,A,62.50108698862158,80.81565408860168,3.125054349431079,1.2694493258990247,A,250.4229999999552,Correct
18,518,143,A,21.4223895441905,47.90306169450906,1.0711194772095252,0.7524595335196416,A,421.5085999999246,Correct
18,518,144,A,40.187368880868554,71.64518444635613,2.0093684440434276,1.1253999256087905,A,378.18049999987124,Correct
18,518,145,B,31.635819222097133,14.347970692487223,1.5817909611048566,0.22537739660719758,A,371.8872999997984,Incorrect
18,518,146,A,57.650823079510566,67.39208213228845,2.882541153975528,1.0585923506845867,B,567.7374000001691,Incorrect
18,518,147,B,55.44364435730336,28.343419484155987,2.7721822178651685,0.4452173921451913,A,324.1987999999765,Incorrect
18,518,148,B,55.9341476364774,39.25272882667819,2.79670738182387,0.6165804225762225,B,435.6600000000981,Correct
18,518,149,B,57.94592212888303,41.9404977497147,2.8972961064441516,0.6587997980920148,A,242.00199999995675,Incorrect
18,518,150,B,76.45510350030008,59.35896185127797,3.822755175015004,0.9324083923834582,B,330.02470000019457,Correct
18,518,151,A,40.802440734375615,62.774570383501185,2.0401220367187807,0.9860606457453136,A,380.8168000000478,Correct
18,518,152,A,33.40269096319369,45.10963126473598,1.6701345481596845,0.708580430937195,B,227.41899999982707,Incorrect
18,518,153,B,54.54321677289751,27.190245999606127,2.7271608386448754,0.42710338540830933,A,251.44749999981286,Incorrect
18,518,154,A,25.993888920893347,57.99375462334168,1.2996944460446673,0.9109637673938966,B,360.9572999998818,Incorrect
18,518,155,B,50.373418736312374,21.395372938661904,2.5186709368156186,0.3360777322245705,A,230.24469999973007,Incorrect
18,518,156,A,49.42860759561834,79.40662379453414,2.4714303797809167,1.2473163297963845,B,297.5550999999541,Incorrect
18,518,157,A,52.69508115116349,73.457167284732,2.6347540575581747,1.1538624854761528,A,351.3864999999896,Correct
18,518,158,A,52.18282727210431,63.25023598675012,2.609141363605216,0.9935323835689747,A,296.4888000001338,Correct
18,518,159,B,77.52450558438514,55.856353998725695,3.876225279219257,0.8773895568935376,B,539.5822999998927,Correct
18,518,160,A,40.38974114537282,62.71159402923405,2.0194870572686408,0.9850714154857361,A,440.2624999997897,Correct
18,518,161,A,50.43943961787881,68.75023084415872,2.5219719808939405,1.0799261007630572,A,488.27609999989363,Correct
18,518,162,A,29.38155828153451,50.77835408223653,1.4690779140767256,0.7976245207306779,A,389.2228999998224,Correct
18,518,163,A,64.17148013246658,77.65026582854807,3.208574006623329,1.2197275233813059,B,556.4641999999367,Incorrect
18,518,164,A,61.449099530776465,88.22518728628225,3.0724549765388236,1.3858380012008396,A,346.5499999997519,Correct
18,518,165,B,34.112309145658784,22.37932943464173,1.7056154572829394,0.35153368472068136,A,322.52840000001015,Incorrect
18,518,166,A,48.83555413561474,63.214386422583864,2.441777706780737,0.9929692599318792,B,322.8335999997398,Incorrect
18,518,167,A,22.813219419721726,41.619180703176646,1.1406609709860862,0.6537525617276292,A,175.26820000011867,Correct
18,518,168,B,63.95824523093796,36.36885798587333,3.197912261546898,0.5712806853393507,B,600.6453999998485,Correct
18,518,169,A,56.860154489454956,84.52600438304,2.8430077244727476,1.3277313720352855,A,249.46409999984098,Correct
18,518,170,B,68.88202353386102,50.545701475287906,3.4441011766930507,0.7939700221265362,B,507.1602000002713,Correct
18,518,171,B,46.10871030161236,23.388815730717194,2.305435515080618,0.3673906583789326,A,389.6549999999479,Incorrect
18,518,172,B,54.3542273398377,42.54425501930857,2.717711366991885,0.6682835951055526,B,490.0853000008283,Correct
18,518,173,A,52.682926413615895,70.02576669283143,2.6341463206807947,1.0999621710209602,B,352.75610000007873,Incorrect
18,518,174,B,49.3740158736979,31.445357894165852,2.468700793684895,0.49394252674906625,A,228.63520000009885,Incorrect
18,518,175,B,80.3495442495948,66.90216828239862,4.01747721247974,1.050896801926058,B,422.5753999999142,Correct
18,518,176,B,57.53505177622091,43.13097534799786,2.876752588811046,0.6774997764771628,A,473.0838000004951,Incorrect
18,518,177,A,53.492875125643586,71.92191551121923,2.674643756282179,1.1297468070107606,B,149.7904000007111,Incorrect
18,518,178,B,67.27769102379435,36.225910347290025,3.363884551189717,0.569035269083244,A,252.9647000001205,Incorrect
18,518,179,B,43.899237057808335,15.018863831720566,2.1949618528904167,0.2359157613949939,B,338.2320000000618,Correct
18,518,180,A,58.42023021880303,67.18607424757731,2.921011510940151,1.0553563863986364,B,297.96989999977086,Incorrect
18,518,181,A,47.688374786817,60.69336317526569,2.38441873934085,0.9533691193653598,A,203.10500000050524,Correct
18,518,182,A,44.90652317836684,56.189600451535156,2.245326158918342,0.8826241799334429,A,318.1323999997403,Correct
18,518,183,B,63.96201828882347,50.200828097225966,3.1981009144411736,0.7885527637718458,A,450.0223000004553,Incorrect
18,518,184,B,54.56809310739814,27.823728475565698,2.7284046553699066,0.4370541048715717,B,320.95159999971656,Correct
18,518,185,A,61.61350024491851,71.87048613774363,3.0806750122459254,1.1289389563013121,A,400.66440000009607,Correct
18,518,186,B,44.01986051304745,34.559858443229444,2.200993025652372,0.5428649869717641,A,349.36519999973825,Incorrect
18,518,187,B,37.35882505561419,27.99800400334108,1.8679412527807095,0.43979161846036974,B,385.5343000004723,Correct
18,518,188,A,25.413602207533227,48.559212533805216,1.2706801103766614,0.7627663268015393,A,3257.5235000003886,Correct
18,518,189,A,31.007884472359365,59.82013296192835,1.5503942236179682,0.9396524512497937,A,286.5170000004582,Correct
18,518,190,A,66.1805752043677,81.09092137100473,3.3090287602183848,1.2737732142598799,A,303.3744000003935,Correct
18,518,191,B,80.89548542294025,51.436301518632966,4.044774271147013,0.8079595348938344,A,472.4849999993239,Incorrect
18,518,192,B,62.76627113173307,31.451411333514958,3.138313556586654,0.4940376139520068,B,328.5084999997707,Correct
18,518,193,A,56.48634730644608,76.92567911040739,2.8243173653223037,1.2083457418283083,A,395.26800000021467,Correct
18,518,194,A,61.98107824848211,87.6845782287244,3.0990539124241057,1.3773461339824005,B,547.5778999998511,Incorrect
18,518,195,B,46.20271365213334,24.301963979492573,2.310135682606667,0.38173435752888824,A,315.6130999996094,Incorrect
18,518,196,B,69.20541512975088,47.425951208237215,3.4602707564875437,0.74496509952653,B,310.92550000084884,Correct
18,518,197,B,67.95026971702136,41.617693614192476,3.397513485851068,0.6537292025884897,B,454.6160999998392,Correct
18,518,198,A,50.94501801400244,63.9221329364726,2.547250900700122,1.0040865161750623,A,774.6895000000222,Correct
18,518,199,A,31.11943386333077,39.92618159406908,1.5559716931665384,0.6271589939090971,A,446.12400000005437,Correct
18,518,200,A,51.11229763150133,61.322525916327,2.555614881575066,0.963251984591513,A,395.3905999997005,Correct
18,518,201,B,75.6028463760499,46.963618917555415,3.780142318802495,0.7377028008869135,B,410.894499999813,Correct
18,518,202,A,48.986106699265555,79.96185766436275,2.449305334963278,1.2560379230287737,A,419.9848000007478,Correct
18,518,203,A,50.87659322271356,70.09026373905958,2.543829661135678,1.1009752882540031,B,423.5956000002261,Incorrect
18,518,204,B,51.55644164238182,25.549847328719743,2.577822082119091,0.4013360633412337,A,343.59409999979107,Incorrect
18,518,205,B,62.110542121504466,52.374543005164746,3.105527106075223,0.8226973977007412,B,337.83630000016274,Correct
18,518,206,A,14.86698021608979,33.622425038258285,0.7433490108044895,0.5281398174803288,A,346.6608999997334,Correct
18,518,207,B,65.70438145419695,49.880298775294406,3.2852190727098476,0.7835179009566442,A,514.942499999961,Incorrect
18,518,208,B,49.115766498414416,35.9908648287166,2.4557883249207206,0.5653431827111967,B,263.3997000002637,Correct
18,518,209,B,40.68963658234375,16.68159517161202,2.034481829117188,0.26203388420647644,A,317.2209999993356,Incorrect
18,518,210,A,54.535532326885736,76.49447878746895,2.726776616344287,1.2015724629944635,B,248.2853999999861,Incorrect
18,518,211,B,56.83204593658225,41.975744600678844,2.8416022968291124,0.6593534543322704,A,209.65909999995347,Incorrect
18,518,212,B,41.726570698492544,31.32055470309124,2.086328534924627,0.49198212280794335,B,94.38180000051943,Correct
18,518,213,A,33.74918714776658,57.14443760621802,1.6874593573883288,0.8976227268860741,A,380.7256000000052,Correct
18,518,214,B,63.45503138463994,31.335565297480585,3.172751569231997,0.49221790867324133,A,579.6348999992915,Incorrect
18,518,215,B,77.67352120022667,63.11038806708805,3.8836760600113336,0.9913356575838239,B,370.8301999995456,Correct
18,518,216,A,41.97208877509585,71.71494490762808,2.0986044387547924,1.1264957203720056,A,256.05629999972734,Correct
18,518,217,A,20.00561624212044,38.398284436823374,1.000280812106022,0.6031588414858781,A,208.9378000000579,Correct
18,518,218,A,33.1779509861173,57.14056199222988,1.6588975493058653,0.8975618488839077,A,324.2612000003646,Correct
18,518,219,B,69.9756620640423,46.46991445684136,3.498783103202115,0.7299477093527948,A,415.82719999951223,Incorrect
18,518,220,A,36.72762083507016,47.687468929724226,1.836381041753508,0.7490730102895657,B,254.2052999997395,Incorrect
18,518,221,B,71.92551962957889,43.10349470908591,3.5962759814789447,0.677068111610554,A,162.38309999971534,Incorrect
18,518,222,A,22.23881336409763,44.21991012797382,1.1119406682048816,0.6946047240022172,B,271.11130000048433,Incorrect
18,518,223,A,34.264153988437286,63.499513573738966,1.7132076994218641,0.9974480267489184,A,341.4359999997032,Correct
18,518,224,B,47.162685012266635,22.07447199417022,2.358134250613332,0.346744995243794,A,279.3984999998429,Incorrect
18,518,225,A,16.803591654474285,37.86983830200124,0.8401795827237143,0.5948580290110023,B,266.1898000005749,Incorrect
18,518,226,A,50.37909166362513,57.99892641808006,2.5189545831812565,0.9110450057556765,A,230.6027999993603,Correct
18,518,227,B,70.69775615433039,44.189953718889626,3.5348878077165193,0.6941341698286831,A,307.2883999993792,Incorrect
18,518,228,B,35.32208281860677,21.729939055909636,1.7661041409303386,0.34133308450499816,A,281.1022000005323,Incorrect
18,518,229,B,37.78807413165132,12.755410616418793,1.889403706582566,0.20036152143031266,A,229.55499999989115,Incorrect
18,518,230,B,62.42393472152624,32.6556986489943,3.1211967360763118,0.5129545148676132,A,268.9965999998094,Incorrect
18,518,231,A,27.9200266676791,54.16410217117122,1.396001333383955,0.8508077273461924,B,346.28739999971003,Incorrect
18,518,232,B,83.45116843739298,56.81593899110098,4.172558421869649,0.8924626827062435,B,367.7804999997534,Correct
18,518,233,A,21.754503656466532,45.8892320022505,1.0877251828233268,0.720826370685739,A,334.71059999919817,Correct
18,518,234,B,86.41877771316332,58.03295796109599,4.320938885658166,0.9115795719833224,A,264.1165999993973,Incorrect
18,518,235,A,35.7761800139614,60.49116628370202,1.7888090006980701,0.9501930180197843,A,368.94720000054804,Correct
18,518,236,B,55.75096153278383,45.40526878956741,2.7875480766391916,0.7132242943178745,A,410.6117000001177,Incorrect
18,518,237,B,37.28568887748882,21.457675001119686,1.8642844438744413,0.3370563707331748,B,310.4793000002246,Correct
18,518,238,A,60.906282609292006,77.39188119558382,3.0453141304646003,1.2156688270577007,A,282.6574000000619,Correct
18,518,239,B,42.59132163307679,28.56304074329864,2.1295660816538398,0.4486671948166647,A,254.8159999996642,Incorrect
18,518,240,A,25.68427488360576,44.876853608614724,1.2842137441802879,0.704923968065243,B,316.3043000004109,Incorrect
18,518,241,A,16.761873905500487,33.71644872848885,0.8380936952750244,0.5296167381527875,A,490.44320000029984,Correct
18,518,242,B,89.56441783042692,64.79316260146027,4.478220891521346,1.0177686181579826,B,465.0525999995807,Correct
18,518,243,A,62.411701971746396,80.8164694929317,3.1205850985873202,1.2694621342402894,A,316.39649999942776,Correct
18,518,244,B,41.89689516853396,32.015475271372246,2.0948447584266976,0.5028979095686437,A,471.9831000002159,Incorrect
18,518,245,A,44.63132288685425,52.387562704185164,2.231566144342713,0.8229019106547139,B,437.8056000005017,Incorrect
18,518,246,A,35.20484283051468,54.2371219175033,1.7602421415257339,0.8519547188394115,A,249.67409999953816,Correct
18,518,247,B,71.4355310162905,53.797833596780876,3.571776550814525,0.8450543940334648,A,160.86919999997917,Incorrect
18,518,248,A,40.6281346341625,66.46022542271923,2.0314067317081252,1.0439547797196818,B,3264.867800000502,Incorrect
18,518,249,A,35.198666338623866,63.20806206766294,1.7599333169311933,0.9928699171970876,A,299.9496000002182,Correct
18,518,250,B,64.83129608436721,47.53791782959487,3.2415648042183602,0.7467238671020524,B,509.3360000000757,Correct
18,518,251,B,49.41649759874159,41.85157681754984,2.4708248799370796,0.6574030313558175,A,364.27939999975933,Incorrect
18,518,252,B,47.38123509256168,37.1259214854384,2.369061754628084,0.5831726109820237,B,442.04890000037267,Correct
18,518,253,B,39.050221944608026,23.358481011064693,1.9525110972304014,0.3669141617168877,B,341.6847000007692,Correct
18,518,254,A,37.33738714618682,63.55744877892913,1.866869357309341,0.9983580708239667,B,394.0735999995013,Incorrect
18,518,255,B,82.35856557564207,60.76374532468027,4.117928278782103,0.9544746795830834,A,303.89000000013766,Incorrect
18,518,256,A,64.8065739767071,84.48286240161137,3.2403286988353552,1.3270536993756983,B,317.992399999639,Incorrect
18,518,257,B,45.0533658756946,15.341213066664658,2.25266829378473,0.24097921133694714,A,474.6865000006437,Incorrect
18,518,258,A,56.30350152395944,70.75854983537556,2.815175076197972,1.1114727017074157,B,331.5132999996422,Incorrect
18,518,259,B,60.18267967822374,27.3959403844403,3.0091339839111875,0.430334425249708,A,287.41830000035407,Incorrect
18,518,260,B,32.739753576389916,12.477921748787512,1.6369876788194957,0.19600273649029576,B,271.69190000040544,Correct
18,518,261,A,20.617060049076624,34.48359771355648,1.0308530024538312,0.5416670862312741,A,378.1919000002745,Correct
18,518,262,A,17.37948548724562,41.80787290772166,0.868974274362281,0.6567165319455706,A,598.8871999998082,Correct
18,518,263,A,44.268045530171875,75.90748996831746,2.213402276508594,1.1923520641845353,A,439.72260000009555,Correct
18,518,264,B,57.50060981143421,40.35392988921807,2.8750304905717106,0.6338780484172253,A,333.5497000007308,Incorrect
18,518,265,A,29.65075353840774,43.702727595980285,1.482537676920387,0.6864808397868378,B,243.35990000054153,Incorrect
18,518,266,B,59.74400730369969,50.32275806193166,2.987200365184984,0.7904680351787051,B,360.60660000021016,Correct
18,518,267,A,53.83218956257112,67.91435062683158,2.6916094781285564,1.066796125012877,A,386.03669999974954,Correct
18,518,268,B,69.93517480103213,38.24650887259835,3.4967587400516065,0.600774756498059,A,299.4197999996686,Incorrect
18,518,269,B,69.50621136761059,54.89716905219767,3.4753105683805297,0.8623227149863056,B,294.74190000019007,Correct
18,518,270,A,39.49773383926459,71.5600806728927,1.9748866919632295,1.124063118661263,A,405.6479999999283,Correct
18,518,271,A,66.65424090134712,83.45673645947704,3.332712045067356,1.3109353507683625,A,445.97220000014204,Correct
18,518,272,B,72.73686991720379,46.748645659594736,3.636843495860189,0.734326008847276,A,768.981199999871,Incorrect
18,518,273,B,42.86894775007918,29.98230912187091,2.143447387503959,0.4709610103746394,B,395.79369999955816,Correct
18,518,274,B,44.669726717609755,33.32979875913613,2.233486335880488,0.5235432546366413,A,295.40999999971973,Incorrect
18,518,275,B,51.971901351236056,36.923273099232404,2.598595067561803,0.5799894175751906,B,396.6473999998925,Correct
18,518,276,A,23.940412078532717,44.628565822156574,1.1970206039266358,0.7010238726356781,A,437.7604000001156,Correct
18,518,277,B,73.99083731139824,59.72279563294587,3.699541865569912,0.9381234800615366,B,562.1630999994522,Correct
18,518,278,B,57.755833173448465,42.14043630179311,2.8877916586724233,0.6619404255239093,A,426.2157999992269,Incorrect
18,518,279,B,86.86756283359783,66.74370124812229,4.343378141679891,1.0484076075724647,A,265.3710000004139,Incorrect
18,518,280,A,44.616327764220635,69.22385226601392,2.2308163882110317,1.0873657286604723,B,324.4277999992846,Incorrect
18,518,281,A,25.771771444742125,54.40264322711313,1.2885885722371062,0.8545547214908257,A,250.0051999995776,Correct
18,518,282,A,51.28018791988257,59.77828549960822,2.5640093959941286,0.9389951128488121,A,419.12669999965146,Correct
18,518,283,A,51.61781739976732,71.73456771038558,2.580890869988366,1.1268039546369346,A,295.0050999997984,Correct
18,518,284,A,52.47956162538862,61.90999068338396,2.6239780812694313,0.9724798595736579,A,335.3151999999682,Correct
18,518,285,B,53.67182233396343,36.705936695270466,2.6835911166981714,0.5765755053249684,A,448.3970000001136,Incorrect
18,518,286,B,40.710062704631774,28.936445547870473,2.035503135231589,0.45453262377095477,B,270.7707000008668,Correct
18,518,287,B,87.65671460954763,67.06656674670981,4.382835730477382,1.0534791669647652,B,298.08390000016516,Correct
18,518,288,A,30.024846302663757,40.81666539986847,1.501242315133188,0.6411466808212973,A,398.83069999996223,Correct
18,518,289,A,22.17293934714627,44.000931974250996,1.1086469673573134,0.6911650232070558,A,434.9347999996098,Correct
18,518,290,B,74.88911917420961,64.00392352725426,3.7444559587104806,1.0053712797707246,B,442.67820000004576,Correct
18,518,291,A,42.62490408765511,65.0550754757501,2.131245204382756,1.0218827359667302,A,464.5029000002978,Correct
18,518,292,A,43.16745729060239,51.09856858206445,2.1583728645301195,0.8026544383318394,B,340.9523000000263,Incorrect
18,518,293,B,73.00736991689537,50.82316545917948,3.650368495844768,0.798328416193684,B,373.2215999998516,Correct
18,518,294,B,76.25308190964483,53.834599560636654,3.812654095482242,0.8456319124432222,B,440.25950000013836,Correct
18,518,295,A,19.96707435160571,46.9776858552518,0.9983537175802855,0.737923763827541,A,406.89800000018295,Correct
18,518,296,B,52.077857770749524,44.414889395325694,2.6038928885374766,0.6976674511717921,A,502.0905999999741,Incorrect
18,518,297,A,66.8561561939054,78.66372514492336,3.3428078096952705,1.2356469050964896,B,364.9876999998014,Incorrect
18,518,298,B,45.36676920468945,33.952269170019974,2.2683384602344723,0.5333209969861898,A,317.3265999994328,Incorrect
18,518,299,B,31.531922491501295,12.196182798071927,1.5765961245750648,0.19157719140130489,B,346.06710000025487,Correct
18,518,300,B,53.53472024138814,28.878850285578167,2.676736012069407,0.4536279195064594,B,304.08689999967464,Correct
18,518,301,B,49.52796787870815,33.38777059674493,2.4763983939354075,0.5244538741323759,A,343.0300999998508,Incorrect
18,518,302,A,28.354224119917788,59.112789023644396,1.4177112059958892,0.9285415186494229,B,287.53969999979745,Incorrect
18,518,303,B,66.66345470261068,53.11050736930892,3.333172735130534,0.8342578988992374,B,518.529199999648,Correct
18,518,304,A,51.80652005066161,74.71595148783257,2.5903260025330805,1.1736354215007307,A,499.2128000003504,Correct
18,518,305,A,65.39158711939808,78.16416367495559,3.269579355969904,1.2277998118761533,B,638.7979999999516,Incorrect
18,518,306,A,52.77617007439396,78.69732403371898,2.638808503719698,1.236174675207535,A,321.0244000001694,Correct
18,518,307,B,71.96052122745978,41.10661582213706,3.598026061372989,0.6457012114038186,A,613.749000000098,Incorrect
18,518,308,A,66.11651617221503,87.87534488030079,3.3058258086107513,1.3803426895381121,B,425.6167000003188,Incorrect
18,518,309,B,57.3164284820784,40.79439381743598,2.86582142410392,0.6407968396225289,A,333.7448000002041,Incorrect
18,518,310,B,53.70989568957112,27.733483501650838,2.685494784478556,0.43563654013620007,A,381.5189000006285,Incorrect
18,518,311,B,68.83078549138662,52.125612882971424,3.441539274569331,0.8187872124850425,B,341.791199999534,Correct
18,518,312,B,89.066071331552,64.51457966433075,4.4533035665776,1.0133926476144748,B,613.275199999407,Correct
18,518,313,B,42.93717099974637,30.433349968269656,2.1468585499873187,0.4780459434222156,A,393.7034999999014,Incorrect
18,518,314,B,87.29314606164806,69.01742390542245,4.364657303082403,1.0841231595548386,A,531.1078000004272,Incorrect
18,518,315,B,45.675170887050655,21.125992068689765,2.2837585443525326,0.33184630741396004,B,344.36139999979787,Correct
18,518,316,A,14.005037402264936,40.76503940911404,0.7002518701132467,0.6403357416548553,A,499.6903999999631,Correct
18,518,317,B,33.91551625156639,18.52414810884689,1.6957758125783193,0.2909766380638133,B,439.2791000000216,Correct
18,518,318,B,44.69873755601331,26.229716929713916,2.2349368778006657,0.41201543006064534,A,439.55189999996946,Incorrect
18,518,319,A,31.19123694646752,41.944075078774944,1.5595618473233759,0.6588559906454905,B,384.1482999996515,Incorrect
18,518,320,B,34.825066368056426,12.313667756831084,1.7412533184028212,0.1934226408180302,B,247.33699999978853,Correct
18,518,321,B,57.285096452139506,42.76006122303008,2.8642548226069753,0.6716734710266054,A,358.81269999936194,Incorrect
18,518,322,B,35.46404365020092,22.365622730383812,1.7732021825100461,0.35131838031367335,B,353.3036999997421,Correct
18,518,323,B,69.0893675503641,50.551302143909275,3.454468377518205,0.7940579972235167,A,440.76229999973293,Incorrect
18,518,324,B,42.72967133790832,32.01356646738815,2.136483566895416,0.5028679261457758,B,306.6826000003857,Correct
18,518,325,A,19.133272772340565,44.238564885187046,0.9566636386170282,0.6948977522432951,A,550.8667999993122,Correct
18,518,326,B,62.374528099049854,33.53657377270675,3.1187264049524925,0.5267912689545383,B,288.2692000002862,Correct
18,518,327,A,57.596511715056536,69.78924165993418,2.8798255857528265,1.0962468444922597,B,494.5818000005602,Incorrect
18,518,328,B,45.566492272422586,21.72608936559119,2.278324613621129,0.3412726137108831,A,286.3594999998895,Incorrect
18,518,329,B,63.9860019506425,46.677794739236376,3.199300097532125,0.7332130851927865,B,168.30430000027263,Correct
18,518,330,B,68.19024408672153,49.217720856314536,3.4095122043360764,0.7731101513431544,A,635.6327999992573,Incorrect
18,518,331,A,32.171866468507716,50.249807964839746,1.6085933234253857,0.789322137733192,B,275.0961000001553,Incorrect
18,518,332,A,50.30940325938419,69.64895159379499,2.5154701629692098,1.0940431732864873,B,242.8702000006524,Incorrect
18,518,333,A,36.86010895109901,69.02211639921453,1.8430054475549502,1.0841968690749597,A,275.42580000044836,Correct
18,518,334,A,43.50922067132251,68.84296818964091,2.1754610335661253,1.0813828155794585,A,356.54909999993833,Correct
18,518,335,B,41.736801695438174,26.934600213515736,2.0868400847719086,0.42308771079079555,A,419.71579999972164,Incorrect
18,518,336,A,38.030761537703064,47.58426593281854,1.901538076885153,0.7474519014050288,B,317.3886999993556,Incorrect
18,518,337,A,31.18916077252036,51.7179919799916,1.559458038626018,0.8123843183137873,A,313.2573000002594,Correct
18,518,338,A,45.696551159433895,77.00360391782816,2.284827557971695,1.2095697818409359,A,323.48389999970095,Correct
18,518,339,A,46.36380025468831,53.31555082181506,2.3181900127344153,0.8374787139195373,A,407.0908000003328,Correct
18,518,340,B,46.475418005378074,36.67801141527024,2.3237709002689035,0.5761368560524779,A,364.9181000000681,Incorrect
18,518,341,B,76.02705886020708,49.02066905609346,3.801352943010354,0.7700148689033985,A,302.30180000035034,Incorrect
18,518,342,B,45.7712303931776,17.63681318529773,2.28856151965888,0.2770384136783347,B,352.5307999998404,Correct
18,518,343,A,57.69649741381702,68.2512235784685,2.884824870690851,1.0720877129631556,A,361.9084000001749,Correct
18,518,344,A,65.3862092379878,84.95708919633849,3.2693104618993902,1.334502836447949,B,459.87870000044495,Incorrect
18,518,345,A,45.78174726955277,52.62068810882564,2.2890873634776385,0.826563835947632,A,286.6735999996308,Correct
18,518,346,A,23.00128793174848,49.718097864354974,1.150064396587424,0.7809700550055799,A,327.19409999936033,Correct
18,518,347,A,25.709308205276514,41.23031995779542,1.2854654102638257,0.6476443514228337,A,353.4388999996736,Correct
18,518,348,A,32.511947264318124,49.22899682598937,1.625597363215906,0.7732872738606172,A,284.2140000002473,Correct
18,518,349,B,63.46050372300491,35.005522193512725,3.1730251861502454,0.5498654567910702,B,555.6688999995458,Correct
18,518,350,B,77.4731410413105,52.240228382561654,3.873657052065525,0.8205875885425434,B,521.7808999996123,Correct
18,518,351,B,62.99155627322483,43.23902429395685,3.1495778136612413,0.6791970053514272,B,444.8278999998365,Correct
18,518,352,B,48.62208539721192,35.97160476298193,2.431104269860596,0.5650406463060983,B,570.9258999995654,Correct
18,518,353,B,74.91182385547478,61.07498923354808,3.745591192773739,0.9593636874709517,B,482.6428999995187,Correct
18,518,354,A,35.05771254998481,46.787923998423366,1.7528856274992404,0.734942991550822,B,605.6864000001951,Incorrect
18,518,355,A,64.01010500755991,74.63776566815457,3.2005052503779954,1.1724072815171545,B,294.2775999999867,Incorrect
18,518,356,A,36.75403831215398,49.24678167977778,1.8377019156076988,0.7735666376906516,A,327.1167000002606,Correct
18,518,357,B,62.25090586781989,30.359658239132493,3.1125452933909945,0.4768883964477773,A,300.92210000020714,Incorrect
18,518,358,B,76.52283975714741,44.46647741249886,3.8261419878573704,0.6984777938506146,B,355.54510000019945,Correct
18,518,359,A,62.580487066829946,87.43209058248296,3.1290243533414976,1.373380067309629,A,355.5826000001616,Correct
18,518,360,A,69.90283538763174,86.14410740113776,3.495141769381587,1.3531484748073224,A,368.00419999963196,Correct
18,518,361,B,59.21433618788407,50.10260394523593,2.960716809394204,0.7870098624003607,A,252.98889999976382,Incorrect
18,518,362,A,52.08567191350551,78.77582166315884,2.6042835956752755,1.2374077130873973,B,357.55759999938164,Incorrect
18,518,363,B,34.53473421323587,16.728224246390127,1.7267367106617937,0.26276633200030935,A,302.11899999994785,Incorrect
18,518,364,A,33.00244638337895,65.54970136752348,1.6501223191689476,1.0296523013060828,B,398.4195000002728,Incorrect
18,518,365,B,43.21604245840301,31.060339751580734,2.160802122920151,0.48789467590784524,A,242.55420000008598,Incorrect
18,518,366,A,64.2046019218614,84.12147138259351,3.21023009609307,1.3213769825235988,B,320.40330000018,Incorrect
18,518,367,B,71.93618974068139,40.42195629524765,3.596809487034069,0.6349466047043886,A,276.28199999981007,Incorrect
18,518,368,B,68.29032523223941,43.28934340799144,3.4145162616119706,0.6799874161463583,B,996.7835999996169,Correct
18,518,369,A,28.513317277809733,44.81601117342416,1.4256658638904867,0.7039682573281372,A,326.7735999997967,Correct
18,518,370,B,45.5079863438589,23.36531292457524,2.275399317192945,0.3670214771633611,A,474.38620000048104,Incorrect
18,518,371,B,48.967187605498765,22.618045597180526,2.448359380274938,0.35528342943330654,B,284.01209999992716,Correct
18,518,372,B,64.92933921447126,39.90017101071743,3.246466960723563,0.6267504206212315,B,353.3246000006329,Correct
18,518,373,A,57.84430598563731,68.05512540751651,2.8922152992818657,1.0690074100969298,A,451.8126000002667,Correct
18,518,374,A,51.71452918118478,82.3033337310143,2.585726459059239,1.2928177430765178,A,283.2803999999669,Correct
18,518,375,A,32.38107199773653,58.140816302941936,1.6190535998868263,0.9132738068551803,A,307.82820000058564,Correct
18,518,376,A,30.097668220242554,51.77897826744227,1.5048834110121276,0.8133422886769109,A,354.9875999997312,Correct
18,518,377,A,30.74151492004338,56.595625058677356,1.5370757460021691,0.8890019995483159,A,364.710599999853,Correct
18,518,378,A,12.217894924462463,37.82651495817883,0.6108947462231231,0.5941775075175951,A,372.96599999990576,Correct
18,518,379,B,40.02910152434934,15.923900811561907,2.0014550762174674,0.25013204903047714,A,369.42980000003445,Incorrect
18,518,380,A,19.985788996956675,50.81316962252278,0.9992894498478337,0.798171401958648,B,443.392600000152,Incorrect
18,518,381,A,38.20206384723372,67.06741622814678,1.9101031923616858,1.0534925105879742,A,311.80419999964215,Correct
18,518,382,A,30.31841864209423,44.160177924315335,1.5159209321047116,0.6936664527412362,A,480.08070000014413,Correct
18,518,383,B,62.16169202263171,52.74748081206463,3.1080846011315857,0.8285554910727541,B,378.8687000005666,Correct
18,518,384,A,33.77251515027957,55.74773202574208,1.6886257575139783,0.8756833269318188,A,336.40379999997094,Correct
18,518,385,A,40.66989351909638,63.43293251391045,2.033494675954819,0.9964021739067911,A,314.9044000001595,Correct
18,518,386,A,35.28333879719029,66.3873957245067,1.7641669398595143,1.0428107734953436,A,687.6069999998435,Correct
18,518,387,A,42.397404965731475,53.391152038678875,2.1198702482865737,0.8386662550570463,A,347.49550000015006,Correct
18,518,388,B,61.87075480286301,44.987594658250785,3.0935377401431503,0.7066634844051805,B,594.4036000000779,Correct
18,518,389,A,31.986790892305528,59.62285503770193,1.5993395446152763,0.936553616862468,A,414.84140000011394,Correct
18,518,390,B,77.6812361229929,62.543796692515414,3.8840618061496452,0.9824356610841003,B,618.177199999991,Correct
18,518,391,A,23.054667793043667,53.186274828688674,1.1527333896521832,0.8354480513680803,A,535.9651999997368,Correct
18,518,392,B,54.389194978749025,24.269228914028346,2.7194597489374512,0.3812201563230022,A,353.0925000004572,Incorrect
18,518,393,A,56.998935040001626,74.59795297447226,2.8499467520000814,1.1717819051871945,B,294.0795000004073,Incorrect
18,518,394,A,18.162004448650293,45.25374741020964,0.9081002224325146,0.7108442020566136,A,360.02670000016224,Correct
18,518,395,A,34.08107135070048,58.73197113889721,1.7040535675350241,0.9225596453040361,B,381.5463000000818,Incorrect
18,518,396,B,47.555522375183095,21.53373283699714,2.377776118759155,0.3382510844253775,B,332.4892999999065,Correct
18,518,397,A,58.277048441578884,78.69941941577542,2.913852422078944,1.23620758939191,B,255.02810000034515,Incorrect
18,518,398,B,53.48954029335662,41.342621695096156,2.674477014667831,0.6494083829872803,A,440.0990999993155,Incorrect
18,518,399,B,79.85752683724292,62.45959931379505,3.9928763418621456,0.9811130917519032,B,273.2463000002099,Correct
18,518,400,A,26.174279031181385,42.1344794036115,1.3087139515590693,0.6618468547860817,B,302.459400000771,Incorrect
18,518,401,A,50.09849882644082,73.20228250239863,2.5049249413220407,1.149858764677701,A,635.9925000006115,Correct
18,518,402,B,51.63086292522337,26.674676385122858,2.5815431462611684,0.4190048368419355,B,555.4678999997122,Correct
18,518,403,A,23.171958934536786,39.29260020579217,1.1585979467268392,0.6172067207347873,A,501.15199999981996,Correct
18,518,404,B,75.51371525824197,61.72742392704609,3.7756857629120986,0.9696121076711541,B,554.3895999999222,Correct
18,518,405,B,51.12017090186286,24.618360451338624,2.5560085450931433,0.3867043016867546,A,456.4829999999347,Incorrect
18,518,406,A,50.80370828076936,65.7724133562327,2.5401854140384676,1.0331506530440593,B,378.98130000030505,Incorrect
18,518,407,A,49.730779497549946,75.3518229088931,2.4865389748774973,1.1836236664258881,A,279.4167000001835,Correct
18,518,408,A,15.55013783031821,39.931105581908966,0.7775068915159105,0.6272363397292179,A,502.0555000000968,Correct
18,518,409,B,42.78359237323748,18.59099840297139,2.139179618661874,0.2920267200283725,A,336.24140000029,Incorrect
18,518,410,A,42.93041865497559,53.857417178759334,2.1465209327487798,0.8459903307505551,B,377.69070000013016,Incorrect
18,518,411,B,57.13448240634949,36.00132226087727,2.8567241203174745,0.5655074476714534,A,451.9116999999824,Incorrect
18,518,412,A,24.202647604903,42.203205840758784,1.21013238024515,0.6629264071363282,B,273.4481000006781,Incorrect
18,518,413,A,37.27677496873997,68.00907294992028,1.8638387484369985,1.0682840197846093,A,382.7277000000322,Correct
18,518,414,B,33.96927187974629,20.57595528844681,1.6984635939873143,0.32320634987388275,B,351.54139999940526,Correct
18,518,415,A,59.116335294759956,78.77519599450778,2.955816764737998,1.2373978851072087,A,286.4586000005147,Correct
18,518,416,B,44.75505854398138,27.830813933737147,2.2377529271990686,0.43716540298826534,A,322.0776999996815,Incorrect
18,518,417,B,52.579474587016925,22.79715703416384,2.628973729350846,0.35809690530630994,B,287.0242999997572,Correct
18,518,418,B,60.129476401706725,45.3386932076746,3.0064738200853363,0.71217852752296,A,354.9148000001878,Incorrect
18,518,419,B,65.67712354600019,32.32549127104241,3.2838561773000094,0.507767629503939,B,318.5133999995742,Correct
18,518,420,B,71.86560712813896,55.4484600425132,3.593280356406948,0.8709823736121334,A,355.2105999997366,Incorrect
18,518,421,A,38.54433876018642,56.6844743499982,1.927216938009321,0.8903976409527671,B,343.39510000063456,Incorrect
18,518,422,A,62.14808530635827,71.845226371204,3.1074042653179133,1.128542176816351,A,305.8313999999882,Correct
18,518,423,B,56.40031523284388,43.550846922173676,2.820015761642194,0.6840951037415723,B,405.7661000006192,Correct
18,518,424,A,42.139634527993614,68.00081273860651,2.1069817263996806,1.068154268688707,A,321.6154000001552,Correct
18,518,425,B,81.16124446098203,63.59275859124711,4.058062223049102,0.9989127160588557,B,326.61780000034923,Correct
18,518,426,B,64.28298979576903,36.63322712255341,3.2141494897884515,0.5754333860275008,B,516.3954999998168,Correct
18,518,427,A,42.802135355937914,59.684607335491016,2.1401067677968957,0.9375236196878503,A,449.9700999995184,Correct
18,518,428,B,61.47029308708438,40.00115873048325,3.073514654354219,0.628336732013827,A,336.03579999999056,Incorrect
18,518,429,A,43.87667226067371,75.06130629891949,2.1938336130336853,1.1790602421876935,B,319.5028000000093,Incorrect
18,518,430,B,42.015703717017004,23.486872340385883,2.1007851858508504,0.36893092800178806,B,351.24160000032134,Correct
18,518,431,B,86.2604017395969,58.69956732391874,4.3130200869798445,0.9220506473686131,A,805.0549999998111,Incorrect
18,518,432,B,67.41740363803719,50.25912857488763,3.370870181901859,0.7894685455334592,A,261.35359999989305,Incorrect
18,518,433,B,45.84821856305446,17.12224513924952,2.292410928152723,0.26895559771214916,A,446.46540000030654,Incorrect
18,518,434,B,56.42930840632554,36.531203904746164,2.821465420316277,0.5738308090697065,A,313.24769999991986,Incorrect
18,518,435,B,51.94213720227263,34.34188364789874,2.597106860113632,0.5394410468933706,B,446.1944999993648,Correct
18,518,436,B,54.01860117362345,44.147966840891186,2.7009300586811724,0.6934746414913476,B,326.2670000003709,Correct
18,518,437,A,51.8158163783255,63.81795905461232,2.590790818916275,1.0024501566653217,B,351.9228999994084,Incorrect
18,518,438,A,59.90849805924188,82.05290417287925,2.995424902962094,1.2888840047761236,B,328.47190000029514,Incorrect
18,518,439,B,40.348228770112456,18.677058310956337,2.017411438505623,0.2933785459018431,A,309.4771000005494,Incorrect
18,518,440,A,27.408601607084606,44.47501245953367,1.3704300803542304,0.6986118620559275,A,535.1479999999356,Correct
18,518,441,B,76.71056864986568,60.53633145736896,3.8355284324932835,0.9509024709087351,B,413.2300999999643,Correct
18,518,442,B,44.571077818193714,21.842668709545098,2.228553890909686,0.3431038377635126,A,431.18520000007265,Incorrect
18,518,443,A,29.665821483520944,38.505764703637155,1.4832910741760472,0.6048471375690182,B,612.4284999996235,Incorrect
18,518,444,B,62.28333040167677,37.291290415355526,3.114166520083838,0.585770220058822,B,538.798699999461,Correct
18,518,445,A,52.24892357189296,61.803100636365414,2.6124461785946482,0.9708008346413813,A,581.0167999998157,Correct
18,518,446,A,61.31159427858077,83.2432807458737,3.065579713929038,1.3075823962597475,A,441.4648000001762,Correct
18,518,447,B,49.739176078548994,20.95915688475005,2.48695880392745,0.32922566647283347,A,306.84979999932693,Incorrect
18,518,448,B,82.77584244361296,57.13958366800476,4.138792122180648,0.8975464814029154,B,426.3230000005933,Correct
18,518,449,A,49.79838363615866,56.654145942382726,2.489919181807933,0.8899212434399678,B,1365.6411000001754,Incorrect
18,518,450,A,45.15656705499502,66.25998363773957,2.257828352749751,1.0408093891165124,B,978.6180999999488,Incorrect
18,518,451,B,58.243164951483564,27.21521258118984,2.912158247574178,0.42749555955475255,A,252.5777000000744,Incorrect
18,518,452,A,14.185652450655336,34.02315639275355,0.7092826225327669,0.5344344908770557,B,266.640699999698,Incorrect
18,518,453,B,54.94439954529655,31.825432717410997,2.7472199772648276,0.4999127281116732,A,356.8793000004007,Incorrect
18,518,454,B,51.680405694200935,24.835492613227295,2.5840202847100464,0.3901150057099922,B,362.1327000000747,Correct
18,518,455,B,44.79806514658295,15.382612763877024,2.2399032573291477,0.2416295162600632,A,369.06939999971655,Incorrect
18,518,456,B,41.701406096945085,29.17435078082836,2.085070304847254,0.45826963043151014,A,360.25059999974474,Incorrect
18,518,457,A,34.4464874667759,51.802755115274124,1.722324373338795,0.8137157745292813,B,361.89269999977114,Incorrect
18,518,458,A,52.738201227112114,67.80115366939881,2.6369100613556054,1.06501803136348,A,395.87590000064665,Correct
18,518,459,A,10.34730899719273,32.988566188826326,0.5173654498596365,0.5181831859563871,A,429.2288999995435,Correct
18,518,460,B,54.2679966266683,24.656517198654967,2.713399831333415,0.38730366647202413,A,338.79870000055234,Incorrect
18,518,461,B,52.1537978652291,22.57659942304799,2.607689893261455,0.35463239445243566,B,288.0688999994163,Correct
18,518,462,B,69.50369113042144,39.317692132828824,3.475184556521072,0.6176008638030012,B,590.1045999999042,Correct
18,518,463,B,67.55685082455511,55.93924553955561,3.3778425412277557,0.8786916141721175,A,346.83940000013536,Incorrect
18,518,464,A,44.831436491867805,63.88951618417229,2.2415718245933904,1.0035741734280093,B,337.19569999993837,Incorrect
18,518,465,B,44.32732360649035,29.10020943771275,2.216366180324518,0.45710502093721367,A,142.73969999976543,Incorrect
18,518,466,A,31.05943714564011,40.6062402745023,1.5529718572820057,0.637841330681392,B,271.35460000044986,Incorrect
18,518,467,A,24.158370881298005,40.78425496443412,1.2079185440649,0.6406375788919964,A,429.93699999988166,Correct
18,518,468,B,51.54149657565141,31.515955003086468,2.5770748287825707,0.4950514635428146,A,381.4007999999376,Incorrect
18,518,469,B,71.42815165217264,53.508569661323605,3.5714075826086322,0.8405106467605598,B,212.84650000052352,Correct
18,518,470,A,14.706077265196477,41.61640109797561,0.7353038632598239,0.6537088997912319,A,543.0733999992299,Correct
18,518,471,A,40.95428339477735,54.35184951221393,2.0477141697388674,0.8537568556829463,A,476.09230000034586,Correct
18,518,472,B,58.84252756549579,47.51765100123105,2.9421263782747893,0.7464055165065558,B,523.0005000003075,Correct
18,518,473,B,38.07102671577677,14.526745377792544,1.9035513357888385,0.2281855827972127,A,487.13729999963107,Incorrect
18,518,474,A,30.250663610041762,52.24894302603305,1.512533180502088,0.8207244778420855,B,290.7792000005429,Incorrect
18,518,475,B,79.95177372929064,52.61226354390117,3.9975886864645314,0.8264315031912501,B,433.6732000001575,Correct
18,518,476,A,24.64816441000273,44.0410667838308,1.2324082205001365,0.6917954593217015,A,330.2230999997846,Correct
18,518,477,B,66.2931863295967,38.83749770603276,3.3146593164798346,0.6100579873854148,B,452.4286000005304,Correct
18,518,478,A,52.718231439425665,61.40396537096093,2.6359115719712833,0.9645312325534645,B,532.4601000002076,Incorrect
18,518,479,B,62.8480974899676,38.5580437566163,3.14240487449838,0.6056683350128979,A,323.91329999973095,Incorrect
18,518,480,B,49.27308962094018,27.11875595562428,2.4636544810470093,0.42598042242341844,B,3427.898599999935,Correct
18,518,481,B,47.03825094610642,28.67600291339254,2.351912547305321,0.45044160043516757,A,426.2743999997838,Incorrect
18,518,482,A,18.109200293881262,38.87438922220386,0.905460014694063,0.6106374779663294,A,298.56259999996837,Correct
18,518,483,B,55.81613620173787,44.64035355478175,2.7908068100868935,0.7012090339067667,A,584.9539999999251,Incorrect
18,518,484,A,69.52749296248558,85.73267580270821,3.476374648124279,1.3466857223719177,A,320.14000000071974,Correct
18,518,485,B,74.4126251253461,53.98977607236752,3.7206312562673047,0.848069419389539,B,455.6233000002976,Correct
18,518,486,A,21.414660115211245,44.39535905231937,1.0707330057605622,0.6973606692612383,A,438.24640000002546,Correct
18,518,487,A,56.42318534845752,77.09667898538692,2.8211592674228765,1.2110318015833104,A,275.7523999998739,Correct
18,518,488,A,35.69425913677791,53.08664659688082,1.7847129568388953,0.8338830947623919,B,321.3262000008399,Incorrect
18,518,489,A,32.47685517650345,49.950811646674936,1.6238427588251725,0.7846255145502071,A,258.16690000010567,Correct
18,518,490,A,37.919408968699,59.09877842308227,1.8959704484349502,0.9283214406504312,A,207.42690000042785,Correct
18,518,491,A,54.382588486634944,61.703703586076855,2.7191294243317476,0.969239509426506,A,365.77720000059344,Correct
18,518,492,B,47.97356821196562,41.0281702734723,2.398678410598281,0.6444689916068586,A,259.31000000036875,Incorrect
18,518,493,A,49.10666218438544,72.53355448410008,2.4553331092192723,1.139354409530019,B,309.8621999997704,Incorrect
18,518,494,A,27.32851984490093,54.242115178897315,1.3664259922450466,0.8520331528059761,A,268.4603999996398,Correct
18,518,495,A,47.51206760719053,71.53967109476466,2.375603380359527,1.1237425257577136,A,258.00879999951576,Correct
18,518,496,A,57.85049638100417,75.57023676747731,2.8925248190502084,1.18705450329374,A,330.5403000003935,Correct
18,518,497,A,60.696765487409586,82.01416674778872,3.0348382743704794,1.2882755187257067,A,267.41189999938797,Correct
18,518,498,A,47.78655362304825,64.78686283406495,2.3893276811524125,1.0176696616431402,A,436.78559999989375,Correct
18,518,499,A,60.7300550790882,83.98746214264506,3.03650275395441,1.319271970304923,A,363.42229999991105,Correct
18,518,500,A,50.16711654062215,65.31049028489808,2.5083558270311075,1.0258947824069167,A,371.99650000002293,Correct
18,518,501,A,39.856272705940896,48.73872010078321,1.992813635297045,0.7655860250699486,A,307.1778000003178,Correct
18,518,502,B,61.05748585716187,39.31222372898661,3.052874292858094,0.6175149663163134,A,320.4344999994646,Incorrect
18,518,503,B,47.228348666340466,25.209836393407784,2.3614174333170235,0.3959951840586525,B,502.2655000002487,Correct
18,518,504,B,67.89777893750458,54.11406941111937,3.3948889468752292,0.8500218145891036,B,424.20379999930447,Correct
18,518,505,B,79.44891221792244,53.149505579143494,3.972445610896122,0.8348704813468346,B,383.935200000451,Correct
18,518,506,A,29.665003526424222,45.44941145112951,1.483250176321211,0.7139176856242413,A,477.1703999995225,Correct
18,518,507,A,62.959277948319894,72.77188340966579,3.1479638974159947,1.143098071538495,A,433.1112999998368,Correct
18,518,508,B,61.49905436965252,45.959664543461365,3.074952718482626,0.7219327224559476,A,305.66429999998945,Incorrect
18,518,509,A,23.634100349496883,48.381230386831376,1.1817050174748442,0.7599705897745237,A,598.9005000001271,Correct
18,518,510,B,41.61316682653403,13.362642791608245,2.0806583413267017,0.2098999021333053,A,313.3483999999953,Incorrect
18,518,511,B,45.684642837009505,24.52170912323325,2.284232141850475,0.3851861061750769,B,199.1969999999128,Correct
18,518,512,B,54.08821257381561,34.004592886054375,2.7044106286907805,0.5341428959957008,A,206.96609999959037,Incorrect
18,518,513,B,85.11063053245809,69.23673229191937,4.255531526622905,1.0875680476342855,A,234.02069999974628,Incorrect
18,518,514,A,10.787061447279008,32.59799558835748,0.5393530723639504,0.5120481173106817,B,328.107700000146,Incorrect
18,518,515,A,65.71436505143254,89.16676475725072,3.285718252571627,1.4006282655287408,A,535.8247000003757,Correct
18,518,516,A,54.77561068303252,79.83697798816505,2.738780534151626,1.2540763176621466,B,268.79989999997633,Incorrect
18,518,517,B,48.330947884836654,38.97395048289569,2.416547394241833,0.6122013825921874,A,280.42270000059943,Incorrect
18,518,518,A,38.39556004065087,61.375739918594206,1.9197780020325437,0.9640878681844667,B,287.35340000002907,Incorrect
18,518,519,A,42.291593211322706,64.47087633459743,2.1145796605661356,1.0127061573163367,A,194.63790000008885,Correct
18,518,520,B,87.30129829029707,61.41163070223509,4.3650649145148535,0.9646516392955556,A,232.18940000060684,Incorrect
18,518,521,A,44.48869015668512,65.63666729843392,2.224434507834256,1.031018358954387,B,446.55669999974634,Incorrect
18,518,522,A,64.12420289039262,86.68438929782124,3.206210144519631,1.3616352029947645,A,451.00169999932405,Correct
18,518,523,A,42.97474877076529,56.58194589528441,2.1487374385382645,0.8887871277522034,B,320.2548999997816,Incorrect
18,518,524,A,24.06082937048523,51.54379691403237,1.2030414685242616,0.8096480686162418,A,213.4790999998586,Correct
18,518,525,B,67.12077222219406,48.28664268723399,3.3560386111097036,0.7584848096636481,B,434.7725999996328,Correct
18,518,526,B,75.66291284854246,61.8993702659805,3.7831456424271233,0.972313034447194,A,308.15440000060335,Incorrect
18,518,527,B,59.29482525391347,40.38989678632565,2.9647412626956737,0.6344430151158532,B,448.31519999934244,Correct
18,518,528,B,44.891312681446806,16.12212747032665,2.24456563407234,0.25324578610508197,A,352.34849999960716,Incorrect
18,518,529,B,68.08341314833231,55.25835741354885,3.4041706574166155,0.8679962484992207,B,286.42130000025645,Correct
18,518,530,A,53.18762776960095,67.88607007358668,2.659381388480048,1.0663518951213091,B,420.5124000000069,Incorrect
18,518,531,B,64.91553296282011,39.468656209245786,3.2457766481410055,0.6199722019701387,A,345.7522999997309,Incorrect
18,518,532,B,45.85037047327829,22.676610201380935,2.2925185236639147,0.35620336008488857,B,264.6819999999934,Correct
18,518,533,A,46.5287534053226,76.77340378144524,2.3264376702661296,1.205953806554356,A,82.58410000053118,Correct
18,518,534,B,44.404432163233736,22.228546435984363,2.220221608161687,0.34916519091634024,A,359.0349999994942,Incorrect
18,518,535,B,79.15895498131812,61.70719613582649,3.957947749065906,0.969294370269685,B,352.1921999999904,Correct
18,518,536,B,51.0942924226423,40.51641502044579,2.554714621132115,0.6364303588901382,A,410.64379999988887,Incorrect
18,518,537,A,45.54576113400327,60.505912892395486,2.2772880567001637,0.950424657207468,B,267.5150000004578,Incorrect
18,518,538,B,66.28324354806867,46.129522127766734,3.3141621774034333,0.7246008391509988,A,292.6173999994717,Incorrect
18,518,539,A,67.18189228895596,86.8454169762745,3.359094614447798,1.3641646198530315,B,248.2308999997258,Incorrect
18,518,540,B,62.33203366550591,52.748700668508015,3.1166016832752956,0.8285746525329589,A,397.7719000004072,Incorrect
18,518,541,A,56.45778150466905,78.7171965728033,2.8228890752334523,1.2364868323215126,B,287.4285999996573,Incorrect
18,518,542,A,15.170686950770971,39.87031418824142,0.7585343475385485,0.6262814307504808,B,338.1626000000324,Incorrect
18,518,543,B,47.30394013966975,27.140525255760235,2.3651970069834873,0.42632237379032295,A,352.5401000006241,Incorrect
18,518,544,A,29.745650826269618,53.80923994394483,1.4872825413134807,0.8452335645157377,B,491.62469999919267,Incorrect
18,518,545,B,53.89024130014589,22.231089629009432,2.6945120650072942,0.3492051392989613,B,378.5358000004635,Correct
18,518,546,B,50.1410514038713,36.636247292017345,2.507052570193565,0.5754808267385032,A,267.88680000026943,Incorrect
18,518,547,A,47.17354428689907,64.90370142373469,2.3586772143449535,1.0195049579179514,B,304.10140000003594,Incorrect
18,518,548,A,23.130877682601604,39.51135335669004,1.1565438841300801,0.6206428871938391,A,271.00160000009055,Correct
18,518,549,B,37.787629019975526,18.62359702261243,1.8893814509987763,0.29253877794827976,A,288.10969999994995,Incorrect
