subject,day,trial,cat,x,y,xt,yt,resp,rt,fb
1,201,0,A,35.450689738966645,62.583250267566825,1.7725344869483322,0.9830553963917971,A,767.4114999999802,Correct
1,201,1,B,58.10489884965735,32.622871678683694,2.905244942482868,0.5124388700237761,B,755.0493999999617,Correct
1,201,2,B,74.16972038800861,42.90035579749708,3.7084860194004308,0.6738772130490256,B,595.9001000001081,Correct
1,201,3,A,59.34025549569678,79.7376616663193,2.9670127747848394,1.252516260526686,A,622.9682999999113,Correct
1,201,4,A,58.71129067597619,79.26136532267914,2.9355645337988094,1.245034615056128,A,622.3903999998583,Correct
1,201,5,A,21.852294175087863,43.04591090630566,1.0926147087543931,0.676163587351653,A,704.9051000001327,Correct
1,201,6,B,37.33992198853747,14.172241717922926,1.8669960994268735,0.2226170523296273,A,1429.9333999999817,Incorrect
1,201,7,B,41.16386804557824,27.2200912094444,2.0581934022789117,0.42757219286817316,B,741.3910000000214,Correct
1,201,8,B,83.43490720495505,59.35833482246963,4.171745360247752,0.932398543037969,B,552.7252000001681,Correct
1,201,9,B,71.29328721697811,50.852724441187696,3.564664360848906,0.798792727597307,B,519.9393000000327,Correct
1,201,10,A,35.83671938805166,61.503435519987406,1.7918359694025832,0.9660937060006299,A,577.05349999992,Correct
1,201,11,B,52.0803096186815,43.05098412965906,2.6040154809340748,0.6762432773577384,A,654.8367999998845,Incorrect
1,201,12,B,57.39753354534011,33.878518878628,2.8698766772670057,0.5321625301180042,B,626.1425000000145,Correct
1,201,13,A,26.882730486945597,46.620943278070804,1.34413652434728,0.7323200645290685,A,593.6408999998548,Correct
1,201,14,A,27.153050966170053,46.933780594032086,1.3576525483085027,0.7372341015970321,A,916.1389999999301,Correct
1,201,15,A,22.208395233165028,49.11462923350394,1.1104197616582514,0.7714907919188124,A,594.4912000002205,Correct
1,201,16,A,52.16011822854128,81.79697798118312,2.6080059114270635,1.2848639255576548,B,785.7049999997798,Incorrect
1,201,17,A,66.56594803858599,77.97437748969469,3.3282974019292992,1.2248186574493107,A,893.0425000000923,Correct
1,201,18,A,43.2821117392085,73.83552381632653,2.1641055869604253,1.159805695976628,A,559.7992000000431,Correct
1,201,19,A,51.74505568446736,59.58805661765607,2.5872527842233684,0.9360070045586049,B,817.4963000001298,Incorrect
1,201,20,B,43.195171189646594,14.819747409176124,2.15975855948233,0.2327880479436204,B,638.2071000000451,Correct
1,201,21,B,32.660993442568525,17.19275715016944,1.6330496721284262,0.27006319778962856,B,797.8917000000365,Correct
1,201,22,B,45.61795858498175,21.741870820293645,2.2808979292490874,0.341520508221664,B,880.9899000000314,Correct
1,201,23,A,41.098951288049946,48.66291550414611,2.054947564402497,0.7643952892504314,B,1234.1086999999789,Incorrect
1,201,24,B,48.57080656290164,34.78781829968281,2.4285403281450817,0.5464457720235004,A,1316.0645999998906,Incorrect
1,201,25,B,73.81923043346757,56.28431108476633,3.6909615216733784,0.8841118910813224,B,1063.966500000106,Correct
1,201,26,B,77.56735739753425,59.81077762896052,3.8783678698767123,0.9395054980231756,B,3119.427600000108,Correct
1,201,27,A,43.227765105430336,62.21364271803546,2.161388255271517,0.9772496145802017,A,946.2071999998898,Correct
1,201,28,B,43.87411237242908,15.87538207894016,2.193705618621454,0.24936991856064727,A,1866.4869000001545,Incorrect
1,201,29,A,59.234677840858545,84.06531820108455,2.9617338920429273,1.3204949304110778,A,592.5978000000214,Correct
1,201,30,A,52.58558792834966,60.67477182085607,2.629279396417483,0.9530770870531922,A,748.182799999995,Correct
1,201,31,B,67.31373088148575,56.975709730184114,3.3656865440742876,0.8949723556070546,B,821.3271000001896,Correct
1,201,32,A,17.321690532039316,47.724118767345644,0.8660845266019658,0.7496487045926993,A,5136.054800000011,Correct
1,201,33,A,13.559684470259402,38.6833130094478,0.67798422351297,0.6076360598349784,A,3234.6333999998933,Correct
1,201,34,A,15.384915402512505,33.847410646964974,0.7692457701256252,0.5316738831577105,A,3554.3623999999454,Correct
1,201,35,B,70.58724888230714,45.95852696054632,3.5293624441153564,0.7219148533453038,B,671.94829999994,Correct
1,201,36,A,26.431833603101538,46.90330948316468,1.321591680155077,0.7367554625067932,A,554.7240000000784,Correct
1,201,37,A,37.09940535521399,56.11846930327042,1.8549702677606996,0.8815068544692934,A,1986.7162999998982,Correct
1,201,38,B,78.42048067901737,66.45123979201145,3.921024033950869,1.0438136337625845,B,1365.243800000144,Correct
1,201,39,A,45.52460769162616,68.74728639531784,2.276230384581308,1.0798798494688202,A,739.3154999999751,Correct
1,201,40,A,45.414135745974214,65.84834010634853,2.270706787298711,1.0343433076459332,B,744.3093000001682,Incorrect
1,201,41,A,54.227895860662045,71.02759214789054,2.711394793033102,1.115698808469925,A,511.22029999987717,Correct
1,201,42,B,48.57970159023504,29.45105855712915,2.428985079511752,0.46261614601759876,B,523.3914999998888,Correct
1,201,43,B,69.44537343811295,60.71092700980873,3.4722686719056473,0.9536450114332063,B,621.8819999999141,Correct
1,201,44,B,67.89743542854272,44.83852378229347,3.394871771427136,0.704321884561322,B,586.5810999998757,Correct
1,201,45,B,50.980653463634155,32.70314457170917,2.5490326731817077,0.5136997936788322,B,722.6191999998264,Correct
1,201,46,A,62.34039527689795,76.91280512642341,3.1170197638448975,1.2081435177607758,A,602.356699999973,Correct
1,201,47,A,43.26089889552815,64.55335952595175,2.1630449447764075,1.0140018002563536,A,1046.764499999881,Correct
1,201,48,A,33.57153205138848,57.31444208342548,1.6785766025694242,0.9002931509694359,B,778.9198000000397,Incorrect
1,201,49,B,62.11051806118876,50.829854025426606,3.105525903059438,0.7984334799466091,B,719.0812999999707,Correct
1,201,50,A,48.73478667998667,57.97648101591335,2.4367393339993333,0.9106924342029074,A,630.5827000001045,Correct
1,201,51,B,78.86467232132584,61.6818639309508,3.943233616066292,0.9688964529260014,B,1131.2964000001102,Correct
1,201,52,A,51.52066589005861,65.68768224223943,2.5760332945029303,1.0318196998178006,A,1051.2892000001557,Correct
1,201,53,B,64.71217853036725,35.57776390018421,3.235608926518363,0.5588542084998543,B,1376.0192000002007,Correct
1,201,54,B,37.90645831084723,19.3203876420363,1.8953229155423614,0.3034839394036413,B,852.9814999999417,Correct
1,201,55,A,32.24231984670477,58.32888805810066,1.6121159923352382,0.9162280310769523,A,568.8972000000376,Correct
1,201,56,A,61.55240550978767,74.91009979472845,3.0776202754893838,1.176685095973986,A,755.3595000001678,Correct
1,201,57,B,81.10112533069197,50.43479065930516,4.055056266534598,0.792227839103061,B,684.5021999999972,Correct
1,201,58,B,69.40141724695674,46.2250691581949,3.470070862347837,0.7261016883953261,B,766.424299999926,Correct
1,201,59,B,84.51024470273796,56.67652949680787,4.2255122351368986,0.890272843490684,A,1438.1879999998546,Incorrect
1,201,60,A,11.028169585675059,35.348311738134406,0.5514084792837529,0.5552499823666245,A,611.4522000000306,Correct
1,201,61,A,19.52680340535181,50.00975888436026,0.9763401702675906,0.7855514555945153,A,776.4083000001847,Correct
1,201,62,A,20.654069370973094,50.806246427418365,1.0327034685486547,0.7980626526642511,A,558.5065000000213,Correct
1,201,63,B,41.68235712553445,14.914808686035695,2.0841178562767224,0.2342812669887349,B,1210.1284000000305,Correct
1,201,64,B,48.46783297019536,18.448879001125942,2.423391648509768,0.2897943136845213,B,2402.413499999966,Correct
1,201,65,B,61.66260038953807,41.46865580823497,3.0831300194769033,0.6513881222069735,A,640.256600000157,Incorrect
1,201,66,B,74.16396001124573,59.63752747683463,3.708198000562287,0.9367840909974154,A,476.6524000001482,Incorrect
1,201,67,A,44.68575376021765,61.72572708486763,2.2342876880108826,0.9695854537365431,A,493.23309999999765,Correct
1,201,68,A,49.59274976033215,68.55104644193568,2.4796374880166074,1.0767973194893894,A,585.1165000001401,Correct
1,201,69,A,54.885179746016796,80.18027199884051,2.74425898730084,1.2594687673719438,A,576.3311000000613,Correct
1,201,70,B,79.1944669487611,48.9246176914474,3.959723347438055,0.768506097595702,B,3894.968399999925,Correct
1,201,71,B,71.55901137684847,61.70436652538498,3.577950568842424,0.9692499228528069,B,576.7021999999997,Correct
1,201,72,A,38.688566782368625,47.367257597085064,1.9344283391184314,0.7440431424384888,A,522.8451000000405,Correct
1,201,73,B,48.178952316018105,41.10890411775554,2.4089476158009053,0.64573715586734,A,1066.8868999998722,Incorrect
1,201,74,B,62.6895417267853,34.531190515179574,3.134477086339265,0.5424146722109885,A,1051.1538999999175,Incorrect
1,201,75,B,82.20948631421733,65.54024731907157,4.110474315710866,1.029503797460267,A,388.8782000001356,Incorrect
1,201,76,B,38.23644362339256,17.50537730774621,1.911822181169628,0.2749738237416648,B,1029.1510000001836,Correct
1,201,77,B,64.48960564565046,37.90251065998335,3.2244802822825225,0.5953712452100626,B,380.07519999996475,Correct
1,201,78,A,55.6781174640024,66.03377836341511,2.78390587320012,1.0372561649764076,A,1057.86420000004,Correct
1,201,79,A,57.35159418477086,76.65210182990168,2.867579709238543,1.2040483999551792,A,673.3488999998372,Correct
1,201,80,B,83.56630960711453,69.05218174599248,4.178315480355726,1.084669134437786,B,2026.4669999999114,Correct
1,201,81,B,86.94112292316677,61.59550949661682,4.347056146158338,0.9675400006434586,B,554.2476999999053,Correct
1,201,82,B,68.7778649855823,37.157385610256554,3.438893249279115,0.5836668482989255,B,867.0592000000852,Correct
1,201,83,A,24.7761424140712,56.93145586633802,1.23880712070356,0.8942772175392955,A,2592.042800000172,Correct
1,201,84,B,47.639490200431155,28.438431150032294,2.381974510021558,0.44670983190280295,B,1725.3306000000066,Correct
1,201,85,A,39.74734479470591,71.86890479394768,1.9873672397352953,1.1289141166110512,A,624.1061000000627,Correct
1,201,86,A,19.549404821771404,39.04678229195789,0.9774702410885702,0.6133454219736747,A,928.9535000000342,Correct
1,201,87,B,57.16612199617452,43.09860573711229,2.8583060998087255,0.6769913158183744,B,2618.897699999934,Correct
1,201,88,A,64.40934966891508,87.80689769959632,3.220467483445754,1.3792675237378116,A,517.9591000000983,Correct
1,201,89,B,69.41225273774103,50.95669595944043,3.4706126368870516,0.8004259083869336,B,1948.3374000001277,Correct
1,201,90,A,55.68204901621471,73.52181592650503,2.7841024508107357,1.1548779839664465,A,642.4271999999291,Correct
1,201,91,A,62.404699767106436,83.82928066770981,3.1202349883553215,1.31678726150697,A,556.9035999999414,Correct
1,201,92,B,48.470405231953436,23.012523314228158,2.423520261597672,0.3614798709227151,B,613.216599999987,Correct
1,201,93,A,30.898890977273332,39.472069229898146,1.5449445488636666,0.6200258135731788,A,595.5727000000479,Correct
1,201,94,A,28.221444234949427,50.2098172933495,1.4110722117474714,0.7886939657343627,A,950.3369999999904,Correct
1,201,95,B,62.91866439138941,48.79242299355876,3.145933219569471,0.7664295881370495,B,1165.8182999999553,Correct
1,201,96,B,76.37823031872317,44.59511708029153,3.8189115159361586,0.7004984610271028,A,669.8387999999795,Incorrect
1,201,97,A,51.92197178745426,68.3595061781599,2.5960985893727133,1.073788612061666,A,1158.1312999999227,Correct
1,201,98,B,56.451543940811106,30.519546298980472,2.8225771970405553,0.4793999122188531,B,789.0370000000075,Correct
1,201,99,A,45.55884318732296,74.27988741315153,2.2779421593661477,1.1667857430331687,A,723.9540000000488,Correct
1,201,100,B,85.36100620593487,58.63686346406821,4.2680503102967435,0.9210656974413223,B,3157.9134999999496,Correct
1,201,101,A,47.1297111188364,60.73101408715226,2.35648555594182,0.9539605385062789,A,856.6930000001776,Correct
1,201,102,B,67.1824121941581,47.073280211961944,3.3591206097079054,0.739425356471367,B,1139.2234999998436,Correct
1,201,103,A,45.05309114432195,62.33719162082878,2.2526545572160974,0.9791903162070745,A,2032.4722000000293,Correct
1,201,104,A,62.65415318607263,74.00747301927781,3.1327076593036316,1.16250666774054,A,895.3522000001612,Correct
1,201,105,B,41.960916810170644,26.457268310239606,2.0980458405085325,0.4155897987875139,B,835.8064999999897,Correct
1,201,106,B,77.97391363436049,46.02865611947273,3.8986956817180243,0.723016439597732,B,1254.5894999998382,Correct
1,201,107,B,46.53742874279699,30.714900815527333,2.3268714371398493,0.48246853378899907,B,2130.4867999999715,Correct
1,201,108,B,52.91556079639342,37.12096199738293,2.645778039819671,0.5830947075258206,B,559.1855000000123,Correct
1,201,109,B,75.77225469779397,62.467629331330826,3.7886127348896985,0.981239226972396,A,771.350099999836,Incorrect
1,201,110,A,19.219643606350193,36.228810288683164,0.9609821803175096,0.5690808212561268,A,613.0327999999281,Correct
1,201,111,A,42.32499179185188,58.12861076236334,2.116249589592594,0.9130820826721061,A,970.8454999999958,Correct
1,201,112,A,39.86112908176685,67.23057775575455,1.9930564540883424,1.0560554458703793,A,691.6934000000765,Correct
1,201,113,A,34.18529124482462,55.24147773285679,1.7092645622412308,0.8677311030949352,A,907.4445999999625,Correct
1,201,114,B,82.21656777834349,51.753705612471784,4.110828388917174,0.812945306740951,B,927.3096000001715,Correct
1,201,115,A,47.96824975227898,67.73008365914339,2.3984124876139488,1.063901666252935,A,785.8052000001408,Correct
1,201,116,B,43.444359001712826,23.715874588985677,2.172217950085641,0.37252808691107125,B,1157.68160000016,Correct
1,201,117,A,42.72233980820164,51.231655379365236,2.136116990410082,0.8047449608552891,A,1409.8558999999113,Correct
1,201,118,B,85.88790612445379,66.13812134409085,4.29439530622269,1.0388951806841304,B,1591.9356999997945,Correct
1,201,119,A,18.11054256077858,37.37265979448327,0.905527128038929,0.5870483672772963,A,581.7522999996072,Correct
1,201,120,B,43.66100793275726,16.614862997029654,2.1830503966378627,0.2609856576593463,B,783.155699999952,Correct
1,201,121,A,18.32748676216758,48.546193168446855,0.9163743381083791,0.7625618190887182,A,909.8082000000431,Correct
1,201,122,A,58.3123932079632,72.85239238299857,2.9156196603981597,1.1443627035343464,B,2476.9913999998607,Incorrect
1,201,123,B,83.51353033392151,63.9626668637665,4.175676516696075,1.0047232216161006,B,551.4542000000802,Correct
1,201,124,B,50.76478744156581,33.539299667742,2.5382393720782903,0.5268340872136242,B,1431.5036000002692,Correct
1,201,125,B,53.39350521505416,37.98372926271644,2.669675260752708,0.5966470240384679,B,551.2569000002259,Correct
1,201,126,A,28.717024346600844,46.0036196530299,1.4358512173300424,0.7226231677024888,A,1544.9358999999276,Correct
1,201,127,B,88.28979746166661,66.36445422072113,4.41448987308333,1.042450409196568,B,707.1479000001091,Correct
1,201,128,A,31.39248252169937,60.72295996475188,1.5696241260849686,0.9538340246474581,B,1837.3587999999472,Incorrect
1,201,129,B,76.35648517385002,45.83744599716221,3.817824258692501,0.7200129180200183,B,591.3276000001133,Correct
1,201,130,A,19.32318905895152,46.24500999249448,0.9661594529475761,0.7264149182880361,A,680.4376000000047,Correct
1,201,131,B,75.80347987683254,55.66208283772194,3.7901739938416266,0.8743379526324686,B,1065.8739000000423,Correct
1,201,132,A,69.38288320279261,87.10437934575741,3.469144160139631,1.36823239124065,A,885.7330000000729,Correct
1,201,133,B,31.422667373783966,10.420506600847048,1.5711333686891982,0.16368493491952515,B,679.1346999998495,Correct
1,201,134,A,56.383757274826905,73.19300756192305,2.8191878637413454,1.149713074253398,A,1192.8232000000207,Correct
1,201,135,A,38.36304703370054,57.8930892536597,1.9181523516850267,0.9093825194645776,B,1010.4671999997663,Incorrect
1,201,136,B,77.87092654009746,57.480777981426115,3.8935463270048727,0.9029059491453711,B,1185.6888000002073,Correct
1,201,137,B,48.255722427595586,19.988238866995005,2.412786121379779,0.3139745219137474,B,3316.4589000002707,Correct
1,201,138,A,23.357721825617286,52.071548929572174,1.1678860912808644,0.8179379778909271,A,659.932900000058,Correct
1,201,139,B,67.8604393554847,37.271421045831445,3.393021967774235,0.5854581127321804,B,1246.7034999999669,Correct
1,201,140,B,55.78852090711921,25.19438533336953,2.7894260453559605,0.39575247937512076,B,3184.1269999999895,Correct
1,201,141,A,48.1647117782406,69.54151558350272,2.4082355889120297,1.0923555723831613,A,603.4445999998752,Correct
1,201,142,A,45.918392483100895,77.90049312536613,2.2959196241550446,1.223658084568362,A,900.0106000003143,Correct
1,201,143,A,64.82824625082893,77.1817141739732,3.241412312541446,1.212367531202107,A,710.5123000001186,Correct
1,201,144,A,20.43097264159794,40.85291887584524,1.021548632079897,0.641716149090276,A,742.2916999998961,Correct
1,201,145,B,86.26819545628257,63.85857885049222,4.313409772814128,1.0030882109269545,B,2906.4329000002544,Correct
1,201,146,A,62.323641173551636,81.19760408263475,3.116182058677582,1.2754489823754898,A,968.7966999999844,Correct
1,201,147,B,63.795528333846306,56.17155823555275,3.189776416692315,0.8823407734675189,A,867.2873999998956,Incorrect
1,201,148,B,42.93406923550016,34.65996560870714,2.146703461775008,0.5444374666499462,A,1205.2716000002874,Incorrect
1,201,149,A,41.194368748834584,71.09249861509312,2.059718437441729,1.1167183568725954,B,515.3125000001637,Incorrect
1,201,150,A,25.36272368463026,50.31120432826695,1.2681361842315129,0.7902865495546922,B,454.3951999999081,Incorrect
1,201,151,B,68.81680060814382,47.35910278394308,3.440840030407191,0.7439150469331974,B,399.7859999999491,Correct
1,201,152,A,54.273839012144485,67.99715070229868,2.713691950607224,1.068096745556898,A,776.3608000000204,Correct
1,201,153,A,42.816762552854286,55.212250205818094,2.1408381276427146,0.8672719981737984,A,460.2371000000858,Correct
1,201,154,B,76.9985223508156,58.48352350484355,3.8499261175407806,0.9186570389943125,B,554.0549000002102,Correct
1,201,155,B,78.73139602229568,48.3625524791959,3.9365698011147843,0.7596771978874635,B,824.6623999998519,Correct
1,201,156,B,73.49958953996322,60.63053737378415,3.674979476998161,0.9523822539834083,B,950.4808000001503,Correct
1,201,157,B,35.97372899951192,11.940734690897724,1.7986864499755961,0.1875646219169454,B,879.6290999998746,Correct
1,201,158,A,51.43284391636793,74.61834240859545,2.5716421958183964,1.172102181669456,A,643.5320000000502,Correct
1,201,159,B,52.688756332227314,40.05101743869512,2.6344378166113653,0.6291199107710065,B,1553.88049999965,Correct
1,201,160,A,53.09638485853252,77.57840170829752,2.654819242926626,1.2185986844201266,A,540.0702000001729,Correct
1,201,161,B,82.98064658157864,67.3607396083515,4.149032329078932,1.0581000234698603,B,655.4048000002695,Correct
1,201,162,B,48.85709626798318,41.71261842245245,2.442854813399159,0.6552202779898544,A,1157.7621000001272,Incorrect
1,201,163,A,63.954255283990896,74.44160601781805,3.1977127641995446,1.1693260129350145,A,796.6842000000725,Correct
1,201,164,B,65.01518999656365,39.772395118509166,3.250759499828183,0.6247433215998948,A,2285.2827000001525,Incorrect
1,201,165,B,54.092840310764835,38.31214735029395,2.704642015538242,0.6018058032946657,B,569.4273999997677,Correct
1,201,166,A,44.968895703052866,58.13598694402586,2.248444785152643,0.9131979474627189,A,690.5759000001126,Correct
1,201,167,B,60.20420794368705,40.93128713330904,3.0102103971843523,0.6429471547998905,B,745.4570999998396,Correct
1,201,168,B,34.57512110399889,18.80039740215789,1.7287560551999446,0.2953159518159393,B,618.0413000001863,Correct
1,201,169,B,67.23293042585462,56.64534473931883,3.361646521292731,0.8897829944655263,A,632.9524000002493,Incorrect
1,201,170,A,42.57980550788271,62.859278520285,2.128990275394136,0.98739123804641,A,635.7502999999269,Correct
1,201,171,B,78.43309843791762,50.314739049848605,3.921654921895881,0.7903420728314594,B,1090.6755000000885,Correct
1,201,172,A,57.911201908226715,66.86841587363304,2.8955600954113354,1.0503666203289634,A,1026.9432000000052,Correct
1,201,173,B,59.31715241310148,33.026441866937155,2.965857620655074,0.5187781357169006,B,886.2555000000611,Correct
1,201,174,A,29.909755521750483,63.15046303774308,1.495487776087524,0.9919651537508372,A,734.2923000001065,Correct
1,201,175,B,50.14125017365452,35.3505771286167,2.507062508682726,0.555285567037108,B,1056.2254000001303,Correct
1,201,176,B,41.13493974306026,31.189240591966986,2.056746987153013,0.4899194455738403,B,2131.57050000018,Correct
1,201,177,B,78.78102772017763,66.20616039669324,3.939051386008882,1.0399639356231947,B,1913.382400000046,Correct
1,201,178,A,33.39802761877147,52.10712413427362,1.6699013809385734,0.8184967918996269,A,647.2002999998949,Correct
1,201,179,A,22.19692525632343,47.194342361077965,1.1098462628161714,0.7413269962628206,A,2438.679300000331,Correct
1,201,180,A,42.10822894419218,73.20065614958735,2.105411447209609,1.1498332179874806,A,2364.214400000037,Correct
1,201,181,B,36.17710527579223,11.78577694839596,1.8088552637896114,0.1851305513896434,B,681.786799999827,Correct
1,201,182,A,33.28882492614727,41.82919011691291,1.6644412463073635,0.657051381884522,A,971.7041999997491,Correct
1,201,183,B,61.6441818041099,32.58397646572002,3.082209090205495,0.5118279054472435,B,1237.9101000001356,Correct
1,201,184,A,16.312265126279698,44.24382364533537,0.8156132563139848,0.6949803566545399,A,669.6578999999474,Correct
1,201,185,A,39.77034120846209,56.75139954748451,1.9885170604231046,0.8914488994965822,A,990.7943000002888,Correct
1,201,186,A,52.527607297298864,79.13911288900587,2.6263803648649433,1.2431142783185707,A,617.0447999998032,Correct
1,201,187,A,63.792326977512374,77.98211133585761,3.189616348875619,1.224940140420758,A,796.0863999996945,Correct
1,201,188,A,45.5624788632347,75.3395857624332,2.2781239431617353,1.1834314457787916,A,668.6527000001661,Correct
1,201,189,A,31.7376725068191,47.406347140516296,1.5868836253409548,0.7446571595508675,A,1247.986100000162,Correct
1,201,190,B,54.72543899697381,30.99784900448107,2.7362719498486907,0.48691307354781704,B,952.0098999996662,Correct
1,201,191,B,35.871833562993054,22.86902670736751,1.7935916781496528,0.35922583149307274,A,686.91009999975,Incorrect
1,201,192,A,17.02697729562732,44.83595424046211,0.851348864781366,0.7042815222926195,A,598.1228000000556,Correct
1,201,193,B,75.82189823221468,47.86935360954537,3.7910949116107338,0.7519300481591988,B,2196.425399999953,Correct
1,201,194,A,52.928885946332436,83.41182880003444,2.646444297316622,1.3102299429033886,A,625.1969000004465,Correct
1,201,195,B,43.57938008440953,35.49760612111842,2.1789690042204763,0.5575950930506485,A,612.5312999997732,Incorrect
1,201,196,A,64.41462289512864,79.21788650568975,3.2207311447564324,1.2443516513959245,A,641.7456999997739,Correct
1,201,197,A,22.993792381348776,41.75869297532938,1.1496896190674388,0.6559440153740324,A,622.4812000000384,Correct
1,201,198,B,88.23827200153336,67.63797613947257,4.411913600076668,1.0624548447172435,B,846.7451999999867,Correct
1,201,199,B,61.57805284840832,47.23603856687956,3.0789026424204162,0.7419819587319648,A,758.831900000132,Incorrect
1,201,200,A,27.24430165976071,39.54468024974397,1.3622150829880355,0.6211663848057651,A,768.7415999998848,Correct
1,201,201,B,37.3294892781168,25.281026556077933,1.8664744639058402,0.39711343651891456,A,1343.1107999999767,Incorrect
1,201,202,A,62.45453867789114,82.13596380264028,3.122726933894557,1.2901887023894592,A,572.6478000001407,Correct
1,201,203,B,67.86043878209121,46.86538016826952,3.3930219391045604,0.7361596702216415,B,1110.581600000387,Correct
1,201,204,A,17.366758597069577,32.92064729311376,0.8683379298534788,0.5171163184373344,A,505.9289999999237,Correct
1,201,205,B,46.194938272708086,33.08488334431263,2.3097469136354043,0.5196961322968393,A,1993.388700000196,Incorrect
1,201,206,A,21.519209494188964,47.10802090586463,1.0759604747094482,0.7399710620150934,A,643.6342000001787,Correct
1,201,207,B,65.92990336104879,46.3782566459177,3.2964951680524393,0.7285079518255854,B,1164.4906999999876,Correct
1,201,208,B,47.00129099803813,18.793849328728115,2.350064549901907,0.29521309491902853,A,1978.601400000116,Incorrect
1,201,209,B,65.8350953414686,33.76586944828542,3.29175476707343,0.5303930370040276,B,548.25400000027,Correct
1,201,210,B,62.50721727059634,37.924995700091394,3.125360863529817,0.5957244393941581,B,459.72389999997176,Correct
1,201,211,A,18.8164141548675,45.703483145077215,0.940820707743375,0.7179086344601976,A,527.5812999998379,Correct
1,201,212,B,59.90177406991926,41.86748842623835,2.995088703495963,0.6576529703206304,A,1121.5299000000414,Incorrect
1,201,213,B,45.95386253566069,19.75070186933307,2.2976931267830345,0.31024329947969487,B,634.388499999659,Correct
1,201,214,B,47.0655343823493,36.35998492052081,2.3532767191174653,0.5711413075547191,B,657.8488999998626,Correct
1,201,215,A,15.212590119722307,42.0317200368466,0.7606295059861153,0.660232714427501,A,579.2563999998492,Correct
1,201,216,A,33.270103646231384,44.76498134809762,1.6635051823115692,0.703166682706338,B,1771.2618000000475,Incorrect
1,201,217,A,55.703259977237444,67.80657455998909,2.785162998861872,1.0651031825137514,B,750.8571999997002,Incorrect
1,201,218,B,58.1096590069498,30.066016847255526,2.90548295034749,0.47227588825022454,B,608.5534999997435,Correct
1,201,219,A,39.832288073579015,53.4220282367791,1.9916144036789507,0.8391512572426586,A,2669.813399999839,Correct
1,201,220,B,51.42974910891013,25.68325252253004,2.5714874554455065,0.4034315872253595,B,537.4102000000676,Correct
1,201,221,A,32.83698905119906,47.78690492331601,1.641849452559953,0.7506349472244176,A,453.84889999968436,Correct
1,201,222,A,61.66444320717244,88.37842862851764,3.083222160358622,1.3882451105758042,A,584.624900000108,Correct
1,201,223,B,74.14129566426618,59.40201177893208,3.7070647832133092,0.9330846190657368,B,797.8564000000006,Correct
1,201,224,B,56.82765526016421,38.80173879183903,2.8413827630082102,0.609496287674758,A,1266.562100000101,Incorrect
1,201,225,B,66.87582182075616,50.31188926058553,3.3437910910378084,0.7902973084463936,B,996.8214000000444,Correct
1,201,226,B,49.62407734208462,22.13475491293852,2.481203867104231,0.34769191711749114,B,944.6887999997671,Correct
1,201,227,B,66.43264834095415,35.36990250940886,3.321632417047707,0.5555891294087303,B,635.5269999999109,Correct
1,201,228,B,65.62398147656829,40.52931789919111,3.2811990738284145,0.6366330368355205,B,473.55800000013915,Correct
1,201,229,A,17.411331940251056,34.897792744155225,0.8705665970125529,0.5481732465576863,A,555.5082000000766,Correct
1,201,230,A,39.270073063670516,53.09516244731131,1.9635036531835257,0.8340168614281493,A,768.2319000000462,Correct
1,201,231,B,58.981007354903994,41.75445636998623,2.9490503677452,0.6558774669329214,A,666.7233999996824,Incorrect
1,201,232,A,13.822226183353422,34.36557160329672,0.691111309167671,0.539813136426655,A,553.3798999999817,Correct
1,201,233,B,34.836018262575045,12.920155250476284,1.7418009131287522,0.20294932409067942,B,1515.0338000003103,Correct
1,201,234,A,13.878601871778645,35.83912078500818,0.6939300935889322,0.5629595928464948,A,530.7526000001417,Correct
1,201,235,A,48.20688610906876,73.26604663783999,2.410344305453438,1.1508603693750266,A,745.133700000224,Correct
1,201,236,B,72.31153655008299,61.11870205898799,3.61557682750415,0.9600503269273001,A,1156.7317999997613,Incorrect
1,201,237,A,53.20727219077258,64.32907528176266,2.6603636095386287,1.0104787515870515,A,1898.8447000001543,Correct
1,201,238,B,40.168870622993616,16.95019453946835,2.008443531149681,0.266253033210558,B,777.231699999902,Correct
1,201,239,B,43.5619339991669,20.744018533774742,2.178096699958345,0.3258462811581862,B,1066.056000000117,Correct
1,201,240,B,81.74867653628453,61.7547393412029,4.087433826814227,0.9700411771933781,A,668.8340999999127,Incorrect
1,201,241,B,72.4487535918568,53.956875022310726,3.6224376795928404,0.84755261090377,B,1428.0393999997614,Correct
1,201,242,B,33.57205759321093,14.286743779700132,1.6786028796605463,0.22441564651012805,A,837.7104000001054,Incorrect
1,201,243,A,26.1185150913973,53.79530100982818,1.3059257545698648,0.8450146122506388,A,1108.6153000001104,Correct
1,201,244,A,22.752442285300294,44.135812831832254,1.1376221142650147,0.6932837267634916,A,624.7683000001416,Correct
1,201,245,B,83.95738567187011,65.2666108414509,4.197869283593506,1.0252055257210306,B,591.4048999998158,Correct
1,201,246,B,60.91310029608108,46.424176646615685,3.0456550148040544,0.7292292615098134,B,604.9364999998943,Correct
1,201,247,B,42.77489632160025,18.008375634370747,2.1387448160800124,0.28287490298012286,B,953.3603999998377,Correct
1,201,248,A,56.397093250931164,83.31883951149943,2.8198546625465584,1.308769270574768,A,496.8477000002167,Correct
1,201,249,B,60.63841855506508,37.9314323487095,3.031920927753254,0.59582554603422,B,533.8259999998627,Correct
1,201,250,B,44.67061451365758,18.75215063273365,2.233530725682879,0.2945580933340261,A,612.7400000000307,Incorrect
1,201,251,A,56.62139054730252,68.91468025036444,2.831069527365126,1.0825092659951727,A,562.5485000000481,Correct
1,201,252,B,41.37425742179263,31.34933426784049,2.0687128710896316,0.4924341911538922,A,1055.8177999996587,Incorrect
1,201,253,A,38.8363426742627,49.82370760977963,1.9418171337131351,0.7826289690074478,B,1666.8542999996134,Incorrect
1,201,254,B,80.16487075253033,67.05201125441292,4.008243537626516,1.0532505298264188,B,477.0942999998624,Correct
1,201,255,B,63.39589839974433,50.443228625277904,3.1697949199872166,0.7923603823626171,B,1120.1516999999512,Correct
1,201,256,A,19.60380278644853,41.79200669628544,0.9801901393224264,0.6564673060791288,A,585.2718999999524,Correct
1,201,257,B,69.81942602483909,36.518004051995106,3.4909713012419545,0.5736234662675506,A,1033.824800000275,Incorrect
1,201,258,B,50.96700884895468,42.473894446600326,2.5483504424477337,0.6671783738139395,A,3654.8132999996596,Incorrect
1,201,259,B,59.248337254606994,43.72253397611339,2.96241686273035,0.6867919576784397,B,605.7671000003211,Correct
1,201,260,A,39.65886532722816,55.824814628352016,1.9829432663614082,0.8768941376222136,A,699.5680999998513,Correct
1,201,261,B,47.906239734097376,37.890048688528054,2.395311986704869,0.5951754930201966,B,720.2324999998382,Correct
1,201,262,B,78.30267414814918,64.10939086377617,3.9151337074074593,1.007027956818779,A,616.2995999998202,Incorrect
1,201,263,B,65.44909446290387,37.49012957625837,3.2724547231451937,0.5888935782945136,B,628.7196999996922,Correct
1,201,264,B,65.47803992104059,46.53814784370396,3.2739019960520297,0.7310195168872802,B,545.716000000084,Correct
1,201,265,B,63.857603403687854,55.42389655082914,3.192880170184393,0.8705965311870276,B,824.8738000002049,Correct
1,201,266,A,60.339180269127425,81.24878237432473,3.0169590134563715,1.2762528891014724,A,950.4428000000189,Correct
1,201,267,A,36.98244533070216,45.91954495699102,1.849122266535108,0.7213025254653461,B,766.1732999999913,Incorrect
1,201,268,A,44.33569400790521,54.68257850489349,2.2167847003952605,0.8589519345516027,B,4154.027699999915,Incorrect
1,201,269,A,13.593488908025293,31.56898597738961,0.6796744454012646,0.4958844721392319,A,688.7225999998918,Correct
1,201,270,B,77.87239269661737,55.98346013813874,3.893619634830868,0.8793861354625684,B,1035.184500000014,Correct
1,201,271,B,43.16089109886246,22.2051462891204,2.158044554943123,0.3487976222689365,B,1567.0819000001757,Correct
1,201,272,B,45.07538203528678,17.221889378730125,2.2537691017643393,0.27052080576577325,B,1087.6630000002478,Correct
1,201,273,A,29.29771064257781,51.012855659578335,1.4648855321288905,0.801308062893839,B,989.1991999998027,Incorrect
1,201,274,A,52.42981126411558,64.47509486153658,2.6214905632057786,1.0127724217825416,A,656.8014999998013,Correct
1,201,275,A,39.15473856460269,70.50327889287934,1.9577369282301345,1.1074629151193103,A,620.6820999996125,Correct
1,201,276,A,27.234899829837257,54.55498657022356,1.361744991491863,0.8569477251285208,A,604.6845000000758,Correct
1,201,277,A,47.903656480254774,75.44593457270427,2.3951828240127386,1.1851019689841196,A,852.1659000002728,Correct
1,201,278,A,26.93840608400197,53.063837520569386,1.3469203042000983,0.833524810629516,A,832.0565999997598,Correct
1,201,279,A,60.3875520845631,87.88816542553218,3.0193776042281546,1.3805440741916817,A,641.9894999999087,Correct
1,201,280,B,56.20783979023028,41.34995067613879,2.810391989511514,0.6495235063522896,A,683.3997000003365,Incorrect
1,201,281,A,19.35667380078496,32.77797580213263,0.967833690039248,0.5148752398976194,A,706.303200000093,Correct
1,201,282,A,16.67288378143972,31.89102480686685,0.833644189071986,0.5009430462435138,A,1711.0122999997657,Correct
1,201,283,A,23.04682448653433,52.28096827970577,1.1523412243267166,0.8212275293504233,A,659.7798999996485,Correct
1,201,284,B,56.5727865154168,47.583238581735344,2.8286393257708404,0.7474357638119508,A,983.3314000002247,Incorrect
1,201,285,B,48.15537005923864,28.948275542595304,2.407768502961932,0.4547184488935525,B,866.1567000003743,Correct
1,201,286,B,63.78694718454231,48.162756263686376,3.1893473592271158,0.7565388062731646,B,421.98400000006586,Correct
1,201,287,B,65.82701574744026,52.767879732650044,3.291350787372013,0.8288759165680155,B,618.9781000002768,Correct
1,201,288,A,46.151558373028635,76.27237755615283,2.307577918651432,1.1980837050111839,A,689.3410000002405,Correct
1,201,289,A,29.7504252434723,56.89785757542354,1.4875212621736151,0.8937494568197448,A,542.3184999999648,Correct
1,201,290,B,81.83917331968584,59.62639437361166,4.091958665984293,0.936609212620931,B,1876.4243000000533,Correct
1,201,291,A,42.368806702659775,71.4060666691799,2.118440335132989,1.121643872348193,A,594.2151999997805,Correct
1,201,292,A,42.13092434300762,68.04504708954646,2.106546217150381,1.0688491002484535,A,662.6728000001094,Correct
1,201,293,B,58.06145457440076,36.90941229636234,2.903072728720038,0.5797716925928434,B,1022.6705000000038,Correct
1,201,294,B,41.83562857397444,16.49207046665449,2.091781428698722,0.2590568371026346,A,848.6381000002439,Incorrect
1,201,295,A,42.13144388255202,60.93409501640105,2.106572194127601,0.9571505262833397,A,628.5020999998778,Correct
1,201,296,B,76.56628649584536,62.02246788818509,3.828314324792268,0.9742466473751556,A,1344.6692000002258,Incorrect
1,201,297,A,29.848391859048768,48.20031715422633,1.4924195929524384,0.7571288113620777,A,536.1350000002858,Correct
1,201,298,A,42.796982586131925,61.595898274218285,2.139849129306596,0.967546107547742,A,656.9711000001917,Correct
1,201,299,B,48.35725153391324,36.422662735152485,2.4178625766956623,0.5721258483646688,B,914.9234000001343,Correct
1,201,300,B,32.57728863393036,17.289177241474007,1.6288644316965177,0.27157776104213294,A,1425.2872000001844,Incorrect
1,201,301,A,11.775585947553715,33.41255769178387,0.5887792973776858,0.5248432289107667,A,583.1169000002774,Correct
1,201,302,A,32.875751973534065,55.193689197043646,1.6437875986767034,0.8669804425297533,B,661.4802000003692,Incorrect
1,201,303,B,47.22430197662015,31.09512573383016,2.3612150988310074,0.48844109283925874,B,1079.1509999999107,Correct
1,201,304,B,89.71084591199403,66.04379776380134,4.485542295599702,1.0374135493496415,B,848.8284000000021,Correct
1,201,305,B,61.668306474046695,29.847167066948153,3.0834153237023347,0.4688382039399576,B,704.5540999997684,Correct
1,201,306,A,23.98369957060681,41.59228262982907,1.1991849785303403,0.6533300477795069,A,651.057099999889,Correct
1,201,307,B,63.36810214441778,40.56275283172429,3.1684051072208894,0.6371582315276181,B,743.5051000002204,Correct
1,201,308,A,14.547932805052792,30.55737010526617,0.7273966402526396,0.4799940471786428,A,724.4636000000355,Correct
1,201,309,B,37.02264165048264,13.103391089746165,1.851132082524132,0.20582758592330253,B,793.731199999911,Correct
1,201,310,A,52.702194897992044,73.61726673244505,2.6351097448996024,1.1563773217200481,A,1090.6067000000803,Correct
1,201,311,A,14.47716157144454,38.216861797024244,0.7238580785722271,0.6003090613239389,A,520.1216999998906,Correct
1,201,312,A,68.69345947550072,82.82688016027078,3.434672973775036,1.3010415911563442,A,658.6349999997765,Correct
1,201,313,A,42.78308997805118,74.18569175812874,2.139154498902559,1.1653061211440705,A,554.6183999999812,Correct
1,201,314,B,85.43675924720766,63.8011168395747,4.271837962360383,1.0021855997701596,A,1032.1762000003218,Incorrect
1,201,315,B,60.516113230147404,38.60116857688396,3.0258056615073703,0.606345738105599,B,1066.6792999995778,Correct
1,201,316,B,41.897609207345525,17.345703439002282,2.094880460367276,0.2724656724765839,A,817.2962999997253,Incorrect
1,201,317,B,40.17182289742921,19.87690016640474,2.00859114487146,0.31222561769457435,B,631.1200000000099,Correct
1,201,318,A,32.544728938498515,65.45198679007157,1.6272364469249256,1.028117404312725,A,623.7011999996867,Correct
1,201,319,A,58.19854916326521,74.28308949390704,2.909927458163261,1.1668360412000576,A,982.071100000212,Correct
1,201,320,B,65.53185568947885,38.55666640019269,3.276592784473942,0.6056466995487889,B,788.9853000001494,Correct
1,201,321,A,61.171363171331855,84.06368114489243,3.058568158566593,1.3204692155925444,A,907.0391999998719,Correct
1,201,322,A,60.99201564533285,79.85977144980671,3.0496007822666424,1.2544343565203635,A,587.6255000002857,Correct
1,201,323,A,32.891483117127144,55.64721416802603,1.6445741558563571,0.8741043961150421,B,583.2393999999113,Incorrect
1,201,324,A,57.459598514298726,86.27675568146194,2.872979925714936,1.3552321091222113,A,628.2061000001704,Correct
1,201,325,B,75.28932990517048,47.93238213704089,3.7644664952585236,0.7529200979539313,B,1445.886800000153,Correct
1,201,326,B,44.73856839836886,22.865329131656445,2.2369284199184434,0.3591677501096228,B,1376.642400000037,Correct
1,201,327,A,22.517695464335027,54.861946264553964,1.1258847732167512,0.8617694367318036,A,2344.1251999997803,Correct
1,201,328,B,35.38231117684285,10.618260980353629,1.7691155588421423,0.16679125344889056,B,1090.3920999999173,Correct
1,201,329,A,53.614290357049775,68.22296974383733,2.680714517852489,1.0716439027665905,A,835.2439999998751,Correct
1,201,330,A,54.455286932544695,66.86875729178924,2.722764346627235,1.05037198331282,A,901.172299999871,Correct
1,201,331,A,35.57255450194752,56.78718435006026,1.7786277250973763,0.8920110058609929,B,779.2481000001317,Incorrect
1,201,332,A,13.111317881367388,31.934340434029107,0.6555658940683693,0.5016234465239067,A,754.7150000000329,Correct
1,201,333,A,24.764202353885885,55.235359485136826,1.2382101176942941,0.8676349978844857,B,716.6877000004206,Incorrect
1,201,334,A,58.59828628578653,72.15713598851133,2.9299143142893262,1.1334416416279343,A,1343.1720000003224,Correct
1,201,335,A,14.958254878819858,44.489783204140664,0.7479127439409929,0.6988438803696543,A,671.7591999999968,Correct
1,201,336,A,15.741015644491732,41.03357230284097,0.7870507822245867,0.6445538464857541,A,1934.3917999999576,Correct
1,201,337,A,46.725021351359246,66.81709827233405,2.3362510675679626,1.0495605253327596,A,907.6221999998779,Correct
1,201,338,A,31.735602888682912,40.44134128439638,1.5867801444341456,0.6352511034018864,A,891.424200000074,Correct
1,201,339,A,36.07608087069862,47.6978636939481,1.8038040435349307,0.7492362908641733,A,614.4532000002982,Correct
1,201,340,B,58.72053871368447,43.79942376458416,2.9360269356842235,0.687999739651419,B,946.8984999998611,Correct
1,201,341,A,21.9543941065565,37.2152114480286,1.097719705327825,0.5845751744345871,A,923.4658999998828,Correct
1,201,342,B,80.57582405797847,57.367778932298364,4.0287912028989235,0.9011309642323592,B,1127.8815000000577,Correct
1,201,343,A,20.957430929709307,33.12415595017244,1.0478715464854653,0.5203130249471218,A,500.59790000022986,Correct
1,201,344,B,42.581521521076084,16.56929280476209,2.129076076053804,0.26026984275309395,B,707.2007000001577,Correct
1,201,345,A,17.679411573001488,42.11676665320257,0.8839705786500744,0.6615686235532838,A,893.4437000002617,Correct
1,201,346,A,19.2253976143825,49.296651524638875,0.9612698807191251,0.7743499913819077,A,665.891399999964,Correct
1,201,347,A,47.87350365378555,69.49960074025671,2.3936751826892775,1.091697175565071,A,861.7645999997876,Correct
1,201,348,A,39.094702483698384,65.44450879185615,1.9547351241849191,1.0279999401914395,A,755.0068000000465,Correct
1,201,349,B,63.425191162803685,46.59788069061576,3.1712595581401843,0.7319577982524608,B,692.3998999996002,Correct
1,201,350,B,73.27646762465511,44.227880686662175,3.6638233812327554,0.6947299252453188,B,709.2716000001928,Correct
1,201,351,A,36.15530650582552,48.55558757706668,1.8077653252912762,0.7627093861142425,B,741.8815999999424,Incorrect
1,201,352,B,38.98802142843152,23.871106542666023,1.9494010714215761,0.3749664647374941,B,885.8459000002767,Correct
1,201,353,A,61.184479759698206,77.04736487766561,3.05922398798491,1.210257177390633,A,1490.2915999996367,Correct
1,201,354,A,38.51225772069654,62.06656165263008,1.925612886034827,0.974939270607403,A,1384.667299999819,Correct
1,201,355,B,31.825227906172064,13.57970424691165,1.5912613953086032,0.21330949550009878,B,1117.368599999736,Correct
1,201,356,A,36.31827236253865,58.95249694798088,1.8159136181269326,0.9260236566127572,A,793.514899999991,Correct
1,201,357,B,52.59979186031752,24.998588434915284,2.629989593015876,0.39267690888622314,B,669.4136000000981,Correct
1,201,358,B,61.4239891460711,47.03508160262385,3.071199457303555,0.7388253341189975,B,705.8538000001136,Correct
1,201,359,B,38.0607966413622,20.709175494857323,1.9030398320681101,0.3252989679827277,A,1001.3186999999562,Incorrect
1,201,360,B,58.16309195391941,48.330888277907725,2.9081545976959706,0.75917981777672,A,1284.102300000086,Incorrect
1,201,361,B,51.53198116146478,42.29464584809009,2.5765990580732385,0.6643627434127094,B,682.4637999998231,Correct
1,201,362,B,66.14136923076337,50.402286667766994,3.3070684615381687,0.7917172675979177,B,737.9258000000846,Correct
1,201,363,B,39.94359122838077,28.608293290248863,1.9971795614190384,0.44937802016193995,A,994.4960000002538,Incorrect
1,201,364,B,39.14841898339371,14.305199089310932,1.9574209491696855,0.22470554183559313,B,928.5975999996481,Correct
1,201,365,B,59.10773951940008,30.881558928563827,2.955386975970004,0.48508639330688197,B,744.0159000002495,Correct
1,201,366,B,55.901629696492186,34.27282303588359,2.795081484824609,0.5383562453365746,B,953.468900000189,Correct
1,201,367,B,35.31299621082546,18.01626046516676,1.7656498105412732,0.2829987576126406,B,813.6145000003125,Correct
1,201,368,A,55.9395052136038,69.19926778009017,2.79697526068019,1.0869795564586207,B,597.9143999998087,Incorrect
1,201,369,A,57.914338775479465,86.2725513447619,2.895716938773973,1.355166067555761,A,583.5821999999098,Correct
1,201,370,B,40.14722995886214,18.045010319267345,2.007361497943107,0.2834503592648115,B,557.0901999999478,Correct
1,201,371,B,49.62568415893228,37.076857548290675,2.4812842079466138,0.5824019164595263,A,962.637800000266,Incorrect
1,201,372,B,50.01163376806075,39.72122838119778,2.500581688403037,0.6239395963696667,B,984.4628999999259,Correct
1,201,373,A,37.62059665921702,63.224795687788095,1.8810298329608512,0.9931327682873536,A,932.0514999999432,Correct
1,201,374,A,28.080304471419275,56.61054060433024,1.4040152235709638,0.8892362923915529,B,868.3620000001611,Incorrect
1,201,375,A,38.699200671303814,62.78394276543451,1.9349600335651906,0.9862078667764556,A,817.8609000001416,Correct
1,201,376,A,32.823212788461866,57.01579562938413,1.6411606394230933,0.8956020234392511,B,925.5026000000726,Incorrect
1,201,377,B,60.36928176052298,33.159869202717246,3.0184640880261493,0.5208740074062747,B,569.0847000000758,Correct
1,201,378,A,42.88089382215892,60.67012294638115,2.144044691107946,0.9530040627037027,A,1005.2482999999484,Correct
1,201,379,B,35.91554427778506,17.105473229176855,1.795777213889253,0.26869214516479445,B,1045.0018999999884,Correct
1,201,380,A,16.413719538073387,35.10952357108084,0.8206859769036694,0.5514991066097263,A,1287.4959999999191,Correct
1,201,381,B,49.31601811895141,38.508949525337584,2.4658009059475705,0.6048971646313036,B,5616.627400000198,Correct
1,201,382,B,32.97528019719523,11.496563542151751,1.6487640098597616,0.180587597827761,A,908.5481000001892,Incorrect
1,201,383,B,82.93303730636751,56.133979822734275,4.1466518653183755,0.8817504931392983,B,699.7027000002163,Correct
1,201,384,A,58.721905933880024,77.15416536434836,2.936095296694001,1.2119347955124444,A,753.5331999997652,Correct
1,201,385,A,32.207123441833204,42.818078194240655,1.6103561720916602,0.6725847994792987,B,903.0680999999277,Incorrect
1,201,386,A,29.21216630615246,51.83300361732816,1.460608315307623,0.8141909168884566,A,618.6656999998377,Correct
1,201,387,B,72.05534020438266,58.346981330125836,3.602767010219133,0.9165122395293208,B,719.926900000246,Correct
1,201,388,A,54.04260905637016,82.35097995233127,2.702130452818508,1.293566168170821,A,674.444400000084,Correct
1,201,389,B,59.51092095147423,47.68335031879904,2.9755460475737117,0.7490083153004381,B,666.7443999999705,Correct
1,201,390,B,69.31791495323314,55.777165158056455,3.4658957476616568,0.8761456614930736,A,915.8510000002025,Incorrect
1,201,391,B,52.3042014526814,21.53524935299149,2.61521007263407,0.33827490580291203,B,897.3631000003479,Correct
1,201,392,A,30.719763951599766,46.82087226726656,1.5359881975799883,0.7354605417475537,A,752.2791000001234,Correct
1,201,393,A,23.75281590361055,37.02679875557199,1.1876407951805275,0.5816155947822632,A,686.6740000000391,Correct
1,201,394,B,80.12996717210521,64.34719300365855,4.006498358605261,1.0107633440970911,B,709.5715999998902,Correct
1,201,395,B,69.69237643099484,42.41834453102268,3.4846188215497422,0.6663057977805082,A,655.8242999999493,Incorrect
1,201,396,B,43.70858315227633,27.069864521777845,2.1854291576138167,0.42521243757644134,B,738.5949999998047,Correct
1,201,397,A,61.442359840609065,75.57332394678374,3.072117992030453,1.1871029965928872,A,899.6938000000227,Correct
1,201,398,B,48.64176841242,31.960529186902647,2.432088420621,0.5020348184920777,B,1325.1052000000527,Correct
1,201,399,A,45.627262645985766,52.59911628098071,2.281363132299288,0.8262249864682213,A,853.9787999998225,Correct
1,201,400,A,32.39768685243577,47.769288326780185,1.6198843426217884,0.7503582263731265,A,920.7487999997284,Correct
1,201,401,A,26.61968084894876,58.86668175506543,1.330984042447438,0.9246756747146094,A,755.5094999997891,Correct
1,201,402,B,89.16749873880033,68.90719702455047,4.458374936940016,1.0823917197589612,B,663.9373000002706,Correct
1,201,403,A,35.23208563795241,54.73107973789226,1.7616042818976205,0.8597137901379975,A,991.6528000003382,Correct
1,201,404,A,15.062249826705948,32.630584320293536,0.7531124913352975,0.5125600199148823,A,561.9184000001951,Correct
1,201,405,A,46.33019094884037,63.31084015674327,2.3165095474420183,0.9944843516451115,B,591.1674999997558,Incorrect
1,201,406,A,33.09857963648986,51.450150760871665,1.654928981824493,0.8081770782822087,A,1020.154900000307,Correct
1,201,407,A,27.02749728826431,38.238236302019644,1.3513748644132155,0.6006448112632773,A,512.0213000000149,Correct
1,201,408,A,49.22956852685866,76.24725186337591,2.461478426342933,1.197689031551962,A,1449.1683999999623,Correct
1,201,409,A,65.27114331094324,84.89687633123384,3.263557165547162,1.3335570149746272,A,634.5168000002559,Correct
1,201,410,A,56.53062759370604,82.69021130398384,2.8265313796853024,1.2988948017819166,A,555.92710000019,Correct
1,201,411,B,89.50715150245753,67.071461469115,4.475357575122876,1.0535560530845127,B,670.1339999999618,Correct
1,201,412,B,44.50113431151878,24.54388774034215,2.2250567155759393,0.38553448707795734,A,561.2013999998453,Incorrect
1,201,413,A,22.469881335414488,53.19144901083475,1.1234940667707243,0.8355293272311727,A,679.8964999998134,Correct
1,201,414,A,58.15044590584815,79.1772088288329,2.9075222952924076,1.243712687942032,A,801.5472000001864,Correct
1,201,415,B,57.56442322820689,49.994355029571906,2.878221161410345,0.7853094924093151,B,668.2869000001119,Correct
1,201,416,A,47.7487812584434,70.33176393220705,2.38743906292217,1.1047687644171662,A,666.3998999997602,Correct
1,201,417,B,56.90099555891914,40.26067797996631,2.8450497779459574,0.6324132508520326,A,674.9660000000404,Incorrect
1,201,418,B,31.55224595757477,11.584102894852784,1.5776122978787384,0.18196266276448878,B,734.559900000022,Correct
1,201,419,B,83.43801989073452,62.17790619239878,4.171900994536726,0.9766882665481765,A,570.4100000002654,Incorrect
1,201,420,A,14.310493102127484,39.887853366723306,0.7155246551063742,0.6265569355218242,A,701.7799999998715,Correct
1,201,421,A,58.73805312230255,82.19646723175885,2.9369026561151275,1.2911390880316387,A,1307.3060000001533,Correct
1,201,422,A,45.372298000712405,62.37561330284321,2.2686149000356206,0.9797938425768499,B,698.2313999997132,Incorrect
1,201,423,A,53.741961118315174,64.09683088812936,2.687098055915759,1.0068306651826728,A,856.0600000000704,Correct
1,201,424,A,25.778524223519995,42.36311248491793,1.2889262111759996,0.6654382148290809,B,2173.307499999737,Incorrect
1,201,425,A,18.728396952285863,33.521651086860494,0.9364198476142931,0.5265568639534061,A,595.3842000003533,Correct
1,201,426,A,31.63822193155673,57.92192889375705,1.5819110965778365,0.9098355314718876,A,656.9125999999414,Correct
1,201,427,A,34.48204464714967,64.37928275503592,1.7241022323574837,1.0112674087330047,A,531.4260000000104,Correct
1,201,428,A,63.70633377488919,83.26735902660775,3.185316688744459,1.3079606170090734,A,829.9495000001116,Correct
1,201,429,B,49.277017693863414,37.30410692676342,2.4638508846931706,0.5859715413492402,B,883.7373000001207,Correct
1,201,430,B,33.22932642696896,20.668262961105597,1.661466321348448,0.3246563154053569,A,712.4305000002096,Incorrect
1,201,431,B,36.59499047508631,20.974897376659264,1.8297495237543158,0.3294729175415629,B,704.9970000002759,Correct
1,201,432,B,55.81115193095168,25.611387286222918,2.790557596547584,0.4023027307332047,A,751.6750999998294,Incorrect
1,201,433,B,37.914631854280664,23.058863324370073,1.895731592714033,0.36220777809986066,B,1149.1979000002175,Correct
1,201,434,A,15.588865683932898,44.07541358166644,0.7794432841966449,0.6923349775604754,A,575.9739999998601,Correct
1,201,435,B,49.44957226547517,21.06318052956176,2.4724786132737586,0.33085966606453393,B,3760.2678000002925,Correct
1,201,436,A,32.63291611228591,59.41492893114288,1.6316458056142955,0.9332875212181907,A,609.139199999845,Correct
1,201,437,B,57.30978688101825,38.28987660401407,2.8654893440509124,0.6014559752301516,B,1152.3119999997107,Correct
1,201,438,B,49.533390094525515,29.755614212706636,2.4766695047262757,0.46740009506845603,A,769.9905999998009,Incorrect
1,201,439,B,51.34535614020831,44.51993196580409,2.5672678070104156,0.6993174560104376,B,727.7867000002516,Correct
1,201,440,A,22.991432799376753,54.393038772132186,1.1495716399688376,0.8544038550647763,A,775.8216000001994,Correct
1,201,441,B,62.55069242571516,47.095899888372955,3.1275346212857578,0.7397806655175642,B,2187.3869999999442,Correct
1,201,442,A,15.907239844793132,37.396966646307206,0.7953619922396566,0.5874301784129062,A,773.9408000002186,Correct
1,201,443,A,35.55359509373571,62.08432894408961,1.7776797546867855,0.9752183585690204,A,906.6180999998323,Correct
1,201,444,A,69.26385339392601,83.59311590992904,3.4631926696963005,1.3130775941665656,A,755.4640000003019,Correct
1,201,445,A,45.522293203395535,56.13686753668494,2.2761146601697764,0.8817958532439637,A,1534.5118000000184,Correct
1,201,446,B,43.38950451090338,33.30561780168776,2.169475225545169,0.5231634210452586,A,1781.737499999963,Incorrect
1,201,447,B,41.304946254699814,16.847781196618605,2.0652473127349906,0.2646443281829263,B,840.7956999999442,Correct
1,201,448,B,60.891089817550835,47.74723156870668,3.044554490877542,0.7500117596274979,B,535.1679000000331,Correct
1,201,449,B,36.89956177570291,23.97892954312406,1.8449780887851455,0.376660144468129,B,653.7870000001931,Correct
1,201,450,A,44.18026479565647,57.82035989113717,2.2090132397828235,0.9082400893095723,A,717.5466999997298,Correct
1,201,451,A,26.542527553944232,38.02539459368431,1.3271263776972118,0.5973015015268583,B,959.4683000000259,Incorrect
1,201,452,A,40.96622261021642,50.07386822794399,2.048311130510821,0.7865584828086609,B,542.1458999999231,Incorrect
1,201,453,A,58.583830862006934,66.91305425265868,2.929191543100347,1.051067798347039,A,974.4120000000294,Correct
1,201,454,A,42.58228350975122,55.563622910802536,2.129114175487561,0.8727913477170538,A,527.2661999997581,Correct
1,201,455,B,68.08701930989668,59.141031321828464,3.404350965494834,0.9289851476319007,A,1350.2066999999442,Incorrect
1,201,456,B,79.00744626957075,56.42793788875302,3.9503723134785376,0.8863679756426381,B,701.9468999997116,Correct
1,201,457,A,59.81667048268005,85.66020303950708,2.9908335241340023,1.3455473228696275,A,786.0881000001427,Correct
1,201,458,B,78.64666127996065,57.940394988598726,3.9323330639980325,0.9101255962113631,B,3686.5005999998175,Correct
1,201,459,A,62.51106884166981,76.19015646969828,3.1255534420834907,1.1967921792053047,A,881.0188000002199,Correct
1,201,460,A,39.17944061467014,68.60145618072902,1.958972030733507,1.077589153814702,B,826.4250000001994,Incorrect
1,201,461,A,40.29600519075099,47.33603489511727,2.0148002595375494,0.7435526973828527,B,915.2626000000055,Incorrect
1,201,462,B,50.475989854527484,38.330751647364785,2.5237994927263743,0.6020980389096804,A,541.5007999999943,Incorrect
1,201,463,A,45.08495862549258,73.14193645509731,2.2542479312746293,1.148910851183326,A,521.9194999999672,Correct
1,201,464,A,17.197819912347047,37.03698370323697,0.8598909956173523,0.5817755795660708,A,625.3786000002037,Correct
1,201,465,A,48.86740456544646,60.89738162264527,2.443370228272323,0.9565738336427823,A,1820.1444999999694,Correct
1,201,466,B,88.33325683656147,67.45592505715796,4.416662841828074,1.0595951930033556,B,1715.9340999996857,Correct
1,201,467,A,37.89899490994199,51.08147855237672,1.8949497454970996,0.8023859887732565,A,1508.754499999668,Correct
1,201,468,A,30.174989252620755,50.02106951452449,1.5087494626310376,0.7857291225576726,A,824.651299999914,Correct
1,201,469,B,59.97413273277413,52.27204054388392,2.9987066366387065,0.8210872928040677,B,800.352500000372,Correct
1,201,470,A,49.767662674970396,67.92613514652915,2.4883831337485196,1.0669812358154172,B,762.0566999999028,Incorrect
1,201,471,B,70.289800164398,39.73239760099351,3.5144900082199,0.6241150420639497,B,834.6590000001015,Correct
1,201,472,A,21.029463495409033,35.8673124159791,1.0514731747704515,0.5634024259502496,A,569.568999999774,Correct
1,201,473,A,14.93901887851877,40.39089151733444,0.7469509439259384,0.6344586403140009,A,542.5264999998944,Correct
1,201,474,B,35.94246835618703,24.43116844624315,1.7971234178093514,0.3837638965466612,B,505.8675000000221,Correct
1,201,475,B,55.97005879404273,36.68239061299931,2.7985029397021366,0.5762056443295492,A,887.1318000001338,Incorrect
1,201,476,A,45.85871038439403,66.23337080710517,2.292935519219702,1.0403913557504514,A,663.4339000002001,Correct
1,201,477,B,57.673552248817714,35.58128126084848,2.8836776124408856,0.5589094590719688,B,982.3571000001721,Correct
1,201,478,B,67.43931589948092,39.96516007298309,3.3719657949740456,0.6277712664241188,A,1930.7270999997854,Incorrect
1,201,479,B,36.49951504799848,16.117602221504924,1.824975752399924,0.25317470366281203,B,856.840899999952,Correct
1,201,480,B,67.53591792800093,41.19709208446093,3.376795896400046,0.6471224092090234,B,694.9368999999024,Correct
1,201,481,B,39.65567418708164,19.834272409293497,1.9827837093540819,0.31155602245167585,B,546.8473000000813,Correct
1,201,482,B,43.68978695560101,22.1363736895042,2.18448934778005,0.3477173448003239,B,516.7758000002323,Correct
1,201,483,B,67.30419743722936,39.620857600861534,3.3652098718614685,0.6223629758389695,B,476.2126000000535,Correct
1,201,484,B,51.21830265645733,33.95581255311571,2.5609151328228665,0.533376656317702,B,647.5529000003917,Correct
1,201,485,B,41.07814652199327,28.805410171378153,2.0539073260996634,0.45247432489021155,B,855.5776000002879,Correct
1,201,486,B,82.7961900062206,59.716899652450394,4.1398095003110305,0.938030866216485,A,683.4585999999945,Incorrect
1,201,487,B,76.82737035827415,61.357480116029066,3.8413685179137076,0.9638010438764936,B,661.6983000003529,Correct
1,201,488,A,19.2950691950824,32.26853781380589,0.9647534597541201,0.5068730066896852,B,748.3363000001191,Incorrect
1,201,489,A,69.1940701502492,88.13531975154824,3.4597035075124603,1.3844263652662565,A,570.7133999999314,Correct
1,201,490,A,57.46312100445299,67.31677227187318,2.8731560502226494,1.0574093861634692,A,744.7881000002781,Correct
1,201,491,B,76.95037611193894,55.66464648404707,3.8475188055969465,0.8743782222947759,B,767.7042999998775,Correct
1,201,492,B,64.99951013487065,55.77711562521468,3.2499755067435325,0.8761448834330146,A,870.8935999998175,Incorrect
1,201,493,B,51.77823952240912,34.183387004185235,2.5889119761204564,0.5369513874358257,A,800.8144999998876,Incorrect
1,201,494,A,55.160870095304894,74.39356927437981,2.7580435047652445,1.1685714535335747,A,855.1942999997664,Correct
1,201,495,A,34.8793641346115,42.999811390489434,1.743968206730575,0.6754394578505415,B,523.8944000002448,Incorrect
1,201,496,B,54.948583156625,41.03731184961235,2.74742915783125,0.6446125871490777,B,534.1429000000062,Correct
1,201,497,B,47.49308759401569,21.0719538557085,2.3746543797007846,0.33099747714938466,B,772.474400000192,Correct
1,201,498,A,52.87445394454851,61.04285859553447,2.6437226972274255,0.9588589805892583,A,1173.3335000003535,Correct
1,201,499,A,35.92731429568259,68.75642554108468,1.7963657147841297,1.0800234068348262,A,646.1607999999615,Correct
1,201,500,B,70.71267887716616,51.956972507198955,3.5356339438583073,0.8161382156569155,B,546.0707000002003,Correct
1,201,501,B,59.35183344631291,32.08567279851742,2.9675916723156455,0.504000569746541,B,431.0702999996465,Correct
1,201,502,A,30.128636377504804,44.967379528508246,1.5064318188752401,0.7063459458897279,A,521.5170999999827,Correct
1,201,503,B,66.92282703519417,51.03686026264044,3.3461413517597087,0.8016851263170003,A,548.8711999996667,Incorrect
1,201,504,A,63.22184166463043,74.2987420253649,3.1610920832315217,1.1670819105892483,A,1013.9860999997836,Correct
1,201,505,B,89.47118518316755,67.90293646229154,4.473559259158377,1.066616831735548,B,711.1567000001742,Correct
1,201,506,A,38.62778895165464,69.84517248991929,1.9313894475827318,1.0971254039152118,A,626.995000000079,Correct
1,201,507,B,54.55653437797864,23.867493235880925,2.7278267188989322,0.37490970704723797,B,1239.955099999861,Correct
1,201,508,A,40.59799375652324,66.50563476071665,2.0298996878261617,1.0446680679329672,A,754.1854999999487,Correct
1,201,509,B,73.03066093588225,40.40363059323262,3.6515330467941123,0.634658745250277,B,558.6364000000685,Correct
1,201,510,B,68.56743522139082,41.20086242907692,3.4283717610695414,0.6471816336437589,A,587.3489000000518,Incorrect
1,201,511,A,26.593763842549713,47.563447608033265,1.3296881921274857,0.7471248879240016,B,617.707800000062,Incorrect
1,201,512,B,80.27901487915912,55.9146588630409,4.013950743957956,0.8783054075605434,B,776.9160999996529,Correct
1,201,513,B,41.83253348683063,17.521889674114934,2.0916266743415317,0.2752331993860517,A,1123.6911999999393,Incorrect
1,201,514,A,61.12058945206301,76.3267754675977,3.0560294726031505,1.1989381854060128,A,4709.0804999998,Correct
1,201,515,A,59.78288526112268,80.24018352360119,2.9891442630561342,1.2604098554022112,A,626.8737999998848,Correct
1,201,516,B,59.75609602660413,32.57250988417395,2.9878048013302068,0.511647788805509,A,2545.540600000095,Incorrect
1,201,517,A,26.03813034452707,41.85243720560085,1.3019065172263535,0.6574165462997189,A,1486.549599999762,Correct
1,201,518,A,49.70870978009354,76.4538510175284,2.4854354890046775,1.2009342834765788,A,566.8104999999741,Correct
1,201,519,B,68.18781969814034,44.404238643439484,3.4093909849070174,0.6975001495523875,B,810.4009000003316,Correct
1,201,520,A,48.410205136131296,60.456528534152824,2.420510256806565,0.9496489295221812,A,819.0245000000687,Correct
1,201,521,B,39.44171608754368,30.287069550784494,1.972085804377184,0.4757481759975383,A,516.3901000000806,Incorrect
1,201,522,A,62.80991920647374,87.04072426987983,3.140495960323687,1.3672324996469465,A,643.8676000002488,Correct
1,201,523,A,41.30085257269935,71.13472988590664,2.0650426286349672,1.1173817241232928,A,707.3667999998179,Correct
1,201,524,A,48.65363964892498,56.862921943444846,2.432681982446249,0.8932006891958808,A,866.2484999999833,Correct
1,201,525,A,22.057837169336374,52.38923368635208,1.1028918584668188,0.8229281583812129,A,565.5649000000267,Correct
1,201,526,A,49.9085729455433,59.15121044321313,2.495428647277165,0.9291450408967111,B,1580.7671000002301,Incorrect
1,201,527,B,53.72177857029682,37.45463294315103,2.686088928514841,0.5883359984855276,B,2469.6257000000514,Correct
1,201,528,A,37.81601787034059,68.12839176071797,1.8908008935170295,1.0701582752817949,A,592.9565000001276,Correct
1,201,529,B,63.63674372438406,42.94876168830858,3.1818371862192034,0.6746375710038449,B,976.414300000215,Correct
1,201,530,A,20.859326620611625,52.48634296330543,1.0429663310305812,0.8244535473365734,A,506.38679999974556,Correct
1,201,531,B,67.56262553558372,39.03925676297021,3.378131276779186,0.6132272112407643,B,894.7886999999355,Correct
1,201,532,B,33.07296264529074,21.2913045442112,1.6536481322645369,0.3344430297071845,B,642.6817000001392,Correct
1,201,533,B,49.34760077874922,28.886408039076784,2.4673800389374607,0.4537466364208038,A,656.7856000001484,Incorrect
1,201,534,B,84.84982465001849,56.697794124222256,4.2424912325009245,0.8906068674770159,B,737.8939999998693,Correct
1,201,535,B,77.90142607966314,51.42255320743954,3.8950713039831566,0.8077435769266117,B,458.433000000241,Correct
1,201,536,A,47.944380334920325,75.1218405318026,2.397219016746016,1.180011111694275,A,891.827700000249,Correct
1,201,537,A,49.49169896506682,72.47255030477233,2.474584948253341,1.1383961581219473,A,521.1237999997138,Correct
1,201,538,B,50.512111390508515,27.881238149361543,2.525605569525426,0.4379574647151086,B,673.4014999997271,Correct
1,201,539,A,43.82778980125716,56.39939619404751,2.191389490062858,0.8859196437505991,A,700.1517999997304,Correct
1,201,540,A,65.02310265001117,81.9702509779934,3.2511551325005588,1.2875856914268782,A,649.4766999999229,Correct
1,201,541,B,36.200840623674516,23.49519096908756,1.8100420311837258,0.3690615967158737,B,704.102199999852,Correct
1,201,542,A,42.382008643586104,69.29350734245561,2.119100432179305,1.0884598680426447,A,600.0911000000997,Correct
1,201,543,A,42.80097908132473,69.58293885203399,2.1400489540662364,1.093006247563689,B,670.1797000000624,Incorrect
1,201,544,B,37.98463961048803,25.44010780956736,1.8992319805244018,0.3996122790053456,B,1352.707399999872,Correct
1,201,545,B,79.06595146977092,51.62199191355245,3.9532975734885465,0.8108763527964403,B,762.6167000003079,Correct
1,201,546,A,46.375832153983104,73.20049633857691,2.3187916076991555,1.149830707681999,A,914.0707000001385,Correct
1,201,547,B,62.43247910042205,43.32673106367754,3.1216239550211027,0.6805747000685503,B,769.026599999961,Correct
1,201,548,B,65.97161942167924,50.599300972462885,3.298580971083962,0.7948119610593414,B,709.717400000045,Correct
1,201,549,A,49.30469512659847,59.10840557957634,2.4652347563299233,0.928472663671015,A,751.408299999639,Correct
