subject,day,trial,cat,x,y,xt,yt,resp,rt,fb
6,506,0,B,60.0342648373794,27.03786352992644,3.0017132418689703,0.4247097671719015,B,498.6645999997563,Correct
6,506,1,B,40.06219301607439,26.66918190681851,2.0031096508037196,0.4189185297785543,B,873.6365999993723,Correct
6,506,2,A,69.2636296052379,85.62415910185587,3.4631814802618948,1.3449811460209702,A,498.78420000004553,Correct
6,506,3,B,73.21083735065974,54.8834117876993,3.660541867532987,0.8621066163808979,B,537.1165999995355,Correct
6,506,4,B,73.22244998711047,57.797280582257045,3.661122499355523,0.9078775603734338,B,789.8177999995823,Correct
6,506,5,B,45.22287264690485,35.74502888218323,2.2611436323452425,0.561481600693109,B,636.4651000003505,Correct
6,506,6,A,45.430570635128085,62.98281644926482,2.2715285317564042,0.9893317672970237,A,542.4304999996821,Correct
6,506,7,A,14.126706087008415,31.313923883880534,0.7063353043504208,0.4918779661433452,A,544.9130999995759,Correct
6,506,8,B,55.94698372027056,41.15514467360606,2.7973491860135278,0.6464635008201296,B,424.6544999996331,Correct
6,506,9,B,41.674776998666516,17.5887783550711,2.083738849933326,0.27628388432955264,B,488.9615000001868,Correct
6,506,10,A,35.89157717658108,54.92380290842987,1.794578858829054,0.862741078621685,A,525.112999999692,Correct
6,506,11,A,45.295206391871645,64.3364504321858,2.2647603195935826,1.0105946001789938,B,837.365200000022,Incorrect
6,506,12,B,37.00009305272923,19.905063865622164,1.8500046526364613,0.3126680120473712,B,545.5512999997154,Correct
6,506,13,A,29.706387279321813,47.0006717449725,1.4853193639660907,0.7382848253389549,A,541.9805000001361,Correct
6,506,14,B,35.03675194430589,17.962320956945664,1.7518375972152944,0.2821514777988124,B,417.3186000007263,Correct
6,506,15,B,71.1525484507565,46.84772872252534,3.5576274225378253,0.7358824019602657,B,439.4007999999303,Correct
6,506,16,B,41.70699790817272,20.258800216830522,2.085349895408636,0.3182244896586903,B,548.663000000488,Correct
6,506,17,B,42.27022033080393,17.292188854664197,2.1135110165401967,0.2716250673515017,B,337.3800999997911,Correct
6,506,18,A,52.605130653968786,76.54146922425765,2.6302565326984393,1.2023105870494855,A,1126.077500000065,Correct
6,506,19,A,23.967063796105016,53.215093870110266,1.1983531898052506,0.8359007398121482,B,526.369799999884,Incorrect
6,506,20,B,59.919077021264464,44.06096475315621,2.9959538510632235,0.6921080158929718,B,412.4766000004456,Correct
6,506,21,B,63.42029086920663,45.231429794028145,3.171014543460332,0.7104936377614066,B,453.57049999984156,Correct
6,506,22,B,42.54337450982102,21.282228512407382,2.1271687254910514,0.33430046373299127,B,425.74279999917053,Correct
6,506,23,A,54.625599741376526,71.28997965352814,2.7312799870688265,1.119820381770449,A,515.1335000000472,Correct
6,506,24,B,60.459692878990246,43.84480049402909,3.022984643949512,0.6887125156507595,B,496.9631000003574,Correct
6,506,25,B,59.4437768672418,45.2082397732033,2.97218884336209,0.7101293697661069,B,423.87370000051305,Correct
6,506,26,A,42.34446458112558,73.03642341949126,2.117223229056279,1.1472534562957362,A,479.86110000056215,Correct
6,506,27,A,61.435475943692154,75.03758237578336,3.0717737971846075,1.1786875876744995,A,548.6087999997835,Correct
6,506,28,B,83.6039879894123,62.578754876430025,4.180199399470615,0.9829847829529451,B,743.9212999997835,Correct
6,506,29,A,53.704917027321684,68.53259470247524,2.6852458513660844,1.076507480243715,A,740.0606999999582,Correct
6,506,30,B,84.78380540325574,69.03255882812019,4.239190270162787,1.0843608983646382,B,492.0818999999028,Correct
6,506,31,A,59.04607446780671,68.59001262234591,2.9523037233903358,1.0774093988199653,B,1786.4184000000023,Incorrect
6,506,32,A,64.79620555644865,83.09767469163869,3.2398102778224325,1.3052952217082328,A,600.5697999999029,Correct
6,506,33,A,39.25551237635834,52.05179533093007,1.962775618817917,0.8176276890890471,B,721.9447000006767,Incorrect
6,506,34,A,44.00213971331876,56.21925195604367,2.200106985665938,0.883089944677102,B,967.4818000003143,Incorrect
6,506,35,A,34.86365494292088,62.72849984425023,1.743182747146044,0.9853369714070249,A,576.3265000005049,Correct
6,506,36,A,26.334830589687726,58.6709205873458,1.3167415294843863,0.9216006654827786,A,464.893000000302,Correct
6,506,37,A,31.231254870824458,57.64266591368593,1.5615627435412227,0.9054488788388325,A,515.6606000000465,Correct
6,506,38,B,55.472348937953534,46.459326771113545,2.7736174468976764,0.7297813983742896,B,475.9745000001203,Correct
6,506,39,B,35.133609233731804,18.835847289244864,1.7566804616865903,0.2958727973401544,B,526.1920000002647,Correct
6,506,40,B,46.80613809070559,18.73770063913599,2.3403069045352796,0.294331113365372,B,450.06540000031237,Correct
6,506,41,B,79.07690411204365,53.873030937899586,3.9538452056021822,0.8462355911056049,B,483.1970999994155,Correct
6,506,42,B,73.03972734356688,45.33395561374758,3.651986367178344,0.7121041095715758,B,396.61620000060793,Correct
6,506,43,A,31.720130712833903,63.384231558745185,1.586006535641695,0.995637181091941,A,607.9208000001017,Correct
6,506,44,A,21.197845835397903,52.861445971328685,1.0598922917698952,0.8303456516082998,A,493.7005000001591,Correct
6,506,45,A,35.762051071456945,43.767070845349124,1.7881025535728472,0.6874915411844641,A,1151.1637000003248,Correct
6,506,46,B,33.85193321892197,21.238793516550402,1.6925966609460985,0.3336181884135264,B,553.8740000001781,Correct
6,506,47,B,86.39284116571578,64.93122836731379,4.319642058285789,1.019937350136571,A,533.7899999994988,Incorrect
6,506,48,B,51.76289005640248,26.304099867433543,2.5881445028201244,0.41318383451410734,B,473.9283999997497,Correct
6,506,49,B,80.77814055105509,66.48558312637536,4.038907027552755,1.0443530975972717,B,478.0835000001389,Correct
6,506,50,A,20.842973965728333,52.11121626862572,1.0421486982864168,0.8185610709957173,A,528.3349000001181,Correct
6,506,51,A,47.02157136468327,64.9816598810394,2.3510785682341635,1.02072952650172,A,554.8036999998658,Correct
6,506,52,B,70.88655460878297,54.329413095064226,3.5443277304391483,0.8534044252664944,B,556.2018000000535,Correct
6,506,53,A,35.21366425085157,59.04619519129763,1.7606832125425784,0.9274954651770481,B,835.968800000046,Incorrect
6,506,54,B,69.83458177387143,55.25532192065462,3.491729088693572,0.867948567088338,B,675.4117000000406,Correct
6,506,55,B,83.51646422782406,56.35792862145717,4.175823211391203,0.8852682726435388,B,671.5864000007059,Correct
6,506,56,A,29.145479489828595,49.06803597851067,1.4572739744914298,0.7707589067808439,A,648.1546999993952,Correct
6,506,57,A,38.62987706948928,55.23999903211653,1.9314938534744641,0.8677078757180229,A,1175.8970000000772,Correct
6,506,58,B,74.57585547245802,63.66860704993617,3.7287927736229007,1.000104140861874,B,487.3648000002504,Correct
6,506,59,B,76.39661659211971,48.09336469726122,3.8198308296059853,0.7554488060966528,B,408.4599999996499,Correct
6,506,60,B,66.02660126381888,49.90961941897841,3.3013300631909437,0.7839784685506254,B,449.03729999987263,Correct
6,506,61,A,49.519569615771445,76.51440543862093,2.475978480788572,1.2018854700988122,A,589.7646000003078,Correct
6,506,62,B,41.64662386397889,19.983210301437996,2.0823311931989448,0.31389553339068743,B,489.6269000000757,Correct
6,506,63,A,38.36913423851735,50.82960026246897,1.9184567119258673,0.7984294938473918,B,699.5948000003409,Incorrect
6,506,64,B,59.48861306473571,52.237635811706674,2.9744306532367855,0.8205468645347839,B,606.3627999992605,Correct
6,506,65,A,64.81522910305146,86.70130511918616,3.2407614551525734,1.3619009160954119,A,772.1384000005855,Correct
6,506,66,B,64.02115983010052,34.02676619426605,3.2010579915050257,0.5344911935066188,B,434.8184999998921,Correct
6,506,67,B,45.02483961921766,25.71275868010477,2.251241980960883,0.40389506886472165,B,442.80609999987064,Correct
6,506,68,A,62.6080614976277,77.93320874829104,3.1304030748813854,1.2241719803715545,A,458.27340000050754,Correct
6,506,69,B,38.18752820913828,24.196289407046166,1.909376410456914,0.3800744252265439,B,492.50909999955184,Correct
6,506,70,A,56.08305685519608,63.64901818387229,2.804152842759804,0.9997964396732818,B,979.4254999997065,Incorrect
6,506,71,B,78.31371258008016,48.283897355568904,3.9156856290040083,0.7584416860946945,B,586.5936999998667,Correct
6,506,72,B,60.608094361421124,28.387111546352592,3.0304047180710563,0.44590370545327646,B,455.62969999991765,Correct
6,506,73,B,62.27363434812807,49.46139340780378,3.1136817174064038,0.7769377508313551,B,509.69159999931435,Correct
6,506,74,B,68.95935376683212,52.877336916986955,3.447967688341606,0.8305952659989929,B,692.5604999996722,Correct
6,506,75,A,53.23453352500822,70.07636955928523,2.6617266762504106,1.1007570389884693,A,569.0407000001869,Correct
6,506,76,B,43.35312328702234,22.341772021867282,2.167656164351117,0.35094373426038117,B,520.2312999999776,Correct
6,506,77,B,60.66203702484937,30.8336263767845,3.033101851242469,0.4843334705441933,B,594.7286999999051,Correct
6,506,78,B,65.85190172884145,45.22242675932738,3.2925950864420725,0.7103522184230268,B,575.7143999999244,Correct
6,506,79,B,66.23789104373179,53.4911394192931,3.3118945521865895,0.840236853158993,B,489.1072999998869,Correct
6,506,80,A,32.15113905550535,54.67535955581895,1.6075569527752673,0.8588385395647065,A,472.8590999993685,Correct
6,506,81,A,66.50090130693316,83.27474722222784,3.3250450653466577,1.3080766705144902,A,591.2104999997609,Correct
6,506,82,A,63.622230487980765,86.74898821301035,3.1811115243990384,1.3626499203817042,A,481.18020000038086,Correct
6,506,83,A,27.845339026399103,39.422626242550706,1.392266951319955,0.6192491649440675,A,739.6632999998474,Correct
6,506,84,B,47.28863145545991,26.181739201318965,2.364431572772995,0.4112617976653378,B,605.0498999993579,Correct
6,506,85,B,81.16843193918973,65.24171019675515,4.058421596959487,1.0248143873088014,B,552.3889000005511,Correct
6,506,86,A,19.5501395571534,49.26418171463172,0.97750697785767,0.7738399567989982,A,513.7602000004335,Correct
6,506,87,B,81.39485939439935,64.11930727943145,4.069742969719967,1.0071837235116419,B,639.2924000001585,Correct
6,506,88,B,47.12635657688455,18.144920979050966,2.3563178288442272,0.2850197522387692,B,565.6549000004816,Correct
6,506,89,A,48.41010049983378,71.64025590014482,2.420505024991689,1.1253225081859393,A,535.6000000001586,Correct
6,506,90,B,61.04621789627497,36.95808802253059,3.0523108948137487,0.5805362891115351,B,644.8915999999372,Correct
6,506,91,B,68.28309798556583,35.77699121480464,3.4141548992782917,0.5619836638398841,B,739.8062000002028,Correct
6,506,92,A,36.1672680129928,44.404089334239956,1.8083634006496399,0.6974978042089657,A,655.1078000002235,Correct
6,506,93,A,34.83380107260525,42.9272510609825,1.7416900536302622,0.6742996828599362,A,526.3162999999622,Correct
6,506,94,B,64.69011259416403,49.18183471932272,3.2345056297082015,0.7725464532214587,B,561.3450999999259,Correct
6,506,95,B,42.38371806472209,15.17420674022928,2.1191859032361045,0.23835588209578515,B,467.59480000037,Correct
6,506,96,B,73.25190335015675,55.45104844267732,3.6625951675078374,0.8710230321068341,B,427.88910000035685,Correct
6,506,97,B,79.46717922716326,52.687852335102,3.9733589613581626,0.8276188491469014,B,447.49510000019654,Correct
6,506,98,B,39.13307612989813,14.405345551581824,1.9566538064949066,0.22627863878635932,B,553.989900000488,Correct
6,506,99,B,62.56057975741116,44.56863149117125,3.1280289878705583,0.7000824263660715,B,485.88420000032784,Correct
6,506,100,A,60.17761916097449,70.47764907781746,3.0088809580487244,1.107060322925754,A,1020.4917999999452,Correct
6,506,101,A,13.122878405421659,35.569843884449966,0.6561439202710829,0.5587298011836193,A,544.3907999997464,Correct
6,506,102,A,41.1326254873241,49.91697545340607,2.056631274366205,0.7840940168692127,A,804.5345000000452,Correct
6,506,103,A,47.947203338218515,73.93904409146731,2.397360166910926,1.1614317886560275,A,571.1768999999549,Correct
6,506,104,B,61.081012229249616,35.99268034609568,3.054050611462481,0.5653717007914997,B,786.366000000271,Correct
6,506,105,A,51.09474312558834,69.65825457643828,2.5547371562794168,1.0941893041961304,B,566.2517000000662,Incorrect
6,506,106,B,39.9791786632903,22.567688257608324,1.998958933164515,0.35449241819303473,B,581.449999999677,Correct
6,506,107,A,35.15998720246215,57.80228609407006,1.7579993601231074,0.9079561867691298,A,466.71299999979965,Correct
6,506,108,B,85.63339458629832,59.7671635641812,4.281669729314916,0.9388204098956561,B,583.6708000006183,Correct
6,506,109,B,63.7421325130508,30.92610076112401,3.18710662565254,0.4857860547766245,B,537.9178000002867,Correct
6,506,110,A,29.648633748753706,59.78405100168263,1.4824316874376853,0.9390856771436181,A,743.4532999996009,Correct
6,506,111,A,62.14461119644106,84.78516308762936,3.107230559822053,1.3318022274475445,A,507.8830000002199,Correct
6,506,112,B,52.15827678754988,40.25266044942585,2.607913839377494,0.6322873117768033,B,1150.6570999999894,Correct
6,506,113,A,53.4892603722364,81.58125535425282,2.67446301861182,1.2814753624577682,A,1419.8909999995522,Correct
6,506,114,B,66.08755389891363,58.22332993519932,3.304377694945681,0.9145699279597843,B,2296.5727999999217,Correct
6,506,115,A,41.20840710034408,51.30967962987141,2.060420355017204,0.8059705629162496,A,478.44370000075287,Correct
6,506,116,B,54.68130678921866,47.855582254736625,2.734065339460933,0.7517137282237133,B,450.05589999982476,Correct
6,506,117,A,22.991675405092312,37.288649143393314,1.1495837702546157,0.5857287310558589,A,395.4390999997486,Correct
6,506,118,A,25.0608649886604,49.28515841914776,1.25304324943302,0.7741694581030188,A,450.3558000005796,Correct
6,506,119,A,12.187791325362763,34.360210586096656,0.6093895662681382,0.5397289257653975,A,451.97879999977886,Correct
6,506,120,B,42.451921574970605,24.763012061206318,2.1225960787485305,0.38897648386120603,B,472.7231999995638,Correct
6,506,121,A,31.031265141024058,48.02773750433365,1.5515632570512028,0.7544179365607678,A,509.9955999994563,Correct
6,506,122,A,43.02141707557051,52.136992315789655,2.151070853778526,0.8189659601977615,B,640.2076000003945,Incorrect
6,506,123,B,58.85076921854848,46.773631596192644,2.9425384609274237,0.7347184870215712,B,1130.43209999978,Correct
6,506,124,B,40.28605384998028,24.62409418145553,2.014302692499014,0.3867943669088193,B,557.4802000001,Correct
6,506,125,A,55.838516443756546,65.77500037994986,2.791925822187827,1.0331912899175817,A,783.1481000002896,Correct
6,506,126,A,27.646895726845337,48.8601281149435,1.3823447863422669,0.7674930976968131,A,596.425900000213,Correct
6,506,127,A,59.7545779315241,73.44366006359677,2.987728896576205,1.1536503145427084,A,546.2134999997943,Correct
6,506,128,B,44.80175449407762,23.514187175871452,2.240087724703881,0.3693599884342654,B,643.6331000004429,Correct
6,506,129,A,27.57833798997906,39.324343978302956,1.378916899498953,0.617705350747373,A,1061.5772999999535,Correct
6,506,130,B,65.88553402616121,45.85261547945446,3.2942767013080605,0.7202511996906588,B,630.4131999995661,Correct
6,506,131,B,63.41527569599855,40.80954266500329,3.1707637847999273,0.6410347971636678,B,590.4252999998789,Correct
6,506,132,B,53.25816603565177,31.750030423517046,2.662908301782588,0.49872831164886794,B,683.1280999995215,Correct
6,506,133,A,14.143136283543708,37.94950936910409,0.7071568141771855,0.5961094992065722,A,472.4096999998437,Correct
6,506,134,B,35.15052922074004,21.948233514206006,1.757526461037002,0.3447620458375144,B,459.14819999961765,Correct
6,506,135,B,87.31232348054942,65.70389433578117,4.365616174027471,1.0320743587876509,B,1041.2703000001784,Correct
6,506,136,B,45.99834154553503,23.255279094827323,2.2999170772767514,0.365293069807449,B,513.5436000000482,Correct
6,506,137,B,46.82303766229852,24.878923045504607,2.341151883114926,0.3907972093449154,B,461.446899999828,Correct
6,506,138,B,45.08373579225841,21.104178038475517,2.2541867896129206,0.3315036534286287,B,612.0762999998988,Correct
6,506,139,B,77.05708532081118,47.8138376284505,3.8528542660405596,0.7510580051673765,B,495.6718000003093,Correct
6,506,140,A,36.433570316732705,67.39362782097119,1.821678515836635,1.058616630305639,A,476.1164000001372,Correct
6,506,141,A,47.93754745581594,62.087055250884205,2.396877372790797,0.9752611832960071,A,871.1594000005789,Correct
6,506,142,A,44.72684527222961,70.58294205306706,2.2363422636114807,1.1087142611133476,A,495.4395000004297,Correct
6,506,143,A,65.9680529616218,86.06470495992636,3.2984026480810895,1.3519012241773884,A,769.3926000001738,Correct
6,506,144,A,12.37173679303736,30.72791241206789,0.618586839651868,0.4826729194695156,A,1364.730000000236,Correct
6,506,145,A,24.1805741119368,55.6388860697995,1.20902870559684,0.8739735786540079,A,986.7996000002677,Correct
6,506,146,A,23.10184888418969,34.381761055578096,1.1550924442094845,0.540067439748419,A,678.4445000002961,Correct
6,506,147,B,47.21238210565046,32.476952573820725,2.3606191052825234,0.5101467780844966,B,525.0797999997303,Correct
6,506,148,A,12.171099843319322,39.408986359040526,0.6085549921659661,0.6190349101549104,A,580.525200000011,Correct
6,506,149,B,82.77596732202159,58.69548543967585,4.13879836610108,0.9219865292808616,B,564.0038000001368,Correct
6,506,150,A,31.71786053918462,58.70536653519485,1.5858930269592308,0.9221417411663211,A,523.4614000000875,Correct
6,506,151,B,35.0231268899535,22.379974156931006,1.7511563444976752,0.35154381199471935,B,464.4532000002073,Correct
6,506,152,B,48.05784240234058,33.23009462563885,2.4028921201170292,0.5219771057700033,B,914.3991000000824,Correct
6,506,153,A,33.279976898347044,49.29813226561323,1.6639988449173524,0.7743732508067425,A,2064.7596999997404,Correct
6,506,154,B,78.59435491357989,51.47657189521197,3.9297177456789942,0.8085921004899237,B,604.9032999999326,Correct
6,506,155,A,23.031773339070515,46.76058724365399,1.1515886669535258,0.7345135868110397,A,598.8735999999335,Correct
6,506,156,A,16.87111576051584,32.131773890082044,0.8435557880257919,0.5047247239994503,A,494.9160000005577,Correct
6,506,157,A,40.77978148332386,68.95935088895874,2.038989074166193,1.0832109507453678,A,518.6314000002312,Correct
6,506,158,B,73.15531084345791,62.55821096185811,3.657765542172896,0.9826620798974696,B,577.4074000000837,Correct
6,506,159,A,30.096361538420673,62.060586531896824,1.5048180769210335,0.9748454136304036,A,502.93369999963033,Correct
6,506,160,A,58.577367689294405,68.14544551533614,2.9288683844647205,1.0704261550329175,A,1096.5949000001274,Correct
6,506,161,A,36.891857486560504,50.5860407453191,1.844592874328025,0.7946036698984421,A,480.31780000019353,Correct
6,506,162,B,66.78626023538953,36.668256090756365,3.3393130117694767,0.5759836197733469,B,1034.0273000001616,Correct
6,506,163,A,22.69165187257463,52.209041263884515,1.1345825936287315,0.8200977024279297,A,662.9812000001039,Correct
6,506,164,A,27.70850740364101,49.65527884837515,1.3854253701820505,0.77998329621004,A,893.0632000001424,Correct
6,506,165,B,77.5433408435337,65.9965099891492,3.8771670421766853,1.0366707547223828,B,641.8058000008386,Correct
6,506,166,B,48.37999547033455,17.785114830093292,2.4189997735167275,0.27936793046735986,B,602.3789000000761,Correct
6,506,167,B,81.4180582132542,65.53461073212925,4.07090291066271,1.0294152581596203,B,963.7883000004877,Correct
6,506,168,A,38.34428429206562,46.00054657490462,1.9172142146032811,0.7225748959041774,B,618.6853999997766,Incorrect
6,506,169,B,75.31643933627403,48.29782641642371,3.7658219668137014,0.7586604832709587,B,495.38010000014765,Correct
6,506,170,A,44.928137437773316,66.34466735860632,2.246406871888666,1.0421395978932808,A,472.2417000002679,Correct
6,506,171,A,22.779240072599475,43.39569317880948,1.1389620036299737,0.6816579544399227,A,483.0228000000716,Correct
6,506,172,B,76.72708767899303,64.35342164383981,3.8363543839496517,1.0108611833482675,B,522.4944999999934,Correct
6,506,173,B,64.45085354275585,56.370981529190416,3.2225426771377927,0.8854733072387527,B,485.24599999927887,Correct
6,506,174,B,87.06054879498248,69.19229440598623,4.353027439749124,1.0868700189543423,B,566.4005999997244,Correct
6,506,175,B,38.83930012642347,16.23703382906211,1.9419650063211733,0.25505073096735237,B,636.9865999995454,Correct
6,506,176,A,18.23957532840918,34.03368110218782,0.9119787664204592,0.5345998126262551,A,541.0285999996631,Correct
6,506,177,B,71.59602566445494,59.96492950852692,3.5798012832227473,0.9419269100850899,A,1824.9098999995113,Incorrect
6,506,178,A,69.64864788923477,85.70797238132418,3.4824323944617386,1.3462976819362247,A,569.4770000000062,Correct
6,506,179,B,56.6265809088236,35.004058442277966,2.83132904544118,0.5498424642404411,B,672.6957999999286,Correct
6,506,180,A,57.06290002198165,64.82417660423397,2.853145001099082,1.018255784974344,A,629.109100000278,Correct
6,506,181,B,70.48629994045609,45.282070035872245,3.5243149970228047,0.7112890928201736,B,608.1590999992841,Correct
6,506,182,A,40.86063821993235,53.264376043288934,2.0430319109966173,0.8366748623782034,B,712.1637000000192,Incorrect
6,506,183,A,54.56536560537509,76.05299420988821,2.7282682802687543,1.1946376394664593,A,761.5566000004037,Correct
6,506,184,A,31.298112843333918,56.50881805759009,1.5649056421666958,0.8876384383638363,B,860.6368999999177,Incorrect
6,506,185,B,83.7548909702321,66.47962058176086,4.187744548511605,1.0442594381654837,B,663.9385999997103,Correct
6,506,186,B,49.11775413065208,30.56614939699817,2.455887706532604,0.48013195197068775,B,665.3413999993063,Correct
6,506,187,B,81.07228461788804,53.895160290604295,4.053614230894402,0.8465831981650339,B,658.1842999994478,Correct
6,506,188,B,54.25147385068612,31.087545572202814,2.712573692534306,0.48832202393885127,B,751.7177999998239,Correct
6,506,189,A,36.610285267246034,46.21006093652078,1.8305142633623017,0.7258659398005518,A,724.7215999996115,Correct
6,506,190,B,49.745991886973265,25.186231786331334,2.4872995943486633,0.3956244037577412,B,565.2712999999494,Correct
6,506,191,B,57.71756838958276,49.41063529047818,2.8858784194791376,0.7761404441888541,B,876.4881000006426,Correct
6,506,192,A,49.97082341458487,68.23425959475821,2.4985411707292435,1.0718212433301562,A,620.2243999996426,Correct
6,506,193,A,48.52345319770994,65.22442340084656,2.426172659885497,1.0245428469536488,A,966.9826999997895,Correct
6,506,194,A,68.0698066421244,86.56227518997997,3.40349033210622,1.3597170390742954,A,821.0801000004722,Correct
6,506,195,B,76.59429885370527,45.076831840492765,3.8297149426852632,0.7080652187859727,B,657.2261999999682,Correct
6,506,196,B,66.95639349145536,49.2556843034114,3.3478196745727677,0.7737064797756769,B,536.4167000007001,Correct
6,506,197,A,63.05948621113245,81.54776341342055,3.152974310556623,1.2809492722814027,A,534.7542999998041,Correct
6,506,198,B,61.110326963803324,40.41915888092762,3.055516348190166,0.6349026630230042,B,491.21740000009595,Correct
6,506,199,B,82.32758478509004,54.60300180202241,4.116379239254502,0.8577019466259193,B,688.7783000001946,Correct
6,506,200,B,30.61391726736141,13.416553786144533,1.5306958633680705,0.21074673405521993,B,613.1672999999864,Correct
6,506,201,B,48.32237622161759,18.47225241103406,2.4161188110808793,0.29016146234880474,B,547.2520999992412,Correct
6,506,202,A,20.618795980537197,35.30864251113762,1.0309397990268598,0.5546268596060909,A,731.8280999998024,Correct
6,506,203,A,66.09663767548504,83.78473886187848,3.304831883774252,1.3160876004570834,A,744.547700000112,Correct
6,506,204,B,54.32804265724684,39.390902749897705,2.716402132862342,0.618750853486743,B,694.0798000005088,Correct
6,506,205,A,37.61960612587064,53.59654082188638,1.880980306293532,0.8418924945193185,A,1062.1389999996609,Correct
6,506,206,B,70.39006534019059,39.64089663730996,3.5195032670095294,0.6226777482874265,B,593.7151999996786,Correct
6,506,207,A,40.92093014351987,51.147054341478196,2.0460465071759932,0.8034160508597292,B,634.5405000001847,Incorrect
6,506,208,A,40.91436237744334,73.63582301983887,2.045718118872167,1.1566688032008199,A,532.7661000001171,Correct
6,506,209,B,60.07040549826209,51.63015534695717,3.0035202749131042,0.811004583708502,B,614.6883000001253,Correct
6,506,210,A,29.60672858733548,40.261725399552056,1.4803364293667738,0.6324297036804116,A,707.4360999995406,Correct
6,506,211,A,41.10473746872801,70.73867072028627,2.055236873436401,1.1111604412977936,A,1373.3658000001014,Correct
6,506,212,A,22.251654570992088,44.741907430391386,1.1125827285496044,0.7028042384545607,A,704.6768999998676,Correct
6,506,213,A,62.38237276611321,71.80969563382904,3.1191186383056606,1.1279840612987817,B,577.0163000006505,Incorrect
6,506,214,A,42.25222326007871,52.41894314977102,2.1126111630039355,0.8233948335413082,A,772.6239000003261,Correct
6,506,215,A,60.61001102941243,72.40962564892558,3.0305005514706216,1.1374077399392584,A,977.0422999999937,Correct
6,506,216,B,47.76753744304318,32.3746302142987,2.388376872152159,0.5085395022196347,B,484.1119000002436,Correct
6,506,217,A,48.04574952471288,70.95866264737546,2.402287476235644,1.114616066407756,A,497.91280000044935,Correct
6,506,218,A,31.35992557512691,53.42747147330647,1.5679962787563455,0.8392367594020892,A,635.0204999998823,Correct
6,506,219,A,28.31862372117901,51.03059074194951,1.4159311860589503,0.8015866449162794,A,899.0273999997953,Correct
6,506,220,B,43.33462557533295,17.167632630815532,2.1667312787666475,0.2696685427624924,B,766.3813999997728,Correct
6,506,221,A,24.681452125478017,51.82103004660154,1.234072606273901,0.8140028364792967,A,732.1936999996979,Correct
6,506,222,A,52.93638019145198,67.8977240901382,2.6468190095725994,1.0665349559852244,A,1452.7619999998933,Correct
6,506,223,A,22.12822061509093,52.0928905228874,1.1064110307545465,0.8182732108548021,A,579.9440000000686,Correct
6,506,224,A,25.152593642824968,54.40859648067693,1.2576296821412485,0.8546482349791305,A,470.98300000016025,Correct
6,506,225,B,69.31059068328867,58.23680485384406,3.465529534164433,0.9147815914868946,B,1446.747900000446,Correct
6,506,226,B,47.28038733392991,18.80831646163007,2.3640193666964957,0.29544034411124503,B,420.00629999984085,Correct
6,506,227,A,69.16964373599154,84.01025264331591,3.458482186799577,1.3196299626523187,A,493.671500000346,Correct
6,506,228,B,46.050611069925594,23.322425684985713,2.30253055349628,0.3663478059792251,B,704.7310999996625,Correct
6,506,229,A,32.69550282929041,62.88519698027307,1.6347751414645204,0.9877983642638646,A,631.3842999998087,Correct
6,506,230,A,44.579974794927274,73.73090327897758,2.2289987397463635,1.1581623204188778,A,1023.1057000000874,Correct
6,506,231,B,33.71041940202599,17.963216135590578,1.6855209701012996,0.2821655392320849,B,491.23929999950633,Correct
6,506,232,A,43.63823798735626,50.62272010117732,2.181911899367813,0.7951798278729552,B,948.3708999996452,Incorrect
6,506,233,B,41.6938902692155,15.677253192517956,2.084694513460775,0.2462577172904077,B,664.535199999591,Correct
6,506,234,A,21.38000837850559,52.55009116849228,1.0690004189252795,0.825454901802046,A,548.9807000003566,Correct
6,506,235,B,64.66723432920348,40.2778801472431,3.2333617164601742,0.6326834618637456,B,688.2931999998618,Correct
6,506,236,B,82.37765649156205,58.82860154713215,4.118882824578103,0.9240775122071576,B,1607.4620999997933,Correct
6,506,237,A,29.50857713923657,54.13507889525359,1.4754288569618286,0.8503518307941627,A,604.4711000004099,Correct
6,506,238,A,49.21060640930683,79.23529322484448,2.4605303204653413,1.2446250755010229,A,611.3722999998572,Correct
6,506,239,B,78.40724729530588,64.80498095168863,3.920362364765294,1.0179542603692575,B,720.9138999996867,Correct
6,506,240,B,51.73549772752224,44.38849139648676,2.5867748863761117,0.6972527923756826,B,1694.4150999997873,Correct
6,506,241,B,80.38823558504544,56.258835160306276,4.019411779252271,0.8837117161956867,B,1333.0759999998918,Correct
6,506,242,B,70.8857363244108,43.492096931029515,3.54428681622054,0.6831722610386874,B,1161.2911000001986,Correct
6,506,243,B,64.99410122756048,44.60455115194907,3.2497050613780236,0.7006466510781667,B,579.4453999997131,Correct
6,506,244,A,41.95414662642614,68.09679951860652,2.097707331321307,1.0696620255031561,A,478.5273999996207,Correct
6,506,245,A,38.80499964586061,51.944067839803736,1.9402499822930306,0.8159355096154862,A,537.8528999999617,Correct
6,506,246,A,64.04512398280346,76.58194390632401,3.2022561991401735,1.2029463618686655,A,778.6722999999256,Correct
6,506,247,B,72.01873797245158,49.54805941113637,3.6009368986225785,0.7782990972282832,B,558.0193999994663,Correct
6,506,248,B,30.630902226622062,11.49207833735418,1.531545111331103,0.18051714439555147,B,644.9421999996048,Correct
6,506,249,B,66.3610250593191,37.69986178102439,3.3180512529659554,0.5921880440630841,B,564.9733000000197,Correct
6,506,250,B,69.43826431761879,45.38551219347022,3.4719132158809396,0.7129139584320802,B,450.4496999998082,Correct
6,506,251,A,41.165696544667355,67.77275457521468,2.0582848272333676,1.0645719394351925,A,507.61940000029426,Correct
6,506,252,B,79.9087016774601,55.626306705218916,3.995435083873005,0.873775982457242,B,428.7233000004562,Correct
6,506,253,B,34.97788193202298,14.94023278473643,1.748894096601149,0.23468062779724674,B,1614.6999000002324,Correct
6,506,254,B,57.76825665470079,33.26124836173993,2.88841283273504,0.5224664675123385,B,449.49220000034984,Correct
6,506,255,A,52.35186669613571,70.49635187992993,2.6175933348067857,1.1073541058543444,A,532.239699999991,Correct
6,506,256,B,35.35975315251176,24.345730733190017,1.767987657625588,0.382421844088325,B,880.1603000001705,Correct
6,506,257,A,67.65200304533549,87.296917699041,3.382600152266775,1.3712567766216999,A,542.2195999999531,Correct
6,506,258,A,38.46466909948798,54.110619257053244,1.923233454974399,0.8499676196957645,B,924.8511000005237,Incorrect
6,506,259,B,31.10932332317097,15.56469483411042,1.5554661661585485,0.24448965473104145,B,484.28990000047634,Correct
6,506,260,A,29.931841665387772,58.305344261629564,1.4965920832693884,0.9158582059867961,A,724.043399999573,Correct
6,506,261,A,22.548456974795887,37.08949798299072,1.1274228487397944,0.5826004719434855,A,817.8797999999006,Correct
6,506,262,A,41.97368844221085,54.13092461885513,2.0986844221105425,0.8502865755730907,B,744.7557999994388,Incorrect
6,506,263,B,71.36042732909897,43.59859275129238,3.5680213664549485,0.6848450934715667,B,559.4273999995494,Correct
6,506,264,A,41.147158262481355,54.70593071772457,2.0573579131240676,0.8593187502529785,A,617.3640999995769,Correct
6,506,265,B,63.288230731284045,31.509189555386527,3.1644115365642023,0.49494519213885274,B,523.0346999996982,Correct
6,506,266,B,72.67730001963646,50.93779458978079,3.6338650009818227,0.8001290063666063,B,487.45450000023993,Correct
6,506,267,A,42.10310002636921,59.30452622460101,2.105155001318461,0.9315533195591489,B,892.7252000003136,Incorrect
6,506,268,B,82.24407788654774,52.592022058264604,4.112203894327387,0.8261135506783821,B,620.1742999992348,Correct
6,506,269,A,51.50253861832193,69.39953601180783,2.5751269309160967,1.0901253624861786,A,499.67500000002474,Correct
6,506,270,B,66.72780366527599,38.70041016614144,3.3363901832637994,0.6079046213443083,B,598.9961000004769,Correct
6,506,271,B,70.88213972154682,42.56188964846061,3.544106986077341,0.6685605992125165,B,674.5485999999801,Correct
6,506,272,B,59.63817081102128,30.358555501015363,2.981908540551064,0.4768710746779393,B,483.15829999955895,Correct
6,506,273,B,62.841799510684716,51.84556750683102,3.1420899755342355,0.8143882700032701,B,1938.63329999931,Correct
6,506,274,A,11.19775184783241,32.00902520483071,0.5598875923916204,0.5027965921603333,A,841.2510999996812,Correct
6,506,275,A,47.685069175199146,55.64790889529039,2.3842534587599573,0.8741153088653918,B,1683.230900000126,Incorrect
6,506,276,B,34.82212734342974,23.41403032088946,1.741106367171487,0.367786728235175,B,2725.461300000461,Correct
6,506,277,A,24.12041564160986,43.190768777405225,1.2060207820804931,0.6784390094699583,A,751.1626000004981,Correct
6,506,278,B,87.5673028684118,65.45089768964877,4.37836514342059,1.0281002967632886,B,438.03809999917576,Correct
6,506,279,A,53.15468661342555,67.49669131585685,2.657734330671277,1.0602355478975694,B,710.6112999999823,Incorrect
6,506,280,A,54.71987280661787,76.50673414287743,2.7359936403308938,1.2017649696670558,A,583.2194000004165,Correct
6,506,281,B,78.12533073038554,55.38384212680667,3.906266536519277,0.8699673577657636,B,545.9663000001456,Correct
6,506,282,A,37.573987371638076,46.75222114375536,1.8786993685819038,0.734382172421136,B,635.9230999996726,Incorrect
6,506,283,A,51.420051466811174,62.462088035051465,2.5710025733405586,0.981152184493983,A,542.1468999993522,Correct
6,506,284,B,42.52368471829632,19.197639007735738,2.126184235914816,0.3015558083648572,B,443.6668999996982,Correct
6,506,285,A,39.12318572984264,54.263796736864236,1.956159286492132,0.8523737259221124,A,1495.8268999998836,Correct
6,506,286,B,70.63801383292213,52.00872157329408,3.5319006916461064,0.8169510880862885,B,554.5971000001373,Correct
6,506,287,B,67.92020170194164,57.43141709267046,3.3960100850970822,0.9021305901179241,B,1059.9809000004825,Correct
6,506,288,B,82.42186144519374,56.027915208062964,4.121093072259686,0.8800844340680123,B,474.38419999980397,Correct
6,506,289,A,37.61084572514085,57.08099692575743,1.8805422862570425,0.8966262030077057,A,921.8210999997609,Correct
6,506,290,B,51.6823192532311,20.657182126123036,2.5841159626615546,0.3244822580564726,B,508.0662000000302,Correct
6,506,291,B,38.49802175180591,25.664239316757907,1.9249010875902954,0.4031329284874849,B,702.8083000004699,Correct
6,506,292,B,58.20796314036805,45.69969859047951,2.9103981570184025,0.7178491868155913,B,820.346999999856,Correct
6,506,293,A,48.57004523529472,62.71704995929865,2.428502261764736,0.9851571170347833,B,604.3787999997221,Incorrect
6,506,294,B,65.03560585672673,34.7753429251818,3.251780292836337,0.5462498092990847,B,396.1215999997876,Correct
6,506,295,A,31.238882346482256,56.11092763505456,1.5619441173241129,0.8813883902219796,A,752.2625000001426,Correct
6,506,296,B,52.46228892534792,28.583670864545816,2.623114446267396,0.4489912520034287,B,493.53289999999106,Correct
6,506,297,A,47.751947294857445,69.80034329614564,2.3875973647428723,1.0964212285860835,B,1355.0654000000577,Incorrect
6,506,298,A,64.01956699021505,79.41432098048098,3.2009783495107524,1.2474372369105042,A,584.3070999999327,Correct
6,506,299,A,28.674494364657313,46.17424493873102,1.4337247182328656,0.7253033434228654,A,1508.2155000000057,Correct
6,506,300,A,30.425026511330138,39.39142057453894,1.521251325566507,0.6187589874571868,A,529.9928000004002,Correct
6,506,301,A,19.061525866608584,37.29554683748601,0.9530762933304291,0.5858370797813004,A,622.4434000005203,Correct
6,506,302,A,38.08784768359983,65.5749349405086,1.9043923841799915,1.0300486693436524,A,1135.0041000005149,Correct
6,506,303,A,59.52401976878521,82.97105466409164,2.97620098843926,1.303306278966537,A,876.0033999997177,Correct
6,506,304,A,21.63793017490516,47.56776332226406,1.0818965087452581,0.7471926790046138,B,551.0672000000341,Incorrect
6,506,305,B,70.07451127404077,37.76837304555812,3.503725563702039,0.5932642164898208,B,388.03379999990284,Correct
6,506,306,A,32.41240347825886,48.26699511272957,1.6206201739129429,0.7581761862850283,A,596.8788999998651,Correct
6,506,307,B,47.9669673031598,38.88293880797536,2.39834836515799,0.6107717745455842,B,1071.378999999979,Correct
6,506,308,B,39.669598029010714,18.757406242842595,1.9834799014505358,0.29464064826456815,B,687.9625999999917,Correct
6,506,309,A,16.47303924408433,33.730139507030756,0.8236519622042165,0.5298317923992334,A,552.8021000000081,Correct
6,506,310,A,44.588499600355355,56.27528014105083,2.2294249800177677,0.8839700333491641,B,610.1984000006269,Incorrect
6,506,311,A,26.831960570710116,45.79240377840216,1.3415980285355058,0.7193053965022286,A,766.0875000001397,Correct
6,506,312,A,43.417801541984176,57.5333535484098,2.170890077099209,0.9037318042203424,A,1227.8635000002396,Correct
6,506,313,B,77.80767064548829,60.76718754597924,3.8903835322744147,0.9545287498688079,B,497.43839999973716,Correct
6,506,314,A,46.940802263293115,77.77188991442142,2.3470401131646557,1.2216379900547023,A,470.1474000003145,Correct
6,506,315,A,54.53378405291429,71.31803693991803,2.7266892026457143,1.1202611045944597,A,706.0178000001542,Correct
6,506,316,B,75.08863270626911,58.77249598516816,3.7544316353134555,0.9231962081006995,B,595.0818000001163,Correct
6,506,317,A,29.956648533352507,44.26740430187267,1.4978324266676253,0.695350760741262,A,523.4108000004198,Correct
6,506,318,B,43.96836047115312,20.525265438666136,2.198418023557656,0.3224101155754701,B,471.2632999999187,Correct
6,506,319,B,71.22446655825372,39.64767505922548,3.561223327912686,0.6227842234898902,B,713.2443000000421,Correct
6,506,320,B,61.16856403469745,44.70353439860527,3.058428201734872,0.7022014762807846,B,632.7131000007284,Correct
6,506,321,B,63.230763798880346,44.3782493882726,3.161538189944017,0.6970919112868645,B,700.8796000000075,Correct
6,506,322,B,65.56155852922316,38.57908865443167,3.2780779264611577,0.6059989074947595,B,669.6980999995503,Correct
6,506,323,A,24.420415677729633,54.697806624901496,1.2210207838864817,0.8591911373013283,A,585.5937999995149,Correct
6,506,324,B,70.78301766323393,45.953033378811234,3.5391508831616965,0.7218285603651995,B,521.0690000003524,Correct
6,506,325,A,34.18362368798794,63.27453912352232,1.709181184399397,0.9939141363486884,A,545.3461000006428,Correct
6,506,326,B,36.79937684949333,25.742485843676636,1.8399688424746665,0.4043620220581688,B,541.2420000002385,Correct
6,506,327,A,20.181917098120458,46.28242474114568,1.009095854906023,0.7270026277855288,A,947.314500000175,Correct
6,506,328,B,60.297477164645265,28.074090343985702,3.014873858232263,0.4409867799044082,B,498.22630000016943,Correct
6,506,329,A,37.06800241698892,66.24994773412615,1.853400120849446,1.0406517455111923,A,561.9605000001684,Correct
6,506,330,A,54.34057443709966,63.42931408858843,2.7170287218549833,0.9963453358147448,B,501.28829999994196,Incorrect
6,506,331,B,39.33370754543124,17.999378319117124,1.966685377271562,0.2827335734826088,B,542.6974000001792,Correct
6,506,332,B,46.701164878381164,36.58496524700053,2.3350582439190584,0.5746752902590738,B,1216.9031000003088,Correct
6,506,333,B,45.62625933225693,21.15166059839136,2.2813129666128464,0.33224950773565487,B,1701.8897999996625,Correct
6,506,334,A,42.231933730739165,56.4288718021014,2.1115966865369584,0.88638264551921,A,1516.0047999997914,Correct
6,506,335,B,72.6769921468279,40.047854700430136,3.633849607341395,0.629070230594514,B,660.0034000002779,Correct
6,506,336,A,28.150365420909942,59.12751600659433,1.407518271045497,0.9287728495566482,A,537.5529999992068,Correct
6,506,337,B,59.936033541707445,32.01269319750901,2.9968016770853723,0.5028542088545912,B,577.5446999996348,Correct
6,506,338,A,26.17666066543289,42.950211714362226,1.3088330332716447,0.6746603479598332,A,519.0802999995867,Correct
6,506,339,A,42.46011132209023,57.87878060552379,2.1230055661045113,0.9091577597452445,A,966.5408999999272,Correct
6,506,340,B,33.55004729296848,15.821208307517203,1.677502364648424,0.24851895894904924,B,531.2462000001688,Correct
6,506,341,A,28.620137721088113,59.08463853691801,1.4310068860544056,0.9280993318379499,A,623.9865999996255,Correct
6,506,342,A,32.35759234727658,56.94321064540383,1.617879617363829,0.8944618611770838,A,726.344999999128,Correct
6,506,343,A,40.896648348846014,64.03214870276717,2.0448324174423007,1.0058146397909127,A,1182.0901000000958,Correct
6,506,344,B,57.02544506359066,33.28556130176099,2.8512722531795327,0.5228483742811252,B,875.8970999997473,Correct
6,506,345,B,40.670646784196336,27.82357422783066,2.033532339209817,0.43705168195381555,B,507.3405000002822,Correct
6,506,346,B,70.70106495494235,39.164062621002294,3.5350532477471175,0.6151876570743571,B,438.1362000003719,Correct
6,506,347,A,32.448461389282045,60.8086616781861,1.6224230694641022,0.955180224014083,A,426.5605999999025,Correct
6,506,348,A,66.98250447132224,89.02292549545042,3.3491252235661126,1.3983688436878927,A,611.3887000001341,Correct
6,506,349,A,23.894587403353153,53.13384099494289,1.1947293701676578,0.8346244226336037,A,721.7312000002494,Correct
6,506,350,A,48.935602276955194,76.14939294054668,2.4467801138477596,1.1961518671867195,A,489.24019999958546,Correct
6,506,351,B,53.035320982827734,34.878152557270205,2.651766049141387,0.5478647392235207,B,520.4501999996864,Correct
6,506,352,A,55.09895861403756,68.77376490823416,2.754947930701878,1.0802957729770999,A,466.89080000032845,Correct
6,506,353,B,71.85041917107858,43.145179077981325,3.592520958553929,0.6777228881460109,B,471.36239999963436,Correct
6,506,354,A,14.373174603154151,33.972262621291975,0.7186587301577076,0.5336350533843699,A,522.6859999993394,Correct
6,506,355,A,47.03843014834922,75.74935077882144,2.351921507417461,1.1898680196047084,A,537.0548999999301,Correct
6,506,356,B,67.44855430206346,34.90482453669673,3.372427715103173,0.548283701696636,B,620.9264999997686,Correct
6,506,357,A,32.25733949806948,49.48380467367222,1.6128669749034739,0.7772897861724045,A,712.779400000727,Correct
6,506,358,B,87.60855651792218,60.511324184357974,4.380427825896109,0.950509657582847,B,620.1016999993954,Correct
6,506,359,B,49.123460732888354,30.451632412402795,2.456173036644418,0.4783331233831073,B,1117.247099999986,Correct
6,506,360,B,64.12350844499026,46.06608092611582,3.206175422249513,0.7236043070857919,B,933.2620999994106,Correct
6,506,361,B,69.36986438523202,44.761803311133086,3.468493219261601,0.7031167622184349,B,555.37540000023,Correct
6,506,362,B,55.85700243539333,24.393330756886193,2.792850121769667,0.38316954351209803,B,631.5384999998059,Correct
6,506,363,A,30.9623015625199,55.04229531150551,1.548115078125995,0.8646023529367283,A,549.8689999994895,Correct
6,506,364,A,23.877618325387818,54.753682062386844,1.1938809162693909,0.8600688266209288,A,554.2939999995724,Correct
6,506,365,A,37.56806322096116,53.611421931658384,1.878403161048058,0.8421262464450034,A,653.382700000293,Correct
6,506,366,A,23.318500170361485,44.50482145039932,1.1659250085180743,0.6990801005894997,A,869.9397999998837,Correct
6,506,367,B,84.31995958346117,62.972283860713915,4.215997979173059,0.9891663217829495,B,541.9369999999617,Correct
6,506,368,B,84.17415695149054,61.89370430753132,4.208707847574527,0.9722240337799968,B,624.7292000007292,Correct
6,506,369,A,25.038726262865538,40.42241234012694,1.2519363131432768,0.634953768240601,A,926.541200000429,Correct
6,506,370,A,42.45494405193893,70.23653667416976,2.1227472025969463,1.1032729381458088,A,657.8307999998287,Correct
6,506,371,B,60.54206624836606,40.5649046112537,3.027103312418303,0.6371920316014268,B,560.2081999995789,Correct
6,506,372,A,54.267906305575686,75.46178360854653,2.713395315278784,1.1853509250569623,A,606.5490999999383,Correct
6,506,373,A,12.771312670046612,30.72889017975283,0.6385656335023306,0.4826882782083952,A,497.62269999973796,Correct
6,506,374,A,50.72902370531897,71.18828773179831,2.536451185265949,1.11822300879927,A,792.8316999996241,Correct
6,506,375,A,58.36653429405836,77.88164219319955,2.918326714702918,1.223361974818323,A,705.6851000006645,Correct
6,506,376,B,33.279070115325084,12.464158930488768,1.6639535057662542,0.19578655064599562,B,878.6313999999038,Correct
6,506,377,A,31.114999607838662,48.698045287322344,1.555749980391933,0.7649471065941748,A,761.1719000005905,Correct
6,506,378,A,38.29308810220491,69.16186979546573,1.9146544051102454,1.0863921102898448,A,989.3066000004183,Correct
6,506,379,B,56.50625710165179,30.548207982417438,2.82531285508259,0.47985012888947853,B,607.5332999998864,Correct
6,506,380,B,88.43930814052352,69.41198701445367,4.421965407026176,1.0903209423783888,B,971.1776000003738,Correct
6,506,381,B,53.89739956800732,36.642130110750365,2.6948699784003662,0.5755732338390736,B,1025.2276000001075,Correct
6,506,382,A,53.52820888374976,77.51220237163247,2.6764104441874883,1.2175588276714293,A,877.3823999999877,Correct
6,506,383,B,61.25106676560179,40.43602849831053,3.062553338280089,0.6351676503531993,B,836.5660999997999,Correct
6,506,384,B,32.00452729240826,12.477472538165706,1.6002263646204131,0.1959956803063489,B,596.8826999996963,Correct
6,506,385,B,59.092304428535066,43.67572252105912,2.9546152214267534,0.686056645061928,B,635.4983000001084,Correct
6,506,386,A,35.60607812786717,62.23632765867071,1.7803039063933586,0.9776059487944357,A,739.8081000001184,Correct
6,506,387,A,28.958123692185115,40.02765539594276,1.4479061846092558,0.628752940661588,B,935.9535000003234,Incorrect
6,506,388,A,41.626006202954954,73.68970060403599,2.0813003101477476,1.1575151103143542,A,702.319300000454,Correct
6,506,389,B,61.42722345412548,45.41201586332751,3.071361172706274,0.7133302771046643,B,728.8204000005862,Correct
6,506,390,A,34.960557358471824,60.79093448844666,1.7480278679235912,0.954901765968812,A,529.3998000006468,Correct
6,506,391,B,39.77014406629762,31.33677410593612,1.988507203314881,0.49223689659205877,B,744.8242999998911,Correct
6,506,392,B,56.76416575574622,43.20428691299469,2.8382082877873107,0.6786513518472488,B,1150.9329000000434,Correct
6,506,393,B,55.72271582843036,35.967414191157616,2.7861357914215183,0.5649748209578102,B,1283.0924999998388,Correct
6,506,394,A,65.99481121267323,81.56655176489794,3.299740560633661,1.2812443990162747,A,459.9600999999893,Correct
6,506,395,B,60.86841952536198,53.8466213238836,3.043420976268099,0.8458207498587212,B,665.7676999993782,Correct
6,506,396,B,60.158007833489584,41.070106130647815,3.007900391674479,0.6451277185109815,B,808.12270000024,Correct
6,506,397,A,46.1092616451816,58.31713257071314,2.3054630822590796,0.916043376312872,A,459.1863000005105,Correct
6,506,398,B,62.16438350912596,44.42269582538347,3.108219175456298,0.6977900742883935,B,531.4775000006193,Correct
6,506,399,B,53.400697542008785,29.05380324980422,2.6700348771004396,0.456376074242141,B,593.2933000003686,Correct
6,506,400,A,27.621758330660768,41.76211026759604,1.3810879165330385,0.6559976940754331,A,481.2900000006266,Correct
6,506,401,B,67.64230109185529,47.473618460951926,3.3821150545927647,0.7457138549812568,B,771.24189999995,Correct
6,506,402,B,65.66268924847029,54.67665467139382,3.2831344624235146,0.8588588831925844,B,503.3949999997276,Correct
6,506,403,B,75.834755163661,55.74397603257253,3.79173775818305,0.8756243279290769,B,456.51319999979023,Correct
6,506,404,B,63.17092005612816,41.6517841919403,3.158546002806408,0.6542646961315357,B,566.3197000003493,Correct
6,506,405,A,18.024880980414448,36.61321422071781,0.9012440490207224,0.575119024100582,A,856.8342999997185,Correct
6,506,406,A,35.30429181442312,58.00577624383323,1.7652145907211558,0.9111526025669991,A,755.8722999992824,Correct
6,506,407,A,63.555789296183605,73.9389093691632,3.1777894648091802,1.161429672443023,A,529.9752999999328,Correct
6,506,408,B,73.17300612124498,49.84977569356322,3.6586503060622486,0.7830384455099862,B,527.4926000001869,Correct
6,506,409,A,53.63502364674937,68.65811843403381,2.6817511823374685,1.078479202408293,A,610.5563000000984,Correct
6,506,410,B,73.80747554911899,50.87510219561712,3.6903737774559495,0.7991442365419035,B,690.0069000002986,Correct
6,506,411,A,53.52437036498437,80.78759000443448,2.6762185182492186,1.2690084962957777,A,565.3615999999602,Correct
6,506,412,A,55.050510756683096,66.97448327321885,2.7525255378341544,1.0520327231455842,A,735.5894000002081,Correct
6,506,413,B,48.8232157172815,39.17245189329818,2.441160785864075,0.6153194354554258,B,744.0995999995721,Correct
6,506,414,A,42.09400286401765,69.42572785159689,2.1047001432008825,1.0905367829435055,A,630.5056999999579,Correct
6,506,415,B,66.1195570942566,34.21064633719623,3.3059778547128302,0.5373795760374712,B,673.0075000004945,Correct
6,506,416,A,45.441982111908025,70.66929252000247,2.272099105595401,1.1100706510761396,A,539.7758999997677,Correct
6,506,417,A,45.45290878065918,63.36410697609905,2.272645439032959,0.9953210648869527,A,869.4324999996752,Correct
6,506,418,B,55.66037453480065,25.42303565343326,2.783018726740033,0.3993441102038866,B,483.52819999945496,Correct
6,506,419,A,60.55531925850671,83.29102277589382,3.0277659629253355,1.3083323263136408,A,554.730699999709,Correct
6,506,420,B,83.93250363274835,66.36614849389272,4.196625181637418,1.0424770227773135,B,772.6723999994647,Correct
6,506,421,A,39.56066361775086,54.96926531578555,1.978033180887543,0.8634552004465006,A,908.7046999993618,Correct
6,506,422,B,78.81836394474688,47.55999456684453,3.9409181972373437,0.7470706476798463,B,536.5797999993447,Correct
6,506,423,A,47.577372855216986,67.57077991417722,2.378868642760849,1.0613993288785595,A,1068.739600000299,Correct
6,506,424,B,52.17252089686432,45.288352098984475,2.608626044843216,0.7113877712367876,B,1417.1581999999034,Correct
6,506,425,B,86.51090281015207,66.18983688280471,4.325545140507604,1.03970752646663,A,458.5661999999502,Incorrect
6,506,426,A,52.8152647605331,62.688681985849264,2.6407632380266546,0.9847115139498542,A,1014.7176999998919,Correct
6,506,427,B,39.236579376964585,26.18803365705497,1.9618289688482293,0.4113606707448307,B,1335.8449000006658,Correct
6,506,428,A,31.065060588203842,48.1439721220671,1.553253029410192,0.7562437456665888,A,662.7627999996548,Correct
6,506,429,B,60.64941922135228,36.46614910064573,3.0324709610676144,0.5728089305964933,B,566.7770999998538,Correct
6,506,430,A,49.32536174441492,68.4437518375323,2.466268087220746,1.0751119397845719,A,1275.7203000001027,Correct
6,506,431,B,66.94902294342094,57.77921184598675,3.347451147171047,0.9075937373278017,B,467.76150000005146,Correct
6,506,432,B,46.59595735137749,24.758840054006072,2.3297978675688746,0.388910950125351,A,897.3237000000154,Incorrect
6,506,433,B,80.75876529135,55.337619201692824,4.0379382645675,0.8692412897559382,B,554.1503000004013,Correct
6,506,434,B,41.69519324377824,16.392354306303524,2.084759662188912,0.25749049931862084,B,860.3742000004786,Correct
6,506,435,B,64.20312043376816,33.32119281352819,3.210156021688408,0.5234080727591459,B,579.5752999993056,Correct
6,506,436,A,29.214939442033167,52.08990496256895,1.4607469721016582,0.8182263137829857,A,597.7771999996548,Correct
6,506,437,A,51.37446937059849,77.96596487169448,2.5687234685299245,1.224686512354776,A,664.8353000000498,Correct
6,506,438,B,74.00837959965715,53.11840112496465,3.700418979982857,0.8343818937231237,B,682.5215999997454,Correct
6,506,439,A,34.870689481854434,62.16348550042832,1.7435344740927219,0.9764617468484061,A,1138.810000000376,Correct
6,506,440,A,34.24558053944316,57.881040306345255,1.712279026972158,0.9091932550427447,A,1170.5135000001974,Correct
6,506,441,B,53.0560486991829,34.0496332237305,2.6528024349591455,0.5348503879654934,B,637.8856999999698,Correct
6,506,442,B,47.991618645376306,30.14634553409468,2.3995809322688153,0.4735376883124566,B,491.7304000000513,Correct
6,506,443,A,37.37110912975557,46.516501351160436,1.8685554564877782,0.7306794945775266,A,915.9950000002937,Correct
6,506,444,B,73.7630319666277,53.3108602163807,3.688151598331385,0.8374050340616699,B,485.69750000024214,Correct
6,506,445,A,42.38981250999075,50.336423145352356,2.1194906254995374,0.790682685807131,A,637.6736000001983,Correct
6,506,446,A,65.90060664693507,80.53517677351404,3.295030332346754,1.2650435985361352,A,678.8127999998324,Correct
6,506,447,A,61.22006715377593,72.75735161698273,3.0610033576887963,1.1428698066728118,A,508.3548000002338,Correct
6,506,448,B,60.36112672394321,39.40089915345387,3.0180563361971604,0.6189078766266148,B,497.0465999995213,Correct
6,506,449,A,17.830017543035474,35.33637277343435,0.8915008771517736,0.5550624455476587,A,621.1789999997563,Correct
6,506,450,B,70.64459002929463,38.73022037678995,3.532229501464732,0.6083728790381852,B,521.3408999998137,Correct
6,506,451,A,32.17443232994175,60.77222980570212,1.6087216164970874,0.9546079534993223,A,455.9798000000228,Correct
6,506,452,A,33.42569997265649,59.47101872096681,1.6712849986328246,0.9341685775764519,A,586.4813999996841,Correct
6,506,453,B,75.84151046141456,46.141886407539744,3.7920755230707277,0.724795056803508,B,882.786600000145,Correct
6,506,454,A,49.882529938917585,76.5202790621408,2.494126496945879,1.201977732761312,A,678.6666000007244,Correct
6,506,455,B,54.07318184448408,40.335101648224594,2.7036590922242043,0.6335822950992996,B,522.8360999999495,Correct
6,506,456,A,27.54045364669934,39.88825532052575,1.3770226823349672,0.6265632493973884,A,609.9803999995856,Correct
6,506,457,B,65.08480784635177,47.6505335855808,3.254240392317588,0.7484928312604718,B,544.0701999996236,Correct
6,506,458,B,35.74521727112565,24.599341010064485,1.7872608635562823,0.3864055450018436,A,705.2128999994238,Incorrect
6,506,459,B,71.2105639221507,39.113304085920284,3.560528196107535,0.614390343869754,B,506.87440000001516,Correct
6,506,460,A,31.425946319261556,46.03577581110582,1.5712973159630779,0.7231282754523837,A,1646.7719000002035,Correct
6,506,461,A,23.01815202714651,46.054674414697814,1.1509076013573256,0.7234251340234222,A,623.0857000000469,Correct
6,506,462,B,85.47385346263228,62.243090970511545,4.273692673131614,0.9777121866484012,B,484.8655999994662,Correct
6,506,463,B,48.182062324653906,28.358166703071984,2.4091031162326955,0.4454490409182281,B,1511.3665999997465,Correct
6,506,464,B,55.5301148271606,35.30910785545528,2.7765057413580303,0.5546341692175397,B,1061.16320000001,Correct
6,506,465,B,71.61567332656328,57.59572511628153,3.5807836663281645,0.904711534517436,B,383.9429999998174,Correct
6,506,466,B,65.18406860583771,44.5695443628103,3.259203430291885,0.700096765720246,B,374.0159999997559,Correct
6,506,467,A,47.555238515949114,71.39960122577509,2.3777619257974556,1.1215423134006788,A,441.3680999996359,Correct
6,506,468,A,24.91937177292312,49.18540921759752,1.245968588646156,0.7726026013090603,A,499.6141000001444,Correct
6,506,469,A,59.89225051719189,74.25944442727172,2.9946125258595946,1.1664646253618816,A,468.4445000002597,Correct
6,506,470,A,14.172601518307221,35.123834048816164,0.708630075915361,0.5517238950683395,A,566.100600000027,Correct
6,506,471,A,43.21570255347834,57.76950268173866,2.160785127673917,0.90744122613243,A,936.0530000003564,Correct
6,506,472,B,56.33504184953337,30.405444291149543,2.8167520924766682,0.47760760207104563,B,460.4973000004975,Correct
6,506,473,A,42.08392143547793,67.35610899586685,2.1041960717738966,1.0580272859790432,A,558.9868999995815,Correct
6,506,474,B,85.83811221475942,68.76554455651984,4.291905610737971,1.0801666479943215,B,1128.9296999993894,Correct
6,506,475,B,55.70594809323794,35.6611178454522,2.7852974046618972,0.5601635292103625,B,564.5612999996956,Correct
6,506,476,A,50.67552245925244,70.51487420211981,2.5337761229626223,1.1076450538109401,A,618.6232999998538,Correct
6,506,477,B,80.05760731648913,55.28193156892124,4.002880365824456,0.8683665504658832,B,671.6040000001158,Correct
6,506,478,A,16.630240144487622,45.71635569098249,0.8315120072243812,0.7181108359384426,A,660.0533000000723,Correct
6,506,479,B,72.64617716534802,45.07575115245266,3.6323088582674012,0.7080482433779346,B,919.1080000000511,Correct
6,506,480,B,53.890060720945485,43.41066820228907,2.694503036047274,0.6818931815586767,B,1229.9884000003658,Correct
6,506,481,A,44.281361549425995,54.39334104603783,2.2140680774712997,0.8544086031721829,B,546.4422999993985,Incorrect
6,506,482,A,34.16132834080494,51.63906499013193,1.708066417040247,0.8111445360562217,A,484.400899999855,Correct
6,506,483,A,59.729676144586875,70.50759728025017,2.9864838072293436,1.107530748189508,A,570.4842000004646,Correct
6,506,484,A,39.28181337584182,49.4208172338981,1.964090668792091,0.7763003817820905,B,740.6974000004993,Incorrect
6,506,485,B,69.1736604327145,36.32657223285265,3.458683021635725,0.5706164622841443,B,571.6245000003255,Correct
6,506,486,B,61.774164529753506,39.22810327558224,3.0887082264876757,0.6161936053241543,B,817.9890000001251,Correct
6,506,487,B,33.366304791430686,21.971473622906835,1.6683152395715342,0.3451271006113301,B,1170.8371000004263,Correct
6,506,488,B,61.148687523706975,44.707237251233764,3.057434376185349,0.7022596405538596,B,2481.471000000056,Correct
6,506,489,A,17.040954922228813,40.306118480922905,0.8520477461114407,0.6331270285719359,A,727.2689000001265,Correct
6,506,490,A,61.770600766804705,82.64028214139408,3.0885300383402354,1.2981105163299573,A,608.3938000001581,Correct
6,506,491,B,69.1917957893574,58.630532765774944,3.45958978946787,0.920966255065071,B,2154.645999999957,Correct
6,506,492,B,80.03140530088459,59.72136141019931,4.001570265044229,0.9381009513433156,B,1620.0508000001719,Correct
6,506,493,B,58.19026913303114,36.57660763170266,2.909513456651557,0.5745440091449672,A,438.25829999968846,Incorrect
6,506,494,A,58.35959164548656,72.75935299333656,2.9179795822743277,1.1429012442190634,A,481.8605000000389,Correct
6,506,495,A,20.721639024453875,45.50814904106639,1.0360819512226938,0.7148403335294178,A,497.338199999831,Correct
6,506,496,A,67.8768152443678,82.34994200713594,3.39384076221839,1.2935498641658187,A,884.9293000002945,Correct
6,506,497,A,37.517672405706584,64.19274350523627,1.875883620285329,1.0083372570491207,A,472.8180000001885,Correct
6,506,498,B,62.98931115214385,33.4457557441182,3.1494655576071926,0.5253647026974018,B,1181.8028000006962,Correct
6,506,499,A,41.26822008406012,54.058136345319,2.063411004203006,0.8491432200460478,A,554.4975000002523,Correct
6,506,500,B,59.69570918124111,36.76928252223577,2.984785459062055,0.5775705392481174,B,542.9063999999926,Correct
6,506,501,A,40.98419395359631,51.70596659049613,2.0492096976798155,0.8121954239373098,A,529.9740999998903,Correct
6,506,502,A,22.908615151688977,40.948275636993316,1.145430757584449,0.6432140095917405,A,501.55629999972007,Correct
6,506,503,B,83.48100644337468,56.078293559152186,4.174050322168734,0.8808757753564216,B,585.7399999995323,Correct
6,506,504,B,75.33903100533523,64.71863554275689,3.7669515502667617,1.0165979498574014,B,703.8255999996181,Correct
6,506,505,B,68.19193763198045,35.93360050554923,3.4095968815990227,0.5644436768263196,B,1130.8935000006386,Correct
6,506,506,A,28.130372504805315,43.72946355900018,1.4065186252402657,0.6869008073118876,A,529.2351999996754,Correct
6,506,507,B,80.79643794400687,54.76083939223213,4.039821897200343,0.860181253695235,B,1084.3105000003561,Correct
6,506,508,B,53.235181803467746,34.756591773681095,2.661759090173387,0.5459552669000799,B,744.7779999993145,Correct
6,506,509,A,51.510718711048014,74.45588118744976,2.575535935552401,1.1695502467752332,A,509.1695000000982,Correct
6,506,510,A,45.32079740380388,65.77758620901459,2.266039870190194,1.0332319080255477,B,963.537699999506,Incorrect
6,506,511,A,65.24935813513757,78.25996492633062,3.2624679067568785,1.2293046544137758,A,2925.737300000037,Correct
6,506,512,A,46.362874727749876,70.57336325370986,2.3181437363874937,1.1085637976848937,A,614.6202999998422,Correct
6,506,513,B,41.80445782950217,26.27058362536902,2.090222891475108,0.4126573626148782,B,580.4020999994464,Correct
6,506,514,A,59.21044732375723,76.33196873917223,2.9605223661878615,1.1990197611251459,A,625.1562000006743,Correct
6,506,515,A,55.0949740163864,76.88063449514156,2.75474870081932,1.2076381826662936,A,551.745600000686,Correct
6,506,516,A,38.8426511017446,67.11151531704175,1.94213255508723,1.054185217456486,A,711.7872000007992,Correct
6,506,517,A,33.89243360341556,42.222920895109056,1.694621680170778,0.6632360904858878,A,657.728600000155,Correct
6,506,518,B,80.27755842233981,60.03526919519376,4.01387792111699,0.9430318032995318,B,427.0888000000923,Correct
6,506,519,B,72.37095325088978,44.082632462821934,3.618547662544489,0.6924483714805015,B,520.9310999998706,Correct
6,506,520,B,78.40578374025714,54.411216802375115,3.9202891870128567,0.8546893948961158,B,707.441700000345,Correct
6,506,521,B,86.32489818610085,68.25785862154038,4.316244909305043,1.07219193597601,B,432.67999999989115,Correct
6,506,522,A,64.88192242541277,87.25829875286445,3.2440961212706383,1.3706501516337115,A,480.15270000087185,Correct
6,506,523,B,48.806267140887144,38.69587950935825,2.4403133570443574,0.6078334539539785,B,623.0673999998544,Correct
6,506,524,B,74.94526930995205,46.791387849003065,3.7472634654976025,0.7349974015884938,A,514.9418000000878,Incorrect
6,506,525,A,38.35982922446318,64.69419533863905,1.917991461223159,1.0162140440288574,A,515.7822999999553,Correct
6,506,526,B,79.07908665800856,60.62709296331022,3.9539543329004285,0.9523281493102039,B,460.62930000061897,Correct
6,506,527,B,50.06655986984417,37.89913263666865,2.5033279934922086,0.595318183343917,B,463.66499999930966,Correct
6,506,528,A,55.0065482164008,72.68599388928006,2.75032741082004,1.141748922107174,A,531.8378000001758,Correct
6,506,529,B,67.32935399038959,38.063331799651046,3.3664676995194793,0.5978974177646725,B,480.53189999973256,Correct
6,506,530,A,42.7424674216381,63.857751230379506,2.137123371081905,1.0030752107006242,B,670.6039000000601,Incorrect
6,506,531,A,22.319331459457157,49.16851848807831,1.1159665729728578,0.7723372823502037,A,518.9272999996319,Correct
6,506,532,B,36.50111088143279,26.213890948383806,1.8250555440716394,0.4117668361272328,B,417.4326000002111,Correct
6,506,533,A,19.789100214010304,42.84428274163849,0.9894550107005152,0.6729964195472772,A,616.5893999996115,Correct
6,506,534,A,55.46406978606461,72.86578989567423,2.7732034893032305,1.1445731511713375,A,915.6425000001036,Correct
6,506,535,B,52.90153596109266,45.74862407847857,2.6450767980546335,0.718617706583947,B,1053.0407000005653,Correct
6,506,536,A,58.224625373656814,72.51109627388107,2.9112312686828408,1.139001636788835,A,468.53009999995265,Correct
6,506,537,A,68.13943702731066,88.49141689365732,3.4069718513655336,1.3900199260943276,A,532.5313000003007,Correct
6,506,538,A,53.846408701683984,74.79650970130888,2.692320435084199,1.1749008269589483,A,478.4912000004624,Correct
6,506,539,B,61.615442535184165,41.61766769866111,3.080772126759208,0.6537287955082748,B,557.9623000003266,Correct
6,506,540,A,33.84920284195918,46.27533244313754,1.6924601420979593,0.7268912222289314,A,540.5925000004572,Correct
6,506,541,A,51.458955975192204,81.98260654104823,2.57294779875961,1.287779772157498,A,653.7182000001849,Correct
6,506,542,A,21.957726496050125,45.24742639931865,1.0978863248025064,0.7107449118497217,A,466.66389999973035,Correct
6,506,543,B,67.8484287012865,47.47999988560508,3.3924214350643247,0.7458140941653058,B,458.71139999962907,Correct
6,506,544,B,42.059195557782886,26.078490917689464,2.1029597778891445,0.40963997741860686,B,557.7610999998797,Correct
6,506,545,A,59.21761559712275,80.58118815713166,2.960880779856138,1.2657663436599083,A,622.048299999733,Correct
6,506,546,A,34.30381208162112,66.64796415230508,1.7151906040810558,1.0469037727879875,A,579.0390000001935,Correct
6,506,547,A,38.57462435698877,46.742975969509715,1.9287312178494387,0.7342369495636798,A,688.0211999996391,Correct
6,506,548,A,41.563846139611854,61.2493149812039,2.0781923069805925,0.9621019899117872,A,806.3800000008996,Correct
6,506,549,B,73.31451902051528,59.986825193394836,3.6657259510257636,0.9422708466987217,B,632.3301000002175,Correct
