subject,day,trial,cat,x,y,xt,yt,resp,rt,fb
15,4,0,A,53.757595755832305,62.7173299669875,2.687879787791615,0.9851615153852746,A,2255.273540999042,Correct
15,4,1,B,35.45544074041693,19.200471318317973,1.7727720370208464,0.30160029819544637,B,755.2425000176299,Correct
15,4,2,A,30.94702490031934,47.53514018008171,1.5473512450159672,0.7466802358855286,A,916.4177089987788,Correct
15,4,3,B,66.60939822533766,35.37311430126401,3.3304699112668827,0.5556395801172153,B,809.4522909959778,Correct
15,4,4,A,33.903828722378925,52.6168565356528,1.6951914361189464,0.8265036497369747,A,426.6298329748679,Correct
15,4,5,B,54.64996315834484,46.62543251608098,2.732498157917242,0.7323905813148333,A,1379.412084002979,Incorrect
15,4,6,A,64.24826424055192,87.32876097849172,3.212413212027596,1.3717569696856429,A,1285.9451249823906,Correct
15,4,7,A,49.423914129275346,72.33055637496868,2.4711957064637673,1.1361657226883197,A,900.0395000039134,Correct
15,4,8,B,41.50166419628423,17.469792852232818,2.0750832098142116,0.2744148644215505,B,931.7192079906818,Correct
15,4,9,B,34.25785372093611,19.48626353683894,1.7128926860468057,0.30608951186623934,B,914.1383749956731,Correct
15,4,10,A,32.62106813076448,50.197389612385685,1.631053406538224,0.7884987521782773,A,718.5485000081826,Correct
15,4,11,A,58.85635015852551,80.23438719397467,2.942817507926275,1.260318806869349,A,947.4454580049496,Correct
15,4,12,B,77.12446716708928,60.34943055335099,3.856223358354464,0.9479666383736743,B,1467.0332499954384,Correct
15,4,13,B,57.17569924757011,27.291755032795816,2.8587849623785053,0.428697885573018,B,788.5336250183173,Correct
15,4,14,A,59.91602272040298,83.4963317206402,2.9958011360201486,1.3115573116762984,A,827.5055419944692,Correct
15,4,15,A,38.745069702045534,64.683534620778,1.9372534851022767,1.016046585864286,A,1153.5615830216557,Correct
15,4,16,B,36.873435269919256,13.70048791617306,1.8436717634959627,0.2152067609402251,B,1268.454125005519,Correct
15,4,17,A,19.766069699753487,41.27416719108611,0.9883034849876744,0.648333102152765,A,827.6339170115534,Correct
15,4,18,B,80.46855516833283,58.087161675259296,4.023427758416641,0.9124310019343859,B,3008.439917000942,Correct
15,4,19,A,13.291357050741045,39.71622198616874,0.6645678525370522,0.6238609561004456,A,1421.7932079918683,Correct
15,4,20,B,60.37392892039801,39.0524195111281,3.0186964460199004,0.6134339712053336,B,886.9694590102881,Correct
15,4,21,A,15.542092537758695,42.62810641399194,0.7771046268879347,0.6696007297332051,A,490.4886659933254,Correct
15,4,22,A,21.45938599353068,50.238273412667816,1.0729692996765339,0.7891409534113631,A,1066.0616249952,Correct
15,4,23,B,79.72489922156814,61.454738053725656,3.9862449610784068,0.9653287679893482,B,906.2800419924315,Correct
15,4,24,A,31.51778435908558,46.01323516842694,1.575889217954279,0.7227742078651479,A,1181.6503749869298,Correct
15,4,25,A,45.10907287675528,52.669154188372545,2.2554536438377637,0.8273251393448964,B,1154.1140420013107,Incorrect
15,4,26,B,83.81602293543656,60.680015521773576,4.190801146771828,0.9531594549145925,B,3137.5863749999553,Correct
15,4,27,A,34.78816684730375,49.79040633941478,1.7394083423651876,0.7821058738757807,A,1339.2948750115465,Correct
15,4,28,A,19.42091775452184,32.327282700840044,0.971045887726092,0.5077957692173973,A,1129.8151660012081,Correct
15,4,29,A,36.953023849322456,66.90615103146092,1.8476511924661227,1.050959362802034,A,2139.0031250193715,Correct
15,4,30,A,58.3813997178072,68.58205816190492,2.91906998589036,1.077284450447542,A,5681.580625008792,Correct
15,4,31,B,53.19425607329538,37.92762173853045,2.659712803664769,0.595765689109499,B,1451.0032499965746,Correct
15,4,32,A,49.874644939764615,78.63380343158238,2.493732246988231,1.2351768959224154,A,5369.816874997923,Correct
15,4,33,B,74.89889767344377,52.642247014821166,3.7449448836721886,0.826902482451107,B,2732.6820829766802,Correct
15,4,34,A,38.14698079827937,55.911706449993645,1.9073490399139685,0.8782590311648455,A,939.8138329852372,Correct
15,4,35,B,47.94848667108545,20.354382916878883,2.397424333554272,0.3197258992001014,B,755.8070000086445,Correct
15,4,36,A,32.141375694514295,42.08353345078288,1.6070687847257148,0.6610465976303991,A,762.6738749968354,Correct
15,4,37,B,77.48669557269876,57.33986481114956,3.874334778634938,0.9006924902426966,B,1454.6256250177976,Correct
15,4,38,A,20.2645338619106,42.31875017266539,1.0132266930955298,0.6647413732577369,A,1456.5730830072425,Correct
15,4,39,B,62.32993124318174,38.59226586042721,3.116496562159087,0.6062058945625115,B,916.8610000051558,Correct
15,4,40,B,54.07288532352045,35.67101894208537,2.7036442661760223,0.5603190552725886,B,3518.87075000559,Correct
15,4,41,B,46.58266904363832,23.393144294093172,2.3291334521819156,0.36745865129344546,B,861.1092919891234,Correct
15,4,42,B,47.39151791366446,26.499322503028505,2.369575895683223,0.4162503845031052,B,681.4277920057066,Correct
15,4,43,B,63.40424024829342,46.69314839816148,3.1702120124146713,0.7334542599032107,B,736.4886669965927,Correct
15,4,44,A,63.067037157332535,78.16459173017994,3.153351857866627,1.2278065357518941,A,664.9731249781325,Correct
15,4,45,A,47.515822348138514,65.11958195967709,2.3757911174069255,1.0228960014467998,A,879.5711659768131,Correct
15,4,46,B,65.6152149442266,55.716115974060244,3.2807607472113296,0.8751867031533231,B,2561.4044159883633,Correct
15,4,47,B,52.99118955558353,25.328629426945618,2.6495594777791767,0.397861180665953,B,870.2318749856204,Correct
15,4,48,A,16.997754220763543,47.60146823533516,0.8498877110381771,0.7477221145410842,A,618.1349580001552,Correct
15,4,49,A,11.887453902160924,32.75486442224498,0.5943726951080462,0.5145122071912726,A,813.9308340032585,Correct
15,4,50,A,39.03361792184239,65.43893093063606,1.9516808960921197,1.0279123233522804,A,643.3879579999484,Correct
15,4,51,A,22.444933245716847,44.593425451018895,1.1222466622858422,0.7004718889766253,A,586.6328749980312,Correct
15,4,52,B,41.85090229130928,18.03339685402812,2.092545114565464,0.28326793537942013,B,770.5488330102526,Correct
15,4,53,A,26.59158817699545,52.839372693232995,1.3295794088497725,0.8299989253667694,A,1016.3944590021856,Correct
15,4,54,A,15.272235365800363,41.537772783347606,0.7636117682900181,0.6524738091132345,A,2746.303624997381,Correct
15,4,55,A,59.1289027151082,74.7477815350336,2.95644513575541,1.1741354067129817,B,1577.902000019094,Incorrect
15,4,56,B,77.00744946897646,45.59486800087537,3.850372473448823,0.7162025117647319,B,549.3640839995351,Correct
15,4,57,A,47.63887730094809,66.10365858723483,2.3819438650474045,1.038353840965324,A,730.40816700086,Correct
15,4,58,B,47.52986867659735,32.876607028342235,2.3764934338298676,0.5164245355759927,A,5113.411958998768,Incorrect
15,4,59,B,54.912820480360224,26.577635077250058,2.745641024018011,0.41748051554239596,A,1003.3278750197496,Incorrect
15,4,60,B,72.11004948662745,45.615784946889704,3.605502474331372,0.7165310743844029,B,728.026625001803,Correct
15,4,61,A,54.12718107997351,62.36638068335765,2.7063590539986757,0.9796488169291037,A,1065.507332998095,Correct
15,4,62,A,51.7337917796921,69.7312170070125,2.5866895889846044,1.0953353953755307,A,1013.0071669991594,Correct
15,4,63,A,51.39068925384312,82.15114047216024,2.5695344626921557,1.2904270969568086,A,982.6723750156816,Correct
15,4,64,A,31.293804763985058,53.79232225662005,1.564690238199253,0.8449678221046613,A,1304.3562500097323,Correct
15,4,65,B,75.02970889950615,46.636524734413904,3.7514854449753074,0.7325648174729671,B,651.2906670104712,Correct
15,4,66,B,31.323118752718788,12.929357387567997,1.5661559376359395,0.2030938709221027,A,698.2183329819236,Incorrect
15,4,67,A,10.825445550675774,30.77804740394421,0.5412722775337887,0.48346043808034767,A,630.4980000131764,Correct
15,4,68,A,25.102236776309915,40.850443268899426,1.2551118388154958,0.6416772623473053,A,871.9104999909177,Correct
15,4,69,B,41.40566513670846,13.327874276459312,2.0702832568354226,0.20935375957446475,B,820.6065830017906,Correct
15,4,70,B,65.71205236695063,49.162419294641985,3.2856026183475313,0.7722414764437419,B,970.4915420152247,Correct
15,4,71,B,54.58018681825761,22.618635617392467,2.72900934091288,0.35529269744912306,B,576.8068749748636,Correct
15,4,72,B,61.6722893453111,45.03604123965323,3.0836144672655554,0.7074244815263077,B,816.4551669906359,Correct
15,4,73,B,60.429693335303064,29.26375182489369,3.0214846667651534,0.45967393874780454,B,586.9700000039302,Correct
15,4,74,A,68.37400848282196,89.49152515622838,3.4187004241410985,1.4057295899467661,A,1065.9018330043182,Correct
15,4,75,A,15.376061685344848,44.540970090440254,0.7688030842672424,0.699647922099449,A,841.0100830078591,Correct
15,4,76,B,43.89787248156368,15.491208380662776,2.1948936240781842,0.24333533221959405,B,565.7844170054886,Correct
15,4,77,B,38.26641003356502,13.867621251030194,1.913320501678251,0.2178320852250108,B,592.7977090177592,Correct
15,4,78,B,64.75401381710302,39.81309268600761,3.2377006908551507,0.6253825974952552,B,583.8917499931995,Correct
15,4,79,B,52.24782525857223,24.503830094266785,2.6123912629286115,0.3849052630448051,B,641.4697080035694,Correct
15,4,80,B,62.56404570398242,48.793112846329095,3.128202285199121,0.7664404243190261,B,1275.5182500113733,Correct
15,4,81,B,48.96557496100744,23.88937516584416,2.448278748050372,0.3752534275993323,B,1156.4558339887299,Correct
15,4,82,B,39.966759821576886,26.47978681305782,1.9983379910788444,0.4159435186026317,A,4511.161750007886,Incorrect
15,4,83,A,20.754707027149518,46.19866378027639,1.0377353513574759,0.7256869136889059,A,3010.1572920102626,Correct
15,4,84,A,35.43535730043236,67.84580349837826,1.771767865021618,1.065719389237009,A,1078.2176250068005,Correct
15,4,85,A,61.62464059861158,75.8510917097792,3.081232029930579,1.19146616241104,B,970.1037089980673,Incorrect
15,4,86,B,41.65091111218761,32.71704797271754,2.0825455556093804,0.5139181877911712,A,2303.0606660177,Incorrect
15,4,87,A,33.70755577840647,66.90163285831368,1.6853777889203234,1.0508883915041989,A,739.1510840097908,Correct
15,4,88,A,68.40244521255775,82.07894960855619,3.4201222606278874,1.2892931255230344,B,730.2905829856172,Incorrect
15,4,89,A,24.306016591327314,43.49418678555632,1.2153008295663656,0.6832050883968301,A,728.4210000070743,Correct
15,4,90,A,55.5805741129811,81.69011190358738,2.7790287056490546,1.2831852771361911,A,896.7481669969857,Correct
15,4,91,B,54.254929235443676,27.67483449967552,2.7127464617721837,0.4347152837674699,B,1042.4833340221085,Correct
15,4,92,B,71.6097333721811,57.14508073982192,3.580486668609055,0.8976328292051007,B,600.4784170072526,Correct
15,4,93,A,61.462674526432394,87.75892637167121,3.07313372632162,1.378513991880849,A,761.8393329903483,Correct
15,4,94,B,58.04793471734531,32.81444109367736,2.9023967358672653,0.5154480353577591,B,537.899417016888,Correct
15,4,95,A,66.61715686971483,85.72110242600883,3.3308578434857417,1.3465039281958375,B,1275.5894169968087,Incorrect
15,4,96,B,52.76648215593515,26.466861928432813,2.638324107796757,0.41574049498969956,B,650.7385000004433,Correct
15,4,97,B,62.89292188087007,36.38809573493984,3.1446460940435035,0.5715828711950454,B,1092.8952500107698,Correct
15,4,98,A,42.60736466874067,65.17345357870944,2.1303682334370335,1.0237422148597448,A,1641.8989170051645,Correct
15,4,99,A,17.887912702382128,40.480430650677846,0.8943956351191064,0.6358651177316031,A,1399.5079580054153,Correct
15,4,100,A,49.834517855935935,64.91557195585108,2.4917258927967967,1.0196914198004068,A,901.9839579996187,Correct
15,4,101,B,33.85403471522204,12.600274610220112,1.692701735761102,0.19792465074340748,B,1225.6597910018172,Correct
15,4,102,B,84.06780765967616,54.0942490810264,4.203390382983809,0.8497104775720447,B,782.7180419990327,Correct
15,4,103,A,31.789443786707686,57.212411053877325,1.5894721893353845,0.8986904513051025,A,683.1857500073966,Correct
15,4,104,B,71.32170089820647,40.03985522916142,3.5660850449103236,0.628944575193662,B,606.9344999850728,Correct
15,4,105,A,21.404733475986475,53.3186043262366,1.0702366737993239,0.8375266782548293,A,661.1029579944443,Correct
15,4,106,A,26.866517212321398,53.77953384910052,1.34332586061607,0.844766942269089,A,585.3172919887584,Correct
15,4,107,B,88.09517731513247,61.711116233206916,4.404758865756623,0.9693559470153434,B,662.2455420147162,Correct
15,4,108,B,74.87783295080982,46.58484034547781,3.743891647540491,0.7317529609900324,B,777.0205000124406,Correct
15,4,109,B,41.533437298714986,27.906258800886768,2.0766718649357494,0.43835048819020683,A,840.3825419954956,Incorrect
15,4,110,B,61.55350349742447,51.18317137906877,3.0776751748712234,0.803983375959549,B,1842.9657079977915,Correct
15,4,111,B,69.62674647178407,48.89810068314429,3.481337323589204,0.7680895694033009,B,1214.8910830146633,Correct
15,4,112,B,79.79073076050436,48.76688423720787,3.989536538025218,0.7660284262903806,B,899.7238330193795,Correct
15,4,113,B,56.81203593646326,25.837610222722397,2.840601796823163,0.40585623231010615,B,510.61362499604,Correct
15,4,114,A,61.820040484892104,80.49423450676194,3.091002024244605,1.2644004789138867,A,1073.8521669991314,Correct
15,4,115,A,62.058064391733296,87.06581069947164,3.102903219586665,1.3676265563614984,A,949.7024580196012,Correct
15,4,116,A,25.96218500777537,56.610477366074115,1.2981092503887686,0.8892352990473485,A,873.5287500021514,Correct
15,4,117,B,36.076817617391924,18.157969699598112,1.8038408808695963,0.28522472106181745,B,953.4051250084303,Correct
15,4,118,A,64.43212708611725,83.17361723859136,3.2216063543058624,1.30648812444624,A,642.0552909839898,Correct
15,4,119,B,34.20961589865176,19.942801694595875,1.710480794932588,0.3132607964787024,B,843.7586670042947,Correct
15,4,120,B,58.9045040795245,40.304445682084115,2.945225203976225,0.6331007523092215,B,1312.8199580241926,Correct
15,4,121,B,43.713512042393134,33.000848109293734,2.1856756021196566,0.5183761099119489,B,742.7368749922607,Correct
15,4,122,B,42.994748295028,35.3607960097014,2.1497374147514,0.5554460848458261,B,684.3632090021856,Correct
15,4,123,B,39.26042808722758,13.457836642074081,1.963021404361379,0.21139520363975733,B,624.9202909821179,Correct
15,4,124,B,70.824442484759,55.250043004971396,3.54122212423795,0.8678656460746914,B,1012.4445419933181,Correct
15,4,125,A,56.74098361023126,65.63882946630162,2.837049180511563,1.031052322207832,B,995.4987079836428,Incorrect
15,4,126,A,38.087022822812536,70.30510102040097,1.9043511411406269,1.1043499443779,A,687.8877919807564,Correct
15,4,127,A,18.40925115434632,41.09013049072985,0.9204625577173161,0.6454422604236142,A,777.357375016436,Correct
15,4,128,A,19.159964658439662,42.15208853544535,0.9579982329219832,0.6621234583821082,A,639.0136660193093,Correct
15,4,129,A,40.53707232661989,64.863712763788,2.0268536163309947,1.0188768175163745,A,938.4585829975549,Correct
15,4,130,B,65.85800833273484,40.24435745047774,3.292900416636742,0.6321568885743127,B,643.1787090259604,Correct
15,4,131,B,63.70913911350144,33.67135968090499,3.1854569556750723,0.5289084810495533,B,699.9995000078343,Correct
15,4,132,B,44.44348006305296,29.318062129252535,2.222174003152648,0.4605270430137445,B,668.325124977855,Correct
15,4,133,A,50.0251645173455,57.50011556555909,2.501258225867275,0.9032097032066227,A,1126.4213749964256,Correct
15,4,134,B,44.979347756901234,26.691798918722274,2.248967387845062,0.41927379697076944,B,449.07520900596865,Correct
15,4,135,A,35.44593317595541,60.78085450454646,1.7722966587977707,0.9547434299519664,A,705.7257499836851,Correct
15,4,136,A,46.22146735085844,59.26264216247147,2.311073367542922,0.9308954062497056,A,887.4215840187389,Correct
15,4,137,B,64.76304884805309,44.20232797934254,3.2381524424026544,0.6943285442573455,B,692.7680000080727,Correct
15,4,138,A,21.498947533176914,45.95939455091023,1.0749473766588458,0.7219284814228716,A,815.3359169955365,Correct
15,4,139,A,51.07040142235623,59.017026178012145,2.553520071117811,0.9270372793877972,B,759.7551250073593,Incorrect
15,4,140,B,64.7117231388853,38.79515434357004,3.235586156944265,0.609392859403209,B,610.7316660054494,Correct
15,4,141,A,32.004684541500175,63.53945050173813,1.600234227075009,0.9980753545469639,A,687.8645419783425,Correct
15,4,142,B,46.52884460920945,28.602411149885324,2.3264422304604726,0.4492856237171726,B,740.5654999893159,Correct
15,4,143,A,21.360248170369527,52.066229925298536,1.0680124085184763,0.8178544271671746,A,631.9519160024356,Correct
15,4,144,A,44.121441806870294,54.07162664317901,2.2060720903435147,0.8493551251493066,A,623.4284169913735,Correct
15,4,145,A,45.08058617202847,51.729054967237694,2.254029308601423,0.8125580953110827,A,805.6409579876345,Correct
15,4,146,B,40.61519567336012,16.46728623599921,2.030759783668006,0.2586675273178772,B,833.4063749935012,Correct
15,4,147,B,52.203852190953626,27.5063454854773,2.6101926095476813,0.4320686645213913,B,588.7155000236817,Correct
15,4,148,B,63.332231351689174,48.59185328194717,3.166611567584459,0.7632790464743915,B,1071.8921669758856,Correct
15,4,149,A,64.74929753019691,78.98691964855247,3.2374648765098457,1.2407236324878985,A,682.8307079849765,Correct
15,4,150,B,49.38362094959868,31.211493060889026,2.469181047479934,0.4902689865382889,B,599.155542004155,Correct
15,4,151,B,53.471951421341345,45.479006772229695,2.6735975710670674,0.7143825678409864,B,845.095875003608,Correct
15,4,152,A,41.09607264511874,49.711080937024015,2.054803632255937,0.7808598333688112,B,1517.469083017204,Incorrect
15,4,153,B,54.4342793225378,30.296440500813294,2.72171396612689,0.4758953745363766,B,568.0049170041457,Correct
15,4,154,B,76.20141439561837,60.08032509700676,3.8100707197809185,0.9437395397502145,B,685.2449580037501,Correct
15,4,155,A,40.40171428366105,47.742547619169926,2.0200857141830526,0.7499381843202255,A,1108.7824999995064,Correct
15,4,156,B,50.84403964333441,23.432583912931385,2.5422019821667208,0.3680781673774581,B,834.3361670267768,Correct
15,4,157,B,51.849892284643005,24.47603072148735,2.5924946142321503,0.3844685915183137,B,1413.6365840095095,Correct
15,4,158,A,52.0630101255027,73.56212716152626,2.6031505062751354,1.1555111913654454,A,608.0691670067608,Correct
15,4,159,A,16.633407285994082,31.658575503412102,0.8316703642997041,0.4972917411231862,A,959.7569580073468,Correct
15,4,160,A,32.33476659229389,51.953175522502086,1.6167383296146942,0.816078572760768,A,607.4269590026233,Correct
15,4,161,A,31.029905507065664,53.295389031332085,1.5514952753532834,0.8371620132552147,A,630.1080830162391,Correct
15,4,162,A,41.12449867323712,69.28341413129658,2.056224933661856,1.088301324252503,A,592.2071249806322,Correct
15,4,163,A,67.32889470068913,88.4598177998658,3.366444735034457,1.3895235686897502,A,1173.3628750080243,Correct
15,4,164,A,19.400672885339517,36.35816004985233,0.9700336442669759,0.5711126425532899,A,711.8432499992196,Correct
15,4,165,B,75.32100136596948,53.18941777003157,3.7660500682984743,0.8354974205752479,B,609.921542025404,Correct
15,4,166,B,74.40134376098683,52.22143271059892,3.7200671880493417,0.8202923468177564,B,1641.5392499766313,Correct
15,4,167,A,58.27306125782163,84.8623842365642,2.9136530628910817,1.3330152144185217,A,693.1341669987887,Correct
15,4,168,B,41.75504927848151,28.85555098254025,2.0877524639240757,0.45326193491017097,B,556.5991250041407,Correct
15,4,169,B,62.77438979519822,53.37246590043819,3.138719489759911,0.838372733883942,B,785.5288340069819,Correct
15,4,170,B,74.45640736649032,57.39443282685558,3.7228203683245162,0.9015496426290118,B,1393.879959010519,Correct
15,4,171,A,14.188421430970923,41.809973950525126,0.7094210715485461,0.6567495350487518,A,707.9452910111286,Correct
15,4,172,A,32.579251702916714,65.61679952750714,1.6289625851458356,1.0307062767384532,A,715.1341669959947,Correct
15,4,173,B,52.07877692016096,36.56232562549609,2.6039388460080484,0.5743196679160818,B,641.3324589957483,Correct
15,4,174,B,52.78807943800463,39.597672516511956,2.639403971900231,0.6219987853856421,B,850.2534159924835,Correct
15,4,175,A,31.202638233804414,39.75110081094637,1.5601319116902206,0.6244088313988819,A,1095.411582995439,Correct
15,4,176,B,44.333696542039505,21.24550898504907,2.2166848271019752,0.33372367474603054,B,782.2389159991872,Correct
15,4,177,B,51.05805422279958,21.64962662225039,2.552902711139979,0.3400715397471191,A,477.3542089969851,Incorrect
15,4,178,A,41.03071589596883,55.1541498087943,2.0515357947984416,0.8663593592714952,A,655.908916000044,Correct
15,4,179,B,48.16457324158264,30.312727099318042,2.4082286620791318,0.4761512038274491,B,861.2495420093182,Correct
15,4,180,A,52.72104435621983,78.14960904518205,2.6360522178109913,1.2275711882862919,A,2159.6401249989867,Correct
15,4,181,B,72.43078461735622,43.279101374350006,3.621539230867811,0.6798265346581295,B,577.0734999969136,Correct
15,4,182,A,40.17472585334213,66.8425476780169,2.0087362926671064,1.049960283662417,A,568.1642499985173,Correct
15,4,183,A,30.857083661937146,63.844170021919126,1.5428541830968572,1.0028618775769942,A,546.5633749845438,Correct
15,4,184,B,62.74092775580201,30.411316388060246,3.1370463877901007,0.4776998407536247,B,1132.3583330085967,Correct
15,4,185,A,34.03344513732509,44.48771294957781,1.7016722568662543,0.6988113608870259,A,715.412749996176,Correct
15,4,186,A,49.29329082009183,57.87582485992258,2.4646645410045918,0.9091113310019115,A,639.3167499918491,Correct
15,4,187,B,60.77797610303279,32.7167238462459,3.0388988051516397,0.5139130964244606,B,1438.0468750023283,Correct
15,4,188,B,55.85677774996668,45.10576303164922,2.792838887498334,0.7085196688739562,B,1601.8854579888284,Correct
15,4,189,B,77.04666895727186,46.78580534705266,3.8523334478635936,0.7349097118529134,B,459.48679200955667,Correct
15,4,190,A,62.1144573199351,88.59125403381337,3.1057228659967553,1.391588164224676,A,739.959957980318,Correct
15,4,191,A,69.19739288952417,84.88398639320351,3.4598696444762083,1.3333545403015206,A,589.878041006159,Correct
15,4,192,A,49.330763483729406,61.3211935321621,2.4665381741864705,0.9632310555499919,A,1542.2063329897355,Correct
15,4,193,A,19.13397622271273,35.20651842134842,0.9566988111356365,0.5530226981549097,A,628.1993330048863,Correct
15,4,194,A,65.03783422937103,84.67421767579037,3.2518917114685513,1.3300595009936302,A,666.0807089938316,Correct
15,4,195,A,66.40817681529406,81.09248667802137,3.3204088407647028,1.2737978020450005,A,382.32754199998453,Correct
15,4,196,B,86.29166356848572,62.29011944296006,4.314583178424286,0.9784509081661704,A,612.6352499995846,Incorrect
15,4,197,B,34.74456032565301,14.39047142843798,1.7372280162826508,0.2260449966063729,A,1080.9033749974333,Incorrect
15,4,198,B,48.10334267465113,21.397296418891457,2.405167133732556,0.33610794618136297,A,2258.7879589991644,Incorrect
15,4,199,B,34.5074585170011,18.654717600327377,1.725372925850055,0.2930276188399035,A,722.2251660132315,Incorrect
15,4,200,B,77.64095913105677,56.57396228947081,3.8820479565528387,0.8886617215653374,B,923.4478329890408,Correct
15,4,201,A,38.50666095200659,52.7187949171969,1.9253330476003296,0.8281048940898634,A,1407.582874991931,Correct
15,4,202,B,57.03727180892103,40.30693802020721,2.8518635904460514,0.6331399018649105,A,1189.2899580125231,Incorrect
15,4,203,A,31.630802466036606,41.392277133706635,1.5815401233018305,0.6501883687930277,A,763.1552919920068,Correct
15,4,204,A,34.035497414224835,61.442765979586916,1.7017748707112417,0.9651407110885355,A,715.0297499902081,Correct
15,4,205,B,72.43293084399467,39.95426626883968,3.6216465421997333,0.6276001469487861,B,903.010166977765,Correct
15,4,206,B,42.88606229836927,15.211549511452525,2.1443031149184635,0.23894246097448327,B,1797.9549590090755,Correct
15,4,207,A,39.730212035809195,61.80817347445705,1.9865106017904597,0.970880518595789,A,1037.772457988467,Correct
15,4,208,B,80.5950669450699,56.99773620351849,4.029753347253495,0.8953183466411134,B,681.6341670055408,Correct
15,4,209,A,61.03408498531637,83.82579103410573,3.0517042492658186,1.3167324464704986,A,755.0503750098869,Correct
15,4,210,B,66.40676685913469,36.45147392622243,3.3203383429567346,0.5725784134957013,B,1203.964124986669,Correct
15,4,211,A,10.48594287170302,31.710117005728378,0.524297143585151,0.49810135314834525,A,751.0405829816591,Correct
15,4,212,A,62.9902667303678,83.41086084303357,3.14951333651839,1.310214738270374,A,1098.55900000548,Correct
15,4,213,A,53.61201475548427,81.4077711277964,2.6806007377742134,1.278750278601022,A,667.4563749984372,Correct
15,4,214,B,54.51553888772051,28.487797993215096,2.725776944386025,0.44748528446217295,B,718.0356249737088,Correct
15,4,215,A,48.08267140211981,60.674862700109735,2.4041335701059903,0.9530785145811704,A,1720.1337909791619,Correct
15,4,216,A,58.950583513061,73.94382398771118,2.9475291756530497,1.1615068710906506,A,689.8419169883709,Correct
15,4,217,B,86.21945435306156,68.67684425196683,4.310972717653078,1.078773346868547,B,3453.255000000354,Correct
15,4,218,A,32.426815317547444,43.56349539686126,1.6213407658773722,0.6842937855173605,A,686.7620839911979,Correct
15,4,219,A,57.675376817438575,82.96556082009762,2.883768840871929,1.3032199818668795,A,581.2518330058083,Correct
15,4,220,B,50.925729208646786,37.93363823117854,2.546286460432339,0.595860195955017,B,965.025167010026,Correct
15,4,221,B,74.48898473889756,51.13657327349792,3.724449236944878,0.8032514146288863,B,960.4242920177057,Correct
15,4,222,B,79.05411086923937,55.40922498903217,3.9527055434619682,0.8703660708332372,B,717.5806250015739,Correct
15,4,223,A,11.94524294023828,33.44036231751579,0.597262147011914,0.5252799829504428,A,651.5252499957569,Correct
15,4,224,B,84.87096008365171,66.66234231155477,4.2435480041825855,1.0471296243853425,B,900.2034579752944,Correct
15,4,225,B,65.36600683594037,56.37254215373686,3.2683003417970182,0.8854978214718032,B,618.4817909961566,Correct
15,4,226,B,88.97793253272259,65.96637068337687,4.44889662663613,1.0361973276143892,B,616.2539999932051,Correct
15,4,227,A,64.61151793356143,89.29788156572226,3.2305758966780718,1.4026878435400225,A,866.5437080198899,Correct
15,4,228,B,77.14389372412734,54.90416324710402,3.857194686206367,0.8624325795429836,B,1492.0926249760669,Correct
15,4,229,A,64.68682345378419,82.47696496870012,3.2343411726892093,1.2955451361802548,A,3012.1782500064,Correct
15,4,230,A,34.31338451671196,52.368755219830184,1.715669225835598,0.8226064833813032,A,697.6061669993214,Correct
15,4,231,A,46.09336249301732,74.9811328662677,2.3046681246508656,1.177800880852534,A,661.982874997193,Correct
15,4,232,B,32.02291286985105,10.318050093346653,1.6011456434925524,0.16207555186314662,B,681.5519160008989,Correct
15,4,233,A,29.693838227251437,62.82775429275156,1.4846919113625718,0.9868960566382644,A,741.3893749762792,Correct
15,4,234,B,48.985918451676966,28.928555136877698,2.4492959225838487,0.4544086814849113,B,1451.1323749902658,Correct
15,4,235,A,62.88123818551452,85.06144398699102,3.144061909275726,1.3361420376663533,B,1322.1077079942916,Incorrect
15,4,236,B,73.90497583590141,42.30955389307869,3.6952487917950703,0.6645969184357873,B,658.2294589898083,Correct
15,4,237,B,52.381058657634746,39.8171088232814,2.619052932881737,0.625445682832031,B,940.3339169803075,Correct
15,4,238,A,43.21166125226904,67.47999185855143,2.160583062613452,1.059973233435621,A,911.7162909824401,Correct
15,4,239,B,57.85407023992778,34.38765381087917,2.892703511996389,0.5401600029322353,B,1298.39483302203,Correct
15,4,240,B,31.505124334539655,14.611170225730106,1.5752562167269826,0.22951172520751809,B,1112.4766249849927,Correct
15,4,241,B,86.55253981177349,69.79293418633165,4.327626990588675,1.0963048465612772,B,1427.645458985353,Correct
15,4,242,B,35.50281506925416,20.09514808429638,1.775140753462708,0.31565384797212254,B,1030.2546250168234,Correct
15,4,243,B,46.96405770135048,19.565445304538024,2.348202885067524,0.3073332961647478,B,675.1174160162918,Correct
15,4,244,B,80.60060007817,54.00458842258659,4.0300300039085,0.8483020912426922,B,841.5648340014741,Correct
15,4,245,A,19.660488310228356,44.1489931743457,0.9830244155114178,0.6934907630995519,A,636.9769580196589,Correct
15,4,246,A,61.95429151377347,80.57757853867703,3.0977145756886735,1.2657096439058118,A,996.4319579885341,Correct
15,4,247,A,59.47142478547765,71.87816684318055,2.9735712392738827,1.129059604540187,A,779.0026250004303,Correct
15,4,248,B,54.42681735894625,33.817630436889715,2.721340867947313,0.5312060967117365,B,461.9132920051925,Correct
15,4,249,B,63.66417915677156,42.49570586457613,3.183208957838578,0.6675209867663252,B,643.6189999803901,Correct
15,4,250,A,57.708603415804234,80.10497263061066,2.8854301707902117,1.2582859676616895,A,937.0171249902342,Correct
15,4,251,A,13.57588629384016,42.35940737005108,0.6787943146920079,0.6653800150208491,A,531.2109160004184,Correct
15,4,252,A,19.14123317236904,46.50440112079883,0.957061658618452,0.7304894246034729,A,2179.480082995724,Correct
15,4,253,B,78.20673556021849,64.08255068954807,3.910336778010924,1.0066063523478987,B,600.4726669925731,Correct
15,4,254,A,59.63256306153939,86.31362571736392,2.98162815307697,1.3558112622918477,A,1753.4620829974301,Correct
15,4,255,A,23.06127882861103,43.95324184126259,1.1530639414305515,0.6904159083498302,A,655.1229589967988,Correct
15,4,256,B,60.80562078282908,43.69699877624294,3.040281039141454,0.686390851696835,B,926.7898749967571,Correct
15,4,257,B,43.99168442580812,29.581413840321893,2.1995842212904058,0.46466376201777343,B,756.7369170137681,Correct
15,4,258,A,12.668624642565888,38.12083184942284,0.6334312321282944,0.5988006264343931,A,489.50291698565707,Correct
15,4,259,A,23.781944966716097,52.60575509990031,1.1890972483358049,0.8263292687919529,A,597.560499998508,Correct
15,4,260,A,26.885258459528355,58.4026187561674,1.3442629229764176,0.9173861901739048,A,480.13595800148323,Correct
15,4,261,A,19.1861132844225,32.0218481564577,0.9593056642211251,0.5029980146134769,A,547.19454201404,Correct
15,4,262,B,81.12750628660295,61.480260231870595,4.056375314330148,0.965729669426167,B,598.4136670012958,Correct
15,4,263,B,68.46568620263052,59.208522538828795,3.4232843101315265,0.9300452971894512,B,693.8512499909848,Correct
15,4,264,A,50.25632127492155,73.00135864252326,2.5128160637460777,1.146702660067124,A,640.6085409980733,Correct
15,4,265,B,46.826479086585444,32.18784854113119,2.341323954329272,0.5056055425583934,B,1118.806125014089,Correct
15,4,266,B,42.43106848036924,33.354537862906156,2.121553424018462,0.5239318555699429,B,1232.0539170177653,Correct
15,4,267,A,11.644946539688576,34.684138015346946,0.5822473269844288,0.5448171659255421,A,1117.7062920178287,Correct
15,4,268,B,81.18544063600525,63.4407265874949,4.059272031800263,0.9965246029283632,B,928.4669169865083,Correct
15,4,269,A,19.47324139693274,34.978803791878896,0.973662069846637,0.5494457651196277,A,1090.0752079905942,Correct
15,4,270,A,37.542986648650185,54.704710673821744,1.8771493324325093,0.8592995858481677,A,553.0809999909252,Correct
15,4,271,A,47.659814419888725,76.24932060423085,2.3829907209944365,1.1977215272573225,A,718.4745829727035,Correct
15,4,272,B,75.77216417485651,48.378206623540024,3.7886082087428257,0.759923092611812,B,717.61658298783,Correct
15,4,273,A,54.03963690415699,66.91033656806738,2.7019818452078495,1.0510251090573048,A,1920.4620000091381,Correct
15,4,274,B,49.96247501995424,26.534706351776176,2.498123750997712,0.41680619269951225,B,945.0642499723472,Correct
15,4,275,A,24.223178593091948,53.314648202445156,1.2111589296545973,0.8374645356076299,A,840.6779590004589,Correct
15,4,276,B,42.672811151903396,17.904093714238744,2.13364055759517,0.2812368464091782,B,898.4830410045106,Correct
15,4,277,B,37.65866892013053,15.698694003115609,1.8829334460065266,0.24659450875571068,B,549.7590420127381,Correct
15,4,278,A,60.33113663961356,79.61552862190256,3.0165568319806777,1.2505977991511847,A,1314.1567909915466,Correct
15,4,279,B,43.02864169501159,21.550071358165464,2.1514320847505797,0.3385077293157422,B,649.082041985821,Correct
15,4,280,A,60.192785533247466,72.40655519578472,3.0096392766623734,1.1373595093741058,A,656.6829590010457,Correct
15,4,281,B,41.771358201900284,14.09907425060517,2.0885679100950143,0.22146774044059112,B,683.7012500036508,Correct
15,4,282,A,30.430243538831306,55.81692069412499,1.5215121769415652,0.8767701399933359,A,762.1301669860259,Correct
15,4,283,A,13.063956138073454,39.50402521390907,0.6531978069036727,0.6205277769962134,A,659.1362920007668,Correct
15,4,284,B,51.65731882239815,31.260188511504147,2.5828659411199077,0.49103389288786736,B,466.35491598863155,Correct
15,4,285,B,60.371499027328355,29.379070300544193,3.0185749513664177,0.46148535712743854,B,547.7140829898417,Correct
15,4,286,B,38.07831401688432,24.75005148703037,1.903915700844216,0.38877289963811873,B,587.6880419964436,Correct
15,4,287,A,26.122079330541155,52.04309143191233,1.306103966527058,0.8174909685629883,A,592.9398749722168,Correct
15,4,288,A,42.09331380829717,74.89639283023432,2.1046656904148584,1.1764697874791967,A,596.1194999981672,Correct
15,4,289,B,33.21516131585669,14.069310048524489,1.6607580657928345,0.22100020544760793,A,704.0908329945523,Incorrect
15,4,290,B,56.33248719601461,30.57906370181724,2.8166243598007306,0.48033480939641676,B,2015.8582089934498,Correct
15,4,291,B,70.48261222067484,56.704270820225396,3.524130611033742,0.890708603179931,B,538.976082985755,Correct
15,4,292,A,43.4145432832434,65.75576632683925,2.17072716416217,1.0328891621178264,B,839.5288750180043,Incorrect
15,4,293,B,35.38694893504319,10.418567843861837,1.7693474467521597,0.16365448099601598,B,1251.8624999793246,Correct
15,4,294,A,60.206364408081654,73.32400071851313,3.0103182204040824,1.151770709945468,A,912.1211250021588,Correct
15,4,295,A,40.07713673917522,71.7674600515848,2.003856836958761,1.127320626324289,A,601.250625011744,Correct
15,4,296,B,64.65061621355652,44.82916279915672,3.232530810677826,0.704174842582058,B,1090.0870829937048,Correct
15,4,297,B,35.623460737976075,16.32765618635636,1.7811730368988037,0.2564742236269854,B,1256.682000006549,Correct
15,4,298,A,36.814397347552756,65.7752655682934,1.8407198673776377,1.0331954554863412,A,951.7547909927089,Correct
15,4,299,A,63.62600541426913,76.45324718217842,3.1813002707134563,1.2009247984530815,A,765.3419169946574,Correct
