subject,day,trial,cat,x,y,xt,yt,resp,rt,fb
15,2,0,A,51.52935952651029,67.70749528726019,2.5764679763255147,1.063546848937111,A,1539.1311249986757,Correct
15,2,1,B,87.70251854022125,60.482473371516086,4.385125927011063,0.950056470074476,B,1020.4937919916119,Correct
15,2,2,B,44.40787163920995,28.1093110897162,2.2203935819604976,0.4415400260846126,B,1106.4380829920992,Correct
15,2,3,A,46.048711590329354,52.67460871723523,2.3024355795164677,0.8274108188839153,A,871.1283750017174,Correct
15,2,4,A,45.05690613552339,71.61540249170895,2.2528453067761696,1.1249321117591449,A,617.7562500233762,Correct
15,2,5,A,37.833407422580514,70.00726866043728,1.8916703711290257,1.0996716046075836,A,727.4069999984931,Correct
15,2,6,A,65.42252159992672,85.05790260139105,3.271126079996336,1.3360864097114313,A,1160.653208004078,Correct
15,2,7,B,82.67583956489621,58.6914911194833,4.13379197824481,0.9219237866459966,B,1132.5921669777017,Correct
15,2,8,A,54.72635550281153,64.59250203688894,2.7363177751405767,1.0146166493803703,A,855.1846669870429,Correct
15,2,9,A,55.16835416982184,65.19278149986799,2.758417708491092,1.0240458171353493,A,512.8627500089351,Correct
15,2,10,B,32.11556112273834,14.001546595390728,1.605778056136917,0.21993577961487346,B,832.3139169951901,Correct
15,2,11,A,28.61995298888548,50.31723356636258,1.430997649444274,0.7903812566052322,A,1024.186082999222,Correct
15,2,12,B,85.91604732608995,62.846170709675285,4.295802366304497,0.9871853410388296,B,614.5912499923725,Correct
15,2,13,B,70.52457388569826,40.82948310563268,3.526228694284913,0.6413480208726211,B,2165.806499979226,Correct
15,2,14,B,38.87276413028424,30.245512790404288,1.9436382065142117,0.4750954039319511,B,804.8395829973742,Correct
15,2,15,B,48.91998024459872,18.574446879673566,2.4459990122299358,0.2917667293083817,B,656.1540830007289,Correct
15,2,16,A,31.542836147605946,47.33477367764234,1.5771418073802974,0.7435328862250835,A,926.4746249828022,Correct
15,2,17,A,39.33641745842272,71.10458977826289,1.966820872921136,1.116908284419533,A,809.4992500264198,Correct
15,2,18,A,11.577988974073701,38.493259045868065,0.5788994487036851,0.6046506991561399,A,740.1652080006897,Correct
15,2,19,A,31.184963772017525,44.224101660402425,1.5592481886008762,0.6946705644396423,A,810.7497079763561,Correct
15,2,20,A,58.19354345539526,83.0562537772152,2.909677172769763,1.3046445835059437,B,770.6795000121929,Incorrect
15,2,21,B,73.69131569867771,42.774918489518946,3.684565784933886,0.6719068484228746,B,658.4834579844028,Correct
15,2,22,A,56.80045176497295,82.15932706717132,2.8400225882486474,1.2905556916905323,A,635.0769159907941,Correct
15,2,23,A,34.978679320241746,46.793228665326424,1.7489339660120873,0.735026317063684,A,943.1652500061318,Correct
15,2,24,A,58.14958259881075,80.42038777381411,2.907479129940538,1.2632404971452842,A,2267.345000000205,Correct
15,2,25,A,52.17335929307212,80.75121020662746,2.608667964653606,1.2684370437681296,A,820.8162079972681,Correct
15,2,26,A,20.85305989457631,52.21219602564108,1.0426529947288157,0.820147257309721,A,619.2809999920428,Correct
15,2,27,A,62.585727934906046,82.57429340377138,3.1292863967453024,1.2970739676632812,A,660.0087079859804,Correct
15,2,28,A,66.45343586785222,81.44424765925592,3.3226717933926113,1.2793232506173304,A,1343.794499989599,Correct
15,2,29,A,13.902044672773641,38.84409351232273,0.6951022336386821,0.61016159406834,A,863.7300840055104,Correct
15,2,30,B,54.24754310869409,32.77249470988856,2.7123771554347047,0.5147891431019813,B,1318.8603750022594,Correct
15,2,31,B,44.22808441318684,30.672234817057692,2.2114042206593423,0.4817983378522476,B,908.9179580041673,Correct
15,2,32,B,74.69719531725605,51.62814863364078,3.734859765862802,0.8109730623294389,B,851.8739169812761,Correct
15,2,33,B,73.81746472527216,49.65971141857416,3.6908732362636076,0.7800529228599088,B,664.1029590100516,Correct
15,2,34,B,52.560310623610945,42.594107283878806,2.628015531180547,0.6690666726462459,B,936.5652920096181,Correct
15,2,35,B,33.97911455915619,16.76675558824646,1.6989557279578094,0.26337158090285345,B,699.3601660069544,Correct
15,2,36,A,43.010819327748735,75.51634420935004,2.1505409663874366,1.186207960970261,A,667.4049999855924,Correct
15,2,37,B,74.45388301401223,51.46480693463728,3.722694150700612,0.8084072969213676,B,4060.5954170168843,Correct
15,2,38,B,51.092412591125424,26.618407707052704,2.554620629556271,0.4181209705136736,B,1090.6707500107586,Correct
15,2,39,A,38.16549857818959,60.35358350281002,1.9082749289094796,0.9480318727512302,A,703.1568749807775,Correct
15,2,40,A,28.731754303438517,44.762841264047815,1.4365877151719257,0.7031330663446934,A,1033.4025000047404,Correct
15,2,41,A,24.525138057703362,37.34171476372343,1.226256902885168,0.5865622838707952,A,634.2833329981659,Correct
15,2,42,B,67.60732203120573,42.24995503237316,3.3803661015602864,0.6636607417210131,B,1062.3367080115713,Correct
15,2,43,B,85.33500919718657,69.6148012417568,4.2667504598593275,1.0935067408110837,B,662.447125010658,Correct
15,2,44,B,70.78708105193205,39.75499832722518,3.539354052596602,0.6244700534414257,B,1163.8029590249062,Correct
15,2,45,B,63.154047955898086,54.023222371919935,3.1577023977949046,0.8485947926343572,B,983.7663330254145,Correct
15,2,46,A,60.010024283797094,74.51517966663988,3.0005012141898546,1.170481705108197,A,993.9100829942618,Correct
15,2,47,B,44.3409781282996,17.60445580259588,2.2170489064149796,0.2765301450994071,A,2036.8466660147533,Incorrect
15,2,48,A,35.74653252698256,43.96913420043883,1.787326626349128,0.6906655449440117,A,1054.8112080141436,Correct
15,2,49,B,70.06547718861734,51.10853571305457,3.503273859430867,0.8028110016593191,B,2215.534374990966,Correct
15,2,50,B,60.483532833285885,42.31659116377597,3.024176641664294,0.6647074596254067,A,816.4587500214111,Incorrect
15,2,51,A,59.49780584242397,80.40704084943717,2.9748902921211986,1.2630308441474312,A,1310.4668330051936,Correct
15,2,52,B,79.16472715899896,48.00266047719482,3.958236357949948,0.754024027539602,B,1477.5801669748034,Correct
15,2,53,B,75.73252685589077,53.82777139885093,3.7866263427945386,0.8455246559287043,B,717.7969579934143,Correct
15,2,54,A,12.300570123447855,34.22673746668346,0.6150285061723928,0.5376323349083965,A,761.7732920043636,Correct
15,2,55,B,88.5568798749612,63.000116821349124,4.427843993748059,0.9896035209062458,B,798.5996250063181,Correct
15,2,56,B,61.97662346666708,43.17646377478228,3.098831173333354,0.6782143070142092,A,1607.3897909955122,Incorrect
15,2,57,A,16.81322083214508,38.224897434624154,0.840661041607254,0.600435284824193,A,698.8996659929398,Correct
15,2,58,B,57.708440038171396,34.52172956892858,2.88542200190857,0.5422660600147978,B,2361.059207993094,Correct
15,2,59,B,50.64439759592427,38.65863445992298,2.532219879796213,0.6072484100855362,A,1464.108041021973,Incorrect
15,2,60,B,39.609149833334925,27.705772713679487,1.9804574916667463,0.4352012600966201,B,2290.0117090030108,Correct
15,2,61,B,47.58661864827739,31.025252356921396,2.379330932413869,0.4873435244013683,B,1297.3151670012157,Correct
15,2,62,B,79.42765200519489,56.07312551217527,3.9713826002597443,0.8807945958643411,B,727.784332993906,Correct
15,2,63,B,64.48677794556792,48.96912607569439,3.2243388972783964,0.7692052336605695,B,1984.6284159866627,Correct
15,2,64,B,61.00031469601294,52.580651099615864,3.050015734800647,0.8259349360776065,B,973.4935410087928,Correct
15,2,65,B,79.37603466160459,63.84397479259268,3.9688017330802294,1.0028588109219054,B,659.6039159921929,Correct
15,2,66,A,15.43495513100902,41.916516895021104,0.7717477565504509,0.6584231077073538,A,618.4327920200303,Correct
15,2,67,B,46.088317783189666,37.239670977375056,2.3044158891594835,0.5849593838231125,A,1080.0186670094263,Incorrect
15,2,68,B,62.72328614836997,54.54513119524202,3.1361643074184986,0.8567929172603189,B,733.6327500233892,Correct
15,2,69,B,49.549322133870916,24.12730853602702,2.477466106693546,0.378990876238384,B,803.7943340023048,Correct
15,2,70,A,59.078832065711666,76.91221779963307,2.953941603285583,1.208134292053127,A,2211.698208004236,Correct
15,2,71,B,66.43276762174789,58.48825928907736,3.321638381087394,0.9187314285191021,B,652.5774999754503,Correct
15,2,72,B,74.15077304036016,45.7989961138522,3.707538652018008,0.7194089486653278,B,617.4867090012413,Correct
15,2,73,B,41.55206453939501,25.915994993569615,2.077603226969751,0.40708749741134076,B,614.4444160163403,Correct
15,2,74,B,83.37489731584097,63.004655283491346,4.168744865792048,0.9896748109028689,A,765.6357499945443,Incorrect
15,2,75,A,64.3017150319955,74.51157690650224,3.215085751599775,1.1704251130842918,B,670.2249999798369,Incorrect
15,2,76,A,30.69295925793781,43.77255492993209,1.5346479628968905,0.6875776849836517,A,1383.027583011426,Correct
15,2,77,A,46.24370559056092,66.72887572719594,2.312185279528046,1.048174728834325,A,1019.2299580085091,Correct
15,2,78,A,36.21594787095722,56.24184807087259,1.8107973935478612,0.8834448836188331,A,549.5301249902695,Correct
15,2,79,B,36.746811079720516,23.35392660407103,1.8373405539860257,0.36684262125912387,A,617.742750007892,Incorrect
15,2,80,B,54.25619317272322,24.147145275295543,2.712809658636161,0.37930247101016984,B,751.8611249979585,Correct
15,2,81,B,75.32840249879229,58.452162528932895,3.7664201249396143,0.9181644219366608,B,839.5191250019707,Correct
15,2,82,B,71.3282188400125,43.66941817342955,3.5664109420006245,0.6859576166009344,B,646.8418330186978,Correct
15,2,83,A,28.868773768865946,41.45463092849148,1.4434386884432973,0.6511678199111254,A,585.7718750194181,Correct
15,2,84,A,45.0383460521039,71.22749688693862,2.251917302605195,1.118838904767981,A,736.0283749876544,Correct
15,2,85,B,44.913461800247596,32.32283477143507,2.24567309001238,0.5077259013056856,A,941.0207089968026,Incorrect
15,2,86,B,71.31835010966961,55.984373059536956,3.5659175054834806,0.8794004755983582,B,550.2491660008673,Correct
15,2,87,A,60.40341331060847,73.89725429555291,3.0201706655304235,1.160775356076829,A,1035.8754580083769,Correct
15,2,88,A,61.386895034910644,74.49161880213916,3.069344751745532,1.1701116119140584,A,1136.9565420027357,Correct
15,2,89,A,46.07868861987056,68.80862716996432,2.303934430993528,1.0808433881037949,A,890.4580840026028,Correct
15,2,90,B,81.96651435323284,60.18616107671184,4.098325717661641,0.9454020074318492,B,1096.951415995136,Correct
15,2,91,B,39.57908163197756,22.801426702440953,1.9789540815988778,0.35816397309877324,A,1027.2568340005819,Incorrect
15,2,92,A,18.533791550834305,44.74660809111821,0.9266895775417153,0.7028780762605927,A,711.2417079915758,Correct
15,2,93,A,34.92550139378063,59.09297397466152,1.7462750696890312,0.9282302645878472,A,1343.5212080075871,Correct
15,2,94,A,20.880415731781415,46.98857857783217,1.0440207865890707,0.7380948663137213,A,1053.5162090091035,Correct
15,2,95,A,29.869174633970438,57.309454878488545,1.4934587316985217,0.9002148121374769,A,1796.6632499883417,Correct
15,2,96,A,57.84197538289734,82.91768178801244,2.892098769144867,1.3024678997895802,A,1538.5677499871235,Correct
15,2,97,B,49.22937193946504,37.298504845554774,2.461468596973252,0.5858835440633909,B,1262.2746670094784,Correct
15,2,98,B,75.57665083435955,57.813986447373004,3.7788325417179776,0.9081399754890346,B,681.9324999814853,Correct
15,2,99,A,46.26133154793659,63.44881104341669,2.31306657739683,0.9966515932650241,A,621.0534169804305,Correct
15,2,100,B,74.38817445370063,59.934692416513755,3.7194087226850314,0.9414519469544175,B,592.5355830113403,Correct
15,2,101,A,48.39181789077192,75.16744074697236,2.4195908945385955,1.1807273981991722,A,564.1737499972805,Correct
15,2,102,B,35.10477731944967,10.417584852459953,1.7552388659724836,0.16363904020318248,A,684.8169580043759,Incorrect
15,2,103,B,65.94418737281492,42.88258745758554,3.297209368640746,0.6735981086183627,B,616.576584026916,Correct
15,2,104,B,42.36968856367707,18.349798735474742,2.1184844281838537,0.2882379645110936,B,732.4586660251953,Correct
15,2,105,A,62.917927183010484,86.6701709214426,3.1458963591505245,1.361411861260879,A,798.589499987429,Correct
15,2,106,B,37.69395812730694,25.214477335710903,1.884697906365347,0.39606808380987857,B,1301.1979589937255,Correct
15,2,107,A,50.33606628087032,71.86516346004588,2.516803314043516,1.1288553478755488,A,712.6331250183284,Correct
15,2,108,A,39.01009113442205,49.091203955405646,1.9505045567211026,0.7711228285109029,A,2080.5421250115614,Correct
15,2,109,B,62.680638767450546,47.972348936181966,3.1340319383725275,0.7535478949667771,A,1013.2972499995958,Incorrect
15,2,110,B,53.8111418160438,40.631973792299064,2.69055709080219,0.6382455518336987,B,1349.4345829822123,Correct
15,2,111,B,58.50166818015305,50.54991428197639,2.9250834090076525,0.794036196739254,B,1343.5311659995932,Correct
15,2,112,A,36.8098916135788,52.55729273042165,1.84049458067894,0.8255680236723045,A,942.0262919738889,Correct
15,2,113,B,47.97283707828361,32.344691919852735,2.3986418539141807,0.5080692325901724,A,1362.845458992524,Incorrect
15,2,114,B,75.50114749231045,57.85887973178593,3.7750573746155225,0.9088451575515704,B,1426.8192919844296,Correct
15,2,115,B,56.515729152950406,38.42763670965677,2.8257864576475202,0.6036199059093756,B,1084.8479999986012,Correct
15,2,116,B,79.27785812301397,66.98118405317541,3.9638929061506984,1.0521379787510086,B,1070.7153329858556,Correct
15,2,117,B,72.69136801299761,42.02627543099068,3.6345684006498806,0.6601471907587076,B,851.1304580024444,Correct
15,2,118,B,51.13896691461391,20.38918299522273,2.5569483457306954,0.32027253755244833,B,1392.4595419957768,Correct
15,2,119,A,49.40360363180653,71.06470029258114,2.470180181590327,1.1162817018436666,A,632.0430420164485,Correct
15,2,120,A,24.7292677704788,45.98212529156045,1.23646338852394,0.7222855350620586,A,722.0050829928368,Correct
15,2,121,A,45.41470036169744,57.31872003860884,2.270735018084872,0.900360348932318,A,990.2348750038072,Correct
15,2,122,A,57.06358885490258,80.05247367021943,2.853179442745129,1.2574613159202586,A,636.1645830038469,Correct
15,2,123,A,18.341597538532074,49.17464102395076,0.9170798769266036,0.7724334549187949,A,596.8603749934118,Correct
15,2,124,A,30.144522161866384,57.92010525390469,1.5072261080933191,0.9098068858040727,A,655.1347089989576,Correct
15,2,125,A,59.59981545464122,80.18989327858132,2.9799907727320605,1.259619898080703,A,563.2435839797836,Correct
15,2,126,B,34.65440407361994,15.092911838509735,1.7327202036809972,0.237078904765703,B,725.7815829943866,Correct
15,2,127,B,68.1358631148692,35.676429612595214,3.40679315574346,0.5604040458862124,B,702.3016250168439,Correct
15,2,128,A,29.218803799390734,52.413422793771886,1.460940189969537,0.8233081199920479,A,788.8013340125326,Correct
15,2,129,B,53.1632815792331,35.72370074396547,2.658164078961655,0.5611465790814106,B,800.7538340170868,Correct
15,2,130,A,36.97065051831195,44.648385902190185,1.8485325259155974,0.7013352057248139,A,1052.9397079953924,Correct
15,2,131,A,49.302713838852334,56.37979370057835,2.4651356919426166,0.8856117285032252,A,619.7216250002384,Correct
15,2,132,A,59.17267011349979,80.56567962703673,2.9586335056749897,1.2655227362388373,A,704.5084580022376,Correct
15,2,133,A,16.493793035867235,44.34062920224838,0.8246896517933618,0.6965009747866628,A,611.4665000059176,Correct
15,2,134,A,21.33574717688605,48.30122566207089,1.0667873588443024,0.7587138784967236,A,583.8568749895785,Correct
15,2,135,B,69.26732618723643,56.67157194302444,3.463366309361822,0.8901949704179549,A,1175.930375000462,Incorrect
15,2,136,A,40.050448421765545,66.82173166544683,2.002522421088277,1.0496333065015813,A,728.0681669944897,Correct
15,2,137,B,52.02854310006856,27.140873024158502,2.6014271550034276,0.4263278365235488,B,583.9695829781704,Correct
15,2,138,B,88.05380507717348,64.20416735807501,4.402690253858674,1.0085167025098902,B,604.8406249901745,Correct
15,2,139,A,44.65164552188597,55.805484976801054,2.2325822760942984,0.8765905081656687,A,798.1184580130503,Correct
15,2,140,A,28.246311254250962,46.42129062730302,1.412315562712548,0.7291839280244596,A,657.4394999770448,Correct
15,2,141,B,80.77087697930068,58.70204651281728,4.038543848965034,0.9220895903767656,B,739.4098750082776,Correct
15,2,142,A,30.078595646713914,49.943655157211275,1.5039297823356959,0.7845131006765846,A,724.287416000152,Correct
15,2,143,A,27.833933062696513,37.421452155343665,1.3916966531348256,0.587814795889448,A,1505.684999981895,Correct
15,2,144,A,32.388987968617606,44.224789718006136,1.6194493984308804,0.6946813724232075,A,962.618499994278,Correct
15,2,145,A,69.00465275116039,87.11288503914469,3.4502326375580195,1.3683659983599459,A,1578.9308329985943,Correct
15,2,146,A,56.1875008218455,65.7909262946506,2.8093750410922746,1.0334414536007093,A,2828.7534159899224,Correct
15,2,147,B,31.095084066851804,17.43786015486566,1.55475420334259,0.2739132667842607,A,1149.602124991361,Incorrect
15,2,148,A,23.21310276215189,52.81650370419535,1.1606551381075945,0.829639700126991,A,843.9303750055842,Correct
15,2,149,A,41.10032815941322,73.32156754405047,2.055016407970661,1.1517324897303838,A,650.0310830015223,Correct
15,2,150,A,28.64949566835901,59.04695168001906,1.4324747834179505,0.9275073480740968,A,1654.5276670076419,Correct
15,2,151,B,74.26466142067947,60.46488240584533,3.713233071033974,0.9497801518318723,B,789.4186250050552,Correct
15,2,152,A,60.282753706141264,74.6403993784345,3.014137685307063,1.1724486517414898,A,2091.674957977375,Correct
15,2,153,A,38.16804526413829,70.45735128792651,1.9084022632069146,1.1067414859877265,A,672.3691670049448,Correct
15,2,154,B,79.2709097974298,62.754535101446855,3.96354548987149,0.985745932270741,B,666.7474170099013,Correct
15,2,155,A,42.20339057435009,50.64340461487771,2.1101695287175044,0.795504739454376,A,1169.8088750126772,Correct
15,2,156,B,60.33868335090316,47.7859142060242,3.0169341675451578,0.7506193850735889,B,1442.8191670158412,Correct
15,2,157,A,34.35350570829726,54.868146184756874,1.7176752854148631,0.8618668248506153,A,765.3766250004992,Correct
15,2,158,A,50.20328400977728,67.08198381155353,2.5101642004888642,1.0537213376530299,A,760.3414579934906,Correct
15,2,159,A,32.9452076721669,46.43298305913747,1.647260383608345,0.7293675923142279,A,1179.0554170147516,Correct
15,2,160,B,85.1607046580077,66.83185451002646,4.258035232900386,1.049792315772405,B,582.3942080023699,Correct
15,2,161,A,56.3943603551552,77.89557260606627,2.8197180177577597,1.2235807932319407,A,715.8382910129149,Correct
15,2,162,B,71.72747443104375,61.45141535192762,3.586373721552187,0.9652765751115542,B,740.8447919879109,Correct
15,2,163,A,24.837082621620453,56.99701252998798,1.2418541310810227,0.895306979203878,A,832.0222909969743,Correct
15,2,164,A,31.640879042914303,64.76229537500826,1.5820439521457152,1.017283756898691,A,680.1146249927115,Correct
15,2,165,B,71.35511043055142,50.73722773508341,3.567755521527571,0.7969785095802516,B,799.1182089899667,Correct
15,2,166,A,43.07610000879978,57.776831349775605,2.153805000439989,0.9075563445807573,A,731.8855000194162,Correct
15,2,167,A,50.80487993239715,63.4378356056563,2.5402439966198576,0.9964791914918343,A,968.264333991101,Correct
15,2,168,A,31.340114253595516,50.42986696485845,1.5670057126797758,0.7921504978915497,A,773.5351670125965,Correct
15,2,169,B,57.153101245666576,43.26477359923062,2.8576550622833286,0.6796014744928428,B,2431.3644579960965,Correct
15,2,170,B,69.09473232666433,47.05828475275938,3.454736616333216,0.7391898083490273,B,1350.4125839972403,Correct
15,2,171,B,83.90030509367455,63.693486567156754,4.195015254683727,1.000494947404499,B,769.5106249884702,Correct
15,2,172,B,58.367743113426855,30.082550740279366,2.9183871556713425,0.4725356020345192,B,708.045499981381,Correct
15,2,173,A,52.449684691189134,82.94553703278021,2.622484234559457,1.302905448951212,A,820.8676249778364,Correct
15,2,174,A,54.31118546045675,76.73681816705172,2.7155592730228375,1.2053791210673275,A,602.1680420089979,Correct
15,2,175,A,46.81777793397419,60.09459479457401,2.3408888966987096,0.9439636876354456,A,620.3119170095306,Correct
15,2,176,A,38.61239941867128,57.08376120154828,1.930619970933564,0.8966696241502906,A,477.21199999796227,Correct
15,2,177,B,66.52411804589008,56.12562585238342,3.326205902294504,0.8816192692798857,B,846.3359999877866,Correct
15,2,178,B,83.11545064860721,64.06881734619165,4.15577253243036,1.00639062949491,B,891.5164160134736,Correct
15,2,179,B,74.06258588530795,63.679374557758834,3.7031292942653975,1.0002732764792397,B,706.487957999343,Correct
15,2,180,A,32.172952024176524,52.04140102632266,1.6086476012088264,0.8174644157340779,A,638.0224160093348,Correct
15,2,181,A,49.446347627384206,77.62720766939898,2.4723173813692103,1.2193653266643654,A,707.1047920035198,Correct
15,2,182,A,45.766210213069655,70.89283345678214,2.2883105106534827,1.1135820238999574,A,630.8326250000391,Correct
15,2,183,A,42.035736914946405,74.52726036318428,2.1017868457473203,1.1706714682457675,A,1048.1040420127101,Correct
15,2,184,B,57.34384354232759,38.890639549427675,2.8671921771163795,0.6108927375094532,B,2178.535084007308,Correct
15,2,185,A,32.18722246755061,57.673154474290264,1.6093611233775307,0.9059277920288981,A,784.8879579978529,Correct
15,2,186,B,49.97663138264873,24.38502481184031,2.4988315691324368,0.3830390740324117,B,1018.1827920023352,Correct
15,2,187,B,64.53929362877749,36.81716949431606,3.2269646814388744,0.578322746046568,B,1096.6770829982124,Correct
15,2,188,B,54.03002072990376,40.73427272365159,2.701501036495188,0.6398524596897347,B,3225.015625008382,Correct
15,2,189,A,53.06466377488188,66.21993456217027,2.653233188744094,1.0401802997085547,A,929.5249580172822,Correct
15,2,190,B,39.36126239731486,30.088084722968674,1.9680631198657432,0.47262252963132834,A,827.9599160014186,Incorrect
15,2,191,B,81.29824786980265,60.3316800857521,4.064912393490133,0.947687814680642,B,1072.302665997995,Correct
15,2,192,A,49.729431673973515,66.3251182789236,2.486471583698676,1.0418325216677022,A,913.153333007358,Correct
15,2,193,B,36.908423919808456,26.53002970033981,1.8454211959904228,0.41673273203053285,A,973.367209022399,Incorrect
15,2,194,B,72.64372297542742,41.69024000964925,3.632186148771371,0.6548687587035468,B,683.961333008483,Correct
15,2,195,A,32.86049120326381,43.93130581493821,1.6430245601631908,0.6900713380540823,A,786.6220840078313,Correct
15,2,196,B,39.80488304947687,18.212452014361293,1.9902441524738435,0.2860805272608703,B,874.0264589723665,Correct
15,2,197,A,28.97260251308455,47.78731679333966,1.4486301256542273,0.7506414168636203,A,742.0105840137694,Correct
15,2,198,B,39.53137376242852,16.733170474488258,1.9765686881214262,0.2628440271695897,B,965.2539170056116,Correct
15,2,199,B,66.77482079826075,46.92530658508254,3.3387410399130375,0.7371009921757202,B,1619.4939159904607,Correct
15,2,200,B,57.78670519985253,41.17582953025696,2.8893352599926265,0.6467884177886046,B,734.528291010065,Correct
15,2,201,B,36.01146665812141,21.383275788783504,1.8005733329060702,0.3358877106386337,A,927.086708979914,Incorrect
15,2,202,B,38.31233345765971,22.77770013625754,1.9156166728829858,0.3577912770686896,B,726.6337079927325,Correct
15,2,203,A,32.018593302238294,50.290781224572264,1.6009296651119147,0.7899657441920386,A,803.3773330098484,Correct
15,2,204,A,57.28028585548053,85.47652025996982,2.8640142927740264,1.3426620405157015,A,748.1922080041841,Correct
15,2,205,B,67.76014018334806,35.53285359278057,3.3880070091674033,0.5581487590408057,B,764.3252910056617,Correct
15,2,206,B,66.17610897978636,56.90348160938862,3.308805448989318,0.893837798938686,B,1674.1472499852534,Correct
15,2,207,A,32.05623448915199,60.293187260782155,1.6028117244575995,0.9470831707999348,A,1079.842709004879,Correct
15,2,208,A,35.30677994181852,51.53074650208742,1.765338997090926,0.8094430732247787,A,1056.927875004476,Correct
15,2,209,A,18.63550889224895,36.5002804251677,0.9317754446124475,0.573345064188371,A,1431.6145000047982,Correct
15,2,210,B,36.087331428223635,16.742142900590665,1.8043665714111818,0.26298496570923074,B,896.3462089886889,Correct
15,2,211,B,60.93211936628559,36.54666877809579,3.0466059683142794,0.574073730732226,B,886.8284999916796,Correct
15,2,212,B,53.23125731093835,25.686879944576916,2.6615628655469177,0.40348856663762916,B,793.3757500140928,Correct
15,2,213,A,35.284772179548504,65.99924671902848,1.7642386089774251,1.0367137431748008,A,896.7632080020849,Correct
15,2,214,B,53.78380471681912,38.55030667815134,2.689190235840956,0.6055468012685689,B,3587.7810420060996,Correct
15,2,215,B,51.16094389728296,43.741643055314,2.558047194864148,0.6870921223926073,B,2501.37083302252,Correct
15,2,216,B,83.48428594310437,57.11612836280655,4.174214297155219,0.8971780463304232,B,862.6035830238834,Correct
15,2,217,A,50.182486512741136,63.30271662220965,2.509124325637057,0.9943567474630516,A,732.8779999807011,Correct
15,2,218,A,41.26109888478215,73.33104631107851,2.0630549442391075,1.1518813818546856,A,847.5445829972159,Correct
15,2,219,B,69.7936027992334,55.393884330339496,3.4896801399616697,0.8701251003299867,B,841.4133329933975,Correct
15,2,220,A,29.614231568925995,45.83907939237537,1.4807115784462996,0.7200385753320285,A,795.7266250159591,Correct
15,2,221,B,59.44288319718738,31.677214443198057,2.972144159859369,0.49758452090469757,A,847.7010420174338,Incorrect
15,2,222,A,26.34566086312283,41.08022213131914,1.3172830431561413,0.6452866202779451,A,561.4605829759967,Correct
15,2,223,A,68.72472647141272,85.6018889616005,3.436236323570636,1.3446313274758668,A,2639.2355000134557,Correct
15,2,224,B,75.48499508888004,60.696796494417256,3.774249754444002,0.9534230498164799,B,2140.727583988337,Correct
15,2,225,B,51.867967491424295,32.29251570367178,2.5933983745712146,0.5072496505029416,A,2323.0817499861587,Incorrect
15,2,226,A,45.90505902860853,71.68929904339947,2.295252951430426,1.1260928760787279,A,752.5308330077678,Correct
15,2,227,A,56.034719711633905,68.44422663554174,2.8017359855816952,1.075119397894264,A,1862.8752499935217,Correct
15,2,228,A,67.23848760405525,88.13168082890397,3.3619243802027627,1.3843692052030256,A,1269.2454589996487,Correct
15,2,229,B,84.19271217244633,59.22155261501181,4.2096356086223174,0.9302499731475125,B,915.6257499998901,Correct
15,2,230,A,58.66692830742785,83.47246554171534,2.9333464153713926,1.3111824226144002,A,730.5971669848077,Correct
15,2,231,B,45.33093250709979,33.41589868221905,2.2665466253549895,0.5248957090658011,A,844.9387080036104,Incorrect
15,2,232,B,45.91295206936804,16.811226728832274,2.2956476034684017,0.2640701319456592,B,690.0369169889018,Correct
15,2,233,A,61.04075953687827,87.00816453252946,3.0520379768439136,1.3667210524886328,A,948.9124170213472,Correct
15,2,234,A,65.4947773744881,83.24210684102714,3.2747388687244046,1.3075639566055377,A,2535.6437909940723,Correct
15,2,235,A,39.33508790881735,60.816087871842676,1.9667543954408675,0.9552968743912612,A,1199.9350840051193,Correct
15,2,236,B,78.29932746794186,47.080233362505496,3.914966373397093,0.7395345763047017,B,815.1069580053445,Correct
15,2,237,B,38.207249629387036,20.328006057757584,1.9103624814693518,0.3193115724659002,B,1480.8145420101937,Correct
15,2,238,A,56.50318145128292,77.14525706331341,2.825159072564146,1.2117948642470076,A,1768.921999988379,Correct
15,2,239,A,45.0089605226819,68.25289385503983,2.250448026134095,1.0721139496061851,A,1525.5989580182359,Correct
15,2,240,A,49.53452980520862,77.92784668883395,2.476726490260431,1.2240877533385621,A,1167.5077909894753,Correct
15,2,241,B,37.910473005758405,11.868069796942791,1.8955236502879202,0.18642320443183194,B,1345.0350420025643,Correct
15,2,242,B,62.04149470992087,51.455648581862306,3.1020747354960436,0.8082634378523833,B,2406.62966601667,Correct
15,2,243,B,70.38554218617483,37.917362397349926,3.5192771093087414,0.5956045357550819,B,1063.8524160021916,Correct
15,2,244,B,48.52905949947211,28.445557074249336,2.4264529749736057,0.4468217656586544,B,1206.7863330012187,Correct
15,2,245,B,38.78528496884963,12.994856269329702,1.9392642484424814,0.20412272495090727,B,886.0060000151861,Correct
15,2,246,A,12.371949428013952,31.249897729378127,0.6185974714006975,0.49087224566023335,A,1137.4739999882877,Correct
15,2,247,A,33.09024913368787,52.78879002413086,1.6545124566843936,0.8292043746585183,A,1424.553749995539,Correct
15,2,248,A,31.55735378676847,56.53769158569338,1.5778676893384236,0.8880919826826988,A,668.6857920140028,Correct
15,2,249,B,52.36840373439081,45.55359176162294,2.6184201867195407,0.7155541461147158,A,4344.530874979682,Incorrect
15,2,250,A,27.459988320946145,50.543562382309965,1.3729994160473071,0.793936421332612,A,648.5660829930566,Correct
15,2,251,A,18.612386598012964,37.017344652454675,0.9306193299006482,0.5814670900777652,A,676.579999999376,Correct
15,2,252,B,43.408303993610346,24.82843650849069,2.170415199680517,0.39000416867597487,B,1627.7709169953596,Correct
15,2,253,B,48.034624324780154,19.751418730494517,2.401731216239008,0.31025455990848705,B,1765.7668339961674,Correct
15,2,254,A,26.389702833805515,45.281660901118876,1.319485141690276,0.7112826661464962,A,1521.7789169983007,Correct
15,2,255,A,35.923846547777856,68.37721128947243,1.796192327388893,1.0740667232998182,A,868.0136660113931,Correct
15,2,256,A,23.95923171452953,49.70952298004507,1.1979615857264765,0.7808353610378129,A,878.2535000063945,Correct
15,2,257,A,13.285598958393464,34.0387516607738,0.6642799479196733,0.5346794607742716,A,657.3132500052452,Correct
15,2,258,A,10.99190874230231,36.68443112692632,0.5495954371151156,0.5762376966473624,A,626.1044999992009,Correct
15,2,259,B,67.00500173831792,48.09545964504119,3.3502500869158958,0.7554817134594287,B,1280.7965840038378,Correct
15,2,260,A,27.64389812355033,52.51489579602794,1.3821949061775165,0.8249020541841745,A,998.6452909943182,Correct
15,2,261,A,43.019033331937166,65.35906323207331,2.1509516665968587,1.0266577644769614,A,1305.6978340027854,Correct
15,2,262,A,30.093703100992432,46.182873200705245,1.5046851550496216,0.7254388758450226,A,1187.9752919776365,Correct
15,2,263,B,44.79158985219213,35.6712568308572,2.239579492609607,0.5603227920206786,A,1251.067792007234,Incorrect
15,2,264,B,38.544535361039976,14.453812572346884,1.9272267680519988,0.2270399569682438,B,1319.6964999951888,Correct
15,2,265,A,44.721798509720614,51.48927155214234,2.2360899254860307,0.8087915862345014,A,1959.5796249923296,Correct
15,2,266,B,69.53177688241908,54.5965292639154,3.476588844120954,0.857600276235084,B,3138.3698330027983,Correct
15,2,267,A,47.5463829850595,72.12418328731167,2.377319149252975,1.1329240218079102,A,997.0096249890048,Correct
15,2,268,B,81.01895268913316,55.47175386988758,4.050947634456658,0.8713482721968999,B,1512.6064170035534,Correct
15,2,269,A,22.138022909795048,33.70317893249541,1.1069011454897524,0.5294082966847494,A,826.7005409870762,Correct
15,2,270,B,85.84447446435465,67.46537059900618,4.292223723217733,1.0597435632277532,B,1117.7135419857223,Correct
15,2,271,B,80.82321117482671,50.06661461157331,4.0411605587413355,0.7864445432691505,B,1376.688958000159,Correct
15,2,272,A,56.66265465076157,69.12492107127929,2.833132732538078,1.0858117210875267,A,1022.0982910250314,Correct
15,2,273,A,48.34291830745899,57.81027688807366,2.4171459153729495,0.9080817058678201,A,811.5333329769783,Correct
15,2,274,B,62.57903317604265,38.0262354683162,3.1289516588021327,0.597314709954689,B,1229.9047080159653,Correct
15,2,275,A,36.68967398197637,62.710711079780125,1.8344836990988185,0.9850575461481464,A,732.2062499879394,Correct
15,2,276,B,39.69638929061229,28.513018491180837,1.9848194645306143,0.44788144711781824,B,2108.114957984071,Correct
15,2,277,A,52.192313025776755,70.93767933665946,2.6096156512888378,1.114286461333789,A,948.4413330210373,Correct
15,2,278,B,68.19679568918106,47.95816249922785,3.4098397844590527,0.7533250549361987,B,751.7618330020923,Correct
15,2,279,B,64.68346348186405,51.91090537065766,3.2341731740932027,0.8154145947682652,B,1765.3443749877624,Correct
15,2,280,B,48.987122090274596,23.62132046052214,2.44935610451373,0.3710428341343331,B,1319.6682920097373,Correct
15,2,281,B,76.38709798075645,64.0595629194906,3.8193548990378225,1.006245261300224,B,1747.114750003675,Correct
15,2,282,A,56.08499151834232,69.5100752284681,2.804249575917116,1.0918617084411462,A,951.1475840117782,Correct
15,2,283,B,69.79377577042244,43.39572171764213,3.489688788521122,0.6816584027268578,B,1264.4287919974886,Correct
15,2,284,B,58.09020177189181,26.523886818424717,2.904510088594591,0.41663623986705123,B,621.7055830056779,Correct
15,2,285,B,74.18414883332181,45.338323217989874,3.709207441666091,0.7121727157385827,B,686.0692909976933,Correct
15,2,286,A,15.651184006578855,39.216914154781804,0.7825592003289428,0.6160178470256205,A,664.4194170075934,Correct
15,2,287,B,86.4160654163021,65.76068098622727,4.320803270815105,1.032966361406968,B,1021.8555000028573,Correct
15,2,288,B,48.033132834745984,24.683982626158333,2.401656641737299,0.38773509239838544,B,1117.6844159781467,Correct
15,2,289,A,63.17879825833092,75.14206944805308,3.158939912916546,1.180328866767688,A,1475.5475829879288,Correct
15,2,290,B,66.7313073601003,52.23139524384775,3.336565368005015,0.8204488379240849,A,1594.6022499992978,Incorrect
15,2,291,A,41.43949266033381,71.97669516764307,2.0719746330166906,1.1306072838416972,A,849.029541015625,Correct
15,2,292,B,34.447450824554636,16.6984566863784,1.7223725412277318,0.2622987442610687,B,920.8743750059512,Correct
15,2,293,A,18.797873626246822,49.25706394105134,0.9398936813123412,0.773728151073048,A,1062.7593329991214,Correct
15,2,294,B,54.02529843050165,37.729269781328824,2.7012649215250826,0.5926499838516501,A,2051.575666991994,Incorrect
15,2,295,B,54.473768866479624,44.53895472242236,2.723688443323981,0.6996162647726525,B,2076.467209000839,Correct
15,2,296,A,64.74480189467997,78.7878613642463,3.2372400947339988,1.2375968322698365,A,2194.5736670168117,Correct
15,2,297,A,22.001539325546318,52.424600814539914,1.100076966277316,0.8234837039316805,A,766.4765000226907,Correct
15,2,298,A,52.71956231918513,69.24007945399488,2.635978115959256,1.0876206247332194,A,1128.389541991055,Correct
15,2,299,B,39.28214769182359,29.0861116529679,1.9641073845911794,0.45688357345228214,B,1238.3509589999449,Correct
