subject,day,trial,cat,x,y,xt,yt,resp,rt,fb,ns_left_digit,ns_right_digit,ns_left_size,ns_right_size,ns_congruent,ns_cue,ns_correct_side,ns_resp,ns_rt,ns_fb
15,22,0,A,40.13527925922234,47.09694912619064,2.006763962961117,0.7397971469066638,B,6949.6864569955505,Incorrect,7,6,small,big,False,Size,right,right,1688.3287910022773,Correct
15,22,1,A,57.869976636576865,67.96550651924677,2.8934988318288437,1.067599679891874,A,2062.546332977945,Correct,4,3,big,small,True,Size,left,left,1342.2339580138214,Correct
15,22,2,A,20.310843124365302,40.70221625862222,1.0155421562182652,0.6393489179145532,A,1458.7360830046237,Correct,8,5,small,big,False,Size,right,right,788.2108330086339,Correct
15,22,3,A,67.09266894947926,88.25853730142059,3.3546334474739634,1.3863618620136182,A,1277.2662909992505,Correct,2,8,big,small,False,Value,right,right,1113.2969580066856,Correct
15,22,4,A,63.20036686115767,80.72830740425185,3.1600183430578834,1.2680772873896804,A,975.6748329964466,Correct,7,2,big,small,True,Value,left,left,1392.7084159804508,Correct
15,22,5,B,57.17163463575904,41.07664602618418,2.858581731787952,0.6452304469498429,B,783.2841239869595,Correct,3,2,small,big,False,Value,left,left,1153.6996240029112,Correct
15,22,6,B,36.64066521484024,21.50697775518163,1.8320332607420118,0.3378308165829886,B,1641.462290979689,Correct,3,4,big,small,False,Value,right,right,1175.3102079965174,Correct
15,22,7,B,64.64239467616545,34.67419686288278,3.2321197338082728,0.5446610106677939,B,817.1983319916762,Correct,2,5,big,small,False,Value,right,right,1171.992791001685,Correct
15,22,8,A,34.55099417545712,52.40036122225391,1.727549708772856,0.8231029493064218,A,703.659000020707,Correct,4,8,big,small,False,Size,left,left,1242.5689579977188,Correct
15,22,9,A,54.77021480218668,75.89497569090328,2.738510740109334,1.1921554903745883,A,901.094416010892,Correct,4,6,big,small,False,Value,right,right,778.082832985092,Correct
15,22,10,B,34.02231427624808,16.19921366327567,1.7011157138124042,0.25445665319239125,B,1041.648415994132,Correct,5,3,small,big,False,Size,right,right,1292.8522909933235,Correct
15,22,11,A,23.929057615510583,55.518127736624116,1.1964528807755292,0.8720767111921903,A,1536.973291018512,Correct,7,8,big,small,False,Size,left,left,867.3097080027219,Correct
15,22,12,A,33.573071655239005,59.69938259713016,1.6786535827619502,0.9377557089549522,A,1032.670499989763,Correct,8,4,small,big,False,Size,right,right,983.6357079911977,Correct
15,22,13,A,40.920159233626904,60.55871769426139,2.0460079616813456,0.951254113095549,A,836.0220000031404,Correct,4,7,big,small,False,Value,right,right,1431.8197910033632,Correct
15,22,14,B,75.89237624019063,63.49537243365043,3.7946188120095314,0.9973829778725204,B,1061.6139579797164,Correct,6,2,small,big,False,Size,right,right,1037.0664990041405,Correct
15,22,15,A,29.919488850441546,50.97346710557311,1.4959744425220773,0.8006893489343472,A,965.959291002946,Correct,8,7,big,small,True,Value,left,left,831.6846660163719,Correct
15,22,16,A,36.73513317268913,52.42016622459615,1.8367566586344566,0.8234140455557354,A,1118.8559580186848,Correct,2,6,big,small,False,Size,left,left,858.0631660006475,Correct
15,22,17,A,17.577763436193326,39.976569908940974,0.8788881718096663,0.6279504917082387,A,868.4815820015501,Correct,2,7,big,small,False,Size,left,left,897.951124003157,Correct
15,22,18,A,24.798138525485705,39.332253875842554,1.2399069262742852,0.6178295991273782,A,888.1416240183171,Correct,5,6,big,small,False,Value,right,right,1350.018416007515,Correct
15,22,19,B,60.7598762665789,51.248548639075565,3.037993813328945,0.805010319558295,B,1446.1521659977734,Correct,6,4,small,big,False,Size,right,right,751.0767499916255,Correct
15,22,20,A,14.508087630294003,34.11758694399088,0.7254043815147001,0.5359178025072638,A,1278.5644569958095,Correct,7,6,small,big,False,Size,right,right,1120.997999998508,Correct
15,22,21,B,66.16567272597908,47.7866127783506,3.3082836362989543,0.7506303582220318,B,1286.2070820119698,Correct,7,3,small,big,False,Value,left,left,1536.4735829934943,Correct
15,22,22,B,79.64572473620608,66.0819895736324,3.982286236810304,1.0380134648956043,B,774.041083001066,Correct,8,6,small,big,False,Value,left,left,886.074208014179,Correct
15,22,23,B,45.07984877469289,35.91143598667449,2.2539924387346444,0.5640955173779835,B,713.2957490102854,Correct,2,7,big,small,False,Value,right,right,899.3195829971228,Correct
15,22,24,A,42.4955640574824,57.465082072121206,2.12477820287412,0.9026593983785525,A,1369.9967910069972,Correct,3,2,small,big,False,Size,right,right,1148.4394579892978,Correct
15,22,25,B,87.51207027718613,65.19830175454176,4.375603513859306,1.0241325290929946,B,2031.4081239921506,Correct,7,8,big,small,False,Size,left,right,972.0782910007983,Incorrect
15,22,26,A,34.85533582194195,58.02428576172966,1.7427667910970974,0.9114433493942238,A,948.8117910223082,Correct,7,5,small,big,False,Value,left,left,2377.6458330103196,Correct
15,22,27,B,54.994757683755054,24.215209990260664,2.7497378841877524,0.38037162905268534,B,1764.8875000013504,Correct,7,3,small,big,False,Size,right,right,1465.2746250212658,Correct
15,22,28,B,49.861616861376746,40.72031403983509,2.4930808430688374,0.6396331971970761,B,1593.4939570142888,Correct,3,6,small,big,True,Value,right,right,1462.1318749850616,Correct
15,22,29,A,48.219107227680986,58.74045440607653,2.4109553613840493,0.9226929001532811,A,960.6371660192963,Correct,3,8,big,small,False,Size,left,left,914.15766600403,Correct
15,22,30,A,46.1699523039086,75.23339292173675,2.3084976151954297,1.1817633725378127,A,1078.3632069942541,Correct,3,5,big,small,False,Size,left,left,784.2231660033576,Correct
15,22,31,B,83.76385050365631,58.296071334287916,4.188192525182816,0.9157125471847274,B,1219.3637909949757,Correct,2,8,big,small,False,Value,right,right,1390.3797490056604,Correct
15,22,32,A,26.896633991242258,52.170342964999534,1.344831699562113,0.8194898309705125,A,1490.244165994227,Correct,5,6,big,small,False,Size,left,left,951.1140820104629,Correct
15,22,33,B,50.81453440754858,41.722116992050545,2.540726720377429,0.6553694811721994,B,1506.853458005935,Correct,5,2,small,big,False,Size,right,right,1089.766541001154,Correct
15,22,34,A,34.31542916991086,61.37229637847796,1.7157714584955428,0.9640337771828091,A,1014.3493739888072,Correct,8,4,small,big,False,Size,right,right,1136.7300410056487,Correct
15,22,35,B,67.19954885737086,45.72953005736372,3.359977442868543,0.7183177784016375,B,1830.7934989861678,Correct,6,8,big,small,False,Value,right,right,991.4827910251915,Correct
15,22,36,B,47.72115352228164,19.43231906990299,2.386057676114082,0.3052421541611004,B,1877.350541006308,Correct,2,6,small,big,True,Size,right,right,1014.4476660061628,Correct
15,22,37,B,61.78514039000918,36.398211718225305,3.089257019500459,0.5717417726889127,B,709.9313329963479,Correct,4,3,small,big,False,Value,left,right,1772.1478329913225,Incorrect
15,22,38,A,19.309339596819772,40.957803087435444,0.9654669798409885,0.6433636664333228,A,926.83974900865,Correct,2,7,big,small,False,Value,right,right,987.0659580046777,Correct
15,22,39,B,55.55225886898813,29.020790362586165,2.7776129434494066,0.45585750902235084,B,1236.8784160062205,Correct,4,6,big,small,False,Value,right,right,1159.3956660071854,Correct
15,22,40,B,37.72145939995407,12.016089418404832,1.8860729699977037,0.18874829120869335,B,1196.6402499820106,Correct,7,5,small,big,False,Size,right,right,2112.9268319928087,Correct
15,22,41,B,53.59562212909786,23.080999898413957,2.679781106454893,0.3625554985918203,B,1379.5196659921203,Correct,6,8,big,small,False,Value,right,right,986.4218739967328,Correct
15,22,42,A,58.88537178691042,86.49481577223641,2.944268589345521,1.3586573890183022,A,998.2962910144124,Correct,2,8,small,big,True,Value,right,right,1108.5782079899218,Correct
15,22,43,A,34.4330578166132,48.5157755112899,1.72165289083066,0.7620840196473997,A,1086.8210820190143,Correct,7,4,small,big,False,Size,right,right,1531.2334579939488,Correct
15,22,44,A,58.12883519272351,69.42067359602399,2.9064417596361753,1.0904573908826194,A,2635.591458005365,Correct,2,4,small,big,True,Size,right,right,798.143666004762,Correct
15,22,45,A,67.83229729277394,81.65890442073292,3.391614864638697,1.2826950711418281,A,878.1572489824612,Correct,3,5,big,small,False,Size,left,left,1319.7217489941977,Correct
15,22,46,A,58.68200291411867,78.65214276190207,2.934100145705934,1.2354649694494357,A,1140.9832070057746,Correct,7,2,big,small,True,Value,left,left,1392.3779579927213,Correct
15,22,47,B,74.53288125439389,45.29569919850186,3.726644062719694,0.7115031792061326,B,954.6759990043938,Correct,8,6,small,big,False,Value,left,left,1038.9095410064328,Correct
15,22,48,A,59.907454667939085,73.25018013765218,2.9953727333969544,1.1506111389728853,A,1670.322499005124,Correct,7,2,big,small,True,Value,left,left,1006.3649989897385,Correct
15,22,49,A,54.9121774113442,63.28370402911918,2.74560887056721,0.9940580983491579,A,1770.3734159877058,Correct,6,7,big,small,False,Value,right,right,917.5965409958735,Correct
15,22,50,A,64.20341312077161,83.14755053733626,3.210170656038581,1.3060786696604083,A,1230.9358739876188,Correct,6,4,small,big,False,Size,right,right,911.0964999999851,Correct
15,22,51,A,47.45580687103418,67.59689470893647,2.372790343551709,1.061809539115388,A,1520.913248998113,Correct,7,2,small,big,False,Size,right,right,629.0949569956865,Correct
15,22,52,B,50.13100085637407,22.34089309236082,2.5065500428187035,0.3509299280679785,B,802.7131239941809,Correct,4,3,small,big,False,Size,right,right,951.1043739912566,Correct
15,22,53,B,46.81797594384545,34.65819476303684,2.3408987971922723,0.5444096502712038,B,832.3159989959095,Correct,4,7,big,small,False,Size,left,left,1105.8732499950565,Correct
15,22,54,A,63.2453066805472,88.65279602481621,3.1622653340273597,1.392554863558785,A,915.6726250075735,Correct,7,4,big,small,True,Size,left,left,1085.1616250001825,Correct
15,22,55,A,36.268234658989954,63.2091829217494,1.8134117329494979,0.9928875235319066,A,976.0355830076151,Correct,8,2,small,big,False,Size,right,right,914.1879160015378,Correct
15,22,56,A,39.101521503073116,67.62767324932732,1.9550760751536558,1.0622930072972885,A,803.5570410138462,Correct,8,6,small,big,False,Value,left,left,973.626499006059,Correct
15,22,57,A,67.68860310936587,82.96111265646715,3.384430155468294,1.303150110275962,A,1460.0969580060337,Correct,5,8,big,small,False,Size,left,left,924.8501659894828,Correct
15,22,58,A,19.903174730433133,47.42160353065412,0.9951587365216567,0.7448968063667539,A,1207.8498739865609,Correct,6,2,small,big,False,Size,right,right,1007.8390410053544,Correct
15,22,59,B,43.52388140816652,34.27119509178018,2.176194070408326,0.5383306736503959,B,906.9712490017992,Correct,2,5,big,small,False,Value,right,right,895.5418319965247,Correct
15,22,60,A,16.422712341695675,43.194039619954424,0.8211356170847837,0.6784903877445763,A,709.7006239928305,Correct,6,8,small,big,True,Value,right,right,1097.6044579874724,Correct
15,22,61,B,55.52529596398229,39.88423600673677,2.776264798199114,0.6265001141640287,B,660.0394569977652,Correct,6,7,big,small,False,Size,left,right,859.3440830009058,Incorrect
15,22,62,B,43.680151907741305,16.335674944658905,2.1840075953870652,0.2566001819878563,B,902.0557909971103,Correct,4,3,small,big,False,Size,right,right,1094.7038740268908,Correct
15,22,63,B,66.83243715867577,42.91871474019479,3.3416218579337884,0.6741655946465597,B,1351.0410409944598,Correct,4,5,small,big,True,Size,right,right,842.9314160021022,Correct
15,22,64,A,45.87329297340186,61.370081818996546,2.2936646486700933,0.9639989909638205,A,957.1885819896124,Correct,6,5,big,small,True,Size,left,left,950.2732910041232,Correct
15,22,65,B,67.40872040929547,58.78372876274208,3.3704360204647736,0.9233726521582276,B,891.0711659991648,Correct,3,2,small,big,False,Value,left,left,1113.2804999942891,Correct
15,22,66,A,52.360594258931116,62.0194539035,2.6180297129465555,0.974199303814432,A,1852.1434160065837,Correct,3,6,small,big,True,Size,right,right,1148.6050410021562,Correct
15,22,67,A,44.15818100414419,73.85132656893424,2.2079090502072094,1.1600539250341226,A,787.783165986184,Correct,5,8,big,small,False,Value,right,right,2031.1529989994597,Correct
15,22,68,B,74.224251510672,43.39700598224445,3.7112125755336,0.6816785759080572,B,929.7114580112975,Correct,7,2,small,big,False,Value,left,left,990.1235830038786,Correct
15,22,69,A,64.96143667008076,85.75159907443958,3.2480718335040377,1.3469829684291834,A,920.9737080091145,Correct,8,7,big,small,True,Value,left,left,1114.4491659943014,Correct
15,22,70,B,73.5538912564924,49.10200514825006,3.6776945628246205,0.7712924932513529,B,880.9471660060808,Correct,6,5,small,big,False,Value,left,left,1390.8265829959419,Correct
15,22,71,B,56.64890720597441,49.39499414982242,2.8324453602987205,0.7758947537259647,B,1001.5840829873923,Correct,7,3,big,small,True,Size,left,left,1021.3669160148129,Correct
15,22,72,B,65.12919910101185,54.35896618142385,3.256459955050593,0.853868644061486,B,711.4789580227807,Correct,8,7,big,small,True,Value,left,left,980.8906660182402,Correct
15,22,73,B,74.22092637626233,45.60899162841198,3.7110463188131164,0.7164243651872872,B,3281.0967069817707,Correct,5,7,small,big,True,Size,right,left,1566.00870800321,Incorrect
15,22,74,B,44.32104473999751,32.2340194008381,2.2160522369998756,0.5063307927267192,B,1689.8140409903135,Correct,8,7,small,big,False,Value,left,left,762.4869580031373,Correct
15,22,75,B,74.17997527797593,45.0688286669204,3.7089987638987965,0.7079395052294711,B,1412.9218330199365,Correct,3,6,big,small,False,Value,right,right,1035.6129159918055,Correct
15,22,76,B,76.38484365086624,51.160085042668754,3.819242182543312,0.803620736635386,B,848.2281659962609,Correct,8,5,small,big,False,Size,right,right,1346.8833319784608,Correct
15,22,77,B,81.54768926548849,57.8040020103395,4.0773844632744245,0.9079831403188611,B,1017.2425819910131,Correct,5,3,small,big,False,Size,right,right,1064.823916007299,Correct
15,22,78,A,41.88334310554593,61.13851758536479,2.0941671552772965,0.9603615884877621,A,691.1537080013659,Correct,8,3,small,big,False,Value,left,left,1290.3499990061391,Correct
15,22,79,A,50.15771806216548,72.77018839707102,2.507885903108274,1.143071446342918,A,1006.9171659997664,Correct,4,5,big,small,False,Size,left,left,1736.5131240221672,Correct
15,22,80,A,37.938723509322465,51.613651574888074,1.8969361754661234,0.8107453430630582,A,720.6489160016645,Correct,7,4,small,big,False,Size,right,right,1532.1365830022842,Correct
15,22,81,A,67.45978943504268,81.58653933223027,3.3729894717521343,1.2815583629897467,A,3019.6037909772713,Correct,8,4,small,big,False,Size,right,left,3546.749166009249,Incorrect
15,22,82,A,39.882644927144646,63.865620621977676,1.9941322463572322,1.0031988228147892,A,1433.5181659844238,Correct,3,7,big,small,False,Size,left,left,1451.7690409848,Correct
15,22,83,B,80.23281508283895,48.63990077304772,4.011640754141948,0.7640337746997161,B,978.249790990958,Correct,4,2,small,big,False,Size,right,right,956.8421660223976,Correct
15,22,84,A,27.222724712385997,53.00796012744076,1.3611362356192998,0.8326470905907429,A,719.7445410129149,Correct,4,3,small,big,False,Size,right,right,1012.3609579750337,Correct
15,22,85,A,26.192438527246598,37.185745497338736,1.3096219263623299,0.5841123243634955,A,1329.940333002014,Correct,2,3,big,small,False,Value,right,right,1461.135290999664,Correct
15,22,86,A,59.79554561107247,72.5157667247712,2.9897772805536236,1.139075000059862,A,825.6763320241589,Correct,3,4,big,small,False,Size,left,left,834.1561240085866,Correct
15,22,87,A,61.1108559884696,77.41308454423478,3.05554279942348,1.2160018884794679,A,1296.9942080089822,Correct,7,8,big,small,False,Size,left,left,2619.9685410247184,Correct
15,22,88,A,18.868402409111365,34.507020201553594,0.9434201204555683,0.5420350058123767,A,888.9094580081291,Correct,8,5,small,big,False,Value,left,left,3658.97758200299,Correct
15,22,89,B,87.28815513282774,69.24555012896373,4.364407756641387,1.087706557894681,B,921.0227489820682,Correct,4,8,big,small,False,Value,right,right,1275.811581988819,Correct
15,22,90,B,76.64534626433411,45.545120361843416,3.8322673132167053,0.715421077678151,B,1463.7397079786751,Correct,6,2,big,small,True,Size,left,left,2068.092166009592,Correct
15,22,91,A,65.85776381868277,81.24463766791929,3.2928881909341383,1.2761877842054992,A,774.3820830073673,Correct,5,4,small,big,False,Value,left,left,972.5195409846492,Correct
15,22,92,A,21.413850843652263,38.863234311848416,1.070692542182613,0.6104622570442089,A,673.1654159957543,Correct,4,8,big,small,False,Value,right,right,975.5733750062063,Correct
15,22,93,A,55.9911921279522,69.71441276149895,2.7995596063976103,1.095071434904258,A,1065.9241660032421,Correct,2,4,big,small,False,Value,right,right,1407.9555830103345,Correct
15,22,94,A,28.105552939646643,39.54919957784138,1.4052776469823323,0.6212373742455152,A,782.4741239892319,Correct,2,3,big,small,False,Value,right,right,896.461916010594,Correct
15,22,95,B,68.3689944244669,49.86246462190992,3.4184497212233453,0.7832377627303658,B,1392.292581993388,Correct,2,7,big,small,False,Size,left,left,1731.5916240040679,Correct
15,22,96,B,73.57852469542637,56.49925407741904,3.6789262347713185,0.8874882077146141,B,2051.137041009497,Correct,5,4,small,big,False,Size,right,right,1356.3444570172578,Correct
15,22,97,B,47.37693843341698,37.173894349942685,2.368846921670849,0.5839261669755154,A,799.279833008768,Incorrect,3,2,small,big,False,Size,right,right,945.1920409919694,Correct
15,22,98,B,67.7893407689055,47.775639970581025,3.389467038445275,0.750457997760641,B,2186.4736239949707,Correct,4,5,big,small,False,Size,left,left,1061.6981240164023,Correct
15,22,99,B,63.39405759688375,49.86877195066774,3.1697028798441873,0.7833368380188126,A,930.7670410198625,Incorrect,4,6,big,small,False,Size,left,left,1119.0401659987401,Correct
15,22,100,B,46.058525935926795,27.091453935041997,2.3029262967963398,0.4255515632869711,B,1157.7793739852495,Correct,6,5,big,small,True,Value,left,left,995.0135410181247,Correct
15,22,101,B,81.60991219942242,56.73332092425895,4.080495609971121,0.8911649211470201,B,1728.6474579887,Correct,2,8,big,small,False,Size,left,left,1216.4144569833297,Correct
15,22,102,B,73.48140197102464,44.992537827977785,3.674070098551232,0.7067411315336793,B,871.5701659966726,Correct,6,3,small,big,False,Size,right,right,1161.306499998318,Correct
15,22,103,A,39.71745767381863,51.160499934426426,1.9858728836909314,0.8036272537398759,A,933.9174579945393,Correct,4,7,small,big,True,Value,right,right,1055.0261250173207,Correct
15,22,104,A,44.25583805764614,53.87369353835078,2.212791902882307,0.8462459992091534,B,974.459499004297,Incorrect,7,6,big,small,True,Size,left,left,1764.7245829866733,Correct
15,22,105,A,24.052431607516173,53.88095647039342,1.2026215803758087,0.846360085078897,A,655.5457490030676,Correct,8,3,small,big,False,Value,left,left,1096.0333330149297,Correct
15,22,106,A,55.00324818555074,79.6790803034166,2.750162409277537,1.2515960666300239,A,1665.2264989970718,Correct,6,4,small,big,False,Value,left,right,1140.0340000109281,Incorrect
15,22,107,A,19.267237455730974,33.115194963402836,0.9633618727865487,0.5201722660961003,A,1010.2438329777215,Correct,3,5,big,small,False,Value,right,right,1131.8021250190213,Correct
15,22,108,B,83.37596857487252,58.33058013632988,4.168798428743625,0.9162546101796233,B,898.106665990781,Correct,8,3,small,big,False,Value,left,left,846.3834580034018,Correct
15,22,109,B,82.32433193437929,57.37750132253679,4.116216596718965,0.901283683181101,B,782.5708329910412,Correct,4,2,small,big,False,Value,left,left,1361.9159999943804,Correct
15,22,110,B,66.00549899514415,37.566471793141055,3.3002749497572075,0.5900927590331005,B,729.533291014377,Correct,2,6,big,small,False,Size,left,left,1348.8819579943083,Correct
15,22,111,B,80.72877965682132,56.328375296462866,4.036438982841066,0.8848040501000826,B,1292.6577079924755,Correct,7,6,small,big,False,Size,right,right,1798.6267489905003,Correct
15,22,112,A,26.19112048972101,48.077107130167306,1.3095560244860505,0.7551934328299152,A,771.7680000059772,Correct,8,7,small,big,False,Size,right,right,970.6207910203375,Correct
15,22,113,A,52.474620843630774,69.21994972049775,2.6237310421815385,1.0873044276188528,A,1586.1817080003675,Correct,3,4,big,small,False,Size,left,left,803.8232079998124,Correct
15,22,114,B,39.553926031602465,25.71730887550221,1.9776963015801232,0.4039665431668866,B,950.5702500173356,Correct,2,7,big,small,False,Size,left,left,1136.4752080116887,Correct
15,22,115,A,25.533582416864256,53.656402043595506,1.2766791208432127,0.8428327923911,A,744.9902490188833,Correct,3,7,big,small,False,Size,left,left,720.3329989861231,Correct
15,22,116,B,33.23761164046855,14.36322502981633,1.6618805820234275,0.22561701117764008,B,748.0729989765678,Correct,7,8,big,small,False,Value,right,right,973.7408740038518,Correct
15,22,117,A,52.66421402732368,60.0052009925621,2.633210701366184,0.9425594930770603,A,730.381581990514,Correct,7,3,small,big,False,Value,left,left,835.5901240138337,Correct
15,22,118,A,46.85252686799526,73.41903882123782,2.342626343399763,1.1532635649721228,A,648.9657080092002,Correct,2,8,small,big,True,Value,right,right,1007.0421239943244,Correct
15,22,119,A,61.561736688952266,83.86825712887068,3.078086834447613,1.3173995023271998,A,523.8362909876741,Correct,4,8,big,small,False,Size,left,left,1008.5892909846734,Correct
15,22,120,B,68.69546473949077,44.516317614830484,3.4347732369745385,0.6992606819181068,B,2034.6842909930274,Correct,4,2,small,big,False,Value,left,left,1180.8618320210371,Correct
15,22,121,A,36.60699395578841,68.1567252644289,1.8303496977894207,1.0706033369173384,A,1766.5457910043187,Correct,2,8,big,small,False,Size,left,left,963.4437909990083,Correct
15,22,122,A,39.7175521937733,58.63013492954091,1.9858776096886652,0.9209600058681202,A,840.7796660030726,Correct,5,8,big,small,False,Value,right,right,1549.4514160091057,Correct
15,22,123,B,58.456425842215545,40.33588379603824,2.9228212921107772,0.6335945810484265,B,1159.4283739977982,Correct,7,8,big,small,False,Value,right,right,1240.2556659944821,Correct
15,22,124,B,69.44454617217116,51.92952110082509,3.472227308608558,0.8157070099739413,B,891.2091239762958,Correct,2,3,big,small,False,Value,right,right,1010.1409569906536,Correct
15,22,125,A,38.2039054837466,60.373740106234955,1.9101952741873303,0.9483484919374359,A,707.8471659915522,Correct,5,2,small,big,False,Value,left,left,898.3539160108194,Correct
15,22,126,A,37.047654941838225,51.6776812311979,1.8523827470919114,0.8117511185524323,A,1067.9433750046883,Correct,5,3,small,big,False,Size,right,right,1609.6175000129733,Correct
15,22,127,B,32.96782650911343,15.23904055665852,1.6483913254556715,0.23937428930277657,B,714.7106250049546,Correct,6,2,small,big,False,Size,right,right,1168.9139990194235,Correct
15,22,128,B,67.8032610785668,58.91873611572305,3.3901630539283407,0.9254933426997558,B,1437.9294990212657,Correct,7,5,small,big,False,Size,right,right,1307.930998998927,Correct
15,22,129,A,26.354543639203406,53.74329203475777,1.3177271819601701,0.8441976571806293,A,711.5942490054294,Correct,7,2,small,big,False,Value,left,left,832.3686239891686,Correct
15,22,130,B,54.01289970279437,24.954071765494373,2.7006449851397183,0.39197764267814794,B,949.5611659949645,Correct,8,2,small,big,False,Value,left,left,1022.927540994715,Correct
15,22,131,B,89.03965285143548,67.90843502660275,4.451982642571774,1.066703202981775,B,1640.0454160175286,Correct,5,7,big,small,False,Value,right,right,1603.9759579871316,Correct
15,22,132,A,32.474032063849805,63.396766508767676,1.62370160319249,0.9958340796264599,A,677.5178740208503,Correct,3,7,big,small,False,Size,left,left,1159.1202909767162,Correct
15,22,133,A,39.486850486969345,66.06063701539715,1.9743425243484671,1.0376780596951682,A,1369.7797909844667,Correct,7,2,small,big,False,Value,left,left,754.7352909750771,Correct
15,22,134,A,26.577220061078254,52.02032466544597,1.3288610030539127,0.817133349031605,A,1160.824249003781,Correct,7,6,small,big,False,Value,left,left,1474.7586250014137,Correct
15,22,135,A,41.37298116404715,72.72626738643099,2.0686490582023573,1.1423815367210928,A,667.2104159952141,Correct,8,3,small,big,False,Value,left,left,805.8206249843352,Correct
15,22,136,B,57.683831396806625,31.55194616565327,2.8841915698403313,0.4956168114023848,B,698.351333005121,Correct,5,7,small,big,True,Size,right,right,904.9420410010498,Correct
15,22,137,B,46.17541013762519,39.153377023708444,2.3087705068812596,0.6150198081045692,A,1333.3738740184344,Incorrect,4,5,big,small,False,Size,left,right,3761.062291014241,Incorrect
15,22,138,B,59.543253891227245,35.40638211217282,2.977162694561362,0.556162149668976,B,1221.0783750051633,Correct,5,8,big,small,False,Size,left,left,939.5772489951923,Correct
15,22,139,A,32.08650412632872,51.00670527544008,1.604325206316436,0.8012114528857115,A,779.0581659937743,Correct,5,8,big,small,False,Size,left,left,876.7936659860425,Correct
15,22,140,B,43.69003039401151,27.564728849563366,2.1845015197005755,0.4329857482599144,B,962.490498990519,Correct,4,2,small,big,False,Size,right,right,1834.0439570019953,Correct
15,22,141,A,57.70576392119349,68.00763055613542,2.8852881960596743,1.0682613627160191,A,1505.7798330090009,Correct,2,3,big,small,False,Size,left,left,831.9368739903439,Correct
15,22,142,B,66.277997077793,55.715213283456926,3.31389985388965,0.8751725237224837,B,832.8967489942443,Correct,7,6,small,big,False,Size,right,right,860.7177489902824,Correct
15,22,143,B,80.60895207886728,62.572866385721866,4.030447603943363,0.9828922867571975,A,782.9118740046397,Incorrect,2,7,big,small,False,Size,left,left,2998.452416009968,Correct
15,22,144,A,45.7855467094652,77.12534941234333,2.28927733547326,1.2114821555968185,A,1441.1421660042834,Correct,4,6,small,big,True,Size,right,right,1404.6092069766019,Correct
15,22,145,B,40.709971035105,20.592712340185912,2.03549855175525,0.3234695690270797,B,891.972415993223,Correct,5,2,small,big,False,Size,right,right,1582.4649989954196,Correct
15,22,146,B,51.82257191110073,20.469709403264623,2.5911285955550363,0.3215374434120703,B,1296.533333021216,Correct,2,3,big,small,False,Size,left,left,1037.48629099573,Correct
15,22,147,B,66.62313865948843,44.86043230560196,3.3311569329744213,0.7046660228407067,B,1048.6007909930777,Correct,5,7,big,small,False,Size,left,left,958.829874987714,Correct
15,22,148,B,76.65127347549452,44.95927560682527,3.832563673774726,0.7062186497856053,B,649.9888740072493,Correct,8,7,big,small,True,Value,left,left,1802.348166005686,Correct
15,22,149,A,60.683232960840016,79.88402314498566,3.034161648042001,1.2548153012574197,A,820.6007910193875,Correct,3,5,big,small,False,Size,left,left,894.0647070121486,Correct
15,22,150,B,50.68593461019758,33.089507032629,2.534296730509879,0.5197687610230753,B,2035.393500002101,Correct,4,2,small,big,False,Value,left,left,681.084957002895,Correct
15,22,151,A,25.921237437807275,46.97422353262327,1.2960618718903638,0.7378693777908703,A,585.0453329912852,Correct,6,4,small,big,False,Value,left,left,1579.5572079950944,Correct
15,22,152,A,16.0110451686917,36.45536135053682,0.8005522584345851,0.5726394770140387,A,581.637540977681,Correct,6,4,small,big,False,Value,left,left,2199.038374994416,Correct
15,22,153,B,55.77820565680639,38.4501831605686,2.7889102828403196,0.6039740647321213,B,1771.320875006495,Correct,4,3,big,small,True,Size,left,left,1485.677916003624,Correct
15,22,154,B,70.8501050820001,52.34324715503984,3.542505254100005,0.82220580363654,A,876.398666005116,Incorrect,8,6,big,small,True,Value,left,left,1272.6554999826476,Correct
15,22,155,B,51.60746090622559,30.20237798908675,2.58037304531128,0.47441784405728504,B,1999.6918750111945,Correct,8,4,big,small,True,Size,left,left,1320.8864580083173,Correct
15,22,156,B,45.13343889897648,36.24470122142498,2.256671944948824,0.5693304354439286,B,2816.814499994507,Correct,2,6,big,small,False,Value,right,right,1874.117291008588,Correct
15,22,157,A,31.304073360004004,56.285443882900246,1.5652036680002002,0.8841296850327999,A,909.1481660143472,Correct,8,5,big,small,True,Size,left,left,954.6184159989934,Correct
15,22,158,B,73.94565738239949,54.720234451721836,3.697282869119974,0.8595434327812022,B,1036.7101239971817,Correct,4,7,big,small,False,Value,right,right,2825.192958000116,Correct
15,22,159,B,85.77910711168289,69.38208618345232,4.288955355584145,1.0898512612233384,B,1608.3663739846088,Correct,2,8,small,big,True,Value,right,right,2957.470416004071,Correct
15,22,160,B,33.70104076286685,12.872536694367376,1.6850520381433427,0.20220133356044798,B,700.1835409901105,Correct,3,2,big,small,True,Value,left,left,2930.6062909890898,Correct
15,22,161,A,13.868044477120687,31.106972638259702,0.6934022238560344,0.48862718357887686,A,720.1880000066012,Correct,6,2,small,big,False,Size,right,right,1266.5230830025394,Correct
15,22,162,A,40.17191115527349,56.63490450903361,2.008595557763675,0.8896189997116972,A,1008.9308329916093,Correct,8,7,small,big,False,Value,left,right,1190.2942069864366,Incorrect
15,22,163,A,28.224850081616484,59.6934103931588,1.411242504080824,0.9376618977943415,A,824.7562500182539,Correct,3,6,big,small,False,Size,left,left,1987.956249009585,Correct
15,22,164,B,42.82330702703854,26.59404549404274,2.141165351351927,0.41773828976658706,B,1934.5549989957362,Correct,5,3,small,big,False,Value,left,left,1334.0831660025287,Correct
15,22,165,B,36.285724452076124,25.986458867577788,1.8142862226038061,0.40819434135597854,B,1412.6599159790203,Correct,7,5,small,big,False,Size,right,right,1024.2340819968376,Correct
15,22,166,A,44.26259167869551,54.312527506387575,2.2131295839347755,0.853139187059804,A,1573.2159160252195,Correct,6,7,big,small,False,Size,left,right,878.1349579803646,Incorrect
15,22,167,B,84.55152616090103,58.998172045935824,4.227576308045052,0.9267411193736935,B,648.9273750048596,Correct,6,2,small,big,False,Size,right,left,1332.0842910034116,Incorrect
15,22,168,A,38.66711779299546,68.85088695285944,1.9333558896497731,1.0815072032212227,A,1099.9033319822047,Correct,7,5,small,big,False,Value,left,right,1023.7584160058759,Incorrect
15,22,169,A,47.205176874499145,77.85991127849442,2.3602588437249574,1.2230206264083558,A,1127.13808301487,Correct,5,6,small,big,True,Size,right,right,787.8625830053352,Correct
15,22,170,B,45.67936754395702,24.738355699635903,2.283968377197851,0.3885891826393367,B,642.535166000016,Correct,7,2,small,big,False,Size,right,right,968.4284570103046,Correct
15,22,171,B,70.49841530824071,52.179842187837856,3.524920765412036,0.8196390444139308,B,877.1057080011815,Correct,8,2,small,big,False,Size,right,right,888.076291012112,Correct
15,22,172,A,48.74758200083494,56.385077449566104,2.437379100041747,0.8856947254382419,A,1119.2483739869203,Correct,3,5,big,small,False,Size,left,left,1012.3907909728587,Correct
15,22,173,B,51.45098633494021,21.154731681272672,2.572549316747011,0.33229774819274743,B,756.6503739799373,Correct,7,2,small,big,False,Value,left,left,1926.5224580012728,Correct
15,22,174,A,33.354256072553746,53.96497819807935,1.6677128036276871,0.8476798952910971,A,714.082040998619,Correct,5,7,big,small,False,Size,left,left,771.3727499940433,Correct
15,22,175,A,29.7083655463709,44.000202777599284,1.485418277318545,0.6911535690128355,A,726.9281240005512,Correct,8,2,small,big,False,Size,right,right,1044.1998319874983,Correct
15,22,176,B,76.73039847955498,45.350960546203765,3.836519923977749,0.7123712224259715,B,711.9317080068868,Correct,7,8,big,small,False,Value,right,right,1878.900166018866,Correct
15,22,177,B,58.40746638234418,31.317590142572307,2.920373319117209,0.4919355556002064,B,981.549415999325,Correct,8,4,small,big,False,Value,left,left,903.9550829911605,Correct
15,22,178,B,59.51244689543523,27.985095751969354,2.975622344771762,0.43958885612196924,B,673.7289160082582,Correct,2,7,big,small,False,Size,left,left,1335.4615819989704,Correct
15,22,179,A,29.192801725049133,44.54483227803611,1.4596400862524568,0.6997085892003386,A,735.8552910154685,Correct,8,7,small,big,False,Value,left,left,2145.9259990078863,Correct
15,22,180,B,58.63050756015911,47.66642999385819,2.9315253780079553,0.7487425314577852,A,2048.065206996398,Incorrect,2,4,big,small,False,Size,left,right,805.6917909998447,Incorrect
15,22,181,B,35.05402369940108,12.76748372776822,1.752701184970054,0.20055116541991932,B,760.6512909987941,Correct,8,6,small,big,False,Value,left,left,1028.4272910212167,Correct
15,22,182,B,58.27239999592531,38.593475401538605,2.9136199997962655,0.6062248939898603,B,982.9354989924468,Correct,6,8,big,small,False,Value,right,right,1541.1202489922289,Correct
15,22,183,B,83.6524789124754,58.222046719850546,4.182623945623771,0.9145497712602211,B,779.6052499907091,Correct,4,6,big,small,False,Value,right,right,1450.1987909898162,Correct
15,22,184,A,41.82638495459256,49.7781437545453,2.091319247729628,0.7819132536430808,A,882.9107490018941,Correct,8,5,small,big,False,Size,right,right,1794.0819159848616,Correct
15,22,185,B,42.80330956029094,30.413852855575712,2.1401654780145467,0.477739683492188,A,898.4038330090698,Incorrect,8,2,small,big,False,Size,right,right,970.2868740132544,Correct
15,22,186,B,82.45839770753419,53.6389032421168,4.122919885376709,0.8425579218602393,B,831.7943750007544,Correct,4,8,big,small,False,Value,right,right,1434.6594990056474,Correct
15,22,187,A,23.299117800647952,46.827399090323,1.1649558900323975,0.7355630648443805,A,603.4466240089387,Correct,6,2,big,small,True,Size,left,left,1059.7237080219202,Correct
15,22,188,A,12.926443318035325,36.766353167693424,0.6463221659017663,0.5775245250545674,A,581.5689569863025,Correct,4,8,big,small,False,Size,left,left,959.5869159966242,Correct
15,22,189,A,46.91561353637663,63.85565305034005,2.3457806768188316,1.0030422525656348,A,735.3435410186648,Correct,7,4,small,big,False,Value,left,left,1272.1328329935204,Correct
15,22,190,B,39.089452691128464,19.365427852182794,1.9544726345564232,0.30419142937020316,B,1230.4045819910243,Correct,3,8,big,small,False,Size,left,left,956.814541015774,Correct
15,22,191,B,33.146941794591456,19.657217025251704,1.6573470897295726,0.3087748429827548,B,843.547958007548,Correct,6,7,big,small,False,Value,right,right,2328.725666011451,Correct
15,22,192,A,21.83582470942275,53.56265487462183,1.0917912354711374,0.8413602153043873,A,1018.6578329885378,Correct,3,8,big,small,False,Value,right,right,1060.3349989978597,Correct
15,22,193,A,59.76037909677018,69.35466009529249,2.988018954838509,1.0894204532379403,A,797.7161659800913,Correct,7,4,small,big,False,Value,left,left,1281.8521249864716,Correct
15,22,194,B,40.573451309419795,12.821880733541374,2.02867256547099,0.2014056315884904,B,627.4565829953644,Correct,2,8,big,small,False,Value,right,right,1795.8175830135588,Correct
15,22,195,A,35.58908570940193,61.447210769750555,1.7794542854700963,0.9652105296891598,A,587.1112069871742,Correct,6,4,small,big,False,Size,right,left,1500.142583012348,Incorrect
15,22,196,B,60.86758882324003,30.472850599290194,3.043379441162001,0.47866641788334696,B,1540.650207985891,Correct,2,7,big,small,False,Value,right,right,1817.8008320101071,Correct
15,22,197,B,58.56223276405225,43.363159054767,2.9281116382026124,0.6811469096145086,A,2983.773290994577,Incorrect,2,4,big,small,False,Value,right,right,2172.919125005137,Correct
15,22,198,B,72.271740069603,50.52990512356685,3.61358700348015,0.7937218936139344,B,1034.4084579846822,Correct,7,5,small,big,False,Size,right,left,1518.784373998642,Incorrect
15,22,199,A,67.19436672176926,86.46246456129582,3.359718336088463,1.3581492173851737,A,1819.8779159865808,Correct,7,8,big,small,False,Value,right,right,1068.6996660078876,Correct
15,22,200,B,52.980189482114916,33.9291262349228,2.6490094741057457,0.5329574686117708,B,1165.548082004534,Correct,8,3,big,small,True,Value,left,left,1208.2834570028353,Correct
15,22,201,A,18.407027764877533,31.76750579230269,0.9203513882438767,0.49900281409984665,A,717.4025409913156,Correct,8,3,small,big,False,Size,right,right,1256.4526249771006,Correct
15,22,202,B,78.97540852339927,48.028601594128865,3.9487704261699634,0.7544315096515315,B,716.20908199111,Correct,6,2,small,big,False,Size,right,right,893.8933750032447,Correct
15,22,203,B,51.74560447384584,36.42206052689344,2.5872802236922916,0.572116388899456,B,703.7672489823308,Correct,8,5,small,big,False,Value,left,left,1702.231581992237,Correct
15,22,204,A,33.41352367663838,60.3684292477696,1.6706761838319186,0.9482650691677408,A,666.2942080001812,Correct,4,6,small,big,True,Size,right,right,1452.86533201579,Correct
15,22,205,B,64.774543867944,54.32307987413733,3.2387271933972,0.8533049432648069,A,2122.3799159924965,Incorrect,2,5,big,small,False,Size,left,left,1259.0291239903308,Correct
15,22,206,B,62.355305949703514,33.07349283978761,3.117765297485176,0.5195172106701569,B,1000.5287069943734,Correct,3,5,big,small,False,Size,left,left,1057.1713320096023,Correct
15,22,207,A,24.85637841295447,55.58013494038989,1.2428189206477236,0.8730507180712913,A,639.8453740112018,Correct,2,8,big,small,False,Size,left,left,1701.4049159770366,Correct
15,22,208,B,64.14177529806294,48.74886980384854,3.207088764903147,0.7657454562328793,B,1372.5345820130315,Correct,4,8,small,big,True,Size,right,right,2813.8817909930367,Correct
15,22,209,B,30.476525370161212,15.575514298273621,1.5238262685080606,0.24465960647669596,B,780.7084990199655,Correct,6,3,small,big,False,Size,right,right,1601.0712909919675,Correct
15,22,210,B,60.59169611194214,51.82497775958089,3.029584805597107,0.8140648470097686,B,1303.3256240014452,Correct,8,7,small,big,False,Value,left,left,1336.834916000953,Correct
15,22,211,A,50.990640484550475,76.28679284900475,2.5495320242275237,1.1983101399017986,A,770.8415829984006,Correct,8,3,big,small,True,Value,left,left,2917.4443329975475,Correct
15,22,212,B,50.16688247387587,42.149334350449045,2.508344123693794,0.6620801957453532,B,966.6564159851987,Correct,4,6,small,big,True,Size,right,right,1143.8128740119282,Correct
15,22,213,A,48.64975855675992,65.71244906980749,2.4324879278379963,1.0322087362355032,A,1746.8049580056686,Correct,3,2,big,small,True,Size,left,left,1966.5087499888614,Correct
15,22,214,A,58.844940876328856,73.98878624048264,2.942247043816443,1.162213136505629,A,1526.0988319932949,Correct,8,7,small,big,False,Value,left,left,2588.4264160122257,Correct
15,22,215,A,44.40212791388565,54.57050591919188,2.220106395694282,0.8571915024920578,A,1111.5963329793885,Correct,6,8,big,small,False,Value,right,right,2924.0068329963833,Correct
15,22,216,A,48.17150346671498,70.10667786128542,2.4085751733357488,1.1012331206830024,A,1463.149332004832,Correct,8,3,small,big,False,Size,right,left,3769.676707976032,Incorrect
15,22,217,B,52.7357060298481,40.26412501565698,2.636785301492405,0.6324673967620449,B,1604.5288329769392,Correct,2,7,small,big,True,Size,right,right,1818.2443330006208,Correct
15,22,218,A,42.603229764012205,65.88752635594675,2.1301614882006104,1.0349588438152308,A,1221.390833001351,Correct,2,5,big,small,False,Value,right,right,1865.9997910144739,Correct
15,22,219,B,52.48027985515612,21.50364908925983,2.624013992757806,0.33777853002095765,A,2557.77037399821,Incorrect,2,4,big,small,False,Value,right,right,4015.378458017949,Correct
15,22,220,A,48.6703919966359,80.19486848820887,2.433519599831795,1.259698048490783,A,815.375165984733,Correct,6,4,small,big,False,Size,right,left,2168.6077080084942,Incorrect
15,22,221,A,50.51417995603913,63.405502454589026,2.5257089978019565,0.9959713035425324,A,2464.0873330063187,Correct,2,8,big,small,False,Value,right,right,3763.147541001672,Correct
15,22,222,A,25.57064456617401,44.1817510432855,1.2785322283087006,0.6940053225015946,A,586.2629989860579,Correct,7,8,small,big,True,Size,right,right,1197.4255410023034,Correct
15,22,223,B,58.09944421582925,38.77876816626764,2.9049722107914624,0.6091354659320407,B,1203.1158749887254,Correct,8,3,small,big,False,Size,right,right,1155.6061659939587,Correct
15,22,224,B,56.66795459656752,29.514168658849414,2.8333977298283757,0.46360747717725714,B,1140.1555410120636,Correct,6,7,big,small,False,Size,left,left,1079.2350819974672,Correct
15,22,225,A,45.88505605633608,58.440262134225065,2.2942528028168043,0.9179774909737161,A,1576.818624016596,Correct,6,8,big,small,False,Size,left,left,2725.8546660013963,Correct
15,22,226,B,77.95869523373767,46.271523359290775,3.8979347616868836,0.7268313892797821,B,671.2695829919539,Correct,4,3,big,small,True,Value,left,left,1149.1882909904234,Correct
15,22,227,B,67.24719637750268,54.07829949582797,3.362359818875134,0.849459942073609,B,797.4661659973208,Correct,4,8,big,small,False,Value,right,right,3915.552165999543,Correct
15,22,228,A,36.657395495248636,47.92344553948119,1.8328697747624318,0.7527797222077234,A,1321.0417490045074,Correct,7,6,small,big,False,Size,right,right,920.950249012094,Correct
15,22,229,A,13.008597709667796,37.987302057015356,0.6504298854833899,0.5967031453600793,A,549.2883330152836,Correct,4,3,small,big,False,Value,left,right,2975.9532079915516,Incorrect
15,22,230,A,67.6928362093096,88.92745682172789,3.38464181046548,1.3968692252678194,A,851.069541007746,Correct,4,3,small,big,False,Size,right,left,1249.3852490151767,Incorrect
15,22,231,B,63.54044059309378,51.04908457120435,3.1770220296546885,0.801877145306898,B,907.3174990189727,Correct,5,7,big,small,False,Value,right,right,1514.794290997088,Correct
15,22,232,A,12.607278903623076,31.015393155424377,0.6303639451811538,0.4871886564264019,A,673.0110819917172,Correct,2,4,big,small,False,Value,right,right,1886.254999000812,Correct
15,22,233,A,51.98396159398185,68.64731918121733,2.5991980796990926,1.07830956814173,B,871.5779579943046,Incorrect,4,5,big,small,False,Value,right,right,1577.833165996708,Correct
15,22,234,B,33.143636576636666,21.267552856778025,1.6571818288318332,0.3340699390734323,B,688.104500004556,Correct,3,7,big,small,False,Size,left,left,2143.429040996125,Correct
15,22,235,A,61.55072314437997,78.35341352955439,3.0775361572189985,1.2307725416406559,B,1177.4479159794282,Incorrect,7,3,small,big,False,Size,right,left,3636.3810830225702,Incorrect
15,22,236,B,39.40891804980383,16.36693109962372,1.9704459024901917,0.257091152521941,B,684.6101239789277,Correct,2,8,big,small,False,Size,left,left,1303.4962489909958,Correct
15,22,237,A,29.026323701239253,57.89623924557958,1.4513161850619627,0.9094319994219494,A,687.1827490103897,Correct,6,8,big,small,False,Size,left,left,2404.1237070050556,Correct
15,22,238,A,42.37292222588881,74.27730978526787,2.1186461112944404,1.166745253749054,A,688.0881660035811,Correct,4,6,big,small,False,Value,right,right,1302.9737079923507,Correct
15,22,239,A,56.71713514165228,78.87562512350117,2.835856757082614,1.238975422176469,A,806.4379999996163,Correct,4,7,big,small,False,Size,left,left,1360.627916001249,Correct
15,22,240,B,61.24466975535453,34.35112614995535,3.062233487767726,0.5395862277761798,B,610.898165992694,Correct,3,7,small,big,True,Size,right,right,874.3141239974648,Correct
15,22,241,A,24.526706474112864,35.885501492276305,1.2263353237056434,0.563688139292604,B,725.441499002045,Incorrect,6,8,big,small,False,Size,left,left,1215.94887500396,Correct
15,22,242,B,80.35076384955573,61.18425935772618,4.017538192477787,0.9610800985678255,B,683.0708330089692,Correct,6,2,small,big,False,Size,right,right,1282.069583015982,Correct
15,22,243,B,70.84927574315302,46.2952794209475,3.542463787157651,0.7272045486236771,B,1148.7597070226911,Correct,4,3,small,big,False,Value,left,left,4390.103249024833,Correct
15,22,244,A,47.89767832083359,64.34365278488244,2.3948839160416795,1.0107077344705955,A,849.2952490050811,Correct,6,5,small,big,False,Size,right,right,833.4386240167078,Correct
15,22,245,B,37.086443157995014,18.761017980036794,1.8543221578997506,0.29469738129974804,B,787.2999579994939,Correct,6,5,small,big,False,Size,right,left,1930.7515830150805,Incorrect
15,22,246,A,30.663759993191082,55.07416030171988,1.533187999659554,0.865102887032549,A,727.2949160251301,Correct,4,7,big,small,False,Value,right,right,1436.9406659970991,Correct
15,22,247,A,24.52620064677157,54.790349012749395,1.2263100323385785,0.8606447897303714,A,618.7786239897832,Correct,2,5,big,small,False,Value,right,right,1702.604207006516,Correct
15,22,248,B,57.58583787835073,25.153774528411244,2.8792918939175367,0.3951145663425541,B,1281.779582001036,Correct,3,6,big,small,False,Value,right,right,1971.1252069973852,Correct
15,22,249,B,56.14317996956285,37.22743354388256,2.8071589984781427,0.5847671586673184,B,751.4202070015017,Correct,8,7,big,small,True,Size,left,left,984.5132080081385,Correct
15,22,250,B,34.201441853753046,23.440317319054717,1.7100720926876523,0.3681996434367795,B,693.6563750205096,Correct,3,5,big,small,False,Value,right,right,1312.3513749742415,Correct
15,22,251,B,55.072315830361774,38.916700076095665,2.7536157915180888,0.6113020953050974,B,2164.3672909995075,Correct,4,3,big,small,True,Value,left,left,5355.342873983318,Correct
15,22,252,A,48.18129504627972,58.67423513981139,2.409064752313986,0.9216527303511577,A,1732.1589159837458,Correct,6,5,big,small,True,Value,left,left,1336.2292079837061,Correct
15,22,253,A,39.05131470697587,50.23144086132507,1.9525657353487935,0.789033627945845,A,3158.6735410091933,Correct,3,6,big,small,False,Value,right,right,854.8605830001179,Correct
15,22,254,A,42.440832517055306,69.98112807649198,2.122041625852765,1.0992609892751681,A,2778.356791008264,Correct,7,3,small,big,False,Value,left,right,998.199250025209,Incorrect
15,22,255,B,39.59268813708329,29.74787293972059,1.9796344068541645,0.46727849543674405,B,674.7522910009138,Correct,8,2,small,big,False,Value,left,left,1918.637498980388,Correct
15,22,256,B,34.96361439760426,11.965195659499983,1.748180719880213,0.18794885391324812,B,1035.2918330172542,Correct,7,6,big,small,True,Size,left,left,1679.424581991043,Correct
15,22,257,A,34.54525413968322,65.69940956553097,1.727262706984161,1.0320039121812954,B,1689.8419159988407,Incorrect,4,2,small,big,False,Size,right,right,1139.1256659990177,Correct
15,22,258,A,49.53755398180747,79.77960525256992,2.4768776990903736,1.2531751088388368,A,909.1415820003022,Correct,6,7,big,small,False,Value,right,left,1454.9502909940202,Incorrect
15,22,259,B,43.2457579286085,15.3100259854289,2.162287896430425,0.24048932581046134,B,813.5124160035048,Correct,8,7,small,big,False,Value,left,left,1257.5173740042374,Correct
15,22,260,B,43.17551603536619,35.58778523325452,2.15877580176831,0.5590116232316187,A,1372.525915998267,Incorrect,4,6,big,small,False,Size,left,right,3111.641082999995,Incorrect
15,22,261,A,31.45453519818662,43.3166927796194,1.5727267599093309,0.6804170190712917,A,2540.0152079819236,Correct,4,8,big,small,False,Value,right,right,2492.8506659925915,Correct
15,22,262,B,58.26302860934379,36.51743436046968,2.9131514304671895,0.5736145175739951,A,1030.5557499814313,Incorrect,6,4,small,big,False,Size,right,right,2953.556833002949,Correct
15,22,263,B,39.57699619085788,13.684868941551198,1.9788498095428937,0.21496141866058183,B,769.6636659966316,Correct,2,6,big,small,False,Size,left,right,3160.026248981012,Incorrect
15,22,264,B,62.374478735647024,29.963714241378558,3.1187239367823514,0.4706689226748937,B,671.7013739980757,Correct,5,8,big,small,False,Value,right,right,1605.559624003945,Correct
15,22,265,A,23.967950182936335,35.54185412208777,1.1983975091468166,0.5582901390245553,A,655.3548740048427,Correct,8,6,small,big,False,Size,right,left,2106.180456990842,Incorrect
15,22,266,B,64.4986890156709,46.1341597284858,3.224934450783545,0.7246736864127453,B,1494.149999023648,Correct,6,4,small,big,False,Value,left,right,3935.063248994993,Incorrect
15,22,267,A,26.962751593215046,59.89903442755198,1.3481375796607522,0.940891832573597,A,643.121125001926,Correct,2,5,big,small,False,Value,right,left,3926.1447910103016,Incorrect
15,22,268,A,11.002678174401407,35.209228643062005,0.5501339087200704,0.5530652702180346,A,1373.0098740197718,Correct,6,7,big,small,False,Size,left,right,1778.837249003118,Incorrect
15,22,269,A,40.92010887774277,69.28497452288926,2.0460054438871382,1.0883258348263245,A,683.733875019243,Correct,3,8,big,small,False,Size,left,left,1046.6765410092194,Correct
15,22,270,A,61.464092689933736,76.246599300901,3.073204634496687,1.197678781124576,B,2270.2018749841955,Incorrect,2,7,big,small,False,Value,right,right,870.2559160010424,Correct
15,22,271,A,58.361872248515155,81.04679463224906,2.918093612425758,1.2730800730683716,A,1184.5619159867056,Correct,3,7,big,small,False,Size,left,left,3589.344998996239,Correct
15,22,272,A,54.22690152496007,83.53250712475268,2.711345076248003,1.3121255535953005,A,1261.7985410033725,Correct,6,8,big,small,False,Size,left,right,3366.100415994879,Incorrect
15,22,273,A,31.166035051278804,58.056454237564004,1.5583017525639402,0.9119486506310155,A,1018.0980830045883,Correct,4,2,big,small,True,Size,left,right,1443.0554159916937,Incorrect
15,22,274,B,62.21185217092626,34.10874173842532,3.110592608546313,0.5357788623431428,B,554.8403740103822,Correct,4,5,big,small,False,Value,right,right,2285.612541018054,Correct
15,22,275,B,78.21468944819803,55.37348045576207,3.9107344724099016,0.8698045970176005,B,1013.1051659991499,Correct,8,5,small,big,False,Value,left,right,1696.9304579833988,Incorrect
15,22,276,A,19.254754787511864,33.65024858316944,0.9627377393755933,0.5285768687017774,A,848.7402489990927,Correct,5,6,small,big,True,Value,right,left,6974.800332012819,Incorrect
15,22,277,A,50.32719279441139,68.13344063690789,2.5163596397205694,1.0702375828435307,A,958.1062909855973,Correct,7,3,big,small,True,Value,left,right,2041.9078739942051,Incorrect
15,22,278,B,78.47087915030518,62.53497379520162,3.9235439575152586,0.9822970713371781,B,704.1996660118457,Correct,2,8,small,big,True,Value,right,right,1268.1143740192056,Correct
15,22,279,B,71.25334237899105,38.26388330486912,3.5626671189495527,0.6010476734419697,B,548.6119159904774,Correct,6,7,big,small,False,Value,right,right,1737.9105830041226,Correct
15,22,280,B,31.305261970440483,15.4165496649203,1.5652630985220242,0.24216259585507902,B,685.4272079945076,Correct,8,6,big,small,True,Size,left,left,1094.1437910078093,Correct
15,22,281,A,67.3116041836026,79.47270742745262,3.3655802091801297,1.2483543690748806,A,1378.2439990027342,Correct,7,6,small,big,False,Size,right,right,1437.2493750124704,Correct
15,22,282,A,48.33085737963192,77.53575805765018,2.416542868981596,1.2179288395221473,A,588.2632909924723,Correct,2,5,big,small,False,Value,right,right,1353.8962909951806,Correct
15,22,283,A,54.3565537884236,73.67329331994456,2.7178276894211795,1.157257385298519,A,1326.7818320018705,Correct,7,4,big,small,True,Value,left,left,1140.4702500149142,Correct
15,22,284,B,62.176796125122536,49.4105675268884,3.108839806256127,0.776139379760875,B,710.8587909897324,Correct,8,7,small,big,False,Value,left,right,1208.685999008594,Incorrect
15,22,285,A,32.480089034641566,43.54455820218121,1.6240044517320782,0.6839963207589282,A,2159.7125830012374,Correct,5,3,small,big,False,Size,right,right,853.6899999890011,Correct
15,22,286,B,56.16834611066245,46.303181991869316,2.8084173055331223,0.7273286819174393,B,637.1009160066023,Correct,2,8,big,small,False,Size,left,left,1409.5690830145031,Correct
15,22,287,B,39.25458332916692,22.03433048975758,1.962729166458346,0.34611445396696,B,743.5124990006443,Correct,8,5,small,big,False,Value,left,left,2672.6666660106275,Correct
15,22,288,B,68.79103970594721,38.554663682883586,3.439551985297361,0.6056152409388613,B,1045.5192489898764,Correct,5,2,small,big,False,Size,right,right,1397.4705409782473,Correct
15,22,289,A,15.118983053514722,39.044184765079486,0.7559491526757361,0.6133046201168811,A,640.321540995501,Correct,3,8,small,big,True,Size,right,right,1893.2762070035096,Correct
15,22,290,A,51.6579938983192,72.53551103840739,2.5828996949159597,1.13938514301321,A,3335.6677909905557,Correct,4,2,small,big,False,Size,right,left,2557.8819990041666,Incorrect
15,22,291,A,55.61812006416325,78.62767073061647,2.7809060032081625,1.2350805636809097,A,2602.77162399143,Correct,2,4,big,small,False,Size,left,left,4787.454416014953,Correct
15,22,292,A,45.90875425096416,58.514620530116005,2.295437712548208,0.9191455099250347,B,768.6934570083395,Incorrect,7,2,small,big,False,Size,right,right,1605.7098750025034,Correct
15,22,293,B,59.82262811345349,44.58125325605709,2.9911314056726748,0.7002806885852749,B,2684.8807079950348,Correct,6,4,small,big,False,Size,right,right,593.5757910192478,Correct
15,22,294,B,74.60261288897969,53.732022050079436,3.730130644448985,0.8440206286752717,B,788.4816660080105,Correct,5,6,big,small,False,Size,left,left,2427.2888739942573,Correct
15,22,295,B,41.33587562037067,33.29593996428372,2.0667937810185335,0.5230114019308026,B,3461.639123997884,Correct,3,2,small,big,False,Size,right,right,1871.4508750126697,Correct
15,22,296,B,77.36107033683918,56.12903385631681,3.868053516841959,0.8816728020804884,B,783.7137070018798,Correct,8,2,big,small,True,Size,left,left,1241.7039159918204,Correct
15,22,297,B,47.13145285022897,26.35545122670586,2.3565726425114484,0.41399045977931614,B,762.0673330093268,Correct,4,3,big,small,True,Size,left,left,1074.331040988909,Correct
15,22,298,B,61.63501126868171,44.52500511727396,3.081750563434085,0.699397144887379,B,2291.438457003096,Correct,3,5,big,small,False,Size,left,left,924.6750829915982,Correct
15,22,299,A,33.783370323664734,57.943953407450984,1.6891685161832368,0.9101814917239863,A,1915.6689579831436,Correct,2,7,big,small,False,Size,left,left,1340.074916020967,Correct
15,22,300,B,49.73407866943852,41.88261657008169,2.486703933471926,0.6578906026484338,A,2346.8782490235753,Incorrect,2,6,small,big,True,Value,right,right,1122.395290993154,Correct
15,22,301,A,39.57053549320844,72.25233930543855,1.978526774660422,1.1349370918332142,A,1222.8880409966223,Correct,2,4,small,big,True,Value,right,right,1154.5135409978684,Correct
15,22,302,B,59.023917546368274,51.85599263106788,2.9511958773184137,0.8145520274718464,B,636.8786660023034,Correct,3,4,big,small,False,Value,right,right,1402.464290993521,Correct
15,22,303,A,62.24123283076062,86.38794292638687,3.1120616415380313,1.3569786342813566,A,1193.943582009524,Correct,3,5,big,small,False,Value,right,right,1170.1872909907252,Correct
15,22,304,B,76.83898413993067,48.30188833564735,3.8419492069965337,0.7587242877489211,B,782.9268740024418,Correct,7,5,small,big,False,Value,left,left,2323.8819160033017,Correct
15,22,305,B,48.52922541044734,20.78062602333873,2.426461270522367,0.32642131025958915,B,702.330083004199,Correct,3,2,small,big,False,Value,left,left,1183.2649989810307,Correct
15,22,306,A,18.64683437904828,38.21891179794628,0.9323417189524139,0.6003412626631215,A,774.4522910215892,Correct,6,3,small,big,False,Size,right,left,1280.9511660016142,Incorrect
15,22,307,B,34.213414515191715,20.464950766379012,1.7106707257595857,0.3214626949186656,B,893.2544989802409,Correct,6,5,small,big,False,Value,left,left,3545.845749991713,Correct
15,22,308,B,57.83718815851659,27.788950318934752,2.8918594079258293,0.43650781086468576,B,1309.1405000013765,Correct,3,4,small,big,True,Size,right,right,1208.2306240045,Correct
15,22,309,A,18.061207297049986,35.9916472430688,0.9030603648524993,0.5653554728471013,A,691.6437500040047,Correct,5,7,big,small,False,Value,right,right,2060.624581994489,Correct
15,22,310,B,56.74873934478245,37.46734611091954,2.8374369672391224,0.5885356964578546,B,861.7350409913342,Correct,4,8,big,small,False,Size,left,left,1050.0944159866776,Correct
15,22,311,A,56.49525763615917,84.11615969653508,2.8247628818079584,1.3212935467541023,A,1644.7678740078118,Correct,3,7,big,small,False,Size,left,left,1308.9774989930447,Correct
15,22,312,B,82.13997474996266,52.22414097587763,4.106998737498134,0.8203348881492742,B,741.0351659927983,Correct,4,7,small,big,True,Size,right,right,2227.878415986197,Correct
15,22,313,A,48.63613239403251,55.549650126552685,2.4318066197016255,0.872571863735306,A,1334.5757069764659,Correct,6,7,big,small,False,Value,right,left,1708.5167499899399,Incorrect
15,22,314,A,20.235139112750765,43.97853790481419,1.0117569556375383,0.6908132579869225,A,770.3342490131035,Correct,7,2,small,big,False,Size,right,left,1254.7450000129174,Incorrect
15,22,315,B,66.53202808661328,47.926823251922,3.326601404330664,0.7528327791906733,B,677.515790972393,Correct,4,2,small,big,False,Size,right,right,729.2802490119357,Correct
15,22,316,B,84.56534233126969,63.91110253953966,4.228267116563484,1.003913251105209,B,687.4637909932062,Correct,6,4,small,big,False,Value,left,left,1227.922124991892,Correct
15,22,317,B,70.73681460401242,39.302264844438085,3.536840730200621,0.6173585325236354,B,585.9880409843754,Correct,2,7,big,small,False,Value,right,right,1660.788582987152,Correct
15,22,318,A,51.781661668004446,71.39222048304593,2.5890830834002223,1.1214263769649995,A,1366.5504579839762,Correct,7,4,small,big,False,Size,right,left,1693.90662497608,Incorrect
15,22,319,B,56.3245338973635,27.454187020164987,2.8162266948681753,0.4312493612641528,B,575.059749011416,Correct,5,3,small,big,False,Value,left,left,1996.4277069957461,Correct
15,22,320,A,52.67538855013136,66.12232188308506,2.633769427506568,1.0386470033309982,A,1181.8354990100488,Correct,8,5,small,big,False,Value,left,left,1432.3850410000887,Correct
15,22,321,B,71.70010344117657,51.85715498948619,3.5850051720588283,0.8145702857551853,B,757.9102080198936,Correct,2,5,big,small,False,Value,right,right,1583.5088320018258,Correct
15,22,322,A,52.23716579530239,73.01020602151495,2.6118582897651197,1.1468416343713432,A,657.8282910049893,Correct,3,2,big,small,True,Value,left,left,987.8890410182066,Correct
15,22,323,B,83.9028697212434,60.802864112319384,4.19514348606217,0.9550891560624052,B,532.5456660066266,Correct,4,7,big,small,False,Value,right,right,1175.2533740072977,Correct
15,22,324,A,51.952959507734846,75.27648401847794,2.597647975386742,1.1824402459025989,A,824.2773319943808,Correct,4,8,small,big,True,Value,right,right,767.6886240078602,Correct
15,22,325,A,51.88195548092146,75.82231100758092,2.594097774046073,1.1910140761980836,A,1562.9339989973232,Correct,6,5,small,big,False,Size,right,left,1952.0784580090549,Incorrect
15,22,326,B,72.23713420958451,51.028978226622776,3.611856710479225,0.8015613155847581,B,474.77166599128395,Correct,4,2,small,big,False,Value,left,left,1081.1629579984583,Correct
15,22,327,B,43.068475152074164,18.126684113784716,2.1534237576037083,0.28473328822904437,B,695.9142079867888,Correct,4,7,big,small,False,Value,right,right,2093.29449897632,Correct
15,22,328,A,58.16429698317246,74.45021618447882,2.908214849158623,1.1694612611166528,A,828.2313740055542,Correct,3,6,small,big,True,Size,right,right,1259.514499019133,Correct
15,22,329,B,68.49704482549421,43.26592921084933,3.4248522412747104,0.6796196267977014,B,1431.5145410073455,Correct,6,5,big,small,True,Value,left,left,1205.2235820156056,Correct
15,22,330,A,55.270835895835944,73.42943042053906,2.7635417947917973,1.153426795832242,A,1357.1185829932801,Correct,5,6,big,small,False,Size,left,right,1029.6707910019904,Incorrect
15,22,331,A,37.661231464004864,46.004140467644035,1.8830615732002431,0.722631348639317,A,933.8517489959486,Correct,6,3,small,big,False,Size,right,right,1313.568624027539,Correct
15,22,332,B,39.64505059348194,21.061830783429702,1.982252529674097,0.3308384643018706,B,700.700165994931,Correct,8,2,big,small,True,Size,left,right,2305.770915991161,Incorrect
15,22,333,A,38.16313811416985,57.90651582020179,1.9081569057084922,0.9095934234786354,A,778.1690830015577,Correct,7,3,small,big,False,Size,right,right,1351.0089159826748,Correct
15,22,334,B,76.28456792693433,61.333373189774136,3.8142283963467163,0.963422373164378,B,843.361498991726,Correct,8,4,small,big,False,Value,left,left,1170.1091659779195,Correct
15,22,335,B,32.57038350476333,15.225977305274956,1.6285191752381665,0.23916909222988358,B,1041.3336659839842,Correct,6,7,big,small,False,Value,right,right,925.0171659805346,Correct
15,22,336,B,46.46008592049036,24.749840959606793,2.323004296024518,0.3887695926810823,B,1047.742748982273,Correct,7,8,big,small,False,Size,left,left,944.7222070011776,Correct
15,22,337,A,23.20747245555927,38.176372619742224,1.1603736227779635,0.5996730588144434,A,1257.219499006169,Correct,2,3,big,small,False,Size,left,left,2162.6341660157777,Correct
15,22,338,A,30.396996297664742,41.94218420553755,1.5198498148832371,0.6588262888781331,A,1414.3275409878697,Correct,7,2,small,big,False,Size,right,right,2224.2897910182364,Correct
15,22,339,B,64.46053491791737,36.256609761448836,3.2230267458958686,0.5695174943531983,B,1336.2187500169966,Correct,2,6,big,small,False,Value,right,right,1828.4850410127547,Correct
15,22,340,B,58.293229127753136,45.09387754136158,2.9146614563876567,0.7083329720290965,A,1271.628791000694,Incorrect,4,8,big,small,False,Size,left,right,1528.3673320082016,Incorrect
15,22,341,B,81.22005368821426,56.22489437458929,4.061002684410713,0.883178575580359,B,743.5862910060678,Correct,7,4,small,big,False,Value,left,left,1016.1419579817448,Correct
15,22,342,B,76.7535285562111,57.833257124538534,3.837676427810555,0.9084426785780991,B,666.8943740078248,Correct,5,2,small,big,False,Size,right,right,888.322831975529,Correct
15,22,343,A,50.470789993481674,70.46375035549308,2.523539499674084,1.106842002306011,A,1191.4522490114905,Correct,3,8,big,small,False,Size,left,right,671.376207988942,Incorrect
15,22,344,A,47.13625552278049,77.61745930537688,2.3568127761390243,1.2192121997203837,A,1354.571498988662,Correct,4,3,small,big,False,Size,right,right,4523.218665999593,Correct
15,22,345,A,31.1484127132022,56.35025996868022,1.5574206356601101,0.8851478137274038,A,691.3808330136817,Correct,8,7,small,big,False,Value,left,left,1010.7298319926485,Correct
15,22,346,A,65.61585630609333,84.71234744883122,3.280792815304667,1.3306584420679712,B,1488.7934160069562,Incorrect,8,7,small,big,False,Value,left,left,2485.304665984586,Correct
15,22,347,B,45.648303472721096,37.81879450172155,2.2824151736360547,0.5940562348711523,B,1070.6726660137065,Correct,3,2,small,big,False,Value,left,left,1357.8133329865523,Correct
15,22,348,A,53.9276938858021,69.5482227926043,2.696384694290105,1.0924609289773597,B,1645.2017499832436,Incorrect,5,3,small,big,False,Value,left,left,1748.8899579911958,Correct
15,22,349,A,58.98340239671178,82.68003200043749,2.949170119835589,1.2987349056557171,A,825.292833003914,Correct,5,8,big,small,False,Size,left,left,1398.5659570025746,Correct
15,22,350,B,57.26243323521142,40.698652636748726,2.863121661760571,0.6392929406730633,B,838.691499986453,Correct,4,3,small,big,False,Size,right,right,1650.5255830124952,Correct
15,22,351,B,85.31855660473116,67.4961163100179,4.265927830236558,1.0602265157269721,B,947.4575409840327,Correct,3,2,small,big,False,Size,right,right,2111.914915993111,Correct
15,22,352,B,64.21362538413912,51.20275434475717,3.210681269206956,0.8042909844652598,A,1959.9183330137748,Incorrect,4,3,big,small,True,Size,left,left,1579.2426240222994,Correct
15,22,353,A,20.155434180962967,35.19649504581402,1.0077717090481484,0.5528652513401944,A,634.3315819976851,Correct,6,3,small,big,False,Size,right,right,801.5872490068432,Correct
15,22,354,A,29.321478568708944,58.37226346165569,1.4660739284354471,0.9169093703227271,A,1184.7267910197843,Correct,5,7,big,small,False,Value,right,right,1058.1628740183078,Correct
15,22,355,A,53.89996437427287,69.16111879156655,2.6949982187136436,1.0863803135481822,A,766.7622070002835,Correct,4,6,big,small,False,Size,left,left,831.9268749910407,Correct
15,22,356,A,48.342297018142276,56.09405779152412,2.417114850907114,0.8811233993394674,A,801.2707500020042,Correct,4,8,big,small,False,Value,right,right,1490.2807080070488,Correct
15,22,357,A,50.18028262711775,58.406898332687184,2.5090141313558876,0.91745341360468,A,1906.3584160176106,Correct,5,2,big,small,True,Value,left,right,1630.4117499967106,Incorrect
15,22,358,B,44.55717244403925,26.076165281095925,2.2278586222019627,0.40960344640442087,B,588.9568739803508,Correct,5,6,big,small,False,Value,right,right,1337.8086239972617,Correct
15,22,359,B,82.96337576201557,62.985695489102234,4.1481687881007785,0.9893769911490368,B,722.4109569797292,Correct,6,4,small,big,False,Value,left,left,1212.9935409757309,Correct
15,22,360,B,47.37562129852674,23.528763852947844,2.368781064926337,0.36958895834235006,B,693.9084570039995,Correct,6,8,big,small,False,Value,right,right,1164.9999569926877,Correct
15,22,361,A,41.14143338521545,69.69212564516772,2.0570716692607727,1.094721349699579,A,591.2892489868682,Correct,5,4,big,small,True,Value,left,right,1628.0914160015527,Incorrect
15,22,362,B,47.37209881227926,35.14608039965617,2.368604940613963,0.5520733399301802,B,740.821582992794,Correct,7,4,small,big,False,Value,left,right,1011.2770830164663,Incorrect
15,22,363,A,59.61308383667652,78.18743366308647,2.9806541918338265,1.228165335994959,A,2273.057707992848,Correct,6,4,small,big,False,Size,right,right,1714.077290991554,Correct
15,22,364,B,62.843383343946776,31.084859362908247,3.142169167197339,0.4882798290619223,B,1630.401082977187,Correct,6,3,big,small,True,Value,left,left,1316.3635410019197,Correct
15,22,365,A,29.770363422629128,53.05255164034416,1.4885181711314563,0.8333475324374918,A,769.5772500010207,Correct,2,6,big,small,False,Size,left,right,4186.751750006806,Incorrect
15,22,366,B,66.36971534104916,52.18613073395898,3.3184857670524583,0.8197378246654103,B,652.0266660081688,Correct,2,4,big,small,False,Value,right,left,1831.9325409829617,Incorrect
15,22,367,A,15.258599162578797,34.972342633721425,0.7629299581289399,0.5493442734846217,A,1019.6705409907736,Correct,5,8,big,small,False,Value,right,right,1595.0577489857096,Correct
15,22,368,A,48.3540015340772,60.40988621076651,2.41770007670386,0.9489162736196971,B,1347.2087910049595,Incorrect,5,2,small,big,False,Value,left,left,1398.5680410114583,Correct
15,22,369,A,55.75366510091872,65.88097472293431,2.787683255045936,1.0348559310045264,A,1334.6130830177572,Correct,5,7,small,big,True,Value,right,right,1732.5674579769839,Correct
15,22,370,A,47.98354536873249,61.74337137445243,2.399177268436625,0.9698626095892303,A,1017.9590409970842,Correct,3,4,big,small,False,Size,left,left,582.9970829945523,Correct
15,22,371,B,81.63678244841809,63.95326822695003,4.081839122420905,1.0045755881742187,B,684.3601660220884,Correct,5,7,big,small,False,Size,left,left,1371.1440000042785,Correct
15,22,372,A,35.04646012322242,55.31900381475469,1.7523230061611208,0.8689488799416952,A,614.742499019485,Correct,8,3,small,big,False,Value,left,right,1024.6326240012422,Incorrect
15,22,373,B,39.686636567531465,30.9652203641864,1.9843318283765734,0.4864005440645852,B,635.0013740011491,Correct,6,8,big,small,False,Value,right,right,1922.3453750018962,Correct
15,22,374,A,55.989985195762316,64.61054972569343,2.7994992597881154,1.0149001418131824,A,930.2548739942722,Correct,3,7,small,big,True,Size,right,right,1142.0504999987315,Correct
15,22,375,A,34.25905697702719,51.82744469636861,1.7129528488513597,0.8141035975622145,A,884.272041002987,Correct,7,8,big,small,False,Size,left,left,4102.714874024969,Correct
15,22,376,A,32.20112797282498,46.09753147224364,1.6100563986412488,0.7240983311091245,A,665.0697909935843,Correct,2,3,big,small,False,Size,left,left,1439.9513749813195,Correct
15,22,377,A,52.02449825486838,75.94939490793337,2.601224912743419,1.1930103054367676,A,1293.1472909986041,Correct,3,4,small,big,True,Value,right,right,937.7960410201922,Correct
15,22,378,B,55.07151132840103,38.70522246312331,2.7535755664200514,0.6079802127285343,B,579.2348329850938,Correct,8,6,small,big,False,Value,left,left,1046.7556660005357,Correct
15,22,379,B,81.76832390691331,65.72256394006192,4.0884161953456655,1.0323676202459198,B,1300.1370819984004,Correct,5,6,small,big,True,Size,right,right,1148.6175000027288,Correct
15,22,380,B,49.00706336555814,27.155143022053334,2.450353168277907,0.4265519891263145,B,830.5233329883777,Correct,4,6,big,small,False,Size,left,left,1133.9825409813784,Correct
15,22,381,B,74.93321603481533,54.66143299849493,3.746660801740767,0.8586197817138118,B,605.0956659892108,Correct,3,4,big,small,False,Size,left,left,831.8101249751635,Correct
15,22,382,B,74.5968326937226,47.217699243034154,3.7298416346861303,0.7416938853066422,B,606.0722910042387,Correct,6,5,small,big,False,Value,left,right,1177.4567489919718,Incorrect
15,22,383,A,54.38165080228927,66.81477986377692,2.719082540114464,1.049524107856304,A,1339.9601660203189,Correct,4,3,small,big,False,Value,left,right,1204.083624004852,Incorrect
15,22,384,A,66.74549536451224,83.7006375351365,3.337274768225612,1.3147665399058346,A,1690.9577490005177,Correct,4,3,small,big,False,Value,left,left,2459.890041005565,Correct
15,22,385,A,32.70734510853243,61.58462962232267,1.6353672554266214,0.9673690999776863,A,1439.4834999984596,Correct,7,5,small,big,False,Value,left,left,1477.3586240189616,Correct
15,22,386,A,43.28987613210499,73.00756238774854,2.16449380660525,1.1468001082692465,A,1470.1274159888271,Correct,6,7,big,small,False,Value,right,right,1501.366540993331,Correct
15,22,387,B,45.00205820802994,15.929094252857904,2.2501029104014973,0.25021362741558895,B,1215.8704579924233,Correct,4,8,small,big,True,Value,right,right,2221.435040992219,Correct
15,22,388,B,86.53245756930923,65.15705737176711,4.326622878465462,1.023484663843361,B,847.5884160143323,Correct,3,2,small,big,False,Size,right,right,1414.6974160103127,Correct
15,22,389,A,24.306866912826496,48.475898379787694,1.2153433456413247,0.761457631130532,A,-3.7145840178709477,Correct,2,6,big,small,False,Size,left,left,692.0627910003532,Correct
15,22,390,A,19.45824419895376,41.74374684570019,0.9729122099476881,0.6557092421188191,A,1371.107375016436,Correct,5,3,small,big,False,Size,right,right,1539.6667489840183,Correct
15,22,391,B,32.692298662386854,14.330596561582052,1.6346149331193427,0.22510448439712663,B,724.5059570122976,Correct,5,3,small,big,False,Value,left,left,2776.889791013673,Correct
15,22,392,A,22.67572909300229,46.39836215824039,1.1337864546501144,0.7288237684746334,A,672.3819160251878,Correct,6,3,small,big,False,Size,right,right,2349.2053329828195,Correct
15,22,393,B,39.21851085753584,22.14786827701776,1.960925542876792,0.34789790135876714,B,4730.939373985166,Correct,7,4,small,big,False,Size,right,left,1841.9260829978157,Incorrect
15,22,394,B,33.91204893779827,12.01542428101228,1.6956024468899134,0.188737843254963,B,814.4089579873253,Correct,7,3,small,big,False,Size,right,right,1508.0428330111317,Correct
15,22,395,A,33.94912549308913,58.709121980939095,1.6974562746544564,0.9222007315701265,A,633.598707994679,Correct,2,6,big,small,False,Value,right,right,1003.6528329947032,Correct
15,22,396,B,33.88309747329026,14.338566553458548,1.6941548736645131,0.2252296767367685,B,799.6178320026956,Correct,8,4,small,big,False,Size,right,right,1528.9507909910753,Correct
15,22,397,A,17.639775394239717,45.990549373878245,0.8819887697119859,0.7224178602376727,A,728.4163739823271,Correct,4,2,small,big,False,Value,left,left,1698.8625820085872,Correct
15,22,398,A,32.21644895818567,51.873275474722504,1.6108224479092836,0.8148235057451391,A,1680.5464159988333,Correct,6,7,big,small,False,Size,left,right,2341.8073740031105,Incorrect
15,22,399,A,22.808450862872522,39.28490804069415,1.1404225431436261,0.6170858924879767,A,744.1176660067867,Correct,5,6,small,big,True,Value,right,right,1958.274831995368,Correct
15,22,400,B,61.5590167286021,45.00389047231228,3.077950836430105,0.7069194584538797,B,690.2444160077721,Correct,6,4,small,big,False,Value,left,left,983.3649570064154,Correct
15,22,401,A,48.44841872882083,63.39799545592015,2.4224209364410414,0.9958533838831892,A,1403.4930409980007,Correct,8,4,small,big,False,Size,right,right,2923.730083013652,Correct
15,22,402,A,15.817919837515806,34.70377706964612,0.7908959918757903,0.5451256554690909,A,905.273373995442,Correct,4,6,small,big,True,Value,right,right,4241.687666013604,Correct
15,22,403,B,53.34687139864899,32.3435479442248,2.6673435699324495,0.5080512630630295,B,1999.9889990140218,Correct,5,2,big,small,True,Value,left,left,2064.752166013932,Correct
15,22,404,B,39.80995605902193,29.27624325076446,1.9904978029510965,0.4598701536065469,B,771.7775829951279,Correct,4,6,big,small,False,Value,right,right,1289.9730409844778,Correct
15,22,405,B,43.04406285598907,18.196659778865463,2.1522031427994532,0.28583246340578305,B,773.1517080101185,Correct,2,4,big,small,False,Value,right,right,1764.7098320012446,Correct
15,22,406,A,32.829988738973405,44.84785959045245,1.6414994369486704,0.7044685310929598,A,673.1163329968695,Correct,5,4,big,small,True,Value,left,right,1479.3937080248725,Incorrect
15,22,407,A,63.60225305147863,87.80565924810053,3.180112652573931,1.3792480701872065,A,825.8033739984967,Correct,3,8,big,small,False,Value,right,right,8211.515373986913,Correct
15,22,408,A,37.603491542527934,49.176691984315326,1.8801745771263967,0.7724656713288655,A,4509.810749004828,Correct,7,8,big,small,False,Value,right,right,1562.116832996253,Correct
15,22,409,A,59.418196300197835,87.13828855955995,2.970909815009892,1.3687650359255052,A,1701.538998982869,Correct,8,7,big,small,True,Value,left,left,1265.4980410006829,Correct
15,22,410,B,46.79551787659952,27.13702400591176,2.3397758938299758,0.42626737628631123,B,600.4658740130253,Correct,6,8,big,small,False,Size,left,left,2811.030582000967,Correct
15,22,411,A,51.2892993654316,68.52852022648466,2.56446496827158,1.0764434785245187,A,1332.2717070113868,Correct,7,5,big,small,True,Value,left,left,1943.2167909981217,Correct
15,22,412,A,61.969029836391755,71.20544551650329,3.098451491819588,1.118492522651175,B,1267.8105410013814,Incorrect,3,6,big,small,False,Size,left,left,2334.9429570080247,Correct
15,22,413,A,14.55648991995849,32.00746730332497,0.7278244959979245,0.5027721207007062,A,593.7301660014782,Correct,6,5,small,big,False,Value,left,left,2811.137458018493,Correct
15,22,414,B,76.76118990264419,49.181098987937474,3.83805949513221,0.7725348963798839,B,792.0716239896137,Correct,5,3,small,big,False,Value,left,left,1759.387541009346,Correct
15,22,415,A,18.49574949855202,44.22321833912121,0.9247874749276009,0.694656689261403,A,624.1237909998745,Correct,7,3,small,big,False,Size,right,right,1370.1281659887172,Correct
15,22,416,A,39.39182508267905,58.17812703034872,1.9695912541339524,0.9138598823907865,A,1683.6987489950843,Correct,5,8,big,small,False,Size,left,right,1213.0944569944404,Incorrect
15,22,417,B,45.734782464006926,37.87002461528998,2.2867391232003462,0.5948609556132981,A,2620.073081983719,Incorrect,3,6,small,big,True,Value,right,right,795.9812069893815,Correct
15,22,418,A,28.255502830801106,55.91728186111444,1.4127751415400553,0.8783466095179345,A,878.7314570217859,Correct,7,6,small,big,False,Size,right,right,1158.5494159953669,Correct
15,22,419,A,38.343342826866596,50.47576611366661,1.91716714134333,0.7928714800350581,A,1135.5669999902602,Correct,2,3,big,small,False,Size,left,left,1647.325041005388,Correct
15,22,420,A,35.78272952430819,64.84589573150984,1.7891364762154094,1.0185969482278052,A,752.123832993675,Correct,6,2,small,big,False,Value,left,right,2254.707749991212,Incorrect
15,22,421,B,52.089495797308274,45.25178909930815,2.6044747898654133,0.7108134409809058,A,3413.6956660076976,Incorrect,8,2,big,small,True,Size,left,right,1331.303374026902,Incorrect
15,22,422,A,40.94225258730752,52.49829152024475,2.047112629365376,0.8246412348300811,B,1027.539708011318,Incorrect,3,2,big,small,True,Size,left,left,2052.616832021158,Correct
15,22,423,A,42.98205774315227,65.44673282942495,2.149102887157613,1.0280348752918766,A,2246.1854990106076,Correct,3,4,big,small,False,Value,right,right,1800.895499996841,Correct
15,22,424,A,26.60600174683445,38.9020326763212,1.3303000873417228,0.6110717003282037,A,784.4561240053736,Correct,3,5,big,small,False,Size,left,left,1424.3501659948379,Correct
15,22,425,B,42.45543471849915,20.919387032359396,2.122771735924957,0.3286009630923093,B,552.9418739897665,Correct,8,3,small,big,False,Size,right,right,1299.22291598632,Correct
15,22,426,B,67.4607608453977,53.54261296306714,3.373038042269885,0.8410453976938668,A,1455.7770410028752,Incorrect,8,4,small,big,False,Value,left,right,1280.6108740041964,Incorrect
15,22,427,B,67.40084049509797,39.19502353837892,3.3700420247548983,0.6156739900272512,B,670.1848329976201,Correct,8,5,big,small,True,Value,left,left,1553.3711239986587,Correct
15,22,428,A,22.34082600125857,42.29594797007387,1.1170413000629285,0.6643831970970009,A,675.3815409902018,Correct,5,8,big,small,False,Value,right,right,679.1275829891674,Correct
15,22,429,B,85.35566599748749,65.58906165954438,4.267783299874375,1.030270571327363,B,731.2255830038339,Correct,6,2,small,big,False,Size,right,left,3758.0774989910424,Incorrect
15,22,430,B,65.83319940815173,48.608714630286094,3.291659970407586,0.7635439039147474,B,661.2945410015527,Correct,7,4,small,big,False,Value,left,left,2196.0241239867173,Correct
15,22,431,B,86.53017054143534,68.9258398986207,4.326508527071767,1.082684561340065,B,712.8415830084123,Correct,6,7,big,small,False,Size,left,left,841.2023750133812,Correct
15,22,432,B,51.37142298988796,30.31892891637535,2.5685711494943977,0.4762486217419797,B,613.9725410030223,Correct,4,5,big,small,False,Size,left,left,905.9274579922203,Correct
15,22,433,A,28.186908998284046,37.805453760452565,1.4093454499142024,0.593846678997332,A,719.3140830204356,Correct,7,3,small,big,False,Size,right,right,605.3539579734206,Correct
15,22,434,B,40.981128042039614,28.970087151351578,2.049056402101981,0.45506106484271086,A,1125.3463329921942,Incorrect,4,5,small,big,True,Value,right,right,1662.9737910116091,Correct
15,22,435,B,37.93056111251798,17.066936458333938,1.896528055625899,0.2680868109839285,B,1537.0915409876034,Correct,8,6,small,big,False,Size,right,left,1509.8998330067843,Incorrect
15,22,436,B,39.44171676505909,13.158880243984992,1.9720858382529545,0.20669920751985557,B,1128.3045829914045,Correct,5,3,small,big,False,Value,left,left,2311.8697490135673,Correct
15,22,437,B,80.92557149553889,50.577612691878365,4.046278574776944,0.7944712823445748,B,664.7389989811927,Correct,7,2,small,big,False,Size,right,left,1792.3959989857394,Incorrect
15,22,438,B,71.87940151591174,49.27024318554153,3.5939700757955872,0.7739351701613992,B,2746.5436659986153,Correct,8,3,small,big,False,Value,left,left,1621.1289579805452,Correct
15,22,439,A,31.622525288420494,40.44550557429038,1.5811262644210249,0.6353165159145784,A,1204.455291008344,Correct,6,3,small,big,False,Value,left,left,1601.8179570091888,Correct
15,22,440,A,61.479328045122045,73.03602497965959,3.073966402256102,1.147247197617496,A,1607.6854990096763,Correct,2,4,big,small,False,Value,right,right,1123.2317490212154,Correct
15,22,441,A,12.60846414144886,33.84576407872204,0.630423207072443,0.5316480189242324,A,659.8950000188779,Correct,8,7,small,big,False,Size,right,right,2194.2842910066247,Correct
15,22,442,B,67.04939598920089,54.86142879450948,3.3524697994600445,0.8617613083313526,A,2658.890416001668,Incorrect,6,7,big,small,False,Value,right,right,1415.064249013085,Correct
15,22,443,B,81.495003585637,55.78522550486614,4.07475017928185,0.876272273124687,B,713.3270000049379,Correct,4,5,big,small,False,Size,left,right,1030.360999982804,Incorrect
15,22,444,B,57.24663729562356,41.264765600584994,2.8623318647811775,0.6481854223145131,A,889.0822490211576,Incorrect,5,6,small,big,True,Size,right,right,1485.3933319973294,Correct
15,22,445,B,78.11005294769859,48.263018897102356,3.9055026473849295,0.7581137280360105,B,764.2606240115128,Correct,4,8,big,small,False,Value,right,left,1262.4420409847517,Incorrect
15,22,446,B,58.24156944522074,34.867716937640964,2.912078472261037,0.5477008168937062,B,806.3049999764189,Correct,7,2,small,big,False,Size,right,left,1561.149540997576,Incorrect
15,22,447,B,72.29927806436595,50.39277727798966,3.6149639032182974,0.7915678944525948,B,587.5789159908891,Correct,5,6,big,small,False,Value,right,right,1098.4703330032062,Correct
15,22,448,B,53.97452945434731,40.29508931038801,2.698726472717366,0.6329537827662979,B,1049.6896239928901,Correct,5,3,small,big,False,Value,left,left,6159.3093749834225,Correct
15,22,449,B,85.9681675064003,67.67744485677083,4.298408375320015,1.0630748178787979,B,826.4556659851223,Correct,8,7,small,big,False,Size,right,right,1571.3246660016011,Correct
15,22,450,A,32.07395145068553,53.96641881400517,1.6036975725342761,0.8477025244331432,B,960.5434160039295,Incorrect,2,3,big,small,False,Size,left,left,2908.1426660122816,Correct
15,22,451,B,56.97778905417099,28.563219687522757,2.8488894527085495,0.4486700056659642,B,687.3339570011012,Correct,3,6,big,small,False,Size,left,right,1267.7510410139803,Incorrect
15,22,452,A,60.32243284266923,87.36342206172478,3.0161216421334616,1.372301424707895,A,930.7432489877101,Correct,8,4,big,small,True,Size,left,left,1477.038541022921,Correct
15,22,453,A,18.53075728280014,40.73309533031743,0.9265378641400069,0.6398339652384898,A,687.3530409939121,Correct,2,8,big,small,False,Value,right,right,1473.8193749799393,Correct
15,22,454,B,32.033750423714025,14.112282363633398,1.6016875211857013,0.22167521299487744,B,687.6561240060255,Correct,6,5,big,small,True,Size,left,left,1559.6886659914162,Correct
15,22,455,A,46.30891589418213,53.628516701618935,2.3154457947091065,0.8423947704636179,A,1252.2835000127088,Correct,4,5,big,small,False,Value,right,left,1105.6546659965534,Incorrect
15,22,456,B,32.490540401728914,12.749553017191133,1.6245270200864457,0.2002695104768062,B,1353.6719160038047,Correct,8,3,small,big,False,Size,right,right,1872.1819569764193,Correct
15,22,457,B,37.57908715203042,16.873405304130298,1.8789543576015209,0.26504683072249396,B,802.100998989772,Correct,4,6,big,small,False,Size,left,right,2142.2816239937674,Incorrect
15,22,458,A,60.57178982912018,75.08863224175747,3.028589491456009,1.1794894770940547,A,691.6813330026343,Correct,7,2,small,big,False,Size,right,left,2031.1455829942133,Incorrect
15,22,459,B,56.54737382549084,26.56888854209241,2.8273686912745415,0.41734312528941764,B,905.8971659978852,Correct,3,5,big,small,False,Value,right,left,2538.7898740009405,Incorrect
15,22,460,A,49.985734206783896,78.07416275954937,2.4992867103391947,1.2263860808028706,A,3730.977790983161,Correct,2,4,big,small,False,Value,right,right,2134.8135829903185,Correct
15,22,461,B,74.01704654252644,46.690592463661325,3.700852327126322,0.7334141113779669,B,4922.161832975689,Correct,3,7,big,small,False,Size,left,left,1589.1177910089027,Correct
15,22,462,A,26.402629817169675,43.921412846539496,1.3201314908584836,0.6899159396698643,A,1092.0124579861294,Correct,2,4,big,small,False,Value,right,right,1223.7027070077602,Correct
15,22,463,A,25.71189519703182,47.98713690727997,1.2855947598515909,0.7537801838735919,A,577.2391249774955,Correct,6,5,small,big,False,Size,right,left,1854.573374002939,Incorrect
15,22,464,B,48.330128107566395,38.4030405345832,2.41650640537832,0.6032335500947881,B,1541.6270409768913,Correct,7,6,big,small,True,Size,left,left,1473.3143739867955,Correct
15,22,465,B,52.73728158545303,25.156373225640724,2.6368640792726517,0.39515538658317934,B,1915.2991249866318,Correct,7,2,small,big,False,Value,left,left,3903.6075829935726,Correct
15,22,466,B,82.36860601105212,53.58327360199182,4.118430300552606,0.841684093516547,B,581.6866239765659,Correct,3,8,big,small,False,Size,left,left,1926.073581998935,Correct
15,22,467,A,14.766999730086205,39.46360188043195,0.7383499865043103,0.6198928087587868,A,498.85408201953396,Correct,7,4,small,big,False,Size,right,right,2064.154583000345,Correct
15,22,468,B,58.56163366987528,31.161543821467674,2.928081683493764,0.48948438572019626,B,1321.9447069859598,Correct,6,3,small,big,False,Value,left,left,1096.0155829961877,Correct
15,22,469,B,52.13274909231714,20.52585279247905,2.6066374546158566,0.32241934170758857,B,865.2390820207074,Correct,5,7,big,small,False,Size,left,right,3236.3956659974065,Incorrect
15,22,470,A,39.10993549661698,60.451952320017256,1.9554967748308487,0.9495770465186333,A,1499.2753750120755,Correct,7,6,small,big,False,Size,right,right,1133.4785409853794,Correct
15,22,471,B,75.4708837874973,60.45889702448794,3.7735441893748654,0.9496861336813657,B,2367.218582017813,Correct,6,2,small,big,False,Size,right,left,3252.8209580050316,Incorrect
15,22,472,A,44.64305285797407,60.24677137683581,2.2321526428987033,0.946354071799856,A,986.6544579854235,Correct,7,4,big,small,True,Size,left,left,2736.1134990060236,Correct
15,22,473,B,31.117188959266727,17.527006717486213,1.5558594479633365,0.27531357771536824,B,799.0360820258502,Correct,7,6,small,big,False,Value,left,left,1242.4689160252456,Correct
15,22,474,B,82.93583677120105,61.600787617854536,4.146791838560052,0.9676229091779845,B,2305.176958005177,Correct,4,8,big,small,False,Size,left,left,3789.440666005248,Correct
15,22,475,B,80.2963654746004,60.16816328032438,4.01481827373002,0.9451192987072912,B,612.1288740250748,Correct,4,7,small,big,True,Value,right,left,2512.0662070112303,Incorrect
15,22,476,A,42.50294052167497,66.29688172253965,2.1251470260837486,1.0413889828772098,A,839.7485000023153,Correct,7,5,small,big,False,Size,right,right,835.9459580096882,Correct
15,22,477,B,86.63524244560116,64.51804319971312,4.331762122280058,1.0134470527010382,B,693.9106659847312,Correct,5,6,small,big,True,Value,right,left,1601.3989570201375,Incorrect
15,22,478,A,14.275428349028907,42.47453571074509,0.7137714174514455,0.6671884467675705,A,624.208458000794,Correct,6,7,small,big,True,Value,right,right,1272.0294159953482,Correct
15,22,479,B,49.658295132909984,39.74085488347369,2.482914756645499,0.624247888746495,B,808.1181249872316,Correct,2,4,small,big,True,Size,right,right,1158.078000007663,Correct
15,22,480,B,82.43365617504904,68.77978834466418,4.1216828087524515,1.0803903888952895,B,1312.234498996986,Correct,8,3,small,big,False,Size,right,left,1480.0657500163652,Incorrect
15,22,481,B,38.08348953911044,18.681238831550043,1.904174476955522,0.2934442133657699,B,711.8138330115471,Correct,7,2,big,small,True,Value,left,left,1603.2468740013428,Correct
15,22,482,B,76.98935402628405,62.89305429713964,3.8494677013142025,0.9879217867085892,B,662.6567489875015,Correct,6,5,small,big,False,Size,right,right,1285.0554160249885,Correct
15,22,483,A,36.25956066450017,61.43947341694687,1.8129780332250085,0.9650889916355284,A,544.5186659926549,Correct,5,3,small,big,False,Size,right,right,1406.335957988631,Correct
15,22,484,B,36.38445022531353,15.10187964047429,1.8192225112656764,0.2372197706695565,B,1414.228623994859,Correct,6,5,small,big,False,Value,left,left,1610.4066659754608,Correct
15,22,485,B,72.72599814117613,40.82582907295555,3.636299907058807,0.6412906234615487,B,1077.7210410160478,Correct,7,8,big,small,False,Size,left,left,3288.9735820062924,Correct
15,22,486,B,38.2091534619114,14.071493829269091,1.91045767309557,0.22103450819532938,B,616.858790977858,Correct,8,7,small,big,False,Value,left,left,2725.9382490010466,Correct
15,22,487,B,72.73907754869963,58.1731817267715,3.6369538774349817,0.9137822017438466,A,746.8690829991829,Incorrect,3,4,big,small,False,Value,right,left,2244.0160409896635,Incorrect
15,22,488,A,32.81739324454083,43.159091987506926,1.6408696622270416,0.6779414316177893,B,2679.206791013712,Incorrect,3,4,big,small,False,Value,right,left,446.5272490051575,Incorrect
15,22,489,B,49.033887962671,18.92051205137314,2.45169439813355,0.29720270831375506,B,3544.0377490012906,Correct,3,7,big,small,False,Value,right,left,1649.922125012381,Incorrect
15,22,490,B,54.60016668320767,25.71127723984403,2.7300083341603836,0.4038717984555223,B,999.5865410019178,Correct,7,6,small,big,False,Value,left,right,936.375957011478,Incorrect
15,22,491,B,48.350382064923934,31.685387928015807,2.417519103246197,0.4977129097039859,A,1004.1985409916379,Incorrect,3,5,small,big,True,Size,right,right,1195.520249020774,Correct
15,22,492,B,75.18834873823181,56.49632999296797,3.7594174369115905,0.8874422763034643,A,952.3260830028448,Incorrect,2,8,big,small,False,Size,left,right,1066.5688330191188,Incorrect
15,22,493,B,86.117084186424,60.38487221399529,4.3058542093211996,0.9485233546772301,B,859.1368749912363,Correct,4,7,small,big,True,Size,right,right,990.0523330143187,Correct
15,22,494,A,37.7967496028109,55.97597126144427,1.889837480140545,0.8792685004625336,A,647.5456659973133,Correct,6,8,big,small,False,Size,left,left,883.8962909940165,Correct
15,22,495,B,49.87832962368752,20.644766218843813,2.4939164811843764,0.32428722944099225,B,549.6403739962261,Correct,6,3,small,big,False,Size,right,left,3056.1429989757016,Incorrect
15,22,496,B,40.23600717473323,28.63330876034481,2.0118003587366617,0.4497709622473376,B,670.277208002517,Correct,8,6,small,big,False,Value,left,right,1048.887041019043,Incorrect
15,22,497,A,47.91243732098829,73.67024466346776,2.3956218660494146,1.1572094971145648,A,1254.9587909888942,Correct,3,5,big,small,False,Value,right,left,2242.5397490151227,Incorrect
15,22,498,A,42.87180434407584,68.19299652916843,2.143590217203792,1.0711730846115488,A,1285.1765000086743,Correct,8,3,big,small,True,Size,left,left,1665.2592910104431,Correct
15,22,499,B,87.11647943647051,67.58240462483094,4.355823971823526,1.0615819294065088,B,713.407165982062,Correct,8,2,small,big,False,Value,left,right,2337.508249009261,Incorrect
15,22,500,A,17.794152605437482,45.8950665955083,0.8897076302718742,0.7209180202623158,A,1606.2217069847975,Correct,3,4,big,small,False,Value,right,right,2729.536333004944,Correct
15,22,501,A,68.18769322790396,85.23089530778535,3.4093846613951984,1.338803772789096,A,244.31741598527879,Correct,3,5,big,small,False,Size,left,left,3201.985666004475,Correct
15,22,502,A,56.848512253627426,73.28003917581178,2.8424256126813714,1.1510801636475125,A,862.3434570035897,Correct,3,7,big,small,False,Value,right,right,1018.5147910087835,Correct
15,22,503,A,37.24630828766629,60.762806682228685,1.8623154143833145,0.9544599354219321,A,1264.111165975919,Correct,3,7,big,small,False,Size,left,right,943.8155829848256,Incorrect
15,22,504,B,50.40716954977806,35.75996677304555,2.5203584774889034,0.5617162445340749,B,839.4371659960598,Correct,3,6,big,small,False,Value,right,left,908.392957993783,Incorrect
15,22,505,B,87.91280563094456,63.3887631274828,4.3956402815472275,0.9957083628072175,B,642.6562500128057,Correct,4,2,big,small,True,Value,left,right,4897.746707982151,Incorrect
15,22,506,A,45.21710862587277,57.63456853551921,2.2608554312936384,0.9053216855200229,A,766.0600410017651,Correct,6,3,small,big,False,Value,left,left,1011.0796240041964,Correct
15,22,507,A,33.55441826513183,65.51803924365306,1.6777209132565916,1.0291549538273412,A,615.9570410090964,Correct,4,2,big,small,True,Size,left,right,802.4144580122083,Incorrect
15,22,508,B,50.543168701500065,22.173650828519143,2.527158435075003,0.3483028927307048,B,849.0511660056654,Correct,4,5,big,small,False,Size,left,left,1130.4373749881051,Correct
15,22,509,B,70.10926363752787,37.44317759881613,3.5054631818763937,0.5881560583574932,B,733.4222909994423,Correct,3,2,small,big,False,Size,right,left,1640.0065409834497,Incorrect
15,22,510,B,51.21544483507918,36.08044776860243,2.5607722417539596,0.5667503482403582,B,624.8555830097757,Correct,5,7,small,big,True,Size,right,left,1762.3103329970036,Incorrect
15,22,511,A,51.39576396859526,75.09832062271144,2.569788198429763,1.1796416618262056,A,3332.007707998855,Correct,2,6,big,small,False,Value,right,right,2566.8597079929896,Correct
15,22,512,B,79.01654644075572,54.40188209720429,3.950827322037786,0.8545427656901754,B,974.187207990326,Correct,3,6,big,small,False,Size,left,left,1656.047500000568,Correct
15,22,513,B,51.2210908758705,20.61580782528467,2.5610545437935253,0.32383235205866645,B,1387.0451239927206,Correct,4,2,small,big,False,Value,left,left,2493.485832994338,Correct
15,22,514,A,55.27067264212804,78.07218332727774,2.763533632106402,1.2263549879534565,A,641.4397910120897,Correct,6,3,small,big,False,Value,left,left,1881.5973740129266,Correct
15,22,515,B,39.8890023498781,17.39135758989451,1.9944501174939049,0.27318280620182844,B,1132.9930829815567,Correct,7,6,small,big,False,Size,right,left,1389.615832013078,Incorrect
15,22,516,A,25.047091683658344,35.93877580190074,1.2523545841829173,0.5645249701913099,A,1792.2751659934875,Correct,3,4,small,big,True,Value,right,left,5877.896125020925,Incorrect
15,22,517,B,71.48607640768793,53.40212634678095,3.574303820384397,0.838838639085605,B,806.0126240015961,Correct,3,4,small,big,True,Size,right,left,2846.0457080218475,Incorrect
15,22,518,A,30.49081905428973,53.56274372118494,1.5245409527144864,0.841361610902937,A,717.254249000689,Correct,2,6,big,small,False,Size,left,right,1701.756041002227,Incorrect
15,22,519,A,68.64874195059771,82.60376050817334,3.4324370975298852,1.2975368358568402,A,2136.4384990010876,Correct,2,4,big,small,False,Size,left,left,690.5840410036035,Correct
15,22,520,A,39.58711023507681,46.627267577249505,1.9793555117538404,0.7324194063882631,A,1595.536082983017,Correct,6,5,small,big,False,Size,right,left,4254.779498995049,Incorrect
15,22,521,A,31.494855189286653,46.441225067015,1.5747427594643326,0.7294970574712224,A,624.0156239946373,Correct,2,3,big,small,False,Size,left,right,3033.0929160118103,Incorrect
15,22,522,A,43.09174887431447,75.30581149589281,2.1545874437157235,1.1829009208405732,A,1276.0067909839563,Correct,7,6,small,big,False,Value,left,right,823.3378329896368,Incorrect
15,22,523,A,31.41314459042978,64.7119840035189,1.5706572295214891,1.0164934677233757,A,1769.7328330250457,Correct,2,4,big,small,False,Size,left,left,1171.8625819776207,Correct
15,22,524,A,48.4649759196555,74.49204066852583,2.423248795982775,1.1701182385757645,A,696.4294579811394,Correct,7,3,small,big,False,Size,right,right,603.1838320195675,Correct
15,22,525,B,42.717834467865046,22.37749031668813,2.135891723393252,0.3515047959234209,B,644.8089579935186,Correct,3,6,big,small,False,Value,right,right,810.6958740099799,Correct
15,22,526,A,26.627360265272326,54.58863330789847,1.3313680132636163,0.8574762468480046,A,542.1422499930486,Correct,8,5,small,big,False,Size,right,left,1154.5687909820117,Incorrect
15,22,527,A,48.31941688608704,72.82963842073372,2.415970844304352,1.14400528513089,A,3140.046540996991,Correct,3,8,big,small,False,Value,right,right,5155.331624002429,Correct
15,22,528,B,88.47613462851258,62.297276871626934,4.423806731425629,0.9785633367927625,B,810.264665982686,Correct,4,2,big,small,True,Value,left,left,3334.6093739965,Correct
15,22,529,A,58.0055599675501,86.59666543581648,2.9002779983775047,1.360257239792671,A,847.1376250090543,Correct,5,4,small,big,False,Value,left,left,1717.031832988141,Correct
15,22,530,B,64.11230518269568,31.753116136897965,3.2056152591347837,0.4987767819213108,B,1214.0843739907723,Correct,2,3,big,small,False,Size,left,left,1514.4505409989506,Correct
15,22,531,B,38.217921557280185,15.538713298796036,1.9108960778640094,0.24408153772867824,B,799.814749014331,Correct,3,7,big,small,False,Size,left,left,1232.2626239911187,Correct
15,22,532,A,26.049642027666266,52.847420504703884,1.3024821013833132,0.8301253400937415,A,631.3441660022363,Correct,7,6,small,big,False,Size,right,right,1396.9060409872327,Correct
15,22,533,A,57.20686086174638,72.76218957921745,2.8603430430873185,1.1429458012058866,A,721.3453739823308,Correct,2,8,big,small,False,Value,right,right,1324.884916015435,Correct
15,22,534,A,24.992910793150173,39.569821066549416,1.2496455396575086,0.6215612958326714,A,876.0979160142597,Correct,7,8,big,small,False,Size,left,left,8688.607165997382,Correct
15,22,535,A,32.86736837161145,51.09080717573924,1.6433684185805726,0.8025325224463755,A,575.1952909922693,Correct,2,8,big,small,False,Size,left,right,1028.4079580160324,Incorrect
15,22,536,A,19.895107340290508,49.758130053878915,0.9947553670145254,0.7815988791681575,A,516.0872490087058,Correct,5,8,big,small,False,Value,right,right,1346.3840410113335,Correct
15,22,537,B,48.13198685882397,21.642509323584996,2.4065993429411985,0.33995974148111613,B,698.8366240111645,Correct,8,6,small,big,False,Size,right,left,1930.3579579864163,Incorrect
15,22,538,B,86.36975618640363,62.741395062443175,4.318487809320182,0.9855395290207322,B,749.2274999967776,Correct,2,3,big,small,False,Value,right,left,1859.6761249937117,Incorrect
15,22,539,A,19.990178419133,44.02113841234897,0.99950892095665,0.6914824251944749,A,583.2664989866316,Correct,7,8,small,big,True,Value,right,right,1552.8117069916334,Correct
15,22,540,A,60.07732394687309,82.68733007473404,3.0038661973436547,1.298849543538694,A,1169.8658740206156,Correct,4,2,small,big,False,Size,right,right,1089.4501660077367,Correct
15,22,541,A,60.06787458822667,72.44510432494408,3.003393729411334,1.1379650376789525,A,1243.7422079965472,Correct,7,8,small,big,True,Value,right,right,1053.574916004436,Correct
15,22,542,A,65.37535134207504,86.42948184808225,3.2687675671037515,1.3576311261375378,A,2264.1357910179067,Correct,2,5,big,small,False,Value,right,right,3699.442373996135,Correct
15,22,543,A,39.053462108722876,59.24863830316354,1.9526731054361437,0.930675434142087,A,1158.5207910102326,Correct,3,8,big,small,False,Size,left,right,1437.7987910120282,Incorrect
15,22,544,A,34.556705364452604,61.32229636757591,1.7278352682226301,0.9632483788481626,A,913.8685830112081,Correct,3,6,big,small,False,Size,left,right,1436.0020410094876,Incorrect
15,22,545,A,22.439286667891057,50.407922355128186,1.1219643333945528,0.791805792767977,A,824.246456992114,Correct,5,4,small,big,False,Size,right,left,1646.766290999949,Incorrect
15,22,546,A,55.07452741966115,68.94677164787458,2.7537263709830575,1.0830133564884792,A,1794.247790996451,Correct,6,4,small,big,False,Size,right,right,1977.8258330188692,Correct
15,22,547,B,59.38529887711938,43.71314917182965,2.9692649438559693,0.6866445415174739,B,1150.791833002586,Correct,6,7,small,big,True,Size,right,left,2913.9845409954432,Incorrect
15,22,548,B,73.24402576733351,45.66863421578263,3.6622012883666755,0.7173612287589108,B,2145.858791016508,Correct,6,8,small,big,True,Size,right,left,1923.3431659813505,Incorrect
15,22,549,A,51.72616815086781,76.09962354444794,2.5863084075433904,1.1953700913409326,B,4504.931665986078,Incorrect,2,6,big,small,False,Size,left,right,2409.4119160145056,Incorrect
15,22,550,B,47.24516980533962,27.58840717288572,2.362258490266981,0.4333576864929086,A,1762.908499018522,Incorrect,2,4,big,small,False,Value,right,right,6570.00383301056,Correct
15,22,551,B,77.74652589016902,66.1166426609377,3.8873262945084512,1.038557794318117,B,3100.272457988467,Correct,5,4,small,big,False,Value,left,left,1749.119750020327,Correct
15,22,552,A,14.993461168390464,42.12179603215802,0.7496730584195233,0.6616476248531765,A,1192.4312910123263,Correct,6,3,small,big,False,Value,left,right,7817.85087499884,Incorrect
15,22,553,B,55.351920610650794,38.66373392485013,2.7675960305325393,0.6073285122932981,B,1153.9783749904018,Correct,3,5,big,small,False,Value,right,left,1629.363290994661,Incorrect
15,22,554,A,60.97442644982353,76.71172704688952,3.048721322491177,1.2049849906734678,B,3667.234416003339,Incorrect,2,5,big,small,False,Value,right,right,10406.396582984598,Correct
15,22,555,B,53.3360538961043,41.90573420659346,2.6668026948052153,0.6582537336336025,A,2688.6961659765802,Incorrect,7,5,small,big,False,Size,right,right,982.5427909963764,Correct
15,22,556,B,46.06815175110008,23.263333587343677,2.303407587555004,0.3654195894800379,B,2614.2150410159957,Correct,7,2,small,big,False,Size,right,right,1722.6375410100445,Correct
15,22,557,B,51.42778495486965,40.206377295909846,2.5713892477434825,0.6315602977014491,B,1148.1878329941537,Correct,8,6,small,big,False,Size,right,right,431.0863329737913,Correct
15,22,558,B,63.25586296088808,42.813073372060565,3.162793148044404,0.6725061839163313,B,1045.3001660062,Correct,4,7,big,small,False,Size,left,right,641.1141249991488,Incorrect
15,22,559,B,49.16235568533088,39.83993520884017,2.458117784266544,0.6258042388579281,B,944.8979579901788,Correct,7,2,big,small,True,Value,left,left,1864.497125003254,Correct
15,22,560,A,29.632322394411503,48.1656635430393,1.4816161197205753,0.75658447371045,B,986.1241239996161,Incorrect,3,6,big,small,False,Size,left,left,1318.4742490120698,Correct
15,22,561,B,59.45736816720957,44.3567506325843,2.972868408360479,0.6967542096222062,B,841.9687490095384,Correct,4,8,big,small,False,Size,left,left,949.0152910002507,Correct
15,22,562,A,59.885823554393326,87.4131679157064,2.994291177719666,1.3730828307549712,B,889.7791659983341,Incorrect,7,6,big,small,True,Value,left,left,1094.7588319831993,Correct
