subject,day,trial,cat,x,y,xt,yt,resp,rt,fb
15,8,0,A,37.75241821043006,65.06268716476502,1.8876209105215027,1.0220023000981837,A,953.8348329951987,Correct
15,8,1,A,54.15918367378553,67.64400767988354,2.7079591836892765,1.0625495879324685,A,1737.9557919921353,Correct
15,8,2,A,17.278220302028924,43.611309104902,0.8639110151014462,0.6850448414869688,A,870.7697920035571,Correct
15,8,3,B,64.51952306108815,55.91179075156816,3.2259761530544075,0.8782603553708813,B,1417.965833999915,Correct
15,8,4,A,31.929237776125515,62.5960187708772,1.5964618888062756,0.9832559635727831,A,807.086166983936,Correct
15,8,5,B,43.41458442441269,25.62001293353147,2.1707292212206344,0.40243822208428975,B,772.7426670026034,Correct
15,8,6,B,58.56335751726373,48.89445784988432,2.9281678758631866,0.768032347912262,B,1175.2610419935081,Correct
15,8,7,A,32.508841342519844,65.62375814118991,1.6254420671259922,1.0308155823865779,A,969.1679579846095,Correct
15,8,8,B,56.930728330304746,25.952293606424263,2.8465364165152374,0.4076576746887391,B,653.2608749985229,Correct
15,8,9,A,42.44607525522593,72.62933583344933,2.1223037627612964,1.1408589394473516,A,991.5510830178391,Correct
15,8,10,B,79.81241690804826,57.11242137841194,3.990620845402413,0.897119817155718,B,624.2228749906644,Correct
15,8,11,A,65.76819446295934,79.51651839825182,3.288409723147967,1.2490425501949278,A,1194.3023749918211,Correct
15,8,12,B,40.288775455855,27.946426157975967,2.01443877279275,0.43898143555993463,B,1670.8355830051005,Correct
15,8,13,B,78.6459588709982,60.66519313289855,3.93229794354991,0.9529266253746002,B,723.2464170083404,Correct
15,8,14,B,49.990606628734405,29.634888856429605,2.4995303314367203,0.4655037456065463,A,2269.87520797411,Incorrect
15,8,15,B,57.03738041082578,36.52241032644906,2.851869020541289,0.5736926798648219,B,775.1309580053203,Correct
15,8,16,A,26.404394801637437,36.877282390754075,1.3202197400818718,0.5792669972157461,A,1627.2828329820186,Correct
15,8,17,B,45.52954102519816,37.385740557945724,2.276477051259908,0.5872538394292813,B,935.3464169835206,Correct
15,8,18,B,66.85179226374042,36.05975486704713,3.3425896131870214,0.5664253049028203,B,1119.530083000427,Correct
15,8,19,A,26.608920872804294,57.70871865795228,1.3304460436402146,0.9064864329195156,A,2010.0214580015745,Correct
15,8,20,B,87.97734891577721,65.9711564700031,4.398867445788861,1.0362725025749222,B,823.4381670190487,Correct
15,8,21,A,57.186712205491716,76.07340339015197,2.859335610274586,1.1949582261203715,A,1645.0282910082024,Correct
15,8,22,B,42.276114774087034,19.072127119567163,2.1138057387043516,0.2995842722358143,B,762.0827500068117,Correct
15,8,23,B,63.2650294526724,49.15414747480956,3.16325147263362,0.772111543001655,B,758.5057500109542,Correct
15,8,24,A,24.591840457284015,55.389244293069325,1.2295920228642006,0.8700522147949846,A,508.22591700125486,Correct
15,8,25,A,50.92112250818812,63.86466077281911,2.546056125409406,1.0031837455394637,A,753.6075829993933,Correct
15,8,26,A,50.766934174321776,69.99231923426721,2.5383467087160887,1.0994367795704274,A,1037.4064579955302,Correct
15,8,27,B,58.83202232703671,31.046758484439778,2.9416011163518356,0.4876813418624629,B,1494.1789169970434,Correct
15,8,28,B,69.15416989442386,58.185837522403716,3.4577084947211927,0.9139809985167642,B,842.568833992118,Correct
15,8,29,B,82.33955114273546,64.46108295717242,4.116977557136773,1.0125523233034754,B,904.3968330079224,Correct
15,8,30,A,46.83000612502162,56.30385115302013,2.341500306251081,0.8844188257557062,A,913.4812910051551,Correct
15,8,31,B,49.00953680258772,19.057421695103784,2.4504768401293857,0.29935327996850397,B,634.2664579860866,Correct
15,8,32,B,35.09590688685185,19.397322923290158,1.7547953443425925,0.30469243597558626,B,1246.5228329820093,Correct
15,8,33,A,17.358705184515927,44.63286672267895,0.8679352592257963,0.7010914310231027,A,625.5541249993257,Correct
15,8,34,B,53.27636128925865,43.436205147489765,2.6638180644629323,0.682294314955865,B,688.7395409867167,Correct
15,8,35,B,53.32062085387309,32.75081129451865,2.666031042693654,0.514448540809827,B,790.1598339958582,Correct
15,8,36,A,41.36174761454958,60.8450726648406,2.068087380727479,0.9557521664550018,A,1590.5931669985875,Correct
15,8,37,A,30.848790296557333,47.05077254615992,1.5424395148278665,0.7390718068837016,A,1186.3621669763234,Correct
15,8,38,A,13.901795413246102,33.56560459898252,0.6950897706623052,0.5272472841073162,A,883.1077500071842,Correct
15,8,39,A,29.852923397269638,48.9731356293434,1.4926461698634819,0.769268215582009,A,1535.5859169794712,Correct
15,8,40,B,81.16652496417935,66.84516442567215,4.058326248208967,1.050001387438467,B,1169.052749988623,Correct
15,8,41,A,30.95343488233343,43.170491230992454,1.5476717441166716,0.6781204905157423,A,1312.4401659879368,Correct
15,8,42,A,57.11215908009428,68.14204563342547,2.8556079540047143,1.0703727498127495,B,1234.7090000112075,Incorrect
15,8,43,B,50.91409595650903,21.89886607342634,2.5457047978254512,0.34398658389111475,B,1319.0248750033788,Correct
15,8,44,A,45.09883982649544,56.58470703006167,2.254941991324772,0.8888304995558625,B,2309.278083994286,Incorrect
15,8,45,A,57.74605147449384,70.55405913125796,2.887302573724692,1.1082605692384992,A,950.2490420127288,Correct
15,8,46,B,57.68119625118266,26.844011264115387,2.8840598125591335,0.42166474290113276,B,810.3640420013107,Correct
15,8,47,A,39.992424114437114,51.95661199183482,1.9996212057218556,0.816132552694818,A,764.8812909901608,Correct
15,8,48,B,52.80693210130115,44.45255482533176,2.6403466050650577,0.6982590983627988,A,1125.2979999990202,Incorrect
15,8,49,A,38.5206126287974,59.16746269880997,1.92603063143987,0.9294003307306477,A,1229.8674589837901,Correct
15,8,50,B,49.72927788729891,30.16385464075527,2.4864638943649457,0.4738127207167357,B,745.1861670124345,Correct
15,8,51,A,16.23548277711012,45.61465214303392,0.8117741388555061,0.7165132803430464,A,728.8491659855936,Correct
15,8,52,A,50.37902975727418,61.53531287674985,2.518951487863709,0.9665944343497336,A,695.0671249942388,Correct
15,8,53,A,64.57429456969575,81.05357149936798,3.2287147284847877,1.2731865238481475,A,1204.324083024403,Correct
15,8,54,A,52.061290014902724,62.74428636704612,2.6030645007451363,0.9855849455272315,A,2143.0283749941736,Correct
15,8,55,A,27.56973284183341,40.9029372631019,1.3784866420916706,0.6425018360800255,A,922.1100000140723,Correct
15,8,56,A,33.99254210342883,51.85803215546554,1.6996271051714416,0.8145840642461691,A,1174.432625004556,Correct
15,8,57,B,43.75815505064507,30.464246942833523,2.187907752532254,0.47853127196375556,A,1139.0378749929368,Incorrect
15,8,58,B,76.28428886755387,45.598716318678655,3.8142144433776934,0.7162629609994294,B,835.1272500003688,Correct
15,8,59,B,78.95172208067417,61.938833607614825,3.947586104033709,0.9729329231680165,B,1395.7365000096615,Correct
15,8,60,A,37.80046442369569,69.4822849756367,1.8900232211847847,1.0914251801704637,A,730.9258749883156,Correct
15,8,61,B,48.91875362061534,24.76092140633068,2.445937681030767,0.38894364393121356,B,648.0212080059573,Correct
15,8,62,B,80.34593986540395,58.359265650269926,4.017296993270197,0.9167052011789157,B,1007.408542005578,Correct
15,8,63,B,47.13154516163565,28.077471539612368,2.3565772580817823,0.44103989160111357,B,1508.1634589878377,Correct
15,8,64,B,65.29029145625913,38.53930741817563,3.2645145728129563,0.6053740252968959,B,1574.8915840231348,Correct
15,8,65,B,70.60657598248855,51.399727140138516,3.5303287991244274,0.8073850258998954,B,994.4277920003515,Correct
15,8,66,A,66.24725181020732,82.30229043163924,3.312362590510366,1.2928013549682569,A,853.6038750025909,Correct
15,8,67,B,42.85962480621432,35.20384214035923,2.142981240310716,0.5529806592314366,B,958.7244169961195,Correct
15,8,68,A,66.3527786700713,89.79762318174562,3.317638933503565,1.4105377664879826,A,920.4196659848094,Correct
15,8,69,B,87.90299660190273,67.57738009077225,4.395149830095137,1.0615030042100764,B,1246.9652080035303,Correct
15,8,70,B,80.12771078906168,54.45198764181976,4.006385539453084,0.8553298217445158,B,875.1916250039358,Correct
15,8,71,B,85.30778241450714,68.30065555366897,4.265389120725357,1.0728641886138668,B,978.7841670040507,Correct
15,8,72,B,49.45429789679684,34.450205493492675,2.472714894839842,0.5411425624650766,B,795.0662079965696,Correct
15,8,73,B,54.47902054655201,28.600560226685687,2.7239510273276006,0.44925654948354093,B,878.9248329994734,Correct
15,8,74,B,54.87347862169753,45.73151640169092,2.7436739310848766,0.7183489798253665,B,976.7620839993469,Correct
15,8,75,A,11.50302354482978,31.857250240350197,0.575151177241489,0.5004125165932792,A,734.5778750022873,Correct
15,8,76,B,55.83430159569279,42.59455743825838,2.7917150797846397,0.669073743654705,B,700.4442079924047,Correct
15,8,77,A,41.49368775347704,56.10212466669753,2.074684387673852,0.8812501135183783,A,768.6424999847077,Correct
15,8,78,A,12.733695752838155,40.40674795071672,0.6366847876419078,0.6347077125871304,A,705.1042919920292,Correct
15,8,79,B,58.645991354844135,39.72182998107232,2.932299567742207,0.623949046278398,B,603.9133339945693,Correct
15,8,80,A,32.82241424287081,65.05705286053191,1.6411207121435407,1.0219137966542495,A,1383.077583013801,Correct
15,8,81,A,43.79717029215986,51.325806457835995,2.189858514607993,0.8062238825375456,A,1435.6674590089824,Correct
15,8,82,B,80.52805794482835,64.24230819924261,4.026402897241417,1.0091158174419597,B,613.0863330035936,Correct
15,8,83,B,43.968874441290886,15.114118090076829,2.1984437220645443,0.23741201178636978,B,2993.764500017278,Correct
15,8,84,A,51.52460419772402,69.50415303739125,2.5762302098862007,1.0917686828812452,A,810.1988340204116,Correct
15,8,85,A,28.642311422090643,55.53029238096174,1.4321155711045321,0.8722677929786133,A,692.5230420019943,Correct
15,8,86,B,36.76161683818245,13.16034630389493,1.8380808419091224,0.20672223633506945,B,1163.7822090124246,Correct
15,8,87,B,87.46025765862079,61.024426308661546,4.3730128829310395,0.958569446904114,B,1197.4153749761172,Correct
15,8,88,B,85.69621676753846,68.52455885846227,4.284810838376923,1.0763812535011321,A,1109.830375004094,Incorrect
15,8,89,B,45.44217192733288,35.42311220742277,2.272108596366644,0.5564249453906315,B,741.555624990724,Correct
15,8,90,A,18.505719666966527,32.75995353290581,0.9252859833483263,0.5145921467545994,A,727.7553750027437,Correct
15,8,91,A,49.73268814793833,63.354603146281505,2.4866344073969167,0.9951717790772737,A,1356.928291002987,Correct
15,8,92,A,51.15164597176168,67.34712543559466,2.557582298588084,1.0578861725442725,A,1266.9888749951497,Correct
15,8,93,A,57.00639073030993,73.54106075206009,2.8503195365154967,1.1551802809793632,A,806.7587499972433,Correct
15,8,94,B,69.12090176398485,35.88520357169365,3.4560450881992426,0.5636834595670349,B,690.4852080042474,Correct
15,8,95,B,44.88639813337192,27.612177198441398,2.244319906668596,0.43373106518121546,B,838.8710000144783,Correct
15,8,96,A,38.01990665503409,69.74333601774778,1.9009953327517046,1.0955257603510042,A,1558.718582993606,Correct
15,8,97,B,52.83653855819453,24.98914274322761,2.641826927909727,0.39252853630815265,B,1167.826208024053,Correct
15,8,98,B,83.10735903864051,68.55017482825414,4.155367951932026,1.0767836282136958,B,1191.3893749879207,Correct
15,8,99,A,43.547943150320776,65.06810514012538,2.177397157516039,1.0220874054561306,A,887.1347499953117,Correct
15,8,100,A,33.83080569649907,49.28405356861259,1.6915402848249534,0.7741521031513956,A,804.6913750004023,Correct
15,8,101,A,42.947134445167634,53.58563102671413,2.147356722258382,0.841721123857492,A,1016.9128340203315,Correct
15,8,102,A,49.68783905676551,64.19147607362049,2.4843919528382754,1.0083173482798555,A,843.5472919954918,Correct
15,8,103,B,42.237751817906066,30.51252427526077,2.111887590895303,0.47928961052819735,B,1247.0894579892047,Correct
15,8,104,B,52.3116382744127,33.02827195198503,2.615581913720635,0.5188068826256099,B,1467.3107499838807,Correct
15,8,105,B,60.786221460819505,42.18879548320133,3.039311073040975,0.6627000497691378,B,979.1987909993622,Correct
15,8,106,A,38.26741981703064,67.5761303204999,1.9133709908515322,1.0614833728645447,A,4855.208583001513,Correct
15,8,107,A,29.095566465218162,39.224607973583446,1.454778323260908,0.6161387012487469,B,867.948625003919,Incorrect
15,8,108,B,68.16871423930144,46.11028983520068,3.4084357119650717,0.7242987390058128,B,784.435375011526,Correct
15,8,109,B,70.629169352165,56.199340387763286,3.5314584676082497,0.8827771744939465,B,922.4122909945436,Correct
15,8,110,A,26.012633773018,36.18999604066071,1.3006316886509,0.568471128473917,B,2900.3552090143785,Incorrect
15,8,111,A,48.65160734316132,60.12516921841048,2.432580367158066,0.9444439495620075,A,920.0667919940315,Correct
15,8,112,B,64.29359273636531,37.54035849418362,3.214679636818266,0.5896825722922722,B,1557.4077909986954,Correct
15,8,113,A,32.488122816261026,59.710186585009836,1.6244061408130512,0.9379254175997136,A,991.9416249904316,Correct
15,8,114,A,51.85604227814497,63.46220061737691,2.5928021139072484,0.9968619162009646,A,2257.7466249931604,Correct
15,8,115,A,34.07918389899545,65.4484639255743,1.7039591949497725,1.028062067286604,A,902.3899169987999,Correct
15,8,116,B,32.09369662936898,11.629635452986236,1.604684831468449,0.1826778865151448,B,769.5547089970205,Correct
15,8,117,A,16.297154084511853,42.68198891960358,0.8148577042255926,0.6704471141521378,A,802.2444999951404,Correct
15,8,118,A,31.139384000708148,49.26663952998603,1.5569692000354076,0.7738785640723032,A,1471.7907089798246,Correct
15,8,119,A,59.51256312487224,86.45663875222779,2.9756281562436118,1.3580577057903271,A,1536.9442090159282,Correct
15,8,120,B,82.56831549567934,58.755886447542764,4.128415774783967,0.9229353060937822,B,858.2069170079194,Correct
15,8,121,B,36.18709544238303,25.869760386016853,1.8093547721191516,0.406361245894194,B,1678.9828750188462,Correct
15,8,122,B,49.60523284472745,37.05434003020898,2.4802616422363726,0.5820482121126136,B,682.9800830164459,Correct
15,8,123,A,46.314237100120486,68.35385661220866,2.3157118550060245,1.0736998688872241,A,2199.4116670102812,Correct
15,8,124,A,37.94580989485943,56.81646867728757,1.8972904947429714,0.892471002997406,A,4138.299207988894,Correct
15,8,125,A,23.215221438719322,47.64840734368076,1.1607610719359662,0.748459432330807,A,1071.609417005675,Correct
15,8,126,B,36.05179416140808,19.335237399744912,1.802589708070404,0.30371719885226617,B,1082.7053749817424,Correct
15,8,127,A,56.9395864349779,69.2188579830414,2.8469793217488952,1.0872872786469903,A,1824.6702500036918,Correct
15,8,128,B,35.75117333195288,20.780263508319603,1.787558666597644,0.32641561588698464,B,922.5482909823768,Correct
15,8,129,A,50.77068331623218,59.74292514042086,2.538534165811609,0.9384396736255556,A,896.4367499866057,Correct
15,8,130,B,72.2390851182479,60.461963231091715,3.6119542559123947,0.9497342975420696,B,1535.6437079899479,Correct
15,8,131,A,54.91396289109352,84.41922715871087,2.745698144554676,1.32605411931767,A,2129.8441250110045,Correct
15,8,132,B,57.046922544864906,28.256460397036975,2.852346127243245,0.44385144199891147,B,754.0215829794761,Correct
15,8,133,A,31.589031162339396,56.07976897594194,1.5794515581169697,0.8808989511491601,A,1180.6126670271624,Correct
15,8,134,A,54.68661023145148,76.53333727771579,2.734330511572574,1.2021828507319088,A,910.9226250147913,Correct
15,8,135,A,52.89015855126512,78.83384931032109,2.644507927563256,1.2383192092375475,A,774.1075830126647,Correct
15,8,136,A,32.34537504687154,57.566868666184,1.617268752343577,0.9042582584592606,A,1062.149125005817,Correct
15,8,137,B,80.15033795294843,58.60802326629546,4.007516897647422,0.9206126766740674,B,643.3797080244403,Correct
15,8,138,A,45.60029521072663,54.04551411783064,2.2800147605363317,0.8489449505603008,A,1355.2349999954458,Correct
15,8,139,A,47.81364436734896,63.29978450024402,2.3906822183674477,0.9943106897989185,A,1453.8575419865083,Correct
15,8,140,A,19.968987870110656,45.18057471551671,0.9984493935055327,0.7096948080561603,A,709.2337089998182,Correct
15,8,141,B,41.656893994146984,25.341329724867034,2.082844699707349,0.39806067647919463,B,1363.3667920075823,Correct
15,8,142,A,15.506316436519516,43.57538727188395,0.7753158218259757,0.684480582653404,A,644.5312080031727,Correct
15,8,143,A,57.93149983323858,71.72393462321007,2.896574991661929,1.1266369304941568,A,976.8656249798369,Correct
15,8,144,B,52.22410097611718,30.387874784988835,2.611205048805859,0.4773316209136371,B,1880.5709999869578,Correct
15,8,145,A,48.697984841684786,59.314259665318566,2.4348992420842395,0.9317062120884109,A,1329.5165410090704,Correct
15,8,146,B,37.23729147126426,27.80505313303624,1.8618645735632129,0.4367607532771025,B,638.119374983944,Correct
15,8,147,B,58.395009037434555,41.03078796373086,2.9197504518717277,0.6445101101892867,B,954.2948750022333,Correct
15,8,148,A,56.85115805882526,69.18636904030348,2.8425579029412633,1.0867769435278485,A,1116.5414580027573,Correct
15,8,149,A,42.310353437247684,56.128318908123916,2.115517671862384,0.8816615717005359,B,1000.0011670053937,Incorrect
15,8,150,A,38.22857326468143,45.633486524347106,1.9114286632340713,0.7168091301128884,A,2069.976625003619,Correct
15,8,151,B,45.13349027138783,33.32620008471081,2.2566745135693913,0.5234867267909552,B,1242.5718750164378,Correct
15,8,152,A,28.756474493943536,47.79021280389107,1.4378237246971768,0.7506869072909852,A,1183.5405419988092,Correct
15,8,153,A,17.686473951418478,31.666717411241052,0.8843236975709239,0.49741963391229443,A,1007.3457499966025,Correct
15,8,154,A,20.681288172842923,42.65351675390113,1.0340644086421462,0.6699998744191247,A,882.7938750036992,Correct
15,8,155,A,57.24031525830999,69.06552233103928,2.862015762915499,1.084878687857674,A,2181.3161250029225,Correct
15,8,156,A,11.814405947922932,32.395759693161,0.5907202973961466,0.5088714032974746,A,1170.2455840131734,Correct
15,8,157,A,27.298284294193394,43.54389172439612,1.3649142147096698,0.6839858517503612,A,1045.0083749892656,Correct
15,8,158,A,52.14272001069373,78.91682846778646,2.6071360005346866,1.2396226427950188,A,1199.7560410236474,Correct
15,8,159,B,73.5169330172294,52.050719046233866,3.6758466508614704,0.8176107828485731,B,1793.6544169788249,Correct
15,8,160,B,33.560955977180896,19.94096485308004,1.6780477988590448,0.3132319434396426,B,1914.3738749844488,Correct
15,8,161,A,25.02018406557625,56.720741743898344,1.2510092032788125,0.8909673278439747,A,1409.2724169895519,Correct
15,8,162,A,29.950631820280556,39.72410049882439,1.4975315910140279,0.6239847114878468,A,1031.8478340050206,Correct
15,8,163,A,14.97372324991768,30.534939558042424,0.748686162495884,0.47964170896677216,A,2078.593624988571,Correct
15,8,164,B,39.175668584358945,24.45486829952563,1.9587834292179473,0.3841361729714781,A,2437.565457978053,Incorrect
15,8,165,A,12.25976510046852,31.851576796916525,0.612988255023426,0.5003233983522204,A,1088.866541016614,Correct
15,8,166,A,53.6606423504185,78.2593386909998,2.683032117520925,1.2292948175322023,A,846.432582999114,Correct
15,8,167,B,50.83639957525523,29.662483692897325,2.5418199787627613,0.46593720428416635,B,2463.9982499938924,Correct
15,8,168,A,57.92359277443852,78.54693106830244,2.896179638721926,1.2338123080310142,A,1217.5775409850758,Correct
15,8,169,A,19.999880900291046,48.54721629676915,0.9999940450145524,0.7625778903508232,A,1416.5283750044182,Correct
15,8,170,B,69.62902226743432,39.374214417374624,3.4814511133717163,0.6184887137724672,B,1483.8567500119098,Correct
15,8,171,B,84.49796149150092,62.09068669937252,4.224898074575046,0.9753182259554709,B,1041.5686249907594,Correct
15,8,172,B,46.815438365488404,24.68517722305641,2.34077191827442,0.3877538570825806,B,920.7769999920856,Correct
15,8,173,A,56.68225323515831,81.9847349697643,2.8341126617579158,1.2878132054375888,A,934.9476670031436,Correct
15,8,174,A,29.55948456041063,62.50608939135445,1.4779742280205315,0.9818433561825303,A,887.0636250067037,Correct
15,8,175,B,78.11323026608291,58.69587157583446,3.9056615133041452,0.9219925946934574,B,1348.1478329922538,Correct
15,8,176,A,59.111255325974675,74.2610536665969,2.955562766298734,1.166489903234091,A,1077.1105000167154,Correct
15,8,177,A,39.71147581786097,47.970371131458414,1.9855737908930484,0.7535168276828282,A,5459.973458986497,Correct
15,8,178,A,41.74469461758369,59.755046168427114,2.0872347308791843,0.9386300702882479,A,1355.402834014967,Correct
15,8,179,B,72.14484185720809,56.14577363202897,3.607242092860405,0.8819357498624887,A,1930.66195899155,Incorrect
15,8,180,B,86.02320780874807,69.04848477204166,4.301160390437404,1.084611062506764,A,847.837791981874,Incorrect
15,8,181,A,27.457195477135468,56.95410852285852,1.3728597738567734,0.8946330446358407,A,675.59558301582,Correct
15,8,182,A,37.92225629892914,55.052949686725576,1.896112814946457,0.8647697114713279,A,832.5067909900099,Correct
15,8,183,B,38.79332592794758,25.188865952976247,1.939666296397379,0.3956657811506412,B,1014.7877919953316,Correct
15,8,184,B,75.76129592321224,53.563637280821006,3.788064796160612,0.8413756469048781,B,1079.1087920079008,Correct
15,8,185,B,63.78590354646163,35.9200073007289,3.1892951773230815,0.5642301552643082,B,964.9475420010276,Correct
15,8,186,A,68.14102616715863,86.91337876141323,3.4070513083579317,1.3652321610776148,A,874.4664170080796,Correct
15,8,187,B,76.49000690336226,53.11524613531402,3.8245003451681128,0.8343323352615809,B,1310.7560420176014,Correct
15,8,188,A,66.87888806302055,87.9942812818066,3.3439444031510277,1.3822109381641874,A,8533.81179200369,Correct
15,8,189,B,74.23981957892505,60.9962712470783,3.7119909789462526,0.9581271882309577,B,1435.531416995218,Correct
15,8,190,B,55.52727296278169,33.581451729439294,2.776363648139084,0.5274962102504337,B,2418.4767909755465,Correct
15,8,191,A,32.51010143438202,53.56943609530117,1.625505071719101,0.8414667344697302,A,1483.7166669894941,Correct
15,8,192,A,50.123275768128636,67.67449145657534,2.5061637884064316,1.0630284259770115,A,1938.0308330000844,Correct
15,8,193,A,24.498113843863685,43.73033683813838,1.2249056921931842,0.6869145247485131,A,771.3302089832723,Correct
15,8,194,B,56.37208945740413,38.85809331526926,2.818604472870206,0.6103815024587828,B,1478.8407500018366,Correct
15,8,195,B,60.88507803086672,48.08167257018148,3.0442539015433363,0.7552651465939602,B,1860.0058749725576,Correct
15,8,196,A,36.62984449324304,47.0409366548446,1.8314922246621521,0.7389173050642129,A,645.4861669917591,Correct
15,8,197,A,36.42360572100288,54.91140640110444,1.8211802860501438,0.8625463547399663,A,1541.2884579855017,Correct
15,8,198,A,39.150965814404,66.52819777558885,1.9575482907202002,1.0450224869417937,A,850.1574160181917,Correct
15,8,199,B,48.53762582808852,20.900623973433294,2.426881291404426,0.32830623365190376,A,2681.436875020154,Incorrect
15,8,200,B,43.09164779202091,31.642299645278836,2.1545823896010456,0.49703608054147447,A,1435.3490420035087,Incorrect
15,8,201,A,41.93943804687147,64.6564563742833,2.096971902343574,1.0156212417629868,A,856.409290980082,Correct
15,8,202,B,54.60162561755428,46.92244740921302,2.730081280877714,0.7370560803461853,B,1326.5361670055427,Correct
15,8,203,B,35.90758439717544,10.558016733769499,1.7953792198587721,0.16584493903644182,B,719.7478330053855,Correct
15,8,204,B,51.74792368415678,29.465975638751253,2.5873961842078392,0.46285046298778376,B,1200.6242079951335,Correct
15,8,205,B,56.87168538298857,44.4126856017094,2.843584269149428,0.6976328340626171,B,1498.1299579958431,Correct
15,8,206,B,45.16683676842236,29.81043496328538,2.2583418384211176,0.46826121740486837,A,817.5488330016378,Incorrect
15,8,207,B,81.87096840100591,60.83682760906848,4.093548420050296,0.955622653421791,B,1065.6002500036266,Correct
15,8,208,B,70.42726366847157,45.361841549577,3.5213631834235786,0.7125421408272766,B,1152.1917909849435,Correct
15,8,209,A,26.70460618663381,50.464376759695845,1.3352303093316906,0.7926925764812397,A,1509.6736249979585,Correct
15,8,210,A,21.698552544683686,45.16733528793027,1.0849276272341841,0.7094868436139439,A,1288.4645000158343,Correct
15,8,211,A,32.79720360658169,44.11223021643971,1.6398601803290844,0.6929132919071435,A,1072.7601669786964,Correct
15,8,212,B,66.83534541703163,38.35273270597389,3.341767270851582,0.6024433165709028,B,935.8697920106351,Correct
15,8,213,B,69.42792451705068,44.71591654492992,3.471396225852534,0.7023959745804306,B,1439.279667014489,Correct
15,8,214,B,67.75051417658887,35.819485783612926,3.3875257088294433,0.562651166965812,B,782.2750000050291,Correct
15,8,215,A,26.2478692920063,36.43119026806783,1.312393464600315,0.5722597985384693,A,948.2046659977641,Correct
15,8,216,A,32.914475952385885,55.330973172420364,1.6457237976192942,0.8691368941722487,A,834.1486660065129,Correct
15,8,217,B,46.23521913903349,29.776777933185713,2.3117609569516744,0.4677325340123545,B,1257.9814160126261,Correct
15,8,218,B,57.105162990905875,24.73862376067686,2.855258149545294,0.38859339333232157,B,1094.9798750225455,Correct
15,8,219,B,33.80746874130384,11.81860961439007,1.6903734370651922,0.1856462857010677,B,1327.464208996389,Correct
15,8,220,A,47.69119927809939,68.2151942281839,2.3845599639049695,1.0715217652523172,A,847.8092500008643,Correct
15,8,221,A,43.63882787861483,58.22095065882182,2.181941393930742,0.9145325543738422,A,921.1906249984168,Correct
15,8,222,B,40.0068951975321,12.719659815692609,2.0003447598766053,0.19979994916570598,B,2394.956665986683,Correct
15,8,223,A,52.958922741971044,75.36492988950219,2.647946137098552,1.1838295503958494,A,743.7900829827413,Correct
15,8,224,B,50.0535669110419,36.30320970648197,2.502678345552095,0.5702494845780671,B,1694.076915999176,Correct
15,8,225,B,37.2818411365192,21.018725027766756,1.86409205682596,0.3301613606752798,B,769.4302500167396,Correct
15,8,226,A,20.81863183864462,32.86558369804956,1.040931591932231,0.5162513815086649,A,732.8426250023767,Correct
15,8,227,A,24.11197335789985,43.16064626495566,1.2055986678949924,0.6779658461508622,A,947.6439999998547,Correct
15,8,228,B,68.52958794433796,40.44792570901103,3.426479397216898,0.6353545313018739,B,2212.6172080170363,Correct
15,8,229,B,83.90114439433808,62.79889639463832,4.195057219716904,0.9864427578347114,B,923.1937500007916,Correct
15,8,230,B,30.963516422151592,15.223481320606957,1.5481758211075798,0.2391298853944013,A,2441.880750004202,Incorrect
15,8,231,B,56.70877378219656,29.200198863308607,2.8354386891098278,0.45867565116165665,B,1207.1998749743216,Correct
15,8,232,A,27.099179300680802,60.131272904004,1.3549589650340403,0.9445398260311098,A,888.1865829753224,Correct
15,8,233,A,51.397990583818626,74.03387915313286,2.5698995291909315,1.1629214543211834,A,882.9850420006551,Correct
15,8,234,A,23.047165203215773,45.309434726137866,1.1523582601607887,0.711718936369705,A,713.1464170233812,Correct
15,8,235,B,63.70178813904387,53.41346982247781,3.1850894069521933,0.839016821985182,B,1082.9295000003185,Correct
15,8,236,A,36.74283087229382,64.72314039892802,1.8371415436146912,1.0166687119726652,A,4389.889707992552,Correct
15,8,237,A,49.539419364137935,57.92788007475394,2.4769709682068966,0.9099290124043877,A,1657.2779169946443,Correct
15,8,238,B,42.862656550641404,21.017089271951047,2.1431328275320705,0.33013566628301133,B,791.8570000038017,Correct
15,8,239,B,70.60136696200217,54.019014897030246,3.530068348100109,0.8485287017733392,B,907.4190840183292,Correct
15,8,240,A,60.693608627578996,85.34359475254915,3.03468043137895,1.340574051527764,A,1269.0257079957519,Correct
15,8,241,A,24.300077463276054,45.88189081827764,1.2150038731638027,0.72071105563755,A,956.218458013609,Correct
15,8,242,B,37.07307752147688,27.456894277256914,1.8536538760738441,0.4312918867591098,B,1104.5424579933751,Correct
15,8,243,B,75.16134319638098,64.1578463815849,3.758067159819049,1.0077890943126482,B,1583.6889169877395,Correct
15,8,244,A,30.02402560703838,47.818108405589506,1.501201280351919,0.7511250903778015,A,731.7519169882871,Correct
15,8,245,A,66.03201593846214,89.12430241199475,3.3016007969231067,1.399961268569189,A,1795.441916998243,Correct
15,8,246,A,25.637797346628986,39.876794987020844,1.2818898673314494,0.6263832308996549,A,910.038958012592,Correct
15,8,247,A,64.58691231854726,84.0555943688036,3.2293456159273632,1.320342188810785,A,1215.9616669814568,Correct
15,8,248,B,64.89516087517602,33.621044100278716,3.244758043758801,0.5281181257572704,B,725.4195409768727,Correct
15,8,249,A,48.81371628907091,72.80643657248329,2.4406858144535453,1.1436408313508237,A,801.9510000012815,Correct
15,8,250,B,69.52078992685904,40.20517401668647,3.4760394963429517,0.6315413966356073,B,3665.0410419970285,Correct
15,8,251,A,62.37137322278615,84.67995834939465,3.118568661139307,1.3301496752837396,A,1088.590708997799,Correct
15,8,252,B,70.8735400244278,41.02237495562643,3.5436770012213903,0.6443779589670094,B,789.7240000020247,Correct
15,8,253,B,40.0487886672792,31.005450671180284,2.00243943336396,0.48703248024910345,A,1310.839167010272,Incorrect
15,8,254,B,49.697953859684944,34.02232805076402,2.4848976929842475,0.534421479311511,B,862.9474579938687,Correct
15,8,255,B,49.28124538998776,41.3346685860717,2.464062269499388,0.6492834558428583,B,939.3043330055661,Correct
15,8,256,B,42.79545372451124,27.766978553437667,2.139772686225562,0.4361626791793256,B,6287.055332999444,Correct
15,8,257,B,42.27977486796124,16.19158551655707,2.1139887433980618,0.2543368305439329,B,1020.4807920090389,Correct
15,8,258,B,79.55880126337499,50.447738522944135,3.9779400631687496,0.7924312236695005,B,1168.9343750185799,Correct
15,8,259,B,70.12971540259466,56.8171201602141,3.506485770129733,0.8924812364672857,B,987.4455829849467,Correct
15,8,260,B,35.023171967072955,23.553912158229934,1.7511585983536477,0.3699839869979723,B,4958.427958015818,Correct
15,8,261,A,30.528668166873256,61.17555788484164,1.5264334083436628,0.9609434161513781,A,716.5399579971563,Correct
15,8,262,A,33.3450633709162,48.47915548835457,1.6672531685458098,0.7615087936722602,A,732.9943750228267,Correct
15,8,263,B,87.79022062616923,61.06228614076488,4.389511031308461,0.9591641477561239,B,1835.269834002247,Correct
15,8,264,B,44.649688000853864,30.82863924251587,2.232484400042693,0.4842551328222893,B,736.7676659778226,Correct
15,8,265,A,26.819766772798765,55.94673965059367,1.3409883386399384,0.8788093313930294,A,618.0007919901982,Correct
15,8,266,A,39.43812235899042,64.54535584276805,1.971906117949521,1.0138760786948957,A,937.6834169961512,Correct
15,8,267,B,41.39435068503413,31.956091954728848,2.0697175342517062,0.5019651186120803,A,2225.6196250091307,Incorrect
15,8,268,B,65.95651181687563,38.75043956325284,3.2978255908437815,0.608690481276452,B,683.3356249844655,Correct
15,8,269,A,66.03818135015703,79.96646708521263,3.301909067507852,1.2561103276421701,A,931.2145829899237,Correct
15,8,270,B,57.60504566844132,46.23916042010286,2.8802522834220663,0.7263230334197754,A,1683.8057080167346,Incorrect
15,8,271,B,75.58308364188782,43.26993906899901,3.7791541820943912,0.6796826135022264,B,533.1223330285866,Correct
15,8,272,A,29.35450897699851,54.86130668358193,1.4677254488499256,0.861759390217388,A,841.4426670060493,Correct
15,8,273,B,63.890538083656054,46.633480784727844,3.1945269041828026,0.732517003223109,B,920.8716670109425,Correct
15,8,274,A,10.171037141130242,32.49909973065532,0.5085518570565121,0.5104946648105438,A,761.2790830025915,Correct
15,8,275,B,64.5324105129684,52.02868217989639,3.22662052564842,0.8172646285616035,B,679.9915830197278,Correct
15,8,276,A,28.14848121253901,49.727630584640025,1.4074240606269506,0.7811197946256611,A,793.5378330003005,Correct
15,8,277,A,17.093051437375372,45.160070708457255,0.8546525718687686,0.7093727318664246,A,1140.4937079933006,Correct
15,8,278,A,61.969727501252265,80.29849761126276,3.098486375062613,1.2613258509492031,A,1559.820624999702,Correct
15,8,279,B,37.435064206500755,14.916580662730887,1.8717532103250378,0.23430910113357462,B,6424.761458998546,Correct
15,8,280,B,52.568400293260495,39.62776734081851,2.6284200146630248,0.6224715137804048,B,1153.2066660001874,Correct
15,8,281,A,17.87234842064397,41.375198131886116,0.8936174210321985,0.6499200924597778,A,4445.711916021537,Correct
15,8,282,A,14.19371785162657,31.14593615952137,0.7096858925813285,0.48923922113964513,A,813.9808750129305,Correct
15,8,283,B,77.52140851801128,52.49825115750088,3.8760704259005645,0.824640600813583,B,879.663833999075,Correct
15,8,284,A,49.74737465916819,74.53550255551744,2.4873687329584095,1.1708009363001841,A,1039.4265829818323,Correct
15,8,285,B,40.286385299897304,20.155889512991465,2.014319264994865,0.3166079721029077,A,938.4509999945294,Incorrect
15,8,286,A,21.669908756546032,38.992693390426574,1.0834954378273016,0.6124957954952172,A,664.1159999999218,Correct
15,8,287,A,31.79345276815488,42.938480551137744,1.589672638407744,0.6744760752788127,A,678.0944160127547,Correct
15,8,288,B,54.60394887592742,32.810637227552476,2.730197443796371,0.5153882843683932,B,1645.4391660226975,Correct
15,8,289,A,33.36140295057515,46.98601649272911,1.6680701475287574,0.7380546211750332,A,3122.5247500115074,Correct
15,8,290,B,53.75144312808621,46.16227397205054,2.6875721564043102,0.7251153039179665,A,1948.0407079972792,Incorrect
15,8,291,B,57.301459792557566,25.974156833296856,2.8650729896278784,0.40800110145337265,B,618.3277920063119,Correct
15,8,292,A,30.42330267792942,46.464816167472875,1.5211651338964711,0.7298676256106652,A,3412.4685830029193,Correct
15,8,293,B,36.62389657654121,21.174979805028215,1.8311948288270605,0.3326158049769444,A,885.845959011931,Incorrect
15,8,294,B,79.54691138947118,48.20916859739097,3.9773455694735587,0.7572678495061761,B,788.6462500027847,Correct
15,8,295,B,38.891994340898194,28.983156775363412,1.9445997170449096,0.45526636201661463,B,1535.9230000176467,Correct
15,8,296,A,47.58530512825814,76.40809851960196,2.379265256412907,1.2002156049197332,A,2232.1023749827873,Correct
15,8,297,B,62.047965989103005,54.35883065759263,3.10239829945515,0.8538665152581231,B,1170.1036670128815,Correct
15,8,298,B,82.4599594874118,58.937010611432214,4.122997974370589,0.9257803978070956,B,5206.542416999582,Correct
15,8,299,B,67.93991013274453,52.869878985651766,3.396995506637227,0.830478117087525,B,1287.7530000114348,Correct
