subject,day,trial,cat,x,y,xt,yt,resp,rt,fb
15,9,0,B,68.13252525123009,57.031782020020884,3.4066262625615047,0.8958531370761602,B,1065.0167500134557,Correct
15,9,1,B,52.20835284190184,35.71071271131248,2.610417642095092,0.5609425635415748,B,653.2231669989415,Correct
15,9,2,B,68.48288447160397,51.358234394975796,3.424144223580198,0.806733259382993,B,597.922415996436,Correct
15,9,3,A,35.17834061231407,43.316194980922205,1.7589170306157031,0.6804091996676415,A,825.8902910165489,Correct
15,9,4,A,63.547700167278926,77.70659697027388,3.177385008363946,1.2206123708863765,A,925.9424580086488,Correct
15,9,5,A,55.85738813308489,74.76949924415862,2.792869406654244,1.1744765476901815,A,634.2937920126133,Correct
15,9,6,A,38.61539313732727,51.09068381974046,1.9307696568663633,0.8025305847748776,B,1086.6861670219805,Incorrect
15,9,7,A,23.471095679549222,36.65767431146195,1.1735547839774612,0.5758174015728807,A,832.6704159844667,Correct
15,9,8,A,36.8854506106011,47.464817821462354,1.8442725305300547,0.7455756148594201,A,1008.2886660238728,Correct
15,9,9,A,38.79259329622085,46.83191898744117,1.9396296648110425,0.7356340632222875,A,1310.0735830084886,Correct
15,9,10,A,31.742421195935712,47.65475896131483,1.5871210597967857,0.7485592033072954,A,662.9531249927823,Correct
15,9,11,B,72.67629510679076,59.19365126602791,3.6338147553395377,0.9298116997825473,B,815.4500419914257,Correct
15,9,12,B,63.144013721406594,40.365086782697105,3.15720068607033,0.6340533004901784,B,865.6347499927506,Correct
15,9,13,A,43.50364626443283,59.32797254090427,2.1751823132216415,0.9319216134344092,A,1809.2510839924216,Correct
15,9,14,A,27.704114134335008,44.00572497858277,1.3852057067167505,0.6912403115430424,A,1658.685374975903,Correct
15,9,15,B,52.70913173600946,43.99589298557023,2.635456586800473,0.6910858709579506,B,1619.3030000140425,Correct
15,9,16,A,25.82291718493854,51.07456233617017,1.2911458592469272,0.8022773491031308,A,798.0954580125399,Correct
15,9,17,A,44.57286425334701,59.8289734459052,2.2286432126673503,0.9397913172473727,A,847.8906659875065,Correct
15,9,18,B,84.23017967966429,63.481152022514976,4.211508983983214,0.9971596041767494,B,695.2671660110354,Correct
15,9,19,B,63.20644053227774,48.99749424650093,3.160322026613887,0.7696508398455775,B,910.5750829912722,Correct
15,9,20,A,10.543622369832914,31.080159408402885,0.5271811184916457,0.488206002349191,A,1056.1861250025686,Correct
15,9,21,B,45.48857676259141,35.73593132360178,2.2744288381295705,0.5613386965770838,B,527.208958985284,Correct
15,9,22,B,74.59993580027023,42.01871362824897,3.729996790013512,0.6600284102390014,B,1027.9251250030939,Correct
15,9,23,B,57.827601289651604,27.36732205353649,2.89138006448258,0.42988488955908083,B,645.0255409872625,Correct
15,9,24,A,15.654437940500621,41.685359576917065,0.7827218970250311,0.6547920970454579,A,1377.6122920098715,Correct
15,9,25,B,36.66846474771539,17.17643627585703,1.8334232373857697,0.26980683009542833,B,724.8746250115801,Correct
15,9,26,A,23.660842039928212,43.69754579713076,1.1830421019964106,0.6863994442808476,A,1113.1625000271015,Correct
15,9,27,B,85.64728762266712,58.31372987519387,4.282364381133356,0.9159899268966435,B,604.2676250217482,Correct
15,9,28,B,44.32314085230536,31.56620010290429,2.2161570426152677,0.4958407117251475,B,776.5044999832753,Correct
15,9,29,A,57.4145227602953,81.26072938379515,2.8707261380147653,1.2764405522873956,A,522.430249984609,Correct
15,9,30,A,40.697329836807064,60.04458518703043,2.034866491840353,0.9431781385571065,A,503.02316597662866,Correct
15,9,31,B,63.65475022038311,50.5599440504962,3.1827375110191554,0.7941937439747491,B,1209.3591669981834,Correct
15,9,32,A,50.60848326992312,59.70204329784011,2.5304241634961557,0.9377975031439713,A,1198.5695000039414,Correct
15,9,33,B,42.027463702090806,23.908950368179376,2.1013731851045403,0.3755609141585765,B,626.5517499996349,Correct
15,9,34,B,57.95007301142292,38.02363361670965,2.8975036505711462,0.5972738401652248,B,656.2660410127137,Correct
15,9,35,B,37.397713739308344,20.331012385673557,1.8698856869654172,0.3193587957543757,B,499.6437919908203,Correct
15,9,36,B,59.55657045134777,31.249046259577266,2.977828522567388,0.4908588708038777,B,594.7122919897083,Correct
15,9,37,A,23.060093981268132,51.02321632477391,1.1530046990634064,0.8014708078421626,A,774.3435000011232,Correct
15,9,38,B,53.98856140361548,44.16232337284223,2.699428070180774,0.6937001533678898,B,848.8892079913057,Correct
15,9,39,B,43.03015939979309,16.14985294369533,2.1515079699896544,0.25368129682234375,B,942.3609579971526,Correct
15,9,40,A,45.876627261209606,73.07864363910704,2.2938313630604803,1.1479166499546256,A,788.36395801045,Correct
15,9,41,B,64.12008383911619,33.76290947131683,3.2060041919558095,0.530346541794531,B,996.9823329884093,Correct
15,9,42,B,43.6539996283327,22.17131093932202,2.182699981416635,0.34826613783714533,B,432.88954099989496,Correct
15,9,43,A,36.45437886452695,59.931885343246925,1.8227189432263475,0.9414078535506516,A,713.5505409969483,Correct
15,9,44,A,28.99467882418379,43.13668148958996,1.4497339412091896,0.6775894083396932,A,732.782707986189,Correct
15,9,45,A,23.449898055209978,46.62557263797463,1.172494902760499,0.732392782344392,A,770.1607909984887,Correct
15,9,46,B,73.71359679707099,56.46415860621458,3.6856798398535493,0.8869369293420631,B,653.6977080104407,Correct
15,9,47,B,56.11162144757007,24.231845468380918,2.8055810723785037,0.38063293853194313,B,1107.9782499873545,Correct
15,9,48,A,41.40593157091075,68.564215469079,2.0702965785455376,1.0770041780840314,A,1055.4303340031765,Correct
15,9,49,B,77.45649224551022,59.25588586304609,3.872824612275511,0.9307892785465043,B,562.7032089978456,Correct
15,9,50,B,74.85312677960754,53.30252931434041,3.7426563389803764,0.8372741725584321,B,682.7615420043003,Correct
15,9,51,A,52.432455387981406,66.69282323856858,2.62162276939907,1.0476084176672484,A,634.5782080024946,Correct
15,9,52,A,61.114281214090525,79.6224252944796,3.055714060704526,1.250706131830696,A,583.35524998256,Correct
15,9,53,A,47.231435761359464,56.136452487853006,2.361571788067973,0.8817893336721573,A,1849.8837089864537,Correct
15,9,54,A,28.372388039451156,52.09442217585978,1.418619401972558,0.8182972700034316,A,997.2168749955017,Correct
15,9,55,B,48.23038683916404,28.17520348817753,2.4115193419582024,0.4425750614592802,B,943.3372500061523,Correct
15,9,56,B,83.7404388241974,55.011729485434316,4.18702194120987,0.8641222260635472,B,712.3904159816448,Correct
15,9,57,A,17.245083126433876,36.56501980964697,0.8622541563216939,0.5743619880617609,A,779.2577920190524,Correct
15,9,58,B,59.28342716371206,46.51990009394379,2.9641713581856033,0.7307328819043247,B,617.041582998354,Correct
15,9,59,B,64.23202887598944,34.41227078794178,3.211601443799472,0.5405466855037027,B,592.8609170077834,Correct
15,9,60,A,28.06102191775401,60.181763830714054,1.4030510958877005,0.945332935653236,A,601.201207988197,Correct
15,9,61,B,53.017459466354566,38.064421329575865,2.6508729733177283,0.5979145320607108,B,591.3202920055483,Correct
15,9,62,B,80.46162424944471,61.07274080889181,4.023081212472236,0.9593283692990403,B,2023.4540839737747,Correct
15,9,63,B,68.48005580433669,56.659374903582645,3.4240027902168344,0.8900033797704257,A,650.0435829802882,Incorrect
15,9,64,A,19.213624544008955,37.0842389192799,0.9606812272004477,0.5825178627638922,B,1156.4802499779034,Incorrect
15,9,65,A,31.622506421152735,59.570591197494366,1.5811253210576368,0.9357326583802454,A,2294.4934160041157,Correct
15,9,66,A,45.35593702822939,60.291254254061705,2.2677968514114695,0.9470528072013731,A,1265.4866669909097,Correct
15,9,67,A,32.46785897588462,47.035013204518634,1.6233929487942307,0.7388242597240733,A,655.601000005845,Correct
15,9,68,B,85.78916296935033,58.0095233203123,4.289458148467516,0.9112114615066946,B,571.3992920063902,Correct
15,9,69,B,37.22528074327802,17.77549985866248,1.8612640371639009,0.27921689884930223,B,637.0079169864766,Correct
15,9,70,A,60.826526735931004,70.98760859440652,3.0413263367965504,1.115070748280476,A,3076.9329169997945,Correct
15,9,71,B,43.4487448230083,15.733737933414588,2.1724372411504147,0.24714497752561163,B,945.5706660228316,Correct
15,9,72,A,39.38936851307911,53.79808449852237,1.9694684256539556,0.8450583351888039,A,1063.1634169840254,Correct
15,9,73,B,56.83325341055166,31.980785829175694,2.841662670527583,0.5023530090848346,B,607.9505829839036,Correct
15,9,74,B,57.50445890285749,32.13882532813357,2.8752229451428746,0.5048354877293499,B,1293.8879579887725,Correct
15,9,75,B,53.81061488619754,31.622584404700596,2.6905307443098767,0.49672639426665277,B,1005.7972920185421,Correct
15,9,76,A,35.624772361007,55.81233664036415,1.7812386180503497,0.8766981338452423,A,1290.6389580166433,Correct
15,9,77,A,26.4353306717255,57.142032709973094,1.321766533586275,0.8975849508641958,A,727.7406660141423,Correct
15,9,78,A,56.12041614994333,76.3356979508156,2.8060208074971666,1.1990783394446587,A,800.7796250167303,Correct
15,9,79,A,29.033462983759325,38.19722449401009,1.4516731491879662,0.600000599289511,A,1212.4331659870222,Correct
15,9,80,B,49.299227019996685,30.564650349086186,2.4649613509998343,0.4801084049811493,B,1651.3680419884622,Correct
15,9,81,A,38.77465660303119,71.45947384783764,1.9387328301515594,1.1224827903487933,A,831.8513339909259,Correct
15,9,82,B,72.03931701966467,39.096693609434325,3.6019658509832335,0.6141294271152494,B,767.4250840209424,Correct
15,9,83,A,63.404341513152005,76.60032338077362,3.1702170756576002,1.2032350659782043,A,838.1405829859432,Correct
15,9,84,B,65.56811974615007,44.24832523383911,3.2784059873075035,0.6950510674414041,B,896.6990420012735,Correct
15,9,85,A,47.89516239060314,57.3996703356518,2.394758119530157,0.9016319132247983,B,2453.2758750137873,Incorrect
15,9,86,B,48.0185424567374,32.28648365278159,2.4009271228368703,0.5071548992691279,B,762.9815409891307,Correct
15,9,87,B,66.9796411161183,45.93085293785751,3.348982055805915,0.7214801508134314,B,636.274417018285,Correct
15,9,88,A,24.269569999013186,51.21013830680489,1.2134784999506594,0.8044069714698776,A,554.4288749806583,Correct
15,9,89,A,51.030761581344336,69.07841977898467,2.5515380790672166,1.0850812804962504,A,1082.2659170080442,Correct
15,9,90,B,38.184052758297995,16.14759513066457,1.9092026379148996,0.2536458311781906,B,853.1037089996971,Correct
15,9,91,B,60.47595779402256,28.700542086353025,3.0237978897011284,0.45082706086265667,B,750.4987909924239,Correct
15,9,92,A,45.715092554167185,58.46936821479355,2.2857546277083594,0.9184346882181599,B,1320.1807500154246,Incorrect
15,9,93,B,64.86148704262558,43.97514657870532,3.2430743521312793,0.6907599871609749,B,640.935208008159,Correct
15,9,94,A,58.40104841824512,69.66340146075741,2.920052420912256,1.0942701512659598,B,2054.168167000171,Incorrect
15,9,95,A,28.049072160237802,60.029463799097634,1.4024536080118901,0.9429406123508978,A,881.2045410159044,Correct
15,9,96,B,49.278350445668025,31.92293437649377,2.4639175222834013,0.5014442805911095,B,690.1599169941619,Correct
15,9,97,A,24.938984724626593,51.126090158359794,1.2469492362313297,0.8030867462413628,A,831.1592920217663,Correct
15,9,98,B,86.67117925002366,66.84580168106264,4.333558962501183,1.050011397422733,B,1335.1341669913381,Correct
15,9,99,A,42.68212292878458,51.56824053477358,2.134106146439229,0.8100320281129803,A,943.6920000007376,Correct
15,9,100,A,32.96601439389275,52.01737826570927,1.6483007196946375,0.8170870670927681,A,741.220208001323,Correct
15,9,101,B,64.64095143535398,40.960604944676234,3.2320475717676995,0.6434076779039432,B,972.2841659968253,Correct
15,9,102,B,51.236719199368316,39.72672201499128,2.5618359599684157,0.6240258901675025,B,895.9521659999155,Correct
15,9,103,B,36.76775304856936,17.497836008602157,1.8383876524284681,0.27485536529171745,B,854.47849999764,Correct
15,9,104,B,36.80648595340468,22.187534174197197,1.840324297670234,0.34852097181465197,B,766.567832994042,Correct
15,9,105,B,71.65079254852954,51.78605419739198,3.5825396274264767,0.8134534371246476,B,1504.185541998595,Correct
15,9,106,A,58.81129871781074,83.34118016547104,2.9405649358905372,1.309120196746736,A,1007.1550419961568,Correct
15,9,107,B,71.7358586305589,61.16702758164081,3.5867929315279445,0.9608094224620352,A,1922.3908339918125,Incorrect
15,9,108,A,38.85837185886967,61.36434109851693,1.9429185929434833,0.9639088159373951,A,1022.0403329876717,Correct
15,9,109,B,85.9905089931616,69.69205132920509,4.29952544965808,1.0947201823471675,B,798.7849999917671,Correct
15,9,110,A,23.146654111300478,44.96751518577672,1.157332705565024,0.706348076789118,A,1461.102250003023,Correct
15,9,111,B,56.07797957673761,26.026629498314215,2.80389897883688,0.4088253401480368,B,918.6309170036111,Correct
15,9,112,B,45.96366959086426,25.94515108034428,2.2981834795432126,0.4075454801514344,B,5538.577041006647,Correct
15,9,113,A,50.21862715812898,70.00083269742426,2.510931357906449,1.0995705087369811,A,698.0667499883566,Correct
15,9,114,B,64.23920640671372,53.84854681900863,3.211960320335686,0.8458509954654178,B,595.7839170005172,Correct
15,9,115,B,36.78276941916294,15.58863765521141,1.839138470958147,0.24486574768542696,B,737.1343330014497,Correct
15,9,116,A,29.39397132295022,50.783208676998356,1.469698566147511,0.7977007765268774,A,713.5385000146925,Correct
15,9,117,A,59.40723990204915,69.40791328362918,2.9703619951024574,1.0902569523642343,A,638.1359160004649,Correct
15,9,118,B,49.753042598082715,38.105153545834455,2.4876521299041356,0.5985543522175228,B,689.7143750102259,Correct
15,9,119,B,57.471593912070915,40.373144191154395,2.873579695603546,0.6341798659662604,A,2010.3259169845842,Incorrect
15,9,120,B,63.152718260349594,43.98544007577049,3.15763591301748,0.6909216770347733,A,1312.303749989951,Incorrect
15,9,121,B,79.08800029793926,54.23986256790836,3.9544000148969634,0.8519977688753047,B,1185.3693329903763,Correct
15,9,122,A,25.114711832939186,55.363297870946745,1.2557355916469592,0.8696446493493487,A,631.2988329736982,Correct
15,9,123,A,15.451094565555856,44.6967592302115,0.7725547282777927,0.7020950521845211,A,772.3341669770889,Correct
15,9,124,A,53.011998142301096,70.66227184576321,2.6505999071150548,1.109960370583073,A,1196.6140830190852,Correct
15,9,125,B,64.06769001412718,44.74057554235168,3.203384500706359,0.702783317206156,B,759.8643329984043,Correct
15,9,126,B,71.0425936320117,51.262667591701714,3.5521296816005847,0.8052320995475284,B,760.2290000068024,Correct
15,9,127,A,31.523802055634008,47.46568844486261,1.5761901027817005,0.7455892905798115,A,716.4663330186158,Correct
15,9,128,A,64.97885180447835,89.45553374455491,3.2489425902239177,1.4051642381742377,A,901.0003749863245,Correct
15,9,129,A,20.36868677173833,45.68604690152415,1.0184343385869163,0.717634746586935,A,847.6865830016322,Correct
15,9,130,A,40.30424300531053,58.394029514268176,2.0152121502655267,0.9172512706776522,A,845.9817499970086,Correct
15,9,131,A,59.79724593696285,68.46797130167977,2.9898622968481425,1.0754923782377699,A,1414.5964999916032,Correct
15,9,132,A,59.7813877854621,72.60070736817373,2.9890693892731055,1.1404092445663847,A,1349.6834590041544,Correct
15,9,133,B,68.45134936060454,47.52330806902231,3.422567468030227,0.7464943775196253,B,1010.456666990649,Correct
15,9,134,B,52.18267327554227,28.277081285501634,2.609133663777113,0.44417535415746673,B,886.3026250037365,Correct
15,9,135,B,55.72159786751964,26.339215384823703,2.786079893375982,0.41373542777140704,B,780.3044590109494,Correct
15,9,136,A,60.07260071290892,74.33305408300475,3.003630035645446,1.1676208831303025,A,1074.7458330006339,Correct
15,9,137,B,62.656198132793335,38.767333325986655,3.132809906639667,0.6089558478809323,B,980.9221670147963,Correct
15,9,138,B,77.8034304061838,55.68802315990989,3.8901715203091896,0.874745422260556,B,1274.1691670089494,Correct
15,9,139,A,35.32382359065593,60.886876616055154,1.7661911795327965,0.9564088213851352,A,2818.4786250058096,Correct
15,9,140,B,31.018699977459836,15.03532720958276,1.5509349988729917,0.23617436752971963,B,572.9966670041904,Correct
15,9,141,A,68.44725408884189,82.43563911094782,3.422362704442094,1.2948959911246654,A,814.4675420189742,Correct
15,9,142,B,57.23165404997933,41.48655444497254,2.8615827024989664,0.6516692733353936,B,1138.6192079808097,Correct
15,9,143,A,45.87166656151018,64.84917923693794,2.293583328075509,1.01864852541046,A,667.2837920195889,Correct
15,9,144,B,69.14093199901654,57.87282094351436,3.457046599950827,0.9090641455933112,B,1349.6423339820467,Correct
15,9,145,B,56.53751970754013,37.356072222376525,2.8268759853770065,0.5867878103039391,B,716.5602080058306,Correct
15,9,146,A,46.70543922412348,60.320863893128625,2.3352719612061743,0.9475179143242135,A,1712.4902500072494,Correct
15,9,147,A,57.02626022770691,69.12825059146624,2.8513130113853458,1.085864021068323,B,874.8549160081893,Incorrect
15,9,148,B,63.95401124325227,49.14479051134293,3.197700562162613,0.7719645641632217,B,573.6192500044126,Correct
15,9,149,B,44.55378755702121,26.788246651247224,2.2276893778510605,0.4207887944105483,B,668.5874589893501,Correct
15,9,150,B,72.90457244713582,54.59049629873388,3.645228622356791,0.8575055106396158,B,703.4522499889135,Correct
15,9,151,B,73.85697363380045,41.45961384975896,3.692848681690023,0.6512460914553618,B,1243.7376250163652,Correct
15,9,152,B,84.42373529116469,60.74288090181324,4.221186764558235,0.9541469419950812,A,1547.634457994718,Incorrect
15,9,153,A,48.50631353976117,65.03134435228259,2.425315676988059,1.0215099683509952,A,1160.3778330027126,Correct
15,9,154,A,53.84554608641297,80.24890032216247,2.6922773043206485,1.260546778553826,A,918.4099579870235,Correct
15,9,155,B,80.11575472071374,55.56210175111682,4.005787736035687,0.8727674533965859,B,1755.5946669890545,Correct
15,9,156,A,37.76137103303187,63.285065695824706,1.8880685516515936,0.9940794873597517,A,677.462417021161,Correct
15,9,157,B,57.42423768084236,47.020043582523314,2.871211884042118,0.7385891174516357,B,995.9828330029268,Correct
15,9,158,A,61.708614411466804,85.10713211332288,3.0854307205733402,1.3368597050765556,A,708.7175420019776,Correct
15,9,159,A,30.444232937416356,63.78951576091326,1.5222116468708178,1.0020033704526772,A,686.3637499918696,Correct
15,9,160,B,52.26870798502484,40.05814367965462,2.6134353992512422,0.6292318495022368,B,2569.3504579830915,Correct
15,9,161,A,36.28239775959716,49.9001016536453,1.814119887979858,0.7838289638423798,A,876.5912920061965,Correct
15,9,162,B,50.40506243192992,35.91023810776149,2.5202531215964963,0.5640767011400186,A,3179.6587920107413,Incorrect
15,9,163,B,86.76240798484606,63.631869658406565,4.338120399242303,0.9995270712651666,B,640.1327500061598,Correct
15,9,164,B,81.49398029617836,58.67294566820826,4.074699014808918,0.9216324753785806,B,758.6862920143176,Correct
15,9,165,B,66.86857025148004,50.22008999395602,3.3434285125740018,0.7888553289381526,B,972.8242910059635,Correct
15,9,166,B,61.83061582188457,52.79755861493853,3.0915307910942285,0.8293421113608368,B,751.4276249858085,Correct
15,9,167,B,59.19463339539843,52.13566353476927,2.9597316697699214,0.8189450877543021,A,1367.8069590241648,Incorrect
15,9,168,A,34.6486532299108,64.57019085145328,1.7324326614955399,1.0142661860990825,A,961.9779159838799,Correct
15,9,169,A,13.826348062317603,41.00692367338228,0.6913174031158802,0.6441352507930758,A,771.6123749851249,Correct
15,9,170,A,63.14753991352703,86.8377335616235,3.157376995676351,1.364043929057921,A,986.9670410116669,Correct
15,9,171,B,71.77965613803923,49.98090296550519,3.5889828069019614,0.7850981878810769,B,1095.0335840170737,Correct
15,9,172,A,52.946254597476276,75.75067387168673,2.6473127298738137,1.1898888026988366,B,2506.344541994622,Incorrect
15,9,173,B,35.38498617603016,21.903726954732843,1.7692493088015082,0.3440629384361272,A,778.3250829961617,Incorrect
15,9,174,A,67.19688535315598,89.20287267827032,3.3598442676577984,1.4011954474257986,A,820.4058340052143,Correct
15,9,175,B,57.302211310496176,42.79389112453184,2.8651105655248092,0.6722048698767534,B,1002.1119169832673,Correct
15,9,176,A,19.450932815629177,45.07269454030041,0.9725466407814588,0.7080002302265228,A,601.0408749862108,Correct
15,9,177,B,40.23926444550027,21.36852398170045,2.0119632222750137,0.3356559897948372,B,953.7245829997119,Correct
15,9,178,B,57.13770116195441,29.663436908651892,2.8568850580977205,0.46595217736222555,B,3515.1830000104383,Correct
15,9,179,B,37.50073136259135,20.074293952551862,1.8750365681295675,0.3153262720366947,B,759.5038750150707,Correct
15,9,180,B,67.87776912062436,58.871669582666755,3.393888456031218,0.9247540233273579,A,870.5646250164136,Incorrect
15,9,181,B,80.83983058908728,61.649325850132215,4.041991529454364,0.9683853459476935,B,886.5655409754254,Correct
15,9,182,A,21.615599124085293,48.87612057544365,1.0807799562042646,0.7677443066789135,A,850.7627499930095,Correct
15,9,183,A,26.963517461035146,47.83605727430939,1.3481758730517572,0.7514070305483548,A,937.1718329784926,Correct
15,9,184,A,44.69115596424834,57.442977935942885,2.2345577982124167,0.9023121874193936,A,1255.6052499858197,Correct
15,9,185,B,61.4569634286671,41.79354075694587,3.072848171433355,0.6564914030476336,B,1187.2860840230715,Correct
15,9,186,B,72.35349455405931,50.49184960640611,3.6176747277029655,0.7931241189482305,B,900.388167006895,Correct
15,9,187,A,50.381305545423594,69.26261071082216,2.5190652772711797,1.0879745448878433,A,789.4151670043357,Correct
15,9,188,B,65.2558557399541,33.48133246604304,3.262792786997705,0.5259235405385912,B,1007.90137500735,Correct
15,9,189,A,67.05674114127098,78.8910243036937,3.352837057063549,1.2392173119332894,A,782.8528329846449,Correct
15,9,190,A,51.27103292682551,63.93006689832054,2.5635516463412755,1.0042111425563391,A,1146.3302909978665,Correct
15,9,191,B,80.09143512640111,49.94701705813103,4.004571756320056,0.7845659092927426,B,709.9810409999918,Correct
15,9,192,A,62.24351383979767,82.69332497420297,3.1121756919898838,1.2989437111993472,A,2418.08454200509,Correct
15,9,193,B,82.30691551601598,68.69229754676111,4.115345775800799,1.0790160866555445,A,2399.336625006981,Incorrect
15,9,194,A,64.79527287682795,89.66974678098043,3.2397636438413975,1.4085290886819257,A,2493.144874984864,Correct
15,9,195,A,26.781631043273983,52.2806469018973,1.3390815521636992,0.8212224811596127,A,1050.0795840052888,Correct
15,9,196,A,52.964251738759344,76.00149840526655,2.648212586937967,1.1938287452590086,A,734.3885410227813,Correct
15,9,197,A,37.690178708727835,54.06152664985389,1.8845089354363918,0.849196474825149,A,887.7696669951547,Correct
15,9,198,B,68.6535833611329,47.49744717041281,3.4326791680566453,0.7460881554741909,A,527.4779589963146,Incorrect
15,9,199,A,39.38868062722894,53.23750378243725,1.9694340313614473,0.8362527538918185,A,1336.981791013386,Correct
15,9,200,A,32.45842366268849,50.91831488278787,1.6229211831344243,0.799823019844691,A,1257.1849579981063,Correct
15,9,201,A,46.537942995279074,75.67725655442986,2.326897149763954,1.1887355661761345,A,2044.128500012448,Correct
15,9,202,B,60.0919560533958,38.199014455110486,3.00459780266979,0.6000287159327271,B,756.7373749916442,Correct
15,9,203,B,61.73604239719139,53.02443975640318,3.0868021198595694,0.8329059519971539,A,941.3699170108885,Incorrect
15,9,204,A,50.54109530100166,66.46501115663743,2.527054765050083,1.0440299538522788,A,850.1643329800572,Correct
15,9,205,B,50.45895414897426,28.775664848626,2.522947707448713,0.45200708645302745,B,1043.8336670049466,Correct
15,9,206,B,46.76566314961799,25.120328954482787,2.3382831574808995,0.3945892044958105,B,1034.908000001451,Correct
15,9,207,A,61.01497781880629,69.87570944292986,3.0507488909403144,1.097605077251417,A,1147.3825830034912,Correct
15,9,208,B,36.09871552395752,20.547417200606887,1.8049357761978764,0.3227580746383557,A,858.4574589913245,Incorrect
15,9,209,B,84.70460472976708,66.45186771063898,4.235230236488354,1.043823497085321,B,1093.643375003012,Correct
15,9,210,A,40.263050725109835,55.00430082230883,2.013152536255492,0.8640055368960421,A,1774.124749994371,Correct
15,9,211,B,64.92991611692065,43.11595577865645,3.2464958058460325,0.6772638496336474,A,2677.587666985346,Incorrect
15,9,212,A,43.571849498926056,60.445218894690804,2.178592474946303,0.949471278120938,A,807.8216249996331,Correct
15,9,213,A,34.85239730292196,67.4146615135429,1.7426198651460978,1.0589470267759447,A,850.9780000022147,Correct
15,9,214,B,38.19329102695477,24.5207262098642,1.9096645513477384,0.3851706666079803,B,1153.7480409897398,Correct
15,9,215,B,77.87797098815105,56.302323472368954,3.8938985494075524,0.8843948290041522,B,1646.150165994186,Correct
15,9,216,A,26.772636383827678,55.5066406131527,1.3386318191913837,0.8718962718786468,A,1789.0377080184408,Correct
15,9,217,A,49.273411404580834,56.683511805553266,2.463670570229042,0.8903825213399824,A,3585.9494999749586,Correct
15,9,218,B,73.9832603293836,45.974546701368176,3.6991630164691798,0.7221664908456955,B,961.1532920098398,Correct
15,9,219,B,61.59431101892284,48.46343862771435,3.079715550946142,0.7612619138026361,B,1725.0977079966106,Correct
15,9,220,A,39.07857093830667,59.5454601657079,1.9539285469153334,0.935337901056058,A,1184.5672919880599,Correct
15,9,221,B,58.20616408090542,44.03389498757179,2.910308204045271,0.6916828050094999,B,1209.4378330220934,Correct
15,9,222,A,39.969202005426055,56.10088418184588,1.9984601002713027,0.8812306280278942,A,922.4256660090759,Correct
15,9,223,B,63.89792871920904,41.89933198307948,3.194896435960452,0.6581531677418118,B,1109.6094999811612,Correct
15,9,224,A,50.17437706996634,69.53630505688396,2.508718853498317,1.0922737256224273,A,816.4946660108399,Correct
15,9,225,B,39.9953594340486,24.795392335853844,1.99976797170243,0.3894851120259756,B,2304.824374994496,Correct
15,9,226,A,35.16386179858761,57.151779002648176,1.7581930899293807,0.8977380452715346,A,1577.133667015005,Correct
15,9,227,B,78.8024057050504,64.36752974411168,3.9401202852525206,1.0110827928691188,B,891.3709160115104,Correct
15,9,228,A,34.35228095808778,46.10714069866927,1.717614047904389,0.7242492724848517,A,888.3618749969173,Correct
15,9,229,B,74.5438192608186,46.99514166561172,3.72719096304093,0.7381979590554868,B,1075.4509170074016,Correct
15,9,230,A,65.4482356212823,83.08258454567716,3.2724117810641142,1.3050581862497614,A,918.6915830068756,Correct
15,9,231,B,58.59332461103565,51.03831918147771,2.929666230551782,0.801708042960507,B,1084.021084010601,Correct
15,9,232,B,38.14511752422533,24.46922844826601,1.9072558762112664,0.38436174166041437,B,2628.461874992354,Correct
15,9,233,A,36.809559965854575,62.61281814951524,1.8404779982927288,0.9835198475953537,A,1082.6440420059953,Correct
15,9,234,B,61.97271810049111,49.77814841887394,3.098635905024555,0.7819133269101839,B,1037.7329580078367,Correct
15,9,235,B,53.42764019679965,38.40540995804435,2.6713820098399825,0.6032707689114821,B,1356.826709001325,Correct
15,9,236,B,57.965781426276976,45.09174391741,2.8982890713138487,0.7082994571424375,B,1931.6683750075754,Correct
15,9,237,B,56.193695008975645,37.533298738436194,2.8096847504487825,0.589571677908311,B,979.8724580032285,Correct
15,9,238,B,53.40065278734476,29.439212469915226,2.670032639367238,0.4624300681147735,B,853.7786249944475,Correct
15,9,239,A,20.915125458138753,36.26977513426162,1.0457562729069378,0.5697242955457503,A,924.3234999885317,Correct
15,9,240,B,74.97960565843101,49.28001344362065,3.7489802829215506,0.7740886410164245,B,853.4515000064857,Correct
15,9,241,A,21.606518988583854,39.72056579272613,1.0803259494291928,0.6239291884542921,A,925.9098329930566,Correct
15,9,242,A,36.3976911429666,67.5632522000273,1.8198845571483302,1.061281083821201,A,950.6884170114063,Correct
15,9,243,B,61.052059713562564,53.939620302002474,3.0526029856781283,0.8472815743909692,A,3697.686250001425,Incorrect
15,9,244,A,41.842345347458036,68.76919094837388,2.0921172673729016,1.0802239253836252,A,1135.699584003305,Correct
15,9,245,B,51.36030523210072,41.62698020439246,2.5680152616050362,0.6538750760062355,A,3900.417583005037,Incorrect
15,9,246,B,54.962500521882006,47.74293349021671,2.7481250260941006,0.7499442455684546,B,3009.1242089984007,Correct
15,9,247,B,86.32589056188765,61.42744415997458,4.3162945280943825,0.9649000365088668,B,926.4282500080299,Correct
15,9,248,A,40.69802664314859,58.374723294696246,2.034901332157429,0.9169480092897734,A,1314.383374992758,Correct
15,9,249,B,56.34385441838692,42.20717584857303,2.817192720919346,0.6629887678732479,B,844.9797090142965,Correct
15,9,250,A,50.44404169948534,57.87224921656249,2.5222020849742672,0.9090551649273517,A,2214.862084016204,Correct
15,9,251,B,47.78166899601566,27.653243892483804,2.389083449800783,0.43437613930276975,B,764.8862499918323,Correct
15,9,252,A,12.535716549729884,39.35178571050915,0.6267858274864941,0.6181364044688767,A,593.0789999838453,Correct
15,9,253,A,18.371159169482013,35.59868866029228,0.9185579584741006,0.5591828938630226,A,2324.6075420174748,Correct
15,9,254,B,78.81268929669477,53.94070885239701,3.9406344648347384,0.847298673300582,B,975.3135830105748,Correct
15,9,255,A,30.760946676778577,43.787347603290755,1.5380473338389289,0.6878100477534044,A,839.6988330059685,Correct
15,9,256,A,57.43756144884189,69.4219977956996,2.8718780724420947,1.0904781913624833,A,1303.8601669832133,Correct
15,9,257,A,21.423552744636307,48.96273283986557,1.0711776372318154,0.7691048089470071,A,649.4891670008656,Correct
15,9,258,A,28.18949859823806,59.3791119308108,1.409474929911903,0.9327249090926063,A,962.6822090067435,Correct
15,9,259,A,25.77627851930474,50.94289997780906,1.2888139259652371,0.8002092016142229,A,697.4396250152495,Correct
15,9,260,B,72.88723243841599,57.92104098412288,3.6443616219207997,0.9098215842199688,B,1123.3510829915758,Correct
15,9,261,A,13.474139033438718,34.12698701694502,0.6737069516719358,0.5360654585079436,A,1068.2517499953974,Correct
15,9,262,A,43.34273302007614,68.23237145635049,2.167136651003807,1.071791584521403,A,1201.984999992419,Correct
15,9,263,A,48.43109320823293,73.3224198896988,2.4215546604116467,1.1517458783445194,A,836.6754589951597,Correct
15,9,264,A,49.55991912167921,60.802693994489864,2.4779959560839604,0.9550864838577879,A,987.2578330105171,Correct
15,9,265,A,15.07087006843939,42.67084063972099,0.7535435034219695,0.6702719973812413,A,1075.5995840008836,Correct
15,9,266,A,15.310863919424719,37.554610023558055,0.765543195971236,0.5899064347921981,A,813.0979590059724,Correct
15,9,267,B,37.247880130645875,27.394898256973338,1.862394006532294,0.4303180555497364,B,637.5322079984471,Correct
15,9,268,B,51.260014485503135,25.517784811556353,2.5630007242751565,0.4008324264993533,B,744.5607089903206,Correct
15,9,269,B,48.2514855365619,37.60521315870878,2.4125742768280953,0.5907013069803887,B,679.730958014261,Correct
15,9,270,A,59.55242541416684,72.47752866693496,2.977621270708342,1.1384743580519323,A,1392.332624993287,Correct
15,9,271,A,24.682831232334568,39.19420440526336,1.2341415616167284,0.6156611231143604,A,3221.878457989078,Correct
15,9,272,B,50.48790297126697,22.43674123835751,2.5243951485633485,0.3524355072245956,B,2207.356333005009,Correct
15,9,273,A,37.88129534437279,59.47927132317946,1.8940647672186395,0.9342982091488733,A,911.3021249941085,Correct
15,9,274,B,54.0657700567319,42.199401422551894,2.703288502836595,0.6628666474748784,A,2569.3163749820087,Incorrect
15,9,275,B,57.63976204010726,37.276842950293926,2.881988102005363,0.5855432798083193,B,1032.1058330009691,Correct
15,9,276,B,53.24813559718442,31.856302001238795,2.662406779859221,0.5003976216881482,B,1624.6217919979244,Correct
15,9,277,A,42.02042193870286,57.345662811544294,2.1010210969351433,0.9007835650199248,A,1139.748374989722,Correct
15,9,278,B,79.7243195323345,64.77935436755695,3.9862159766167253,1.017551718927034,B,686.7978750087786,Correct
15,9,279,B,85.12873490158026,65.52252056508266,4.2564367450790135,1.0292253462597492,B,1410.0229169998784,Correct
15,9,280,A,66.94531460569911,85.7123817089765,3.3472657302849553,1.3463669434930234,A,1214.477125002304,Correct
15,9,281,A,33.724985187003284,61.64465454175704,1.6862492593501641,0.9683119692073229,A,705.0849589868449,Correct
15,9,282,A,19.85017294190066,39.75996797979346,0.9925086470950331,0.6245481165614226,A,1931.0507920163218,Correct
15,9,283,A,35.24939625688442,64.52231139220667,1.7624698128442207,1.0135140973119476,A,944.0276249952149,Correct
15,9,284,A,19.566620837511156,41.016090547191354,0.9783310418755577,0.6442792437101507,A,536.5133330051322,Correct
15,9,285,A,41.21484068424449,64.18280234110694,2.060742034212225,1.0081811016081366,A,1463.983499997994,Correct
15,9,286,A,37.33223276854251,47.669911788141704,1.8666116384271254,0.7487972233544972,A,2020.8033329981845,Correct
15,9,287,B,89.16539829679145,65.10887624190752,4.458269914839573,1.0227278364253185,B,2702.5767079903744,Correct
15,9,288,B,48.50279013972867,26.42158418383636,2.4251395069864334,0.4150292738407229,B,992.7972500154283,Correct
15,9,289,A,40.14746839870591,50.2936454009352,2.0073734199352957,0.7900107345691405,A,604.7109579958487,Correct
15,9,290,B,76.8599131970752,51.38520416655773,3.8429956598537602,0.8071568995643471,B,734.7499169991352,Correct
15,9,291,A,21.61464148303884,46.83448629936708,1.080732074151942,0.7356743904637172,A,680.7437500101514,Correct
15,9,292,A,62.46401141444653,79.27371928915797,3.1232005707223265,1.2452286707077909,A,1151.7688330204692,Correct
15,9,293,A,31.37074664056926,51.25173863850151,1.5685373320284628,0.8050604279521025,A,1393.66216599592,Correct
15,9,294,B,32.86332866164058,12.550985648748025,1.643166433082029,0.19715042154708856,B,1135.250041988911,Correct
15,9,295,A,52.52823538358905,68.84860497395604,2.6264117691794526,1.08147135798043,A,1993.249624996679,Correct
15,9,296,B,69.41977666814161,38.53095262365207,3.4709888334070804,0.6052427884914086,B,789.1128750052303,Correct
15,9,297,A,30.582756297712955,52.4537676400975,1.5291378148856478,0.8239418553561816,A,814.2328749818262,Correct
15,9,298,A,26.78543061784787,38.44829989580267,1.3392715308923935,0.6039444824783543,A,658.7517500156537,Correct
15,9,299,A,24.371957154911605,35.1864116638411,1.2185978577455803,0.5527068619465472,A,701.9917079887819,Correct
