subject,day,trial,cat,x,y,xt,yt,resp,rt,fb,resp_key
15,23,0,B,73.70556627863176,46.246909379156286,3.685278313931588,0.7264447537839515,A,1661.1957909772173,Incorrect,k
15,23,1,B,72.2731370135682,40.98550586083294,3.61365685067841,0.6437988205802708,A,792.9212489980273,Incorrect,k
15,23,2,A,20.958335074754718,45.278102169020116,1.0479167537377359,0.7112267657134084,B,608.3672910172027,Incorrect,d
15,23,3,B,83.98389664050164,63.05290886336265,4.199194832025082,0.9904327763630343,A,670.5159159901086,Incorrect,k
15,23,4,B,77.54031214276566,65.43391695409072,3.8770156071382824,1.0278335639928802,B,1756.2058740004431,Correct,d
15,23,5,B,53.11812223575289,46.40002469731321,2.6559061117876444,0.7288498835773208,B,2120.5438330071047,Correct,d
15,23,6,A,41.99092319054764,72.62561848706915,2.099546159527382,1.1408005475069576,A,2125.9903330064844,Correct,k
15,23,7,B,75.67806047620566,44.48111798531857,3.7839030238102827,0.6987077674306881,B,1085.3562080010306,Correct,d
15,23,8,A,27.470381957689426,48.20838132816378,1.3735190978844714,0.7572554831100735,A,778.2860409934074,Correct,k
15,23,9,B,39.636596996056255,18.578776903397934,1.9818298498028128,0.29183474516199337,B,1659.4035410089418,Correct,d
15,23,10,B,74.62417373114869,46.31734139701997,3.7312086865574345,0.7275510973334418,B,1366.7047080234624,Correct,d
15,23,11,B,80.73393968831414,66.66672837769423,4.036696984415707,1.0471985205511518,A,1192.0840830134694,Incorrect,k
15,23,12,A,27.15422095490055,44.23707623154788,1.3577110477450274,0.6948743685266123,A,1465.0348740105983,Correct,k
15,23,13,B,40.81140167863434,29.145323851903008,2.0405700839317173,0.45781367649816934,B,1051.0442070080899,Correct,d
15,23,14,A,21.143112979408045,37.69755866483567,1.0571556489704022,0.5921518667985899,A,1031.7538749950472,Correct,k
15,23,15,A,52.26112340569661,71.83087436689485,2.61305617028483,1.1283167360598414,A,1080.1193329971284,Correct,k
15,23,16,A,22.28815482177341,46.17208374869961,1.1144077410886706,0.7252693955292369,A,914.6509989805054,Correct,k
15,23,17,B,68.25899669849385,58.29796010626031,3.4129498349246923,0.9157422159454912,B,5773.3812909864355,Correct,d
15,23,18,B,81.99909718568782,68.55047731924,4.099954859284391,1.0767883797309907,A,1534.659915982047,Incorrect,k
15,23,19,A,64.43489298452528,83.19443891913842,3.221744649226264,1.30681519063945,A,2637.343165988568,Correct,k
15,23,20,A,44.68615398903114,72.41387853139571,2.234307699451557,1.137474544060882,A,3063.512916007312,Correct,k
15,23,21,A,29.885222846373036,40.93592534323205,1.4942611423186518,0.6430200116309902,A,2656.460374011658,Correct,k
15,23,22,B,73.56661326956507,62.91173610362175,3.6783306634782535,0.9882152398385894,A,2990.9456659806892,Incorrect,k
15,23,23,A,68.59133984527374,88.46929347325099,3.429566992263687,1.3896724122192237,A,1522.154999023769,Correct,k
15,23,24,B,58.466816642875614,46.93141445886029,2.923340832143781,0.7371969344326664,B,3433.2637079933193,Correct,d
15,23,25,A,14.628353978714507,30.784400286206775,0.7314176989357253,0.4835602289215737,A,1317.1231249871198,Correct,k
15,23,26,A,18.680153846609198,43.63203674522457,0.9340076923304599,0.6853704304997872,A,1171.3009160012007,Correct,k
15,23,27,B,68.30676671251109,38.60890307572072,3.4153383356255547,0.6064672313292229,B,1516.8072069936898,Correct,d
15,23,28,A,52.78945038126323,61.12250765059495,2.6394725190631614,0.9601101050204751,A,2171.51112400461,Correct,k
15,23,29,A,40.503992356519404,65.72475809931346,2.02519961782597,1.0324020860188472,A,1334.1194989916403,Correct,k
15,23,30,B,45.47096067912704,30.072311017984703,2.273548033956352,0.47237475685284064,B,1083.1694999942556,Correct,d
15,23,31,A,46.156259776317626,59.09322096590674,2.3078129888158814,0.9282341443172547,A,991.2964990071487,Correct,k
15,23,32,B,80.61971527357834,61.18514946438411,4.030985763678917,0.961094080330513,A,784.8854160110932,Incorrect,k
15,23,33,B,34.521726150511725,21.061214223727564,1.7260863075255861,0.3308287794047169,B,1057.0862489985302,Correct,d
15,23,34,B,88.51393778019965,66.25869583619695,4.425696889009982,1.0407891603771848,B,2145.053457992617,Correct,d
15,23,35,A,26.430554022075796,43.29483041182503,1.3215277011037898,0.6800736058010274,A,5106.088916014414,Correct,k
15,23,36,B,63.99453109290847,34.016056689531155,3.1997265546454234,0.5343229689996251,B,1101.9052490009926,Correct,d
15,23,37,A,17.71969037000908,45.79182478239541,0.8859845185004539,0.7192963016542222,A,1873.235041013686,Correct,k
15,23,38,B,48.26978197498252,19.6339538656648,2.413489098749126,0.3084094261264672,B,1127.5914160069078,Correct,d
15,23,39,A,17.062477263819765,46.02226109662283,0.8531238631909883,0.7229159868137081,A,1244.0662079898175,Correct,k
15,23,40,A,24.904447316651805,39.91078639728922,1.2452223658325903,0.6269171667235764,A,1367.5618740089703,Correct,k
15,23,41,A,51.12244942108414,68.2502141247395,2.556122471054207,1.0720718565010598,A,1215.0852500053588,Correct,k
15,23,42,B,78.8213191254156,60.53469100317245,3.94106595627078,0.9508767027144736,B,1548.5176660004072,Correct,d
15,23,43,A,59.77328317713544,84.85304143197479,2.988664158856772,1.3328684579872117,A,1489.756708004279,Correct,k
15,23,44,B,44.11119577239816,32.52205640752663,2.205559788619908,0.5108552674475926,A,1527.603333001025,Incorrect,k
15,23,45,A,49.12247122236761,79.01842812165346,2.4561235611183805,1.241218566425998,A,966.9794159999583,Correct,k
15,23,46,A,28.811074317705405,49.724896902483636,1.4405537158852701,0.7810768540467623,A,2947.684707993176,Correct,k
15,23,47,A,13.84576865919766,36.13071170489012,0.692288432959883,0.5675398923052678,A,829.8822500219103,Correct,k
15,23,48,B,37.85075637662949,11.904388028055735,1.8925378188314743,0.18699368987211093,B,1093.7925000034738,Correct,d
15,23,49,A,33.6100738657694,42.391442516407096,1.68050369328847,0.6658832219230928,B,3887.158081983216,Incorrect,d
15,23,50,B,37.53083176368768,16.48912203461219,1.8765415881843839,0.25901052324041623,B,1383.3427490026224,Correct,d
15,23,51,A,30.22044117902928,57.41400685504831,1.511022058951464,0.901857110744869,A,837.427624996053,Correct,k
15,23,52,B,58.405379583366184,31.706750712071468,2.920268979168309,0.4980484755312333,B,864.8552910017315,Correct,d
15,23,53,B,60.900848294041644,46.21265251156478,3.0450424147020825,0.7259066481661491,B,4115.372666012263,Correct,d
15,23,54,A,65.09013338020569,86.45684928283671,3.254506669010284,1.3580610127973989,A,2097.6321249909233,Correct,k
15,23,55,A,59.21380985678582,82.815350901192,2.960690492839291,1.3008604899782281,A,807.4418739997782,Correct,k
15,23,56,B,73.88073830771702,58.012811846975126,3.694036915385851,0.9112631175627198,B,1232.2768330050167,Correct,d
15,23,57,B,49.04874077049049,31.241711317281347,2.4524370385245247,0.4907436537997209,B,1758.7470830185339,Correct,d
15,23,58,B,56.34017694974559,41.9452416072008,2.8170088474872794,0.6588743144311547,B,1415.667041001143,Correct,d
15,23,59,B,76.45813062894592,56.83929339015823,3.822906531447296,0.89282953274878,B,1116.3053320196923,Correct,d
15,23,60,A,40.78774770954497,51.781885065917166,2.039387385477249,0.813387948560582,A,2369.9498740024865,Correct,k
15,23,61,B,65.800116986855,32.96693294242254,3.29000584934275,0.51784337171651,B,772.557874006452,Correct,d
15,23,62,B,55.34673354408862,28.582590045564103,2.7673366772044314,0.4489742745385647,B,1356.3351660268381,Correct,d
15,23,63,B,59.13077621674424,26.521719135935236,2.956538810837212,0.4166021899901299,B,859.5995829964522,Correct,d
15,23,64,A,27.314187870433507,59.1861479864281,1.3657093935216753,0.9296938385422041,A,1025.238582980819,Correct,k
15,23,65,A,26.17584315947898,38.58462171932901,1.308792157973949,0.6060858206749259,A,1287.111665995326,Correct,k
15,23,66,A,39.98989804592792,50.596773876146386,1.9994949022963961,0.7947722655232273,A,1580.600332992617,Correct,k
15,23,67,A,49.90297149254543,67.92384798639489,2.4951485746272715,1.0669453091880403,A,1462.7432499837596,Correct,k
15,23,68,A,31.005114437009638,62.74234099061078,1.550255721850482,0.9855543876256427,A,1586.7156659951434,Correct,k
15,23,69,A,28.38187109890882,42.662160078025835,1.419093554945441,0.6701356434369886,A,767.2372910019476,Correct,k
15,23,70,B,51.872592799377,36.87852129513722,2.5936296399688503,0.5792864578802892,A,1183.062374999281,Incorrect,k
15,23,71,B,68.68787364548675,42.58998379205367,3.4343936822743375,0.669001900988121,B,2250.9369580075145,Correct,d
15,23,72,A,25.131994884905133,54.5279271926193,1.2565997442452568,0.8565226774190596,A,1569.1662490135059,Correct,k
15,23,73,A,59.428017749793725,68.35733950795489,2.9714008874896867,1.073754578085672,A,1852.421707008034,Correct,k
15,23,74,A,65.44922644508486,87.40133812737909,3.2724613222542427,1.3728970088744583,A,804.9839989980683,Correct,k
15,23,75,A,10.562521166797744,34.01179983102847,0.5281260583398872,0.534256102422628,A,923.5405829967931,Correct,k
15,23,76,A,25.43342511692722,45.774914455115756,1.2716712558463612,0.7190306748544645,A,899.162248999346,Correct,k
15,23,77,A,54.44824065388068,67.54080807814941,2.722412032694034,1.0609285323791617,A,998.1976250128355,Correct,k
15,23,78,B,80.78676109464351,51.89970098402448,4.039338054732175,0.8152385966745912,B,1909.6207490074448,Correct,d
15,23,79,B,36.49930619250531,18.406947698199307,1.8249653096252656,0.2891356583183725,B,1807.2662080230657,Correct,d
15,23,80,B,67.97228617284907,48.67471621866633,3.398614308642453,0.7645806544406505,B,2370.2285829931498,Correct,d
15,23,81,B,57.18177182868566,36.04057951023919,2.8590885914342827,0.5661240991024313,B,1958.8016660127323,Correct,d
15,23,82,B,84.2241750822717,62.6541425729871,4.211208754113585,0.9841689701213188,B,2294.3401240045205,Correct,d
15,23,83,B,42.82543934685736,29.116011282526514,2.141271967342868,0.45735323573511416,B,3250.433457986219,Correct,d
15,23,84,B,55.82786375010812,28.338505291182855,2.791393187505406,0.44514020018247763,B,1165.0993330113124,Correct,d
15,23,85,B,88.54236160975545,63.95481081863253,4.427118080487772,1.0045998191477048,B,1337.1485410025343,Correct,d
15,23,86,B,72.2794637009882,41.78420508862601,3.6139731850494106,0.6563447587125836,B,999.5124990236945,Correct,d
15,23,87,A,49.070215377838394,67.24206815209834,2.4535107688919195,1.0562359365940817,B,819.8784580163192,Incorrect,d
15,23,88,A,24.098294537412166,54.78454350105027,1.2049147268706082,0.86055359696585,A,852.5442910031416,Correct,k
15,23,89,A,34.88338977130191,59.50414228425211,1.7441694885650951,0.9346888812918411,A,871.1961249937303,Correct,k
15,23,90,A,12.830558619768269,37.54650052628401,0.6415279309884134,0.5897790511068958,A,1445.9669159841724,Correct,k
15,23,91,A,28.359481483592955,41.32797900272507,1.4179740741796476,0.6491783761133715,A,1035.0154159823433,Correct,k
15,23,92,B,65.97581631892919,38.67852425101039,3.2987908159464596,0.6075608381933444,B,1567.2336659918074,Correct,d
15,23,93,B,71.11695682635604,56.69207554985111,3.555847841317802,0.890517040320849,A,1137.0889579993673,Incorrect,k
15,23,94,A,67.965195416606,86.26205596442671,3.3982597708302995,1.3550012065069725,A,4113.139373977901,Correct,k
15,23,95,B,39.63673885028016,22.47629240461885,1.9818369425140079,0.3530567754914333,B,1184.055582009023,Correct,d
15,23,96,B,72.30974309614771,61.81097383080838,3.6154871548073855,0.9709245064904928,A,2702.07929101889,Incorrect,k
15,23,97,B,53.677345132745586,37.82660521446339,2.683867256637279,0.5941789252599978,B,1052.6170410157647,Correct,d
15,23,98,A,58.557289624262296,70.87810657087697,2.9278644812131147,1.1133506945171074,A,1135.0947910104878,Correct,k
15,23,99,A,21.13985203293362,42.65957775552175,1.056992601646681,0.6700950804099485,A,1036.474166001426,Correct,k
15,23,100,A,38.51196163270887,62.947185913717114,1.9255980816354434,0.9887720841534229,A,1674.5669160154648,Correct,k
15,23,101,B,49.314375936835255,33.69403451735681,2.4657187968417627,0.5292646565476453,B,2506.2878739845473,Correct,d
15,23,102,B,48.834656656468596,17.93532226828892,2.44173283282343,0.28172738338910946,B,1397.7918740129098,Correct,d
15,23,103,B,45.78408627296579,35.065230127446334,2.2892043136482894,0.5508033468241045,B,1618.881040980341,Correct,d
15,23,104,B,72.67746453101432,62.77108740431179,3.6338732265507163,0.9860059352361437,B,1255.8770409959834,Correct,d
15,23,105,B,48.8773714969245,27.167627915815295,2.443868574846225,0.42674810137893154,B,5349.272624007426,Correct,d
15,23,106,B,54.464780384327405,31.3595934935097,2.7232390192163702,0.4925953426938617,B,1541.7625819973182,Correct,d
15,23,107,A,39.05616785549694,68.86801666824033,1.952808392774847,1.0817762761612162,A,1283.2162489939947,Correct,k
15,23,108,A,24.899487647293963,36.188073794741,1.2449743823646982,0.5684409339056182,A,2455.8994990075007,Correct,k
15,23,109,B,51.89904172877878,22.066699827684978,2.5949520864389393,0.34662291033813136,B,1318.3929989754688,Correct,d
15,23,110,B,79.34344560573797,47.85390912484586,3.9671722802868987,0.7516874467608466,B,1551.6210409987252,Correct,d
15,23,111,A,23.942602260640555,37.229527412148165,1.1971301130320278,0.5848000490731226,A,964.7613739944063,Correct,k
15,23,112,B,47.847734399847745,22.42092166120973,2.392386719992387,0.3521870138878437,B,2665.422582998872,Correct,d
15,23,113,A,41.58618807111162,48.914234532536405,2.0793094035555812,0.7683429993169227,A,1822.5871659815311,Correct,k
15,23,114,A,29.224237279640665,41.828356361377175,1.4612118639820333,0.6570382852831921,B,1218.8731659844052,Incorrect,d
15,23,115,B,84.38702558119914,55.75032737740366,4.219351279059957,0.8757240946203861,B,5040.089749003528,Correct,d
15,23,116,B,79.38234709604181,48.97348422095001,3.9691173548020906,0.7692736912461611,B,934.0177490084898,Correct,d
15,23,117,A,32.918789012642364,42.138295733538484,1.6459394506321183,0.6619068015563931,A,2332.051583012799,Correct,k
15,23,118,B,70.83211151795055,60.16142631049319,3.541605575897528,0.9450134746326455,A,1291.1345410102513,Incorrect,k
15,23,119,B,50.5990353452644,20.97926714912034,2.5299517672632197,0.32954155776687066,B,4627.6189989876,Correct,d
15,23,120,A,11.70591094964665,33.621514821212536,0.5852955474823325,0.5281255198244083,A,1073.019374976866,Correct,k
15,23,121,A,30.777078627194115,55.77311742252601,1.5388539313597056,0.8760820798120431,A,4678.191540995613,Correct,k
15,23,122,B,48.17901785468766,32.67663244585835,2.408950892734383,0.5132833421798123,A,1057.615124998847,Incorrect,k
15,23,123,B,67.91212046846918,36.99894044558667,3.3956060234234595,0.5811779974723067,A,995.4136250016745,Incorrect,k
15,23,124,A,22.55144001795286,39.07004555984762,1.1275720008976429,0.613710840531179,A,7813.350165990414,Correct,k
15,23,125,A,31.084532849674236,60.10271369828666,1.5542266424837117,0.94409121907674,A,842.1735409938265,Correct,k
15,23,126,A,54.272205573093125,75.68491677512236,2.7136102786546563,1.1888558926413968,A,1289.4786240067333,Correct,k
15,23,127,B,64.48643469098543,55.45616120373647,3.224321734549272,0.8711033431697489,B,2901.19291600422,Correct,d
15,23,128,B,56.61085889859618,43.23762420998554,2.830542944929809,0.6791750128838338,B,4020.816124015255,Correct,d
15,23,129,A,35.16930989224461,46.62800885668153,1.7584654946122305,0.7324310503783525,B,4201.483623997774,Incorrect,d
15,23,130,B,46.85878709359529,19.704594819954945,2.3429393546797646,0.30951905164166976,B,954.9168320081662,Correct,d
15,23,131,A,49.89872548148388,62.284244042931256,2.494936274074194,0.9783586175983334,A,1535.4828750132583,Correct,k
15,23,132,A,28.36156899704931,59.263270311027554,1.4180784498524657,0.9309052731841512,A,904.9600830185227,Correct,k
15,23,133,B,87.75761297867166,61.77245043140737,4.387880648933583,0.9703193823477452,B,1166.9024160073604,Correct,d
15,23,134,A,61.49505362718564,78.38719731858225,3.074752681359282,1.2313032161577577,A,1560.9095410036389,Correct,k
15,23,135,B,58.72411645284839,26.93468684101921,2.9362058226424197,0.42308907153243813,B,1510.0854580232408,Correct,d
15,23,136,A,20.65806329313471,50.97978168189795,1.0329031646567355,0.8007885380673105,A,850.0678740092553,Correct,k
15,23,137,B,48.46600074838167,31.414602740636706,2.4233000374190836,0.49345942592713027,B,1363.6614579882007,Correct,d
15,23,138,B,86.81058545240117,67.12220943503752,4.340529272620058,1.054353200269147,A,2099.2356249771547,Incorrect,k
15,23,139,A,29.575641997240705,48.926768536409874,1.4787820998620353,0.7685398829893675,A,1493.8147490029223,Correct,k
15,23,140,B,86.59895784113742,59.68905295577434,4.329947892056871,0.9375934513279641,B,2178.690833010478,Correct,d
15,23,141,B,80.96084524396227,55.88610922787916,4.048042262198113,0.8778569509401096,B,1307.1120410168078,Correct,d
15,23,142,B,59.9259230701396,37.00177608959909,2.9962961535069805,0.5812225396642948,B,1345.6296240037773,Correct,d
15,23,143,A,59.88102336716571,84.04191847368472,2.9940511683582853,1.320127368352601,A,838.22412401787,Correct,k
15,23,144,A,57.24659832790324,84.7541599129721,2.8623299163951623,1.3313152307188385,A,954.2528330057394,Correct,k
15,23,145,A,49.61387646930996,69.58212290050278,2.480693823465498,1.0929934306270082,A,897.6809160085395,Correct,k
15,23,146,A,28.749328413026728,51.929861831025235,1.4374664206513363,0.8157123621514095,A,2075.1622499956284,Correct,k
15,23,147,A,46.17464856249587,72.10253974758926,2.3087324281247934,1.1325840458809624,A,904.5849579852074,Correct,k
15,23,148,B,49.437337363331686,22.374802447462283,2.4718668681665843,0.3514625749723521,B,1061.1886660044547,Correct,d
15,23,149,A,44.11551562181482,56.28125810896735,2.2057757810907415,0.8840639350496141,A,1992.352457018569,Correct,k
15,23,150,B,75.77422171761,46.02704687042405,3.7887110858804998,0.7229911615727864,B,1389.512541005388,Correct,d
15,23,151,A,56.825411433910574,77.58077111706558,2.841270571695529,1.218635903006022,A,2217.861040990101,Correct,k
15,23,152,A,50.83277579470298,65.46965209231752,2.541638789735149,1.0283948902315214,A,2581.535998993786,Correct,k
15,23,153,B,35.38586878660634,10.749109684513972,1.769293439330317,0.16884662008749995,B,1043.1254580034874,Correct,d
15,23,154,A,52.88507158049731,65.56283833124103,2.6442535790248654,1.0298586562496104,A,865.8989579998888,Correct,k
15,23,155,A,44.665740253066566,54.703557837461695,2.2332870126533284,0.85928147713697,A,2287.522375001572,Correct,k
15,23,156,A,58.20522930631988,66.82400466882756,2.910261465315994,1.0496690107551934,A,2201.9819160050247,Correct,k
15,23,157,B,35.69322733438429,11.518978256047099,1.7846613667192144,0.18093968733029067,B,889.6167070197407,Correct,d
15,23,158,B,60.206274606812585,49.972249715942816,3.0103137303406293,0.7849622629548029,B,4383.769333013333,Correct,d
15,23,159,B,62.221251806588626,51.7398769806338,3.111062590329431,0.8127280870999941,A,3418.2686239946634,Incorrect,k
15,23,160,A,35.49922908446418,64.01548234567437,1.7749614542232093,1.0055528452658886,A,1605.8677500113845,Correct,k
15,23,161,A,46.35314628694837,77.60734136756676,2.317657314347419,1.219053267524915,A,1025.4304580157623,Correct,k
15,23,162,A,23.011382975655795,35.511179018774556,1.1505691487827898,0.5578082956284707,A,1504.613249009708,Correct,k
15,23,163,A,17.405895516380927,41.78648959948181,0.8702947758190462,0.6563806437251917,A,855.2799159951974,Correct,k
15,23,164,A,50.1664213344762,73.67164691690628,2.5083210667238096,1.1572315236600694,A,910.8733739994932,Correct,k
15,23,165,B,83.91189077626078,67.57256287595209,4.1955945388130385,1.0614273355766275,B,2723.3794159838,Correct,d
15,23,166,B,70.54292792079448,59.30214177506692,3.527146396039724,0.931515864713453,B,1038.0962490162347,Correct,d
15,23,167,B,52.22619352754572,34.8636507925881,2.611309676377286,0.5476369460365738,B,1062.3594579810742,Correct,d
15,23,168,A,64.63349681914964,76.76679541083055,3.231674840957482,1.2058500025114793,B,1269.4279580027796,Incorrect,d
15,23,169,A,46.54093814805251,67.9615556878188,2.3270469074026257,1.067537620376926,A,4499.656665982911,Correct,k
15,23,170,A,52.131293016191435,67.43351219053326,2.6065646508095717,1.0592431325176852,A,1436.5954989916645,Correct,k
15,23,171,A,60.206327655258,87.13494074826161,3.0103163827629,1.368712448628603,A,832.8313319943845,Correct,k
15,23,172,A,45.136682322468744,60.62743706936855,2.256834116123437,0.9523335545155286,A,1745.0881660042796,Correct,k
15,23,173,A,40.63276435791523,58.81920957395192,2.0316382178957615,0.923929983437429,A,867.7184580010362,Correct,k
15,23,174,A,50.968624698333,78.55025272550571,2.54843123491665,1.2338644845003517,A,972.384332009824,Correct,k
15,23,175,B,53.6416558719471,23.040238773910517,2.6820827935973552,0.3619152243453599,B,3055.0868740247097,Correct,d
15,23,176,B,74.74105897094712,57.17761477784135,3.737052948547356,0.8981438726792678,B,1430.3097910014912,Correct,d
15,23,177,B,69.28899207530976,38.24951708398171,3.464449603765488,0.6008220093719712,B,982.8535830019973,Correct,d
15,23,178,B,37.62697931813498,17.142393958454914,1.8813489659067488,0.26927209462412005,B,1022.4574989988469,Correct,d
15,23,179,B,82.71424523031192,60.7974601431925,4.135712261515596,0.9550042707138591,A,946.1674999911338,Incorrect,k
15,23,180,A,34.367800433110105,56.399427172296065,1.7183900216555055,0.8859201303557893,A,1669.190624001203,Correct,k
15,23,181,B,44.02292530338741,35.32423660956034,2.2011462651693705,0.5548718111313119,B,1486.1323320074007,Correct,d
15,23,182,A,62.88517559154178,82.0855730046826,3.144258779577089,1.2893971655860972,A,951.663040992571,Correct,k
15,23,183,B,51.016916208953795,41.82153729529881,2.5508458104476897,0.6569311716437115,B,2192.3519160191063,Correct,d
15,23,184,B,39.92972060258826,16.79409191264063,1.996486030129413,0.26380097888231785,B,865.6265829922631,Correct,d
15,23,185,B,75.82555553867459,63.186104964791994,3.79127777693373,0.9925250158317206,B,5027.532124979189,Correct,d
15,23,186,B,62.89456860986982,51.57322549782391,3.144728430493491,0.8101103317294669,B,973.8989990146365,Correct,d
15,23,187,A,23.173832757318717,48.90119621573126,1.158691637865936,0.7681381939154716,A,1823.6258329998236,Correct,k
15,23,188,B,78.71527787110011,58.61792379309546,3.9357638935550057,0.9207681937853752,B,788.8908740133047,Correct,d
15,23,189,B,36.025174334106204,22.170184896704043,1.80125871670531,0.348248450001064,B,4012.743290979415,Correct,d
15,23,190,B,60.69343509995607,31.87856278880306,3.0346717549978037,0.5007472933215231,B,3520.658581983298,Correct,d
15,23,191,B,50.69662510503525,20.310925250212694,2.5348312552517624,0.3190432677683982,B,830.380706989672,Correct,d
15,23,192,A,25.96949133069683,42.03628413018435,1.2984745665348416,0.6603044070380018,A,1347.8269990009721,Correct,k
15,23,193,A,55.88361323517246,69.76549536743316,2.794180661758623,1.0958738386019038,A,1206.3884160015732,Correct,k
15,23,194,B,66.04202689210555,40.4049359611325,3.302101344605278,0.6346792499212996,B,1633.5580409795512,Correct,d
15,23,195,A,26.71308747538618,39.06485433859703,1.335654373769309,0.613629297018459,A,887.4656659900211,Correct,k
15,23,196,A,32.562005378182135,46.628928745912496,1.6281002689091069,0.7324454999646032,A,1021.6126239974983,Correct,k
15,23,197,A,38.71692393392472,62.15756166515996,1.9358461966962357,0.9763686954616053,A,861.5588740212843,Correct,k
15,23,198,A,34.28030431967591,48.71806314439708,1.7140152159837956,0.7652615463578077,A,1910.4134570225142,Correct,k
15,23,199,B,55.08332067280916,24.172389661776513,2.7541660336404576,0.37969900890573477,B,1297.6248740160372,Correct,d
15,23,200,A,21.703023954437352,50.39277908635983,1.0851511977218677,0.7915679228584072,A,796.0268750030082,Correct,k
15,23,201,B,41.58984807556813,13.134557075844121,2.0794924037784064,0.20631714008813862,B,777.1881659864448,Correct,d
15,23,202,A,47.93723604248989,65.55373635494105,2.3968618021244947,1.029715682740225,A,832.0143749879207,Correct,k
15,23,203,B,66.45406984480802,37.361352325816924,3.322703492240401,0.5868707499748319,B,867.8821659996174,Correct,d
15,23,204,B,70.51333222290755,56.74551404444124,3.525666611145377,0.8913564502309651,B,3949.2531239811797,Correct,d
15,23,205,A,37.009543900517976,47.23601471973162,1.8504771950258987,0.7419815841418409,A,1210.8402070007287,Correct,k
15,23,206,A,21.674937905456986,49.3765294179108,1.0837468952728493,0.7756047103953444,A,1719.3394160130993,Correct,k
15,23,207,B,76.92999622961436,50.30519065314574,3.846499811480718,0.790192086966783,B,900.8144999970682,Correct,d
15,23,208,B,79.28770356120302,56.139120345989326,3.9643851780601507,0.8818312402897669,B,1001.0354999976698,Correct,d
15,23,209,A,37.635083507293615,65.94178106455279,1.8817541753646807,1.0358110747851277,B,1744.8808740009554,Incorrect,d
15,23,210,B,48.34899729847285,28.56344973776682,2.4174498649236424,0.4486736192867477,B,2556.0847080196254,Correct,d
15,23,211,B,60.60279818654734,34.12929122529912,3.030139909327367,0.5361016529281315,B,2300.38416601019,Correct,d
15,23,212,B,62.48736319766092,50.88190294732573,3.124368159883046,0.7992510624999367,B,3146.597123995889,Correct,d
15,23,213,A,16.29992305644847,35.02663888108377,0.8149961528224235,0.5501971569437768,A,731.4176240179222,Correct,k
15,23,214,B,34.40248123183373,14.930432668355476,1.7201240615916868,0.2345266879291131,B,797.5826659821905,Correct,d
15,23,215,A,44.981447904037864,65.96028514053398,2.249072395201893,1.0361017361309477,A,4775.188166007865,Correct,k
15,23,216,B,39.20092259811695,12.34068027521361,1.9600461299058474,0.19384695246455771,B,796.6017080179881,Correct,d
15,23,217,A,54.583451373138736,67.10551674489416,2.729172568656937,1.0540909921055317,A,1439.820708008483,Correct,k
15,23,218,A,54.64810724570165,64.86352777026599,2.732405362285083,1.0188739116449257,A,1000.3307499864604,Correct,k
15,23,219,A,46.381101715519854,71.34695579683462,2.3190550857759926,1.1207153609366567,A,945.1512079976965,Correct,k
15,23,220,A,17.564470031209037,42.29720981506717,0.8782235015604519,0.6644030181118056,A,1137.3280409898143,Correct,k
15,23,221,A,63.33107116861419,80.10935056734309,3.166553558430709,1.2583547361310718,A,2107.5854990049265,Correct,k
15,23,222,B,52.85176808270525,43.220722431542725,2.642588404135262,0.678909520368891,B,847.9959160031285,Correct,d
15,23,223,B,39.166194281403115,18.34000184298701,1.9583097140701557,0.2880840752837563,B,831.2395410030149,Correct,d
15,23,224,A,52.92239127195958,62.5756507466416,2.646119563597979,0.9829360233962496,A,866.9059569947422,Correct,k
15,23,225,B,38.70868989450999,20.02353091247053,1.9354344947254993,0.3145288880677277,B,691.4525000029244,Correct,d
15,23,226,B,37.910414458938455,13.993098515689713,1.8955207229469226,0.21980307748924516,B,796.9661660026759,Correct,d
15,23,227,B,61.76842395755961,54.19105535942356,3.088421197877981,0.8512311070372142,A,1289.5309989980888,Incorrect,k
15,23,228,B,43.50772783125109,35.24870071796054,2.1753863915625544,0.5536852961206504,B,640.001082996605,Correct,d
15,23,229,B,75.67145623048764,42.99410366803744,3.783572811524382,0.675349801155922,B,1248.0804989754688,Correct,d
15,23,230,A,48.02362121974249,78.4883721173836,2.4011810609871245,1.2328924661809713,A,1113.6135829729028,Correct,k
15,23,231,A,57.34184267821273,85.61186437472222,2.8670921339106368,1.344788020898765,A,868.5964989999775,Correct,k
15,23,232,A,60.02153936238414,70.55543319695288,3.001076968119207,1.1082821530119629,A,861.8391240015626,Correct,k
15,23,233,A,44.222743345630036,60.0414705076451,2.2111371672815014,0.9431292132877305,A,947.4158739903942,Correct,k
15,23,234,B,64.2316032062836,34.52564495840303,3.2115801603141794,0.5423275628088421,B,878.9497490215581,Correct,d
15,23,235,B,68.60106598764827,45.73907791025662,3.4300532993824135,0.718467755724167,B,942.25241598906,Correct,d
15,23,236,A,46.66293839412283,61.02279659096079,2.3331469197061416,0.9585438473583334,A,921.5200000035111,Correct,k
15,23,237,A,56.20224827108225,68.00537644741699,2.8101124135541125,1.0682259552590678,A,904.0068740141578,Correct,k
15,23,238,A,40.22138331696025,48.74426533669631,2.011069165848012,0.7656731294319837,A,1446.8121659883764,Correct,k
15,23,239,A,18.852519552034302,45.63597828999447,0.9426259776017151,0.7168482706761494,B,1197.8156239783857,Incorrect,d
15,23,240,B,64.57599921254527,32.08461893832365,3.228799960627264,0.5039840157493276,B,1050.5569989909418,Correct,d
15,23,241,B,82.26595895964525,57.54663497378445,4.113297947982262,0.9039404283622735,B,1294.3811249861028,Correct,d
15,23,242,B,78.1254982701535,51.88882343150392,3.906274913507675,0.8150677324791532,B,1648.8119160057977,Correct,d
15,23,243,B,82.04621478634934,66.61569270850168,4.102310739317467,1.0463968541341202,A,949.0735409781337,Incorrect,k
15,23,244,B,52.754698144706,41.75947150216919,2.6377349072353002,0.6559562444450352,B,4225.7306249812245,Correct,d
15,23,245,B,42.684838939805346,20.67235281966425,2.134241946990267,0.32472055875336725,B,1926.076000003377,Correct,d
15,23,246,A,37.5174697093474,48.579423564555924,1.8758734854673702,0.7630838009301788,A,3138.049833010882,Correct,k
15,23,247,B,84.91578811233181,60.565618222110245,4.24578940561659,0.9513625063335281,B,8990.515123994555,Correct,d
15,23,248,A,53.268320432706886,60.469206268510874,2.6634160216353444,0.9498480709077981,A,3114.968248992227,Correct,k
15,23,249,B,68.8362971648162,58.70924582112734,3.44181485824081,0.9222026768472545,B,2763.483624003129,Correct,d
15,23,250,B,42.69848554253858,34.1040306423134,2.134924277126929,0.5357048606184647,B,1536.316582991276,Correct,d
15,23,251,B,51.00846273204939,38.72833178752796,2.5504231366024697,0.6083432131474295,B,881.3069990137592,Correct,d
15,23,252,A,54.67143383442444,67.40434749671607,2.733571691721222,1.0587850145784838,A,982.5868740153965,Correct,k
15,23,253,B,75.28356981281961,46.01202689954552,3.7641784906409805,0.7227552284219407,B,758.3652489993256,Correct,d
15,23,254,A,38.47791778624519,48.48228635614759,1.9238958893122597,0.7615579732285497,B,1303.2749579870142,Incorrect,d
15,23,255,A,53.352160902246176,66.93654728981474,2.667608045112309,1.0514368261117388,A,937.6102070091292,Correct,k
15,23,256,A,56.71601780940178,70.61870845844858,2.8358008904700887,1.109276078495307,A,915.5668329913169,Correct,k
15,23,257,B,74.22294465930835,43.2246183154521,3.711147232965418,0.6789707167702357,B,1204.484665999189,Correct,d
15,23,258,B,46.377272055944026,25.01692953886711,2.3188636027972014,0.39296501027339203,B,893.6707909742836,Correct,d
15,23,259,A,35.681091230352834,46.91796948655819,1.7840545615176415,0.7369857413016065,B,1116.7355000216048,Incorrect,d
15,23,260,B,74.97589180213558,59.86455824500161,3.748794590106779,0.9403502819644767,A,982.6490819978062,Incorrect,k
15,23,261,B,73.91501992176832,60.3477006020271,3.6957509960884156,0.9479394643618234,B,1105.765498999972,Correct,d
15,23,262,B,34.94764863184572,20.75633856471253,1.7473824315922861,0.32603980375161695,B,952.3237909888849,Correct,d
15,23,263,B,43.734218024947495,20.890500123196375,2.1867109012473747,0.32814720858425195,B,981.781915994361,Correct,d
15,23,264,B,61.87269658078682,46.41577916252038,3.0936348290393414,0.7290973541381012,B,2096.1684990033973,Correct,d
15,23,265,B,47.05292774544986,17.929780933863526,2.3526463872724928,0.2816403403115,B,922.0421240024734,Correct,d
15,23,266,B,52.962176223338986,41.35612564068042,2.6481088111669493,0.6496205024684903,B,1479.3476240010932,Correct,d
15,23,267,A,50.48632082483675,61.052743019877845,2.5243160412418377,0.9590142447637687,A,1976.5771660022438,Correct,k
15,23,268,A,34.76107124707584,65.97402425321505,1.738053562353792,1.0363175496082762,B,1891.9092910073232,Incorrect,d
15,23,269,A,21.53564097541266,49.16865156508487,1.076782048770633,0.7723393727189345,B,995.7920410088263,Incorrect,d
15,23,270,A,48.45583873203764,57.78880799781619,2.422791936601882,0.9077444733282523,A,3983.473500004038,Correct,k
15,23,271,B,61.35638988473036,38.504392194908206,3.067819494236518,0.6048255782523191,B,817.5837500020862,Correct,d
15,23,272,B,74.98213684279875,54.93838891266575,3.7491068421399376,0.8629701950404483,B,1844.2756659933366,Correct,d
15,23,273,A,59.44168005900004,75.2569731136664,2.972084002950002,1.1821337693264948,A,1213.6820000014268,Correct,k
15,23,274,B,35.78990440325214,18.957392300235938,1.7894952201626069,0.2977820219082047,B,1434.4082909810822,Correct,d
15,23,275,A,25.371710680904318,43.10070109766488,1.268585534045216,0.6770242296649677,A,1991.1166239762679,Correct,k
15,23,276,B,54.643545378890956,43.57407496809938,2.7321772689445476,0.6844599690337596,B,4864.12670800928,Correct,d
15,23,277,B,80.41097297768444,54.94387517456927,4.020548648884222,0.8630563730409071,A,1145.3922909859102,Incorrect,k
15,23,278,B,43.13051155920822,30.73414817070492,2.1565255779604113,0.48277087053713374,B,4223.677708010655,Correct,d
15,23,279,B,71.82435755541,41.41991689522916,3.5912178777705,0.6506225331517583,B,1022.5493739999365,Correct,d
15,23,280,B,48.549928301605675,23.472769395834117,2.427496415080284,0.36870939946679887,B,1032.2552069847006,Correct,d
15,23,281,B,44.57278935468888,24.847858510436104,2.2286394677344443,0.3903092487691234,B,845.2323749952484,Correct,d
15,23,282,A,42.26001162152307,57.21583278799493,2.1130005810761534,0.8987441997789344,A,1155.1536659826525,Correct,k
15,23,283,A,55.276856246622074,70.03778380896354,2.7638428123311036,1.10015093543975,A,2802.913498977432,Correct,k
15,23,284,A,50.72784809162059,65.62658324808483,2.5363924045810293,1.0308599590619114,A,3213.088541000616,Correct,k
15,23,285,A,26.74208508212275,41.33045878048687,1.3371042541061373,0.6492173283713666,A,2865.7932489877567,Correct,k
15,23,286,A,51.79000718261122,72.16231785655485,2.5895003591305614,1.1335230382208215,A,1387.8060410206672,Correct,k
15,23,287,A,39.11425756650877,47.78288856355563,1.9557128783254385,0.7505718583928306,B,1816.6564580169506,Incorrect,d
15,23,288,A,23.267968988119826,39.81225854058874,1.1633984494059915,0.6253694947696555,A,1552.6483319990803,Correct,k
15,23,289,A,30.651402387924158,57.86850158495033,1.5325701193962078,0.9089962972676463,A,1991.883456998039,Correct,k
15,23,290,A,29.25809326333674,52.071152305936565,1.462904663166837,0.8179317477414277,A,1834.653123980388,Correct,k
15,23,291,A,51.832669715497076,64.68502779935912,2.591633485774854,1.0160700406585907,A,1895.7672910182737,Correct,k
15,23,292,B,37.72423876479057,20.608397590144996,1.8862119382395286,0.32371595235728556,B,2626.949624012923,Correct,d
15,23,293,B,48.7220247406598,18.088958455907083,2.43610123703299,0.2841406949808433,B,1426.2268739985302,Correct,d
15,23,294,A,46.150763513194704,75.04755178209204,2.3075381756597353,1.1788441867425996,A,870.6886240106542,Correct,k
15,23,295,A,20.22297759274446,38.04950103474385,1.011148879637223,0.5976801646175426,A,935.8418329793494,Correct,k
15,23,296,B,58.16927487795438,36.200067116739994,2.908463743897719,0.5686293245670392,B,4834.116041020025,Correct,d
15,23,297,A,64.4532604729273,81.47615286826502,3.2226630236463647,1.2798244164685015,A,1137.5233739963733,Correct,k
15,23,298,A,16.597028667570537,44.03875643270163,0.829851433378527,0.6917591684110285,B,1020.8118750015274,Incorrect,d
15,23,299,A,32.00378665376739,60.98773836809962,1.6001893326883698,0.9579931540813907,A,5338.094832986826,Correct,k
15,23,300,B,87.95612870359241,66.65800619824148,4.39780643517962,1.0470615128766916,B,4187.832083000103,Correct,d
15,23,301,B,30.666969139810814,12.598024589705318,1.5333484569905407,0.19788930750380898,B,7127.299498999491,Correct,d
15,23,302,B,58.90171006714313,32.48565825020623,2.9450855033571566,0.5102835265293827,B,11314.84108301811,Correct,d
15,23,303,A,25.40928074435565,54.18195035799019,1.2704640372177827,0.8510880860091442,A,992.0442489965353,Correct,k
15,23,304,B,39.24548556729659,22.146004679243564,1.9622742783648295,0.3478686280333838,B,1106.7176240030676,Correct,d
15,23,305,A,27.36917124900364,41.76395662167456,1.368458562450182,0.6560266965374779,A,1780.7218330272008,Correct,k
15,23,306,A,39.242954526309475,57.319924551505196,1.9621477263154736,0.9003792693766498,A,2207.170457986649,Correct,k
15,23,307,A,63.742090703335506,87.77421160542885,3.1871045351667755,1.378754091771256,A,873.0204569874331,Correct,k
15,23,308,A,52.847960762414175,75.61060715642134,2.642398038120709,1.1876886398803856,A,706.3754989940207,Correct,k
15,23,309,B,78.43947874340769,64.61164140967401,3.9219739371703843,1.0149172899450498,B,726.7506240168586,Correct,d
15,23,310,A,32.60082261698542,65.10633786788479,1.630041130849271,1.022687963739409,A,783.2087910210248,Correct,k
15,23,311,A,47.135052272184566,64.62315251214503,2.3567526136092285,1.015098105919838,A,2479.771290993085,Correct,k
15,23,312,A,53.981156823823156,63.31296451097604,2.6990578411911574,0.994517720923368,A,1983.5653740155976,Correct,k
15,23,313,B,87.38949571175117,62.482356320740784,4.369474785587559,0.9814705579810951,B,1459.7994580108207,Correct,d
15,23,314,B,36.98302162542191,21.630307034696926,1.8491510812710956,0.3397680683754774,B,5469.709958008025,Correct,d
15,23,315,B,45.977097157469544,29.785558884412765,2.298854857873477,0.46787046487168665,B,3411.4200820040423,Correct,d
15,23,316,A,46.00654668128322,72.16718002031865,2.300327334064161,1.133599412910626,A,1636.1189160088543,Correct,k
15,23,317,A,29.89562671081343,50.3837593794655,1.4947813355406714,0.7914262416338234,B,1893.1052080006339,Incorrect,d
15,23,318,A,29.16089745316689,56.80300901862451,1.4580448726583444,0.8922595791735277,A,806.0554580006283,Correct,k
15,23,319,B,72.39254482031001,55.32243318605744,3.619627241015501,0.869002748380151,B,1043.1903740100097,Correct,d
15,23,320,A,15.897053560282153,45.163944340416116,0.7948526780141077,0.7094335787349478,A,949.8724570148624,Correct,k
15,23,321,A,31.603909285160512,56.85730564906667,1.5801954642580256,0.8931124686500865,A,2295.5441660014912,Correct,k
15,23,322,A,42.98346796084225,69.73917397671673,2.1491733980421124,1.0954603831633687,A,3298.693958000513,Correct,k
15,23,323,B,62.15239983916,46.93230376588694,3.107619991958,0.737210903634775,B,982.9438750166446,Correct,d
15,23,324,A,59.49254325753732,86.48340843451527,2.9746271628768657,1.3584782029763938,A,1710.6763740011957,Correct,k
15,23,325,B,66.95716329595275,48.14938010175348,3.3478581647976373,0.7563286940128565,B,1232.5923739990685,Correct,d
15,23,326,B,57.899709005769324,41.44847692457498,2.8949854502884658,0.6510711530436541,B,1056.430582975736,Correct,d
15,23,327,B,56.540373732005214,38.65555348352401,2.827018686600261,0.6072000142214318,B,1002.1398750250228,Correct,d
15,23,328,B,52.25370106090242,38.10796478660661,2.612685053045121,0.5985985110843094,B,2730.160665989388,Correct,d
15,23,329,B,77.46367257580634,62.6350452676201,3.873183628790317,0.9838689903500971,B,1013.2799579878338,Correct,d
15,23,330,B,65.89944282188358,54.78075699028758,3.294972141094179,0.8604941185938758,B,827.0790830138139,Correct,d
15,23,331,A,64.60540782479065,82.58053310915483,3.2302703912395323,1.2971719807262474,A,1140.0541240000166,Correct,k
15,23,332,B,58.82747680390344,31.591233036343933,2.9413738401951717,0.49623392812410644,B,875.8793740125839,Correct,d
15,23,333,B,32.657793444996614,14.494276043625607,1.6328896722498307,0.22767555568878367,B,692.6738740003202,Correct,d
15,23,334,B,54.33497165557927,37.987874473745755,2.7167485827789633,0.5967121368610545,B,843.3036660135258,Correct,d
15,23,335,A,46.56117735615855,55.871566115353374,2.3280588678079277,0.8776285082627528,B,863.3500830037519,Incorrect,d
15,23,336,B,84.33164672920769,54.559292609313424,4.216582336460385,0.8570153642323747,B,988.5650410142262,Correct,d
15,23,337,A,32.628094108151096,47.256201764191495,1.6314047054075547,0.7422986814947052,A,869.4498330005445,Correct,k
15,23,338,A,47.62814478959574,54.37418224203622,2.381407239479787,0.854107657382668,B,1151.3716240006033,Incorrect,d
15,23,339,A,55.79362266926576,80.18838852185097,2.789681133463288,1.2595962614172553,A,802.9234159912448,Correct,k
15,23,340,B,63.179883440545154,34.73685581397334,3.1589941720272576,0.5456452551699328,B,1387.5388749875128,Correct,d
15,23,341,A,27.285207392396444,48.796819101976176,1.364260369619822,0.7664986420465922,A,939.2463739786763,Correct,k
15,23,342,B,47.3799164846778,19.55435249997431,2.36899582423389,0.30715905079812245,B,817.6825830014423,Correct,d
15,23,343,B,33.32448539619022,20.27211964336866,1.666224269809511,0.3184337107215016,B,846.8538750021253,Correct,d
15,23,344,A,14.957542674101767,38.05116582857677,0.7478771337050883,0.5977063151379187,B,836.4242069947068,Incorrect,d
15,23,345,B,53.49125148988794,33.84244173419505,2.674562574494397,0.5315958316584388,B,909.7020000044722,Correct,d
15,23,346,B,68.1447278898832,58.81238333867521,3.40723639449416,0.923822757184444,B,2392.0179580163676,Correct,d
15,23,347,B,70.00140456433655,56.441231557013424,3.5000702282168277,0.8865767920953688,B,1175.3309989871923,Correct,d
15,23,348,A,19.947979212893024,43.645880971399606,0.9973989606446512,0.6855878950960177,B,1114.3007080245297,Incorrect,d
15,23,349,A,68.38450988950692,84.87977334436421,3.419225494475346,1.3332883618851068,A,802.7546660159715,Correct,k
15,23,350,A,39.990107252506405,53.09616587291927,1.99950536262532,0.8340326232007413,B,988.918624992948,Incorrect,d
15,23,351,B,35.80894730866903,24.797823805625395,1.7904473654334516,0.38952330546383407,B,2565.9367489861324,Correct,d
15,23,352,A,14.785277026387252,37.88773081827879,0.7392638513193626,0.5951390839994612,A,734.9429579917341,Correct,k
15,23,353,B,62.86224624439293,49.61280728060092,3.1431123122196465,0.7793161543835102,B,2420.4682080016937,Correct,d
15,23,354,A,29.583229901804287,39.04748870298832,1.4791614950902143,0.6133565182521927,A,1322.4381240142975,Correct,k
15,23,355,A,47.24714639996039,67.21823410156718,2.36235731999802,1.0558615522038117,A,3997.118416009471,Correct,k
15,23,356,A,48.73043900773407,65.76142239165733,2.4365219503867035,1.0329780073762298,A,1419.2146249988582,Correct,k
15,23,357,A,32.566425147329504,64.65328794663229,1.6283212573664754,1.0155714722178275,A,2191.3751240062993,Correct,k
15,23,358,A,34.885668179681254,60.384337875692054,1.7442834089840629,0.9485149613107903,A,733.3008739806246,Correct,k
15,23,359,B,51.10567872506792,39.76738261849995,2.555283936253396,0.6246645854338694,A,3395.6992909952533,Incorrect,k
15,23,360,A,42.570973326374784,71.48812966653153,2.128548666318739,1.1229329148962501,A,1667.961415980244,Correct,k
15,23,361,B,40.305244461833794,12.525830700292772,2.01526222309169,0.19675528854074634,B,695.795749023091,Correct,d
15,23,362,B,63.22485373826847,54.661771836263526,3.1612426869134236,0.8586251041650347,A,931.107125012204,Incorrect,k
15,23,363,A,42.532209613306975,72.16574829460325,2.1266104806653487,1.1335769234156783,A,1387.9142079968005,Correct,k
15,23,364,B,78.63698364568988,47.04606334777847,3.9318491822844943,0.7389978349685044,B,1590.7227910065558,Correct,d
15,23,365,A,66.4351389270573,84.37754761431611,3.321756946352865,1.3253994185652924,A,742.4500820052344,Correct,k
15,23,366,A,59.4990357132673,70.85815060171075,2.974951785663365,1.1130372268864681,A,766.6008330124896,Correct,k
15,23,367,A,22.085382584821307,34.53495542486612,1.1042691292410654,0.5424738112740519,B,813.2103739771992,Incorrect,d
15,23,368,B,75.6251449931541,62.647197003384406,3.781257249657705,0.9840598693691247,A,678.7393330014311,Incorrect,k
15,23,369,A,22.0747335080124,45.48712828634143,1.10373667540062,0.7145101402863335,A,831.192290992476,Correct,k
15,23,370,A,48.030620542998946,68.2443172455767,2.4015310271499475,1.071979228539775,A,1080.2546250051819,Correct,k
15,23,371,B,45.27063029696413,38.01091225494736,2.2635315148482062,0.5970740134819443,B,874.4002909807023,Correct,d
15,23,372,A,52.980184888483976,61.600523728481214,2.6490092444241986,0.9676187640134016,A,991.661374020623,Correct,k
15,23,373,B,65.27985590139514,41.28972926504335,3.2639927950697567,0.6485775506388584,B,988.0900820135139,Correct,d
15,23,374,A,60.77940484501602,82.03088659863761,3.0389702422508007,1.2885381535286864,A,827.2876249975525,Correct,k
15,23,375,B,61.58097893661488,38.270525179738605,3.0790489468307443,0.60115200376845,B,874.7590409766417,Correct,d
15,23,376,B,44.63668602850399,17.1063249497793,2.2318343014251996,0.2687055239607322,B,740.5378330149688,Correct,d
15,23,377,B,88.60268660524089,68.0987631464076,4.430134330262044,1.0696928700965276,A,758.6894160194788,Incorrect,k
15,23,378,A,60.20452795743819,73.40926410721528,3.0102263978719095,1.153110024123302,A,966.2823329854291,Correct,k
15,23,379,B,48.89114314356793,22.059287491477136,2.4445571571783966,0.34650647763324893,B,833.933916001115,Correct,d
15,23,380,B,37.4786666403304,20.991957475101202,1.8739333320165201,0.32974089694123637,B,991.8279570119921,Correct,d
15,23,381,B,64.56666282101018,41.73103298802096,3.228333141050509,0.6555095333093999,B,1725.2687489963137,Correct,d
15,23,382,A,44.518295037154445,67.77356681578178,2.2259147518577223,1.0645846980801852,A,1019.4827069935855,Correct,k
15,23,383,B,50.30276326793037,34.446211369163066,2.5151381633965184,0.5410798229068194,B,1368.9700409886427,Correct,d
15,23,384,B,30.918040279941067,12.606487415218492,1.5459020139970534,0.19802224125611295,B,753.8792910054326,Correct,d
15,23,385,A,34.35603105095561,65.6762912210826,1.7178015525477803,1.0316407700758845,A,976.0786239930894,Correct,k
15,23,386,B,42.42682584867716,19.706768833572635,2.121341292433858,0.30955320096772043,B,1081.7041659902316,Correct,d
15,23,387,A,37.3395946983896,64.23333450843324,1.8669797349194797,1.008974859036348,A,761.0127909865696,Correct,k
15,23,388,B,79.97835831924161,62.1746122112177,3.99891791596208,0.9766365248127789,A,1265.0347499875352,Incorrect,k
15,23,389,B,64.9616344864975,47.253188907811925,3.2480817243248747,0.7422513556573632,B,960.8910410024691,Correct,d
15,23,390,B,81.78783328991848,67.12217125099227,4.089391664495924,1.0543526004755666,B,2684.281331981765,Correct,d
15,23,391,B,33.09113536429476,15.890965605719067,1.654556768214738,0.24961470402687552,B,879.5150829828344,Correct,d
15,23,392,A,65.74500187470143,78.68096538919283,3.2872500937350715,1.2359177142202051,A,768.8572909974027,Correct,k
15,23,393,B,54.55383788471663,40.50476140470745,2.7276918942358317,0.6362473043221816,B,861.6866240045056,Correct,d
15,23,394,B,41.51219561237377,23.447968249738263,2.075609780618689,0.36831982397492224,B,881.972915987717,Correct,d
15,23,395,B,56.98805446342605,24.402516169438893,2.849402723171303,0.3833138276350769,B,1142.466207005782,Correct,d
15,23,396,A,15.107369640300735,44.25582050857648,0.7553684820150367,0.6951688029416618,A,2331.3375409925357,Correct,k
15,23,397,B,70.03741046887694,40.02543019261691,3.501870523443847,0.6287179872494819,B,900.3276659932453,Correct,d
15,23,398,B,48.09695937817834,33.95312216984788,2.404847968908917,0.5333343958761542,B,950.858791009523,Correct,d
15,23,399,A,23.08066493077287,43.39693920164929,1.1540332465386434,0.6816775269209215,B,979.40908302553,Incorrect,d
15,23,400,A,41.07224685007641,62.492418218710306,2.05361234250382,0.9816286099048062,A,1221.2593739968725,Correct,k
15,23,401,A,63.72720727984,88.86528341921769,3.186360363992,1.3958926077449456,A,2830.5900410050526,Correct,k
15,23,402,A,34.34705281322886,55.98419448226699,1.717352640661443,0.8793976705131612,A,7222.911916003795,Correct,k
15,23,403,A,61.1813351210761,81.4761646350777,3.0590667560538054,1.2798246013011632,A,1342.373874009354,Correct,k
15,23,404,A,16.56492207055995,42.16905685803487,0.8282461035279973,0.6623899961700631,A,2161.156290996587,Correct,k
15,23,405,A,46.721979105702054,74.68711048128792,2.336098955285103,1.1731823880293168,A,2522.0938750135247,Correct,k
15,23,406,A,48.33949015572878,77.37878575321011,2.4169745077864393,1.2154631243299172,A,1657.4987079948187,Correct,k
15,23,407,B,52.14584789955695,27.277790778351406,2.6072923949778475,0.42847853557714094,B,2997.801249002805,Correct,d
15,23,408,A,16.852050696431892,44.2597198491366,0.8426025348215945,0.6952300536399495,A,1461.131791002117,Correct,k
15,23,409,B,57.79135062450659,35.74829948143372,2.88956753122533,0.5615329751459999,B,1231.6082489851397,Correct,d
15,23,410,B,54.605631686620974,25.79683515490681,2.7302815843310486,0.4052157390426107,B,723.0117080034688,Correct,d
15,23,411,B,46.28884159358676,22.50670225531435,2.314442079679338,0.35353445230914193,B,1006.7610410042107,Correct,d
15,23,412,B,73.06603431270757,55.86384226253762,3.653301715635379,0.8775071822664359,A,1031.3542910153046,Incorrect,k
15,23,413,B,43.19955464901709,26.001554046106847,2.1599777324508547,0.4084314558658362,B,974.9990829732269,Correct,d
15,23,414,A,24.50630399824926,37.83455417453459,1.2253151999124627,0.5943037872328145,B,1309.5085409877356,Incorrect,d
15,23,415,B,51.504636637807955,31.486525013566784,2.575231831890398,0.49458917834846333,B,3379.1013739828486,Correct,d
15,23,416,B,43.64802382342442,25.998960134369398,2.1824011911712207,0.408390710795544,B,849.069916002918,Correct,d
15,23,417,B,73.63989210842124,59.285857676708325,3.6819946054210617,0.9312600746945846,B,1136.0812910133973,Correct,d
15,23,418,B,57.13932733060538,30.309019698103945,2.856966366530269,0.4760929681053584,B,1041.50741599733,Correct,d
15,23,419,A,53.77502442270364,82.69157801397401,2.6887512211351816,1.29891627001224,A,1586.5272069931962,Correct,k
15,23,420,B,60.65880660997864,48.745472542772184,3.0329403304989317,0.7656920921806802,B,1006.8970830179751,Correct,d
15,23,421,A,45.01505810920537,67.48720600509161,2.2507529054602684,1.0600865529844836,A,792.9834579990711,Correct,k
15,23,422,B,85.54053587794473,69.27244789966089,4.277026793897237,1.0881290670887818,B,2114.0533330035396,Correct,d
15,23,423,A,11.769169341759746,38.79206846087279,0.5884584670879873,0.6093443864711514,A,2051.0011659935117,Correct,k
15,23,424,A,57.31575572338073,72.24522295413334,2.8657877861690366,1.1348253084483098,A,4369.118708011229,Correct,k
15,23,425,A,25.270789294491266,37.626194038180735,1.2635394647245632,0.5910308738644634,B,1222.9872489988338,Incorrect,d
15,23,426,B,67.32705279265643,53.4197457876064,3.366352639632822,0.8391154046148929,B,2282.3342079936992,Correct,d
15,23,427,B,56.20051500739789,42.03455066654211,2.8100257503698947,0.6602771778547832,B,1560.6117080023978,Correct,d
15,23,428,A,50.744180765606885,74.51414868407639,2.537209038280344,1.1704655104719597,A,1505.1975829992443,Correct,k
15,23,429,A,41.97740370567024,68.22818840158051,2.098870185283512,1.0717258772507283,A,1899.2097489826847,Correct,k
15,23,430,A,20.33363897842993,49.67532255119169,1.0166819489214967,0.7802981419576359,A,1824.9614159867633,Correct,k
15,23,431,B,32.16964147177072,17.126400159995242,1.608482073588536,0.2690208646254006,B,1282.0605819870252,Correct,d
15,23,432,B,78.35348589147874,64.0572258711788,3.9176742945739367,1.0062085510311867,A,939.8911659955047,Incorrect,k
15,23,433,B,76.83649122369461,54.5736902336004,3.8418245611847306,0.8572415215858201,B,888.2089160033502,Correct,d
15,23,434,B,53.24437374186168,37.704935230182045,2.662218687093084,0.5922677376160945,B,1882.914374989923,Correct,d
15,23,435,A,25.91378926326901,40.38325949812053,1.2956894631634504,0.6343387568365284,A,964.0981240081601,Correct,k
15,23,436,A,14.324054217415231,40.618653891200026,0.7162027108707616,0.6380363233165024,A,1207.7053750108462,Correct,k
15,23,437,A,11.831590279012644,39.07144153184797,0.5915795139506322,0.6137327684080836,A,1145.2832909999415,Correct,k
15,23,438,A,54.66756940522139,66.57152604165252,2.7333784702610693,1.0457030857535856,B,964.3010820145719,Incorrect,d
15,23,439,A,52.48588636624627,75.30076507269374,2.6242943183123133,1.1828216518103276,B,1697.9856659891084,Incorrect,d
15,23,440,B,67.68974848248297,56.065608358357146,3.3844874241241483,0.8806765166882866,A,990.2133319992572,Incorrect,k
15,23,441,B,63.00321044588251,41.93158940122596,3.1501605222941254,0.6586598660811757,B,1944.61625002441,Correct,d
15,23,442,A,21.006669563360756,42.16470029704894,1.0503334781680378,0.6623215634701215,A,5157.01095800614,Correct,k
15,23,443,A,64.25878279801394,87.87897372718803,3.2129391399006972,1.3803996913317218,B,2984.144999005366,Incorrect,d
15,23,444,B,50.54619438160712,19.178544174573613,2.527309719080356,0.30125586742693894,B,1028.215333004482,Correct,d
15,23,445,B,63.933747269580934,53.717509662343964,3.1966873634790467,0.8437926686217927,B,1219.0010829945095,Correct,d
15,23,446,A,62.233136824485044,88.44260116464646,3.111656841224252,1.389253130416127,A,1978.770749992691,Correct,k
15,23,447,B,82.18016793302674,62.355743951336436,4.109008396651337,0.9794817355332236,B,2779.6018330263905,Correct,d
15,23,448,B,63.5784920135562,43.70637582728467,3.1789246006778105,0.6865381460701602,B,1292.3496239818633,Correct,d
15,23,449,B,81.38388235336993,65.40315145452942,4.069194117668497,1.027350300655851,B,929.4225409976207,Correct,d
15,23,450,A,44.78103894366393,59.245929564546955,2.2390519471831967,0.9306328853753952,A,1888.0976660002489,Correct,k
15,23,451,A,41.68913956739824,72.19406762781884,2.084456978369912,1.1340217624616018,A,1836.3827080174815,Correct,k
15,23,452,B,35.79954629325157,16.874045374735747,1.7899773146625784,0.2650568849280533,B,1057.7145830029622,Correct,d
15,23,453,A,14.633612487128232,41.3368793149524,0.7316806243564116,0.6493181818909117,A,2037.4617080087774,Correct,k
15,23,454,A,51.565384574899355,81.70150773142072,2.5782692287449676,1.283364282381205,A,1360.1700410072226,Correct,k
15,23,455,B,77.36140059395801,59.210203828162825,3.8680700296979005,0.9300717068205528,B,923.1832490186207,Correct,d
15,23,456,A,14.78070449262049,37.15430291852789,0.7390352246310244,0.5836184254904851,A,1186.3283749844413,Correct,k
15,23,457,B,44.83282520332293,36.1184130908672,2.2416412601661464,0.567346706127949,B,766.3012489792891,Correct,d
15,23,458,B,75.86083813747945,58.375076556719456,3.7930419068739725,0.9169535583166579,B,2730.343957984587,Correct,d
15,23,459,A,33.20303202535585,62.98393456669389,1.6601516012677928,0.9893493306445287,A,1260.7737490034197,Correct,k
15,23,460,A,25.026760205937244,49.30769662896027,1.2513380102968623,0.7745234874748791,A,2675.6098740152083,Correct,k
15,23,461,B,39.08909664550614,20.287700267700796,1.954454832275307,0.3186784505962025,B,917.2173329861835,Correct,d
15,23,462,B,42.38639961859434,26.388049121709606,2.119319980929717,0.4145025063166475,B,897.7004579792265,Correct,d
15,23,463,A,34.163169605368715,61.71640877592652,1.7081584802684358,0.9694390820819769,B,1518.6474580259528,Incorrect,d
15,23,464,A,59.7538900549895,76.22966163174773,2.987694502749475,1.1974127248396722,A,1066.5614989993628,Correct,k
15,23,465,A,33.87267477254443,54.90481261030331,1.6936337386272213,0.8624427797162655,A,1010.7182909850962,Correct,k
15,23,466,A,33.671049137557944,66.43797808133684,1.683552456877897,1.0436053192984374,A,1494.2829580104444,Correct,k
15,23,467,A,65.40863264517189,81.64788921672096,3.2704316322585947,1.2825220447218193,A,1790.926916000899,Correct,k
15,23,468,A,61.81522965543063,73.14629482486907,3.0907614827715317,1.148979312295609,A,1702.0168740127701,Correct,k
15,23,469,A,17.778083724227113,44.17518835913806,0.8889041862113557,0.6939022361000673,A,905.6542490143329,Correct,k
15,23,470,A,65.6112297971527,80.79314049405181,3.280561489857635,1.269095683182806,A,2685.9465410234407,Correct,k
15,23,471,A,38.31844973138073,71.43108576473469,1.9159224865690365,1.122036871382165,A,1505.150457000127,Correct,k
15,23,472,B,52.50331225328937,45.51201704650224,2.6251656126644685,0.7149010920167242,A,1996.2113329966087,Incorrect,k
15,23,473,A,18.15833032624431,47.41684574803893,0.9079165163122156,0.7448220712921977,A,1530.5928739835508,Correct,k
15,23,474,A,28.55306139234913,48.30789973635674,1.4276530696174563,0.758818714610453,A,1234.1305000009015,Correct,k
15,23,475,B,74.19442497232735,59.793177572264966,3.7097212486163675,0.939229036979088,B,2674.2402499949094,Correct,d
15,23,476,A,26.679468923398822,47.59985161616062,1.333973446169941,0.7476967207464723,A,3650.828832993284,Correct,k
15,23,477,A,46.625203926215335,61.42637196331626,2.3312601963107666,0.9648831944831421,A,1016.5375829965342,Correct,k
15,23,478,A,19.06946517296385,34.640115198161276,0.9534732586481924,0.544125657130238,A,2939.244790992234,Correct,k
15,23,479,B,77.57966699740606,46.66550901566626,3.8789833498703037,0.7330201014982268,B,1203.7127910007257,Correct,d
15,23,480,A,44.797728864149036,52.24481292009828,2.239886443207452,0.8206596022897693,A,1108.8300409901422,Correct,k
15,23,481,B,61.11898120741986,39.58675044387302,3.055949060370993,0.6218272218698198,B,2940.1381660136394,Correct,d
15,23,482,B,72.18380628474553,61.68048863528739,3.609190314237276,0.9688748498322381,B,949.6465410047676,Correct,d
15,23,483,B,39.601629569557375,23.003376792190366,1.9800814784778686,0.361336197690516,B,2663.6089159874246,Correct,d
15,23,484,A,45.20787987383318,68.93678199133964,2.260393993691659,1.0828564393305689,A,1399.837499979185,Correct,k
15,23,485,A,34.78112537506744,58.29540377610357,1.739056268753372,0.9157020612052883,A,1063.2454989827238,Correct,k
15,23,486,A,55.65756974735723,84.29864315697199,2.7828784873678614,1.3241599902476533,A,1247.5384160061367,Correct,k
15,23,487,B,51.70512974261677,43.56814531611643,2.5852564871308386,0.6843668262782195,B,947.161457996117,Correct,d
15,23,488,B,54.25171170337505,40.9710438621935,2.712585585168753,0.6435716520368614,A,1409.2500830010977,Incorrect,k
15,23,489,B,62.97001185551273,37.60775344376729,3.148500592775637,0.5907412096847777,B,809.4737490173429,Correct,d
15,23,490,B,56.605246872790985,37.36629116515872,2.830262343639549,0.5869483290817992,B,1379.8139160207938,Correct,d
15,23,491,B,54.36813964993201,27.40231505569731,2.718406982496601,0.4304345583516583,B,1504.5605410123244,Correct,d
15,23,492,A,35.25163979078277,65.60990537138572,1.7625819895391386,1.0305979835873345,A,1380.5122910125647,Correct,k
15,23,493,A,17.383903911129902,36.72033703053045,0.8691951955564952,0.5768017052622785,A,1226.954874000512,Correct,k
15,23,494,B,71.70744774031537,62.02813702095565,3.5853723870157688,0.9743356979044767,B,999.7334159852471,Correct,d
15,23,495,A,26.93183595198748,46.230949421897414,1.346591797599374,0.7261940553615711,A,764.0037910023239,Correct,k
15,23,496,A,63.071246110557006,83.96935136269497,3.15356230552785,1.3189874868387128,A,1703.5431659896858,Correct,k
15,23,497,A,64.6465639900591,83.23133250891075,3.232328199502955,1.307394713792417,A,1607.908915990265,Correct,k
15,23,498,B,71.75697707481865,44.43816433580385,3.5878488537409328,0.6980330530818866,B,668.6911660071928,Correct,d
15,23,499,B,70.79966470686091,48.65625197374047,3.5399832353430454,0.7642906187595846,B,964.0108740131836,Correct,d
15,23,500,A,34.29111036266201,63.69972235665083,1.7145555181331005,1.0005928989568187,A,956.2038739968557,Correct,k
15,23,501,A,19.438340259677698,48.54416343953703,0.971917012983885,0.7625299361815588,B,785.952581994934,Incorrect,d
15,23,502,A,28.871882676775936,52.198347451618076,1.4435941338387968,0.8199297244176541,A,1909.094916016329,Correct,k
15,23,503,A,30.184453316721424,48.71321194629204,1.5092226658360712,0.7651853439161681,A,1841.2019159877673,Correct,k
15,23,504,B,39.96451223092235,21.846761969157207,1.9982256115461177,0.34316813453514583,B,774.6681240096223,Correct,d
15,23,505,B,69.13137556513254,56.110632744735305,3.456568778256627,0.8813837580956766,A,957.5973750033882,Incorrect,k
15,23,506,A,41.004762242831866,58.14154955323614,2.0502381121415936,0.9132853247238677,A,1405.403248994844,Correct,k
15,23,507,B,74.97083999683906,49.10061927853958,3.748541999841953,0.7712707240608466,B,756.9638740096707,Correct,d
15,23,508,B,63.07597184535319,32.862656045904785,3.153798592267659,0.5162053940563134,A,865.2205000107642,Incorrect,k
15,23,509,B,62.134086956308266,33.117178881414304,3.106704347815413,0.5202034294073511,B,799.6270830044523,Correct,d
15,23,510,A,65.0046961492607,78.88407399837637,3.2502348074630345,1.239108136792664,A,959.3165830010548,Correct,k
15,23,511,B,88.95378901153933,68.69143396589321,4.447689450576966,1.0790025215589925,B,880.2479580044746,Correct,d
15,23,512,A,37.024457156974044,62.43211175421609,1.8512228578487022,0.9806813181757111,A,2012.983291002456,Correct,k
15,23,513,B,42.52794054722989,33.45296673701589,2.1263970273614943,0.5254779727089642,B,919.1105820063967,Correct,d
15,23,514,B,55.35447056387227,38.31760492766482,2.7677235281936134,0.6018915307195392,B,2865.5586240056437,Correct,d
15,23,515,A,40.45760353578541,58.065195165651176,2.0228801767892706,0.9120859528083364,A,1040.6478740042076,Correct,k
15,23,516,A,18.79851782418915,45.184550470243586,0.9399258912094575,0.7097572590653723,A,1390.4427489906084,Correct,k
15,23,517,A,52.62651732944166,81.28366574219913,2.6313258664720833,1.2768008357627059,A,1270.8780829852913,Correct,k
15,23,518,A,32.622459107701964,50.716050486642686,1.631122955385098,0.7966458581396286,A,1332.5576659990475,Correct,k
15,23,519,B,33.47656242171892,17.702916952507024,1.6738281210859458,0.2780767692255314,B,4662.256957992213,Correct,d
15,23,520,B,39.09610648515621,20.58900780810402,1.9548053242578107,0.32341137837321243,B,2673.0234989954624,Correct,d
15,23,521,A,28.26525436538693,40.98647280507619,1.4132627182693467,0.643814009304926,B,1997.2326660063118,Incorrect,d
15,23,522,A,63.782932735452135,85.75422922673026,3.189146636772607,1.3470242827647545,A,1074.636956996983,Correct,k
15,23,523,B,57.48035029145665,28.16498051759712,2.8740175145728326,0.4424144794129138,B,747.0341250009369,Correct,d
15,23,524,A,38.962868633597125,48.751409339233824,1.948143431679856,0.765785347161429,A,870.0784999819007,Correct,k
15,23,525,B,49.343231073946455,32.468527832676806,2.467161553697323,0.5100144425600658,B,943.7646250007674,Correct,d
15,23,526,A,18.847101783220428,36.11177080301544,0.9423550891610213,0.5672423693143585,A,917.5497909891419,Correct,k
15,23,527,B,36.80166205594436,16.106011395823277,1.840083102797218,0.2529926353987595,B,1637.3944990045857,Correct,d
15,23,528,A,23.30101305815812,34.23880170722653,1.1650506529079059,0.5378218395557026,A,995.7953319826629,Correct,k
15,23,529,B,76.72031623771198,44.491158759052446,3.8360158118855994,0.6988654875356818,B,1084.8404160060454,Correct,d
15,23,530,B,62.958822363426684,47.65617717659425,3.147941118171334,0.7485814805808103,B,1133.8652909907978,Correct,d
15,23,531,A,17.283144399586845,47.043758351401664,0.8641572199793423,0.7389616281700847,A,700.7442080066539,Correct,k
15,23,532,B,46.307494502310874,36.97752057506284,2.315374725115544,0.5808415349329142,B,855.0514579983428,Correct,d
15,23,533,A,62.23468754579501,71.48363715917297,3.1117343772897503,1.1228623467556806,A,817.7595410088543,Correct,k
15,23,534,A,56.82909946821389,76.37592902954297,2.841454973410695,1.1997102877515382,A,1150.174040987622,Correct,k
15,23,535,A,26.68425064766764,47.6848913429138,1.3342125323833818,0.7490325216506276,B,634.368708007969,Incorrect,d
15,23,536,B,49.382121415913936,20.31608877291318,2.469106070795697,0.3191243761933106,A,1948.7218750000466,Incorrect,k
15,23,537,B,65.47212480529552,43.014090233950164,3.2736062402647756,0.6756637493991314,B,1021.5433750126977,Correct,d
15,23,538,B,55.918542708023864,45.51041760470238,2.7959271354011936,0.714875968043683,B,1008.0618740175851,Correct,d
15,23,539,B,66.83880474142697,47.35781063592293,3.341940237071349,0.7438947499195603,B,1817.7963750204071,Correct,d
15,23,540,B,54.923405711148376,37.238218711353916,2.7461702855574184,0.5849365716817971,B,1145.891833002679,Correct,d
15,23,541,B,70.12057570760399,53.07164473200274,3.5060287853801992,0.8336474460199363,B,1153.1951659999322,Correct,d
15,23,542,B,48.076902518166406,30.706944858482085,2.4038451259083202,0.48234356190797095,B,1130.4532490030397,Correct,d
15,23,543,A,53.08584018508377,79.75620104109652,2.6542920092541884,1.252807476344697,A,1024.779540981399,Correct,k
15,23,544,A,44.59571577583166,52.91972118422983,2.229785788791583,0.8312610365119828,B,866.3368329871446,Incorrect,d
15,23,545,A,46.65908226041628,67.66377912290768,2.332954113020814,1.062860157033246,A,1235.1920820074156,Correct,k
15,23,546,A,64.58147097607053,85.69661250088441,3.2290735488035267,1.3461192413515484,A,1638.438458001474,Correct,k
15,23,547,B,66.65802624095708,35.419164804641305,3.3329013120478543,0.5563629397327365,B,1102.5773329893127,Correct,d
15,23,548,A,55.10319146964212,78.53750394578758,2.7551595734821057,1.2336642271368283,A,940.8033740182873,Correct,k
15,23,549,B,50.82689078412586,32.09683369659477,2.541344539206293,0.5041758847235773,B,1056.120873981854,Correct,d
15,23,550,B,81.56864312735807,62.47550369462458,4.078432156367904,0.9813629171817728,A,922.6115820056293,Incorrect,k
15,23,551,B,58.846854452872066,45.01150014507782,2.9423427226436036,0.7070389909141619,B,846.7121239809785,Correct,d
15,23,552,A,19.82614540930018,49.93746108288504,0.9913072704650091,0.7844158043845891,A,838.57895800611,Correct,k
15,23,553,B,53.02521626399568,31.3579178820096,2.651260813199784,0.4925690222499668,B,646.6085409920197,Correct,d
15,23,554,A,42.29869029641458,52.22562297538656,2.114934514820729,0.8203581673431235,A,718.1199160113465,Correct,k
15,23,555,B,38.99702171974934,29.3298890504396,1.9498510859874671,0.46071281985732376,B,640.0977489829529,Correct,d
15,23,556,B,77.28009600664907,61.298884802390134,3.8640048003324536,0.9628806308421793,A,815.5580410093535,Incorrect,k
15,23,557,A,39.40802588385363,53.92220833437562,1.9704012941926816,0.8470080678430638,B,1305.7832070044242,Incorrect,d
15,23,558,B,52.924111057238306,30.439569156024746,2.646205552861915,0.478143634195029,B,1200.420248991577,Correct,d
15,23,559,B,61.632459031617614,34.34482232812221,3.0816229515808806,0.5394872075743772,B,1367.694123997353,Correct,d
15,23,560,B,35.20816044560125,17.643365836085025,1.7604080222800627,0.27714134247620925,B,828.8976239855401,Correct,d
15,23,561,B,48.99108671709679,40.17246751223241,2.4495543358548395,0.6310276440650198,B,721.9744159956463,Correct,d
15,23,562,B,47.58617180304505,28.167270770091726,2.3793085901522524,0.4424504546149734,B,787.0706660032738,Correct,d
15,23,563,A,25.788348657563148,38.28033303306822,1.2894174328781574,0.601306065168289,B,576.3136660098098,Incorrect,d
15,23,564,B,40.69993218751447,23.564913014311625,2.0349966093757232,0.3701567880412195,B,1277.5117910059635,Correct,d
15,23,565,A,49.794976144118905,67.9153169859291,2.4897488072059453,1.0668113045460847,A,905.1571659801994,Correct,k
15,23,566,A,44.97579912962442,52.13580756677539,2.248789956481221,0.8189473502037636,A,1961.1252910108306,Correct,k
15,23,567,B,68.67513480063482,40.259578378070955,3.4337567400317415,0.6323959783458509,B,784.5461250108201,Correct,d
15,23,568,B,47.20971948487166,40.071175122846405,2.3604859742435833,0.6294365469332216,B,698.1852909957524,Correct,d
15,23,569,A,26.117371177914443,58.74932900346521,1.305868558895722,0.9228323020030803,A,861.4446239953395,Correct,k
15,23,570,A,34.626618111409734,45.284380073226146,1.7313309055704866,0.7113253788020765,B,1245.141124993097,Incorrect,d
15,23,571,A,39.301177150524936,61.638348522392796,1.9650588575262469,0.9682129144867825,A,1026.7862080072518,Correct,k
15,23,572,A,22.025331574995022,47.207216965278405,1.101266578749751,0.7415292300726903,A,1659.3620830099098,Correct,k
15,23,573,A,53.43888164261875,83.18284928093753,2.6719440821309375,1.3066331410283019,A,1064.851624018047,Correct,k
15,23,574,B,78.65153304456061,51.51754311748793,3.9325766522280303,0.8092356749444773,B,1599.5699990016874,Correct,d
15,23,575,A,33.781628797202984,55.11644560253913,1.6890814398601492,0.8657671029845919,A,1757.8376659948844,Correct,k
15,23,576,B,54.093516517444556,27.16831919397298,2.7046758258722274,0.42675895995084046,B,2529.6146660111845,Correct,d
15,23,577,A,28.124841046154568,43.61834097428053,1.4062420523077284,0.6851552978328719,A,1041.6662080097012,Correct,k
15,23,578,B,44.155574139110996,33.37511280391062,2.20777870695555,0.5242550459874812,B,747.754123993218,Correct,d
15,23,579,A,46.742970133633165,67.84252030890394,2.337148506681658,1.0656678170173448,A,1120.9700829931535,Correct,k
15,23,580,B,37.913433067746986,21.79309071822514,1.8956716533873492,0.34232506849696004,B,743.2842909765895,Correct,d
15,23,581,B,38.02538885222937,20.19585628688703,1.9012694426114682,0.3172357687191977,B,2926.17558297934,Correct,d
15,23,582,A,52.478234494166536,80.60208126228056,2.623911724708327,1.266094531788141,A,1335.3126660222188,Correct,k
15,23,583,B,73.21434896469543,50.60850798920668,3.6607174482347715,0.7949565845401604,B,3059.2687079915777,Correct,d
15,23,584,A,42.143366493215034,74.79850321043628,2.1071683246607518,1.1749321409270959,A,3155.9937069832813,Correct,k
15,23,585,B,40.46131025544105,28.31887690209171,2.0230655127720523,0.44483187816762493,B,2944.4626250187866,Correct,d
15,23,586,B,57.81594673288593,44.27165698160052,2.890797336644296,0.6954175616782174,B,2742.295374016976,Correct,d
15,23,587,A,61.98136810924133,82.88791732649506,3.0990684054620665,1.3020003607213748,A,728.810706990771,Correct,k
15,23,588,A,25.06208129462621,37.961946582338555,1.2531040647313105,0.5963048624952147,A,767.2416660061572,Correct,k
15,23,589,A,49.76888876197911,59.89842804237739,2.4884444380989557,0.9408823074975482,A,767.2002489853185,Correct,k
15,23,590,A,43.22739598897422,56.69574377502112,2.1613697994487113,0.8905746606670779,A,1201.0333740036003,Correct,k
15,23,591,B,78.71465055247342,55.266989468802066,3.9357325276236708,0.8681318405060653,A,814.2837499908637,Incorrect,k
15,23,592,B,48.89157792539978,20.652233724574735,2.4445788962699893,0.32440452874671677,B,828.8689579931088,Correct,d
15,23,593,A,34.61582227230898,50.61374375975039,1.730791113615449,0.7950388278315402,A,894.34558301582,Correct,k
15,23,594,A,36.101720700857214,58.88558174711249,1.8050860350428608,0.9249725550954491,A,608.709500025725,Correct,k
15,23,595,B,44.37174983633067,16.86872594086123,2.2185874918165336,0.26497332745614605,B,606.2543749867473,Correct,d
15,23,596,A,68.55351856547495,89.29069448076623,3.4276759282737475,1.4025749490735293,A,1278.939874988282,Correct,k
15,23,597,A,56.5375544670065,68.55922124774827,2.826877723350325,1.0769257290388161,A,1259.236540994607,Correct,k
15,23,598,B,42.97444003013656,14.010396843797185,2.1487220015068282,0.22007479899175428,B,646.7143330082763,Correct,d
15,23,599,B,59.37230345071611,47.91743061368656,2.9686151725358054,0.7526852399742817,B,1056.115373998182,Correct,d
