subject,day,trial,cat,x,y,xt,yt,resp,rt,fb,resp_key
15,24,0,B,62.55813246655125,40.09447758089432,3.1279066233275628,0.6298025810882913,B,1109.9649580137338,Correct,d
15,24,1,B,68.75269816187227,56.38966692674009,3.4376349080936137,0.88576681677711,B,1431.8742920004297,Correct,d
15,24,2,A,40.59945602758732,49.16091001366904,2.0299728013793663,0.7722177687136575,A,1407.6937490026467,Correct,k
15,24,3,A,15.556758760981218,35.540914937454716,0.7778379380490609,0.5582753863468374,A,745.3087489993777,Correct,k
15,24,4,B,65.81633139098925,33.60689361486601,3.2908165695494627,0.527895850452184,B,692.087207979057,Correct,d
15,24,5,A,15.9999070488117,44.1331749568395,0.7999953524405851,0.69324229112,A,634.4220410101116,Correct,k
15,24,6,A,17.82155213444343,38.75737062454151,0.8910776067221715,0.6087993541325823,A,1856.5617490094155,Correct,k
15,24,7,B,71.8984416835806,39.640550700683434,3.59492208417903,0.6226723143276041,B,736.1599169962574,Correct,d
15,24,8,B,73.11280603346857,40.53497483986861,3.655640301673429,0.6367218958518917,A,676.1167910008226,Incorrect,k
15,24,9,A,25.5869032480975,39.603634200838115,1.279345162404875,0.6220924313040526,A,1472.670500021195,Correct,k
15,24,10,B,77.96871696291849,59.99825895907124,3.8984358481459247,0.942450447869981,B,978.8161659962498,Correct,d
15,24,11,A,50.723206773982085,66.39377286480524,2.5361603386991045,1.0429109453809073,A,714.0702079923358,Correct,k
15,24,12,B,41.70581869507904,29.446936936133397,2.085290934753952,0.46255140374639314,B,641.7321659973823,Correct,d
15,24,13,B,73.89411802523992,49.73085559068862,3.6947059012619956,0.7811704529022113,B,1168.625541991787,Correct,d
15,24,14,A,23.822817759405034,53.35914018620711,1.1911408879702519,0.8381634140542809,A,647.765124012949,Correct,k
15,24,15,B,53.61940131790418,26.563674954401904,2.680970065895209,0.417261230445481,B,735.7410410186276,Correct,d
15,24,16,B,67.58071888290512,48.48443946567438,3.3790359441452558,0.7615917941939082,B,2074.555541999871,Correct,d
15,24,17,A,18.042474319067736,43.80148066701915,0.9021237159533868,0.6880320493993136,A,674.5375000173226,Correct,k
15,24,18,A,20.087783656265835,47.872815786770865,1.0043891828132916,0.7519844319118841,A,1262.6494989963248,Correct,k
15,24,19,B,61.99264293208151,48.99673882377249,3.0996321466040753,0.7696389736931072,B,1474.8202499758918,Correct,d
15,24,20,A,44.7787151993135,76.27882717412945,2.238935759965675,1.1981850153734528,A,924.4342500169296,Correct,k
15,24,21,A,16.1337911919984,33.9359148380808,0.8066895595999201,0.5330641037408175,A,976.7612910072785,Correct,k
15,24,22,B,70.09202892129846,60.13972594881224,3.5046014460649233,0.9446726061484598,B,1906.7328329838347,Correct,d
15,24,23,B,65.39021207177099,56.82015045229382,3.2695106035885493,0.8925288361839652,B,1326.8466239969712,Correct,d
15,24,24,B,69.72284364741796,58.523013996916085,3.486142182370898,0.919277354193221,A,715.5460419890005,Incorrect,k
15,24,25,A,52.90738614023356,64.64003154412097,2.6453693070116784,1.0153632411341147,A,1117.7758749981876,Correct,k
15,24,26,A,33.05844344520281,59.474455985290035,1.6529221722601406,0.9342225699981832,A,1793.0809159879573,Correct,k
15,24,27,B,47.37706703254884,28.92989881016877,2.368853351627442,0.4544297878556115,B,937.3793750128243,Correct,d
15,24,28,B,76.05066705745776,48.49123234075909,3.8025333528728877,0.7616984964262228,B,1047.3747499927413,Correct,d
15,24,29,A,23.753653414180352,49.007419209495154,1.1876826707090176,0.7698067407997263,A,628.6160409799777,Correct,k
15,24,30,B,53.322778578446574,41.12064163325494,2.6661389289223285,0.6459215283296615,B,4981.98300000513,Correct,d
15,24,31,A,69.61309972284946,86.04447698989172,3.480654986142473,1.351583483967099,A,2213.607667014003,Correct,k
15,24,32,A,42.94019317529341,51.6136063124206,2.1470096587646705,0.8107446320818815,B,5930.771123996237,Incorrect,d
15,24,33,B,66.77723856972767,47.70510595689026,3.3388619284863834,0.7493500520644454,B,1428.6499159934465,Correct,d
15,24,34,B,44.53657762346208,18.70589305106277,2.226828881173104,0.2938314809402757,B,805.8375830005389,Correct,d
15,24,35,B,41.77010397029214,33.14569708032436,2.088505198514607,0.5206513922282984,B,1113.7729170150124,Correct,d
15,24,36,A,39.017345180440415,48.179621315932295,1.9508672590220208,0.7568037218943555,B,1488.611208013026,Incorrect,d
15,24,37,B,52.149357721918356,27.47430173869831,2.6074678860959177,0.4315653225240194,B,819.3052079877816,Correct,d
15,24,38,B,75.64009924426536,54.083205352968484,3.782004962213268,0.8495370030973698,B,776.206957991235,Correct,d
15,24,39,A,16.07434669084843,44.188499265326456,0.8037173345424214,0.6941113233255378,A,1357.111499994062,Correct,k
15,24,40,A,60.69883829524452,83.7736698419065,3.0349419147622263,1.3159137286979514,A,997.2934999968857,Correct,k
15,24,41,A,19.123250016378318,36.09833347078472,0.956162500818916,0.5670312961932592,A,839.444540994009,Correct,k
15,24,42,A,42.231711095474104,68.87595661885105,2.1115855547737055,1.0819009966137587,A,602.3408329929225,Correct,k
15,24,43,B,51.611468643227724,31.705424624715967,2.5805734321613865,0.4980276453997631,B,707.7827919856645,Correct,d
15,24,44,B,83.48798001054544,67.23110616732824,4.174399000527273,1.0560637461399691,B,1302.7766250015702,Correct,d
15,24,45,A,22.22029457634933,35.89932118896644,1.1110147288174665,0.5639052185805868,A,1684.1512079990935,Correct,k
15,24,46,B,51.584022968747874,40.64762929580414,2.579201148437394,0.6384914679076977,A,2492.050915985601,Incorrect,k
15,24,47,B,84.7090729296907,66.89929798876585,4.235453646484535,1.050851715459106,B,3461.7894160037395,Correct,d
15,24,48,A,55.316954459751564,78.8049341757733,2.765847722987578,1.237865011366183,A,1313.372041011462,Correct,k
15,24,49,A,16.487281786233513,35.81094186069871,0.8243640893116756,0.5625169593385113,A,894.2654580168892,Correct,k
15,24,50,B,84.10279059335005,66.697041262954,4.205139529667503,1.047674674239358,B,1358.345624001231,Correct,d
15,24,51,A,63.84307487518963,89.11555477286582,3.192153743759482,1.3998238609750704,A,1801.5653750044294,Correct,k
15,24,52,A,31.725778926338386,51.26067507891257,1.5862889463169194,0.8052008012298256,A,1534.7960419894662,Correct,k
15,24,53,A,64.67111964486192,75.1086199864554,3.2335559822430957,1.179803443853579,A,494.9827490199823,Correct,k
15,24,54,B,60.29401527594164,51.93392972569813,3.014700763797082,0.8157762604915091,A,3049.3826669990085,Incorrect,k
15,24,55,B,46.528088183519266,19.312030462899596,2.326404409175963,0.30335266514073833,B,1337.3119159950875,Correct,d
15,24,56,B,77.6729516179298,53.41570073998736,3.88364758089649,0.8390518651554758,A,779.2086249974091,Incorrect,k
15,24,57,B,43.84905173264974,17.426002507608477,2.192452586632487,0.2737270072967005,B,1661.6359580075368,Correct,d
15,24,58,A,31.7877775325017,55.80435077204551,1.589388876625085,0.8765726921190304,A,3829.70658299746,Correct,k
15,24,59,B,48.05899450378855,18.983556524380553,2.402949725189427,0.29819300858000264,B,2062.2985410154797,Correct,d
15,24,60,A,41.0784074195181,69.41069290047017,2.053920370975905,1.0903006144834713,A,2736.1359159986023,Correct,k
15,24,61,B,66.83949682264982,43.39007028590608,3.341974841132491,0.6815696302447366,B,1519.209124991903,Correct,d
15,24,62,A,29.50651596181481,39.60461593729878,1.4753257980907404,0.6221078523843154,A,2171.3700409745798,Correct,k
15,24,63,B,76.89288354131773,59.29418334338449,3.844644177065886,0.9313908539609149,B,1456.5838330017868,Correct,d
15,24,64,B,30.719480250794735,12.890575730157423,1.5359740125397368,0.20248469007202724,B,1271.895666985074,Correct,d
15,24,65,B,59.666007300323564,44.8901215236006,2.9833003650161785,0.7051323799864835,B,3511.5440410154406,Correct,d
15,24,66,B,40.04519866776864,24.03166651928787,2.002259933388432,0.37748853495257284,B,4205.428083019797,Correct,d
15,24,67,B,61.09099503240396,43.269684736123736,3.0545497516201983,0.6796786184507636,B,872.4519580136985,Correct,d
15,24,68,A,43.23998137824132,59.49269362499316,2.1619990689120656,0.9345090461727341,A,953.7278749921825,Correct,k
15,24,69,A,38.14654885620804,63.57777791986948,1.907327442810402,0.9986774002231266,A,2152.1154580113944,Correct,k
15,24,70,B,59.5665449547059,35.16600932198385,2.978327247735295,0.5523863827100732,B,995.3942499996629,Correct,d
15,24,71,A,58.534088381219235,73.37055129490557,2.926704419060962,1.1525019246895418,A,918.7296240124851,Correct,k
15,24,72,A,17.994332003471165,44.47358077936639,0.8997166001735581,0.6985893732764482,A,1067.3603749892209,Correct,k
15,24,73,B,48.287718135320844,28.29896425312069,2.4143859067660425,0.44451909100902065,B,7553.048750007292,Correct,d
15,24,74,A,51.95726576179002,78.67692807915887,2.597863288089501,1.23585429630249,A,1421.9098330067936,Correct,k
15,24,75,B,52.7987405540233,36.773212310097065,2.639937027701165,0.5776322682114934,B,1208.0349159950856,Correct,d
15,24,76,A,37.17916061491454,55.52005267763165,1.8589580307457267,0.8721069480948297,A,795.7373739918694,Correct,k
15,24,77,A,41.743749860045554,60.37360006337074,2.087187493002278,0.9483462921492689,A,1446.9252490089275,Correct,k
15,24,78,A,30.129670890491923,60.2958534305426,1.506483544524596,0.9471250508965978,A,726.777999982005,Correct,k
15,24,79,B,50.42509979563779,37.96296747628481,2.521254989781889,0.596320898659823,B,1847.2914999874774,Correct,d
15,24,80,B,73.83908765203958,55.2852191617409,3.691954382601979,0.8684181918531343,B,1736.0622079868335,Correct,d
15,24,81,A,16.49993899269711,46.11230538224985,0.8249969496348555,0.7243303991448261,A,1014.9092499923427,Correct,k
15,24,82,A,43.931869740725666,61.03246790207454,2.1965934870362833,0.9586957639580613,A,3668.5519159946125,Correct,k
15,24,83,A,17.26870245828408,43.65085709187193,0.863435122914204,0.6856660598136138,B,1064.944458019454,Incorrect,d
15,24,84,B,49.41955780698348,26.73121290707989,2.470977890349174,0.4198929104521341,B,1585.4110829823185,Correct,d
15,24,85,B,32.71461456081106,18.064190964417147,1.635730728040553,0.2837516481342801,B,876.330916013103,Correct,d
15,24,86,A,63.769400117160316,87.00100035219545,3.188470005858016,1.366608517807101,A,1126.241582998773,Correct,k
15,24,87,B,82.49345675895499,58.38077234821503,4.12467283794775,0.9170430276002524,B,1051.6936250205617,Correct,d
15,24,88,A,34.33418287284511,57.81809793358303,1.7167091436422555,0.9082045585633984,A,1247.0082919753622,Correct,k
15,24,89,A,17.48890621325044,40.732437795700534,0.8744453106625221,0.6398236367088802,A,1318.9750000019558,Correct,k
15,24,90,B,68.27993937845993,37.01466683576546,3.413996968922996,0.5814250270315726,B,1922.2821239964105,Correct,d
15,24,91,B,34.051622099285524,22.05825559673616,1.702581104964276,0.34649026866856136,A,2037.919750000583,Incorrect,k
15,24,92,A,42.102442692786155,51.55340645203385,2.105122134639308,0.8097990148861909,A,945.6606250023469,Correct,k
15,24,93,B,53.64291181401632,36.6023369757748,2.6821455907008165,0.5749481647365609,B,1274.3344990012702,Correct,d
15,24,94,A,40.4219548967216,52.973582607940806,2.02109774483608,0.8321070897771945,A,1360.4621239937842,Correct,k
15,24,95,A,25.229853510850965,40.98182761915092,1.2614926755425484,0.6437410428950391,B,1175.7587500032969,Incorrect,d
15,24,96,A,62.67264249807094,83.77884585395664,3.1336321249035475,1.3159950333051094,A,1023.1152499909513,Correct,k
15,24,97,B,69.30516955415784,39.065443568965414,3.465258477707892,0.6136385526274419,B,659.2361670045648,Correct,d
15,24,98,B,57.80332862468668,44.580261200569566,2.890166431234334,0.7002651054141172,B,767.8311660129111,Correct,d
15,24,99,A,62.470500506606214,74.80626539742029,3.1235250253303106,1.1750540690751197,A,1656.6034170100465,Correct,k
15,24,100,A,58.46305616810895,72.76940822067193,2.9231528084054474,1.1430591913606982,A,1581.340958015062,Correct,k
15,24,101,B,61.71519732588879,37.13743516194837,3.0857598662944397,0.5833534673897213,B,722.918750019744,Correct,d
15,24,102,B,61.420912376193016,33.28002360836324,3.071045618809651,0.5227613883966441,B,800.8408739988226,Correct,d
15,24,103,A,65.35696321939142,82.67908923940853,3.2678481609695713,1.2987200968001036,A,646.1854579974897,Correct,k
15,24,104,A,34.61565516780545,48.152851243683315,1.7307827583902724,0.7563832185827882,A,1144.5699579780921,Correct,k
15,24,105,A,49.579500583289295,64.72875535874134,2.4789750291644648,1.0167569115551638,A,1175.2581659820862,Correct,k
15,24,106,B,48.83220454508278,38.779900597845035,2.4416102272541393,0.609153254125662,B,1490.6656660023145,Correct,d
15,24,107,A,44.42843599157995,60.90108017115558,2.2214217995789975,0.9566319303069268,A,722.0379159844015,Correct,k
15,24,108,B,45.430911566568874,24.796779293647575,2.271545578328444,0.38950689830805363,B,890.0599580083508,Correct,d
15,24,109,A,49.52948961001985,62.56883307193606,2.4764744805009924,0.9828289316124021,A,2288.7771250098012,Correct,k
15,24,110,B,37.94429475119142,19.775683643848097,1.8972147375595712,0.3106357122761451,B,1348.9849579927977,Correct,d
15,24,111,A,58.07405033318767,73.15076469331173,2.9037025166593833,1.1490495248249186,A,910.8059580030385,Correct,k
15,24,112,A,33.582850832136344,45.01315575853611,1.679142541606817,0.7070649972295506,A,2175.097250001272,Correct,k
15,24,113,A,31.452941464181478,40.85280554644895,1.572647073209074,0.6417143689162818,A,1012.9774170054588,Correct,k
15,24,114,A,56.08988592406669,65.62340825887316,2.804494296203335,1.0308100864479983,A,930.9751660039183,Correct,k
15,24,115,A,35.05217755275623,49.807711562270946,1.7526088776378115,0.7823777036807491,A,979.3248740024865,Correct,k
15,24,116,B,70.41442845148065,59.40038484867411,3.5207214225740326,0.9330590633050051,A,7509.667082980741,Incorrect,k
15,24,117,B,72.52185268243498,47.078892829461175,3.626092634121749,0.739513519260882,B,2108.542917005252,Correct,d
15,24,118,B,54.8871410723869,47.459375332916736,2.7443570536193453,0.7454901244492592,B,6785.204165993491,Correct,d
15,24,119,B,69.97958690460341,36.92148105215963,3.4989793452301705,0.5799612681655971,B,964.6239579888061,Correct,d
15,24,120,A,57.485471622818224,68.96001732478838,2.8742735811409115,1.0832214190949003,A,2821.8867079995107,Correct,k
15,24,121,A,55.76164255383461,78.87954997186975,2.7880821276917307,1.2390370735504748,A,2742.3314999905415,Correct,k
15,24,122,B,88.20471969798452,67.18364656436376,4.410235984899225,1.0553182524398916,A,1630.701374990167,Incorrect,k
15,24,123,A,26.580973012051864,58.44530673356356,1.3290486506025931,0.9180567313548268,A,1293.3809579990339,Correct,k
15,24,124,A,43.144765164866584,74.50888669211513,2.1572382582433294,1.170382855295516,B,1687.750999990385,Incorrect,d
15,24,125,B,82.06933235016479,68.33629871671225,4.103466617508239,1.0734240701097042,A,1254.2152919922955,Incorrect,k
15,24,126,B,34.20446944973746,15.520983124441926,1.710223472486873,0.24380303280118956,B,864.0051249822136,Correct,d
15,24,127,B,53.5775973559765,41.899965409898584,2.678879867798825,0.6581631175870192,A,823.99758300744,Incorrect,k
15,24,128,A,20.73231400710488,51.29222487306107,1.0366157003552439,0.8056963842374216,A,888.0788740061689,Correct,k
15,24,129,A,29.711924489461246,39.91568362314743,1.4855962244730623,0.6269940921674718,A,3266.3642919796985,Correct,k
15,24,130,A,59.71006091616277,82.18597409194535,2.985503045808138,1.2909742621768832,A,858.1766249844804,Correct,k
15,24,131,B,67.36470463873009,51.991600542369206,3.368235231936504,0.8166821515614109,B,1158.8869160041213,Correct,d
15,24,132,A,36.386171602942845,62.20861085253559,1.8193085801471423,0.9771705742217603,A,843.5449170065112,Correct,k
15,24,133,A,30.498481746467764,40.774898848654125,1.5249240873233882,0.6404906133689935,A,1384.6993740007747,Correct,k
15,24,134,A,43.18954716463214,56.52711834091386,2.159477358231607,0.887925898542079,A,2919.2845409852453,Correct,k
15,24,135,B,48.27768813519731,23.50494950462646,2.4138844067598653,0.36921488343366765,B,1924.7549580177292,Correct,d
15,24,136,A,47.67717033682296,67.9533532364785,2.383858516841148,1.0674087765725655,A,704.1335420217365,Correct,k
15,24,137,B,34.92837735624757,16.609562698060987,1.7464188678123787,0.2609024007578373,B,853.0554989993107,Correct,d
15,24,138,A,40.24121408398866,48.39003648615062,2.012060704199433,0.7601089156591643,A,780.9228749829344,Correct,k
15,24,139,A,47.52645476381455,63.48792321774534,2.3763227381907273,0.997265965862708,A,1018.9685829973314,Correct,k
15,24,140,B,55.06725806715005,40.91181164871009,2.7533629033575027,0.6426412346031848,A,1164.1228329972364,Incorrect,k
15,24,141,B,49.72213864234301,37.37807245038694,2.4861069321171505,0.5871333890774132,B,2432.7123750117607,Correct,d
15,24,142,A,44.49263805008719,56.561909148917294,2.2246319025043593,0.8884723912762594,A,1010.5203749844804,Correct,k
15,24,143,B,37.433133109160636,11.595268664430279,1.8716566554580316,0.18213805426287047,B,1165.2570420119446,Correct,d
15,24,144,B,45.34711239309877,35.27213908681716,2.2673556196549383,0.554053465157711,A,2155.049623979721,Incorrect,k
15,24,145,A,20.087318614328723,40.628847891200174,1.004365930716436,0.6381964502940581,A,1080.6588330015074,Correct,k
15,24,146,B,47.23000388114281,17.24080403224869,2.3615001940571405,0.2708179164484688,B,1570.0077490182593,Correct,d
15,24,147,B,38.36944180715476,17.80645207733352,1.918472090357738,0.27970309516324854,B,1267.3930419841781,Correct,d
15,24,148,A,27.130059919977363,37.77551441303426,1.3565029959988681,0.5933763928278187,A,786.6693749965634,Correct,k
15,24,149,A,42.392783221445626,53.07957992904864,2.119639161072281,0.8337720918036572,A,1238.9474989904556,Correct,k
15,24,150,B,78.57525413062254,61.75724535582194,3.928762706531127,0.9700805415789628,A,1333.5006659908686,Incorrect,k
15,24,151,B,72.02493273036177,57.696680112088245,3.6012466365180886,0.9062973318832837,B,949.1674169839825,Correct,d
15,24,152,B,70.66122747532572,49.778680930711154,3.533061373766286,0.7819216915865626,B,788.1665829918347,Correct,d
15,24,153,B,73.09952823648403,56.13518250631151,3.654976411824202,0.8817693848487527,B,874.5767079817597,Correct,d
15,24,154,B,59.527147106842534,29.336139016515737,2.976357355342127,0.46081099409487375,B,994.5888329821173,Correct,d
15,24,155,A,52.817694470920586,78.4561055065507,2.640884723546029,1.232385623443227,A,1256.009125005221,Correct,k
15,24,156,B,72.98124740346223,52.662849795702556,3.649062370173112,0.8272261101764096,B,1624.1188740241341,Correct,d
15,24,157,A,23.71325559246826,44.04527150310472,1.185662779623413,0.6918615068976083,A,1944.132125005126,Correct,k
15,24,158,B,82.07346515095959,61.344491344287306,4.103673257547979,0.9635970167270783,B,936.7564159911126,Correct,d
15,24,159,A,24.337340300390316,42.51717780740569,1.2168670150195158,0.6678582672555835,A,1804.8195409937762,Correct,k
15,24,160,A,48.71961736059776,69.60932278289437,2.4359808680298882,1.0934206853805077,A,2080.632750003133,Correct,k
15,24,161,A,47.9679068998677,73.70123490368869,2.398395344993385,1.1576962906696202,A,1325.261291989591,Correct,k
15,24,162,B,35.727473622310384,10.803459334454011,1.7863736811155193,0.169700342392384,B,852.5037489889655,Correct,d
15,24,163,A,57.370854902896866,69.79380553724502,2.8685427451448438,1.0963185337094181,A,914.793666015612,Correct,k
15,24,164,A,41.48149849006792,61.081460251400344,2.074074924503396,0.9594653339816814,A,1688.9076250081416,Correct,k
15,24,165,A,28.927543430060453,62.12848947199827,1.4463771715030225,0.975912030519303,A,1452.8064580226783,Correct,k
15,24,166,B,61.78391340849201,33.19895766775403,3.089195670424601,0.521488007579273,B,1122.138290986186,Correct,d
15,24,167,B,42.3690156046721,33.64480600040896,2.118450780233605,0.5284913768116929,A,2001.3160409871489,Incorrect,k
15,24,168,B,84.4702293595908,63.08797589661759,4.22351146797954,0.9909836080333189,B,1297.3277080163825,Correct,d
15,24,169,B,45.01616082204947,20.770750446759635,2.2508080411024736,0.326266185065435,B,1432.4068329879083,Correct,d
15,24,170,A,39.494319943373185,51.329475730605125,1.9747159971686592,0.8062815193394234,B,1069.6920000191312,Incorrect,d
15,24,171,B,70.84707416086555,56.00327916738861,3.542353708043277,0.8796974520460318,B,1025.1307910075411,Correct,d
15,24,172,A,21.851843424009644,37.05227908761496,1.0925921712004822,0.5820158389020494,B,1117.5190829962958,Incorrect,d
15,24,173,A,36.89458334426529,45.93989446238581,1.8447291672132646,0.7216221747486083,A,1792.4075830087531,Correct,k
15,24,174,B,43.29975995283124,28.06840445504396,2.164987997641562,0.4408974661697656,B,1163.562792004086,Correct,d
15,24,175,B,42.57548997373871,20.385793291501287,2.1287744986869357,0.3202192922109027,B,990.5997489986476,Correct,d
15,24,176,B,49.23215267698579,30.13120152656858,2.4616076338492894,0.47329980679850703,B,765.9124170022551,Correct,d
15,24,177,A,31.938639375147666,57.98202200836625,1.5969319687573833,0.9107794719088255,B,924.7143740067258,Incorrect,d
15,24,178,A,29.467172124540472,39.78923777244577,1.4733586062270236,0.6250078853892658,B,1647.1366249897983,Incorrect,d
15,24,179,A,34.90456212423651,53.90371028712117,1.7452281062118258,0.8467175011962621,A,940.4270829982124,Correct,k
15,24,180,A,16.682663905377535,40.122538242738706,0.8341331952688767,0.6302433569338173,A,1543.3633739885408,Correct,k
15,24,181,A,31.055003381580534,50.01242736438941,1.5527501690790269,0.7855933719807946,A,1210.480623994954,Correct,k
15,24,182,A,32.035282164345816,44.51118608874943,1.6017641082172906,0.6991800760949172,A,1056.6879159887321,Correct,k
15,24,183,A,30.28961931910962,43.60064416170063,1.514480965955481,0.684877316950907,A,1468.2300409767777,Correct,k
15,24,184,B,69.2599747754839,47.536004537271964,3.462998738774195,0.7466938131765234,B,2529.6637910068966,Correct,d
15,24,185,A,52.21426458544555,61.84242335378284,2.6107132292722777,0.9714185144421701,A,3293.572750000749,Correct,k
15,24,186,A,55.0406570795501,66.41396843006622,2.752032853977505,1.0432281765782025,A,2700.685166986659,Correct,k
15,24,187,B,54.04471950893267,37.14039500129589,2.702235975446633,0.5833999604374713,A,1985.0880420126487,Incorrect,k
15,24,188,B,50.952490086955144,24.223793557979974,2.5476245043477572,0.3805064594191282,B,896.2934580049478,Correct,d
15,24,189,A,39.47617583540589,61.99115109408644,1.9738087917702944,0.9737547243237842,A,1161.351165996166,Correct,k
15,24,190,A,49.07714164257689,70.70508853474738,2.4538570821288443,1.1106329335608913,A,1044.068708026316,Correct,k
15,24,191,A,29.948119036249174,55.554380468674175,1.4974059518124587,0.8726461677755954,A,1459.7608750045765,Correct,k
15,24,192,B,80.38566114924325,58.03533313150987,4.019283057462162,0.9116168810729387,B,862.9225000040606,Correct,d
15,24,193,A,41.00875668475945,61.633908420785936,2.0504378342379725,0.9681431695338358,B,3220.7247909973375,Incorrect,d
15,24,194,A,59.814699254291995,76.27497031897583,2.9907349627146,1.1981244320343698,A,887.6516250020359,Correct,k
15,24,195,A,48.25173661122143,55.003065112333196,2.4125868305610716,0.8639861264091351,A,608.8065829826519,Correct,k
15,24,196,A,58.08608983763216,66.21984260136801,2.9043044918816077,1.0401788551916509,A,1238.0370410101023,Correct,k
15,24,197,A,42.26919676885133,49.74249339106361,2.1134598384425662,0.7813532590430216,A,1338.8233330042567,Correct,k
15,24,198,B,71.31896656649624,59.572230128929,3.565948328324812,0.9357584026550195,B,2747.6641249959357,Correct,d
15,24,199,B,49.10522630515955,41.1069063551423,2.455261315257977,0.6457057750855931,A,1189.8207500053104,Incorrect,k
15,24,200,A,19.22466898671661,40.0501805832738,0.9612334493358304,0.6291067654767878,A,1113.9691659773234,Correct,k
15,24,201,B,70.35416550588376,58.59605743859237,3.517708275294188,0.9204247178920367,B,2183.246415981557,Correct,d
15,24,202,B,36.38284325851001,20.97309038722335,1.8191421629255005,0.32944453341787794,A,6064.612749003572,Incorrect,k
15,24,203,B,80.0033007182337,51.211277309962135,4.000165035911685,0.8044248628896334,B,920.8555410150439,Correct,d
15,24,204,B,59.554741048545,27.98268298726392,2.97773705242725,0.43955095650260206,B,5259.879958000965,Correct,d
15,24,205,B,31.878612151051993,10.984035110681315,1.5939306075525996,0.17253682005244386,A,1223.1486660020892,Incorrect,k
15,24,206,B,37.69945997971597,25.80724825423546,1.8849729989857986,0.4053793076243707,A,5493.316916981712,Incorrect,k
15,24,207,A,27.461243161991057,42.580497618566326,1.373062158099553,0.6688528925234283,B,2598.9115409902297,Incorrect,d
15,24,208,B,80.86033912407882,58.947176466560464,4.043016956203941,0.9259400826860374,B,1418.5617489856668,Correct,d
15,24,209,B,42.61971773674771,20.53516797716887,2.130985886837385,0.32256566428653055,B,1075.722167006461,Correct,d
15,24,210,B,52.35953794119071,22.18948943298133,2.617976897059535,0.3485516849478124,B,888.6655829846859,Correct,d
15,24,211,A,15.17409175942148,30.459867090095088,0.758704587971074,0.47846247339782116,B,1042.161582998233,Incorrect,d
15,24,212,A,38.27719835637654,51.45304630011172,1.913859917818827,0.8082225613062324,A,841.8437909858767,Correct,k
15,24,213,A,35.735775302639674,50.78594128524392,1.7867887651319836,0.7977437002368245,A,1128.4242919937242,Correct,k
15,24,214,B,56.56327982232039,30.935087960794178,2.8281639911160195,0.48592722537892524,B,1494.8534999857657,Correct,d
15,24,215,B,58.12632526935571,28.908668802359212,2.9063162634677853,0.4540963076727607,B,698.0950830038637,Correct,d
15,24,216,A,63.17113343059451,72.55058435527725,3.1585566715297255,1.1396219141209278,A,2205.3313330106903,Correct,k
15,24,217,A,59.91991286589085,68.22804792873232,2.9959956432945427,1.0717236707083888,A,3475.9084160032216,Correct,k
15,24,218,A,22.29377172154248,41.30818886047953,1.114688586077124,0.6488675132859112,A,2008.346332993824,Correct,k
15,24,219,A,49.209520071339014,77.45420712493895,2.4604760035669506,1.216647840466652,B,1046.9417920103297,Incorrect,d
15,24,220,B,39.52428898155182,12.779477872001795,1.976214449077591,0.2007395689969708,B,1507.7262079867069,Correct,d
15,24,221,A,43.02295990412103,64.55675944405485,2.1511479952060513,1.0140552060450312,A,880.2289159793872,Correct,k
15,24,222,A,60.36425613559305,80.96011447419457,3.0182128067796525,1.2717185043295915,A,923.0953330115881,Correct,k
15,24,223,B,38.08268580956134,27.720543095520643,1.904134290478067,0.4354332727120345,B,911.5513330034446,Correct,d
15,24,224,B,56.99868323187748,28.95934025993952,2.8499341615938736,0.45489225306716563,A,876.579292002134,Incorrect,k
15,24,225,B,34.52589267039582,10.624864036185492,1.726294633519791,0.16689497400735367,B,700.7279579993337,Correct,d
15,24,226,B,45.98467515673512,22.009868970709352,2.299233757836756,0.34573021332427223,A,1359.663041017484,Incorrect,k
15,24,227,B,67.87776884424574,50.30959893721989,3.393888442212287,0.7902613321310942,B,1231.5697910089511,Correct,d
15,24,228,B,49.30517208473163,20.52648271838111,2.4652586042365816,0.3224292365605197,B,1006.6069580207113,Correct,d
15,24,229,B,31.563537838204407,11.075124988889144,1.5781768919102204,0.17396765651341434,B,1436.407291010255,Correct,d
15,24,230,B,42.92755762187289,18.7583334041379,2.1463778810936445,0.2946552120801382,B,675.8013749786187,Correct,d
15,24,231,A,12.246093995674517,32.83832756982778,0.6123046997837258,0.5158232432477307,A,1605.8137500076555,Correct,k
15,24,232,B,48.843658833696715,29.27171925158652,2.4421829416848357,0.4597990907936357,B,813.6629579821602,Correct,d
15,24,233,B,58.837546100007394,29.10877364651516,2.9418773050003697,0.45723954721450105,B,880.8067500067409,Correct,d
15,24,234,B,73.50004598536988,53.665320630995495,3.6750022992684936,0.8429728852343811,B,757.377666013781,Correct,d
15,24,235,B,62.76617414141681,46.91637118136053,3.1383087070708404,0.7369606351822706,B,614.5017909875605,Correct,d
15,24,236,B,56.754311070527265,26.828830975295915,2.837715553526363,0.4214262914819597,B,849.3567080004141,Correct,d
15,24,237,B,72.27868088869774,45.71295693264032,3.613934044434887,0.7180574483672473,B,3117.867417022353,Correct,d
15,24,238,A,38.95182257945634,71.69651696961199,1.9475911289728172,1.126206254998545,A,840.3733740269672,Correct,k
15,24,239,A,61.27412781640035,71.57457791692417,3.0637063908200175,1.124290840837996,B,1966.5164579928387,Incorrect,d
15,24,240,B,73.10187472894978,57.65921384065982,3.655093736447489,0.905708813067899,B,819.1337079915684,Correct,d
15,24,241,A,45.5828298100269,56.57859386401325,2.279141490501345,0.8887344741681228,B,1477.366915991297,Incorrect,d
15,24,242,A,19.300796201215068,45.261025726518916,0.9650398100607533,0.7109585295818522,B,605.2884160017129,Incorrect,d
15,24,243,B,54.10417278332586,42.16134239107731,2.705208639166293,0.662268817606462,A,1286.5084579971153,Incorrect,k
15,24,244,A,35.86453417824394,50.296687636487775,1.7932267089121974,0.7900585218934528,B,1797.5479989836458,Incorrect,d
15,24,245,B,76.26201879539654,52.59058802718932,3.8131009397698272,0.8260910249709265,B,789.3093329912517,Correct,d
15,24,246,A,45.13224116656581,57.4344044771762,2.2566120583282907,0.9021775158440074,A,850.1524169987533,Correct,k
15,24,247,B,85.88847887703912,68.67229800966611,4.294423943851956,1.0787019346614801,B,867.9732499876991,Correct,d
15,24,248,B,65.90455330436802,45.00041340910734,3.2952276652184014,0.7068648408727761,B,664.8216239991598,Correct,d
15,24,249,A,64.72372747129513,82.6157824342682,3.236186373564757,1.2977256758303481,A,804.9757499829866,Correct,k
15,24,250,A,44.6895360670761,53.30870783095626,2.2344768033538047,0.8373712244704843,A,1624.1644999827258,Correct,k
15,24,251,B,84.98959376417798,58.8983585023815,4.249479688208899,0.9251732518978983,B,1211.4125410153065,Correct,d
15,24,252,B,61.44338188348604,37.19821565469495,3.072169094174302,0.5843082051371924,B,1637.7161240088753,Correct,d
15,24,253,B,46.80833479200867,22.152122084733293,2.3404167396004336,0.34796472001411166,B,753.27779102372,Correct,d
15,24,254,A,25.117551367264944,49.07931130098885,1.2558775683632473,0.7709360191321654,B,1027.410917013185,Incorrect,d
15,24,255,A,55.67631149437598,77.18265917818327,2.783815574718799,1.212382375293527,A,773.7080830265768,Correct,k
15,24,256,B,58.07231799898033,45.37072852507583,2.9036158999490165,0.7126817371119755,B,1215.2965829882305,Correct,d
15,24,257,A,53.22907579919944,68.96013760670496,2.661453789959972,1.0832233084788276,A,1519.1033330047503,Correct,k
15,24,258,A,44.46011825919498,70.99610403188491,2.223005912959749,1.1152041943003317,A,1069.5236670144368,Correct,k
15,24,259,B,36.38705907481821,26.420725241944506,1.8193529537409106,0.41501578161303637,B,1046.4313749980647,Correct,d
15,24,260,B,52.8060845755054,38.882920164959486,2.6403042287752703,0.6107714817017758,B,813.1403329898603,Correct,d
15,24,261,A,35.255237364671416,58.61926399424615,1.7627618682335708,0.9207892456158219,A,1307.9266249842476,Correct,k
15,24,262,B,41.6408053009208,13.283268006686356,2.0820402650460403,0.20865308592735093,B,884.7847910074051,Correct,d
15,24,263,A,33.410942767480925,41.460642329055105,1.6705471383740462,0.6512622467703676,B,726.8847080122214,Incorrect,d
15,24,264,A,43.3510035653869,66.0217164208021,2.167550178269345,1.0370666964249025,A,769.5760420174338,Correct,k
15,24,265,A,59.185908563370475,73.5072623232768,2.959295428168524,1.1546493765015209,A,1509.804333007196,Correct,k
15,24,266,B,44.46202983398773,21.884223830693806,2.2231014916993868,0.3437565840801117,B,728.6134159949142,Correct,d
15,24,267,B,40.16825872762571,23.15302991009788,2.0084129363812853,0.3636869433695413,B,782.6478740025777,Correct,d
15,24,268,A,13.882869770814182,31.931135799078106,0.6941434885407091,0.5015731082358091,A,1807.123833015794,Correct,k
15,24,269,A,41.84150478877312,49.809854679468906,2.0920752394386564,0.7824113676869734,B,854.4085420144256,Incorrect,d
15,24,270,B,61.19536921803311,49.01693290150219,3.059768460901655,0.7699561815243156,A,1985.7282500015572,Incorrect,k
15,24,271,B,86.44635031812777,60.87218276766902,4.322317515906389,0.9561780109544208,B,1357.1447920112405,Correct,d
15,24,272,A,52.76826990579909,81.79580257909306,2.6384134952899547,1.2848454623847991,A,1410.3807079955004,Correct,k
15,24,273,A,32.03528890467741,49.730038041133035,1.6017644452338704,0.7811576108638224,B,1689.526083006058,Incorrect,d
15,24,274,A,22.86375999020171,49.409177547050575,1.1431879995100855,0.7761175460086391,A,947.0637490157969,Correct,k
15,24,275,A,54.09513174157341,64.81968658437933,2.7047565870786707,1.018185255907395,A,2408.8091240264475,Correct,k
15,24,276,A,37.51213573135852,53.401496017653926,1.8756067865679258,0.8388287378988307,A,1363.0040000134613,Correct,k
15,24,277,B,75.13575284956602,46.74441181190229,3.756787642478301,0.7342595037232409,B,824.2100000206847,Correct,d
15,24,278,A,64.2458708883574,79.3172200812906,3.2122935444178697,1.245911979552737,A,3717.6241659908555,Correct,k
15,24,279,B,49.57805224463337,42.64894390379492,2.4789026122316686,0.6699280442576265,B,2795.3098739963025,Correct,d
15,24,280,A,31.499675726282113,50.167987424757655,1.5749837863141056,0.7880369036950188,B,1880.093207990285,Incorrect,d
15,24,281,A,35.886354152613265,49.179003960866325,1.7943177076306631,0.772501987771605,A,1219.3372909969185,Correct,k
15,24,282,B,61.003147116666206,45.22241225469929,3.0501573558333104,0.7103519905848618,B,791.6906659957021,Correct,d
15,24,283,B,31.70098794707135,13.224394283068278,1.5850493973535675,0.2077282996393108,B,1257.8508750011679,Correct,d
15,24,284,B,32.51351240172038,18.38939447337706,1.625675620086019,0.2888599329076306,B,1576.3467910001054,Correct,d
15,24,285,A,43.69911088456755,75.78691929716787,2.1849555442283775,1.1904581445109257,B,1640.1732079975773,Incorrect,d
15,24,286,B,76.54799636268655,62.35375863344811,3.827399818134327,0.9794505502327586,A,1018.9784159883857,Incorrect,k
15,24,287,A,20.698899818541168,51.04829606960421,1.0349449909270583,0.8018647595527265,A,1545.373124012258,Correct,k
15,24,288,A,65.29758231331843,80.72945902377484,3.264879115665922,1.2680953769868464,A,713.0345409968868,Correct,k
15,24,289,A,12.347725508116959,39.10858900117921,0.6173862754058479,0.614316279491836,A,679.4451659952756,Correct,k
15,24,290,B,40.96626876985016,17.162834935932636,2.048313438492508,0.2695931807475011,B,643.8107079884503,Correct,d
15,24,291,B,58.46908817532496,48.80728359754713,2.9234544087662484,0.7666630179586383,A,1210.1371659955475,Incorrect,k
15,24,292,A,17.650116873670033,34.76673459306893,0.8825058436835016,0.5461145899344574,A,2053.6543329944834,Correct,k
15,24,293,A,42.49025278674454,63.485934355338685,2.1245126393372273,0.9972347248850794,A,1104.0420829958748,Correct,k
15,24,294,A,50.354161734048645,65.14961157685102,2.5177080867024326,1.0233677055703183,A,894.4054160092492,Correct,k
15,24,295,A,38.70580620370628,58.50876875216574,1.935290310185314,0.9190535904119397,A,560.5379579938017,Correct,k
15,24,296,A,50.34856543319601,79.30988585183457,2.5174282716598,1.2457967737458426,A,815.4731660033576,Correct,k
15,24,297,B,62.403406596170996,39.625167516424796,3.12017032980855,0.6224306758343252,B,1433.529208006803,Correct,d
15,24,298,A,22.557046668334607,36.507713602011435,1.1278523334167303,0.5734618242571965,B,742.0261669903994,Incorrect,d
15,24,299,B,86.16192568422734,63.44953544511733,4.308096284211367,0.9966629721403287,A,888.2440410088748,Incorrect,k
15,24,300,A,33.641843099507525,63.06646230557976,1.6820921549753762,0.9906456733355349,B,1186.996000004001,Incorrect,d
15,24,301,A,20.78869994549628,39.64072436700705,1.039434997274814,0.6226750422718363,A,1317.0033330097795,Correct,k
15,24,302,B,71.38876195265365,49.34382011814414,3.5694380976326827,0.7750909139160893,B,931.7940830078442,Correct,d
15,24,303,A,58.66818043674385,80.3112005998487,2.9334090218371927,1.2615253890273044,A,738.4634579939302,Correct,k
15,24,304,A,52.493763424806616,82.77780418218401,2.6246881712403307,1.3002707074952187,A,1081.830750015797,Correct,k
15,24,305,B,41.635939777181704,16.778370229681666,2.081796988859085,0.26355402326388805,B,792.3617079795804,Correct,d
15,24,306,B,60.72534213462804,41.30967575796556,3.0362671067314024,0.6488908694170048,B,649.8016659752466,Correct,d
15,24,307,B,54.45788487477485,37.927486417818656,2.7228942437387422,0.5957635634967288,B,1017.6502910035197,Correct,d
15,24,308,A,46.145356930560816,55.686480107193866,2.3072678465280405,0.874721184045172,B,1096.2621240178123,Incorrect,d
15,24,309,A,23.503906751040716,43.8974035263973,1.1751953375520359,0.6895388021509822,A,1897.6656240120064,Correct,k
15,24,310,A,26.64440349095997,51.41133349735282,1.3322201745479985,0.8075673381326923,B,1383.2151250098832,Incorrect,d
15,24,311,A,65.5658028657058,78.4126065073538,3.27829014328529,1.2317023427616496,A,1281.9388749776408,Correct,k
15,24,312,A,37.303891189010315,45.308553638146236,1.8651945594505157,0.7117050962718965,A,1378.3775419869926,Correct,k
15,24,313,B,34.37815382251985,11.502655496367392,1.7189076911259924,0.18068329002081024,B,1467.6686660095584,Correct,d
15,24,314,B,53.944943497028035,31.31659452085315,2.6972471748514018,0.4919199164108131,B,708.4796249982901,Correct,d
15,24,315,A,41.667257080045815,66.66008115261164,2.083362854002291,1.0470941061837207,A,909.6089999948163,Correct,k
15,24,316,A,44.01885779124041,72.50911593355588,2.2009428895620204,1.1389705296757489,A,659.6237920166459,Correct,k
15,24,317,A,65.88397367122911,81.8973066224937,3.2941986835614556,1.2864398841700846,A,2677.9778329946566,Correct,k
15,24,318,B,42.251139268744765,27.525035808877718,2.112556963437238,0.43236225143483115,B,793.607957981294,Correct,d
15,24,319,B,52.535883465944245,32.604330409782904,2.626794173297212,0.5121476244529414,B,1250.5792919837404,Correct,d
15,24,320,A,64.14321950303187,77.79600559991937,3.2071609751515937,1.2220167983566854,A,1124.896624009125,Correct,k
15,24,321,A,35.70004713765867,50.169295487247965,1.7850023568829334,0.7880574506925687,A,1751.8643329967745,Correct,k
15,24,322,B,53.96486411683132,26.479239161972018,2.698243205841566,0.41593491611949224,B,767.8704999852926,Correct,d
15,24,323,B,58.318809774793365,38.36248187435976,2.9159404887396683,0.6025964561498011,B,1114.6184169920161,Correct,d
15,24,324,B,85.94271438908211,69.1466493428162,4.297135719454105,1.0861530279787044,A,842.7768330147956,Incorrect,k
15,24,325,B,53.34659017091354,30.837591174690147,2.6673295085456767,0.4843957494440601,B,673.5901659994852,Correct,d
15,24,326,B,49.04012197646933,28.82313577650768,2.452006098823466,0.45275275804448833,B,702.985957992496,Correct,d
15,24,327,A,58.82781042992377,80.92852085730367,2.9413905214961886,1.2712222329559677,A,743.4506659919862,Correct,k
15,24,328,A,26.395671692298144,44.34220584265246,1.3197835846149073,0.6965257405962169,A,1401.0437490069307,Correct,k
15,24,329,A,47.741033698447076,72.72177785669076,2.3870516849223535,1.142311015352843,A,835.9735000121873,Correct,k
15,24,330,A,59.9981666496616,74.03786698260063,2.9999083324830798,1.1629840949999821,A,670.6933329987805,Correct,k
15,24,331,A,17.70077696346865,33.753035598850545,0.8850388481734325,0.5301914433685181,A,1006.1562909977511,Correct,k
15,24,332,A,41.371350276535054,70.93494435992172,2.0685675138267525,1.1142435004196538,A,928.8631670060568,Correct,k
15,24,333,B,59.41066073175569,30.92831977594944,2.970533036587785,0.48582091097999336,B,567.0309999841265,Correct,d
15,24,334,A,27.647861132700584,49.42516977302307,1.3823930566350293,0.7763687513067881,A,948.2757079822477,Correct,k
15,24,335,B,56.04162813433378,44.23639363962645,2.802081406716689,0.6948636463977835,B,792.2225410002284,Correct,d
15,24,336,B,54.00011521480434,44.2294961737727,2.700005760740217,0.694755301257511,B,801.6017079935409,Correct,d
15,24,337,B,72.06771380822849,52.410054633548704,3.6033856904114248,0.8232552130549815,B,1607.910874998197,Correct,d
15,24,338,B,49.45972849299424,22.337517001497066,2.472986424649712,0.3508768965567014,B,885.8627500012517,Correct,d
15,24,339,B,51.344555687793985,21.008232168245968,2.5672277843896993,0.3299965392233515,B,817.2975830093492,Correct,d
15,24,340,B,41.47511130395457,26.851210591460855,2.0737555651977284,0.4217778296706293,B,637.558665999677,Correct,d
15,24,341,B,37.736899662712425,27.62021430977601,1.8868449831356213,0.4338573118308399,B,1051.611332979519,Correct,d
15,24,342,B,65.07554187782966,45.94739174153564,3.2537770938914834,0.7217399417341034,B,623.7562489986885,Correct,d
15,24,343,A,11.37138739455644,34.79613356725653,0.5685693697278219,0.5465763879411116,B,843.4022489818744,Incorrect,d
15,24,344,A,65.39679193189568,77.002040951067,3.269839596594784,1.2095452308164627,A,1583.2612499943934,Correct,k
15,24,345,B,72.92471125787829,58.18042088855165,3.6462355628939145,0.91389591423118,A,1579.469958000118,Incorrect,k
15,24,346,B,69.6209956480514,55.67054987972233,3.4810497824025703,0.874470952617199,B,852.782792004291,Correct,d
15,24,347,B,76.73552045090575,51.248503082040315,3.836776022545288,0.8050096039500586,B,997.4851250008214,Correct,d
15,24,348,B,53.72327423779029,30.6898564991939,2.6861637118895145,0.48207513858796264,B,878.4687080187723,Correct,d
15,24,349,B,62.10128988207621,39.282883492050466,3.1050644941038104,0.6170540909522475,B,639.095249993261,Correct,d
15,24,350,B,70.00825311875013,51.08745063653601,3.500412655937507,0.8024797980518638,B,874.2315419949591,Correct,d
15,24,351,B,46.87274121647344,17.465971607885294,2.3436370608236725,0.2743548404557017,B,1716.0809159977362,Correct,d
15,24,352,B,77.66386589839605,64.79775581759334,3.8831932949198027,1.0178407682282826,B,5513.833208009601,Correct,d
15,24,353,B,60.09332481847474,37.390342619464526,3.0046662409237372,0.5873261284425756,B,623.1057489931118,Correct,d
15,24,354,A,52.68005140418927,66.67959392519815,2.6340025702094634,1.0474006120987656,B,1818.4860830078833,Incorrect,d
15,24,355,B,48.918595586505965,39.00695277430238,2.4459297793252985,0.6127197813733617,B,1165.3076669899747,Correct,d
15,24,356,B,44.162073055999265,32.296278581604525,2.2081036527999633,0.5073087576512908,B,900.0473330088425,Correct,d
15,24,357,B,86.59535027539569,64.6282845397008,4.329767513769784,1.015178719620174,B,1082.126250024885,Correct,d
15,24,358,B,70.53445992425092,49.11980244531024,3.5267229962125466,0.7715720525398431,B,2888.495708000846,Correct,d
15,24,359,B,66.34276968492603,46.687969819994514,3.317138484246301,0.7333729149875837,B,1364.1227080079261,Correct,d
15,24,360,A,16.663249394567366,34.189046144321,0.8331624697283684,0.5370402810012064,A,1134.2420830042101,Correct,k
15,24,361,A,10.698084407655106,32.17561941869097,0.5349042203827552,0.5054134479523033,B,808.3060829958413,Incorrect,d
15,24,362,A,17.3040621759046,33.73723568965182,0.8652031087952301,0.5299432589751877,A,775.942042004317,Correct,k
15,24,363,A,31.534136489424995,47.62747738939384,1.5767068244712499,0.7481306653776683,A,1176.3613749935757,Correct,k
15,24,364,A,47.60983916477067,58.86831988317444,2.3804919582385335,0.9247014063707738,B,671.8529170029797,Incorrect,d
15,24,365,A,29.406362152107523,59.52569590538355,1.4703181076053762,0.9350274447808651,B,535.8400830009487,Incorrect,d
15,24,366,B,47.30898855960389,22.93243062249148,2.3654494279801948,0.3602217778628842,B,1340.2961249812506,Correct,d
15,24,367,B,89.54108411386875,65.40179034061714,4.477054205693437,1.0273289203285134,B,1111.0448330000509,Correct,d
15,24,368,A,47.20981974445244,73.96277300584953,2.360490987222622,1.1618045215715316,A,1647.6359159860294,Correct,k
15,24,369,B,60.75166677706094,46.448853689009105,3.037583338853047,0.7296168875852909,B,5683.520791993942,Correct,d
15,24,370,A,62.25468227782119,77.6606363823496,3.1127341138910594,1.2198904236594883,A,2524.9809579981957,Correct,k
15,24,371,A,39.991395402657,53.28639443744259,1.9995697701328499,0.8370207265047883,A,1440.188999986276,Correct,k
15,24,372,A,26.45639014155741,47.5385172373275,1.3228195070778705,0.7467332825766989,B,765.383332996862,Incorrect,d
15,24,373,A,41.0289862784932,70.45369502096335,2.05144931392466,1.1066840534805713,A,635.9087079763412,Correct,k
15,24,374,A,34.92021029769687,52.25892094209134,1.7460105148848435,0.8208812105810198,A,1494.6847500104923,Correct,k
15,24,375,A,38.29890138661094,48.74871415896328,1.914945069330547,0.7657430113687389,A,892.6462079980411,Correct,k
15,24,376,A,30.402597075740164,59.81807990841594,1.5201298537870083,0.9396202019606334,A,1375.0523750204593,Correct,k
15,24,377,B,75.1999808374543,46.406345436330966,3.759999041872715,0.7289491695136379,B,741.9385419925675,Correct,d
15,24,378,A,66.32252926752699,82.63314793854218,3.3161264633763494,1.2979984525336132,A,871.9331670145039,Correct,k
15,24,379,B,66.05984236742299,54.00287279104661,3.3029921183711495,0.8482751421654808,A,1381.28337499802,Incorrect,k
15,24,380,A,34.42346589203288,50.26521794729198,1.721173294601644,0.7895641971715116,B,1092.9271249915473,Incorrect,d
15,24,381,B,43.16738159161809,26.717549067121247,2.1583690795809045,0.41967827935596475,B,971.095165994484,Correct,d
15,24,382,A,48.2028983258072,68.09232922858735,2.41014491629036,1.0695918063517378,A,2828.465333004715,Correct,k
15,24,383,B,42.18085324064394,26.16674037169325,2.109042662032197,0.4110261966005148,B,1326.0614159808028,Correct,d
15,24,384,B,39.54611020114902,29.386281829804446,1.977305510057451,0.46159863556416436,B,1392.2257910016924,Correct,d
15,24,385,A,55.26016879426233,81.88735061507043,2.7630084397131163,1.2862834955711844,A,1144.732415996259,Correct,k
15,24,386,B,38.280166118728815,22.301312873875766,1.9140083059364406,0.35030820344987795,B,1854.6472910093144,Correct,d
15,24,387,B,33.87248237515014,18.488231188767088,1.693624118757507,0.29041245640250185,A,1483.7101669982076,Incorrect,k
15,24,388,A,26.70921071326358,48.50333778812796,1.335460535663179,0.761888648348835,B,2725.8284170238767,Incorrect,d
15,24,389,A,49.322236039653426,66.69528688737391,2.4661118019826715,1.0476471165721877,B,1991.5364579937886,Incorrect,d
15,24,390,B,45.73811950777448,26.827303182494152,2.286905975388724,0.42140229296874854,B,4608.678500022506,Correct,d
15,24,391,A,56.640500503784395,84.87573334601248,2.8320250251892194,1.3332249017393951,A,1734.4679580128286,Correct,k
15,24,392,B,83.89542230839096,63.425895217811,4.194771115419548,0.996291632318155,B,1106.5627920033876,Correct,d
15,24,393,B,42.20266985431452,20.559590347746642,2.1101334927157263,0.3229492899864823,A,997.401542001171,Incorrect,k
15,24,394,B,64.24293638904366,45.3826411073074,3.212146819452183,0.7128688595160955,B,1044.1216669860296,Correct,d
15,24,395,A,23.538435910511346,40.173171483571494,1.1769217955255673,0.6310387020209558,A,2794.427957996959,Correct,k
15,24,396,A,28.252086432274652,43.04039517157298,1.4126043216137327,0.6760769463930764,A,897.6992490061093,Correct,k
15,24,397,A,30.10322439430101,45.7345842666126,1.5051612197150503,0.7183971697348673,A,975.5767500028014,Correct,k
15,24,398,B,61.025365884281015,43.34923580024824,3.0512682942140508,0.6809282036439577,B,792.3469580127858,Correct,d
15,24,399,B,52.03238699986477,38.094117934532335,2.6016193499932387,0.5983810052405497,B,1386.4527489931788,Correct,d
15,24,400,A,47.59832799618385,64.85017472942805,2.3799163998091926,1.018664162569928,A,1768.8431249989662,Correct,k
15,24,401,A,21.11947308249364,45.22268152360995,1.055973654124682,0.7103562202510195,B,2678.8677490258124,Incorrect,d
15,24,402,B,43.849166562986234,15.224281103773471,2.1924583281493115,0.2391424483590032,B,1153.7644579948392,Correct,d
15,24,403,B,53.33848836676535,32.64435061732294,2.666924418338267,0.5127762604029559,B,916.0987909999676,Correct,d
15,24,404,A,68.20975278228784,87.17563438295528,3.410487639114392,1.3693516627476106,A,677.2350830142386,Correct,k
15,24,405,B,32.25739308990717,16.888071411094376,1.6128696544953585,0.26527720539196953,B,549.8843329842202,Correct,d
15,24,406,B,65.15407189583665,46.934095635879885,3.2577035947918325,0.7372390502628052,B,1361.9896250020247,Correct,d
15,24,407,B,56.78024513691391,43.860678801955345,2.8390122568456957,0.6889619315284224,B,1231.1602080008015,Correct,d
15,24,408,A,59.734187260911455,79.68081073341702,2.9867093630455726,1.2516232481609084,A,1019.4840829935856,Correct,k
15,24,409,A,44.273400000083875,58.26037710119096,2.213670000004194,0.9151518634823625,B,861.6944160021376,Incorrect,d
15,24,410,A,53.35640215528781,81.84182059635907,2.6678201077643906,1.2855683117096772,A,529.6449159795884,Correct,k
15,24,411,A,12.598161785519206,35.015585508428,0.6299080892759603,0.5500235309721132,A,1120.3957909892779,Correct,k
15,24,412,B,80.77755635685764,59.604995002785536,4.038877817842883,0.9362730720900367,B,1464.5772490184754,Correct,d
15,24,413,A,33.76961035171703,63.17712179972285,1.6884805175858515,0.9923839086047843,A,1003.3557490096428,Correct,k
15,24,414,B,67.34344271155834,51.40182626528046,3.367172135577917,0.8074179988805197,A,1063.1789579929318,Incorrect,k
15,24,415,A,43.226217686804056,56.76517808111876,2.1613108843402027,0.8916653321967953,B,1707.2277500119526,Incorrect,d
15,24,416,A,15.931597128411958,31.29434466049651,0.796579856420598,0.491570416421614,A,809.5447910018265,Correct,k
15,24,417,B,51.58810373683674,36.19609825197536,2.579405186841837,0.5685669817851007,A,2738.2692499959376,Incorrect,k
15,24,418,A,66.90931630366114,80.69758528196526,3.3454658151830574,1.2675947054212893,B,3088.0523750092834,Incorrect,d
15,24,419,A,38.42363502254915,70.61810540361279,1.9211817511274574,1.109266605732098,A,980.4807500040624,Correct,k
15,24,420,A,31.077439493821004,57.147945308194146,1.55387197469105,0.89767782573987,A,873.9710410009138,Correct,k
15,24,421,A,29.95131977924869,42.07026581534057,1.4975659889624344,0.6608381901002187,A,3454.3994999839924,Correct,k
15,24,422,B,71.40747903776582,45.243063853039395,3.5703739518882913,0.7106763851330125,B,1058.5140000039246,Correct,d
15,24,423,A,53.35728874260625,78.08100849510788,2.6678644371303126,1.226493613365566,B,2124.5171659975313,Incorrect,d
15,24,424,A,33.60820633216785,46.10994610606818,1.6804103166083928,0.7242933397212254,A,630.867790983757,Correct,k
15,24,425,B,87.86744240755581,62.3510955577333,4.393372120377791,0.9794087187372507,B,689.016290998552,Correct,d
15,24,426,A,59.25475289189343,86.53044074913251,2.9627376445946716,1.3592169848468079,A,694.2139580205549,Correct,k
15,24,427,A,21.406279609550648,44.84469956394175,1.0703139804775323,0.704418893512604,B,739.0826250193641,Incorrect,d
15,24,428,A,42.61546433121583,49.85453579785967,2.1307732165607915,0.7831132170534264,A,716.9213330198545,Correct,k
15,24,429,B,34.17917649261696,18.167427138734155,1.708958824630848,0.2853732781683753,B,1818.1701250141487,Correct,d
15,24,430,B,43.84609314993675,30.959437589860848,2.1923046574968375,0.4863097084578927,A,4888.825208006892,Incorrect,k
15,24,431,B,57.69014847235314,37.99159007754603,2.8845074236176567,0.5967705014290674,B,1426.721499999985,Correct,d
15,24,432,A,34.88798164177013,49.2993996615211,1.7443990820885065,0.7743931590151091,A,1229.7999169968534,Correct,k
15,24,433,A,54.40691645862228,79.62543265729506,2.720345822931114,1.250753371375335,A,1024.7662079927977,Correct,k
15,24,434,B,42.935076247580945,25.674633022412085,2.1467538123790475,0.4032961924341185,B,1016.0836249997374,Correct,d
15,24,435,A,26.234262251328442,44.19516815916415,1.311713112566422,0.6942160780649781,A,809.9862499802839,Correct,k
15,24,436,A,26.773458979816947,56.15518659995106,1.3386729489908473,0.8820836084168513,A,2276.5784579969477,Correct,k
15,24,437,B,53.99571241815978,26.50233331587271,2.699785620907989,0.41629767824066866,B,1049.1829169914126,Correct,d
15,24,438,B,62.29043872186918,40.315823303736934,3.114521936093459,0.6332794715722206,B,969.3934170063585,Correct,d
15,24,439,B,51.65257333562347,41.750770817076926,2.5826286667811735,0.6558195744031999,B,1831.8274159973953,Correct,d
15,24,440,A,52.53375013440217,72.8307526641269,2.6266875067201085,1.1440227876251816,A,684.0162909938954,Correct,k
15,24,441,B,36.00624364355663,18.141012504023443,1.8003121821778314,0.28495835805660313,B,918.6144580016844,Correct,d
15,24,442,B,82.1785098606569,54.74512451252498,4.108925493032845,0.859934404942035,A,791.8102919938974,Incorrect,k
15,24,443,B,51.87452159128851,41.56141919512614,2.5937260795644255,0.6528452460808705,B,780.2984989830293,Correct,d
15,24,444,B,52.251758476358056,31.623221225286144,2.6125879238179026,0.4967363974210188,B,1033.525125007145,Correct,d
15,24,445,A,29.810248086597646,50.88205231686607,1.4905124043298823,0.7992534087911898,A,1039.9502490181476,Correct,k
15,24,446,A,35.94446827908666,50.73388817184933,1.7972234139543328,0.7969260518436396,A,759.4335830071941,Correct,k
15,24,447,A,19.706100002471455,40.657659401413596,0.9853050001235728,0.6386490204381846,A,844.0324160037562,Correct,k
15,24,448,B,78.7294499391602,65.49045046485087,3.93647249695801,1.0287215903033087,A,1357.196416996885,Incorrect,k
15,24,449,B,76.98712927229501,63.65343725028757,3.8493564636147504,0.9998658542062115,B,855.7663329993375,Correct,d
15,24,450,A,26.314593948252757,53.94675237167547,1.315729697412638,0.8473936046794172,A,615.5155409942381,Correct,k
15,24,451,A,16.319897026738964,39.60127438401945,0.8159948513369483,0.6220553633881457,A,638.5023749899119,Correct,k
15,24,452,B,52.541478388740934,31.989322680650403,2.6270739194370467,0.5024871056342233,B,1199.946667009499,Correct,d
15,24,453,B,74.37501736340143,59.534277581520776,3.718750868170071,0.935162245434406,B,1407.5793329975568,Correct,d
15,24,454,A,19.812995759970523,38.44948368908565,0.9906497879985261,0.6039630774597603,A,638.2191239972599,Correct,k
15,24,455,A,50.22150093291579,73.04008716899465,2.5110750466457894,1.1473110063383585,A,730.4933330160566,Correct,k
15,24,456,B,50.090163367180644,25.02448344509793,2.5045081683590324,0.3930836667549953,B,530.9591670229565,Correct,d
15,24,457,B,79.61458872212967,51.293910848948926,3.9807294361064836,0.8057228674847386,B,1011.7395000124816,Correct,d
15,24,458,B,49.82098374578845,42.80677029530715,2.4910491872894225,0.6724071754182136,B,2869.4711250136606,Correct,d
15,24,459,B,76.4541039221534,53.91179575914723,3.82270519610767,0.8468445074938515,B,880.2367079770193,Correct,d
15,24,460,A,34.01802492967654,65.36928658924097,1.700901246483827,1.026818352595826,B,2205.604290997144,Incorrect,d
15,24,461,B,56.87560086354065,30.07676499388737,2.8437800431770324,0.4724447197427161,A,2053.780500020366,Incorrect,k
15,24,462,B,56.385210055922535,38.95930206627112,2.819260502796127,0.611971285801915,B,681.4848740177695,Correct,d
15,24,463,B,44.24390224413851,32.57608935427378,2.2121951122069254,0.5117040149903559,B,849.0794170065783,Correct,d
15,24,464,B,36.59168764287324,24.403500999670378,1.829584382143662,0.38332929731217813,B,1436.280791007448,Correct,d
15,24,465,B,65.89492173982654,33.41048814279674,3.294746086991327,0.5248107205112956,B,1024.1014579951297,Correct,d
15,24,466,A,64.76747737499201,82.63986503700166,3.238373868749601,1.2981039644694818,A,721.1206239880994,Correct,k
15,24,467,A,59.35809582884974,69.12509550790419,2.967904791442487,1.085814461131623,A,768.7516660080291,Correct,k
15,24,468,A,41.402489537526066,59.54939318570532,2.070124476876303,0.9353996807897096,A,1317.3856250068638,Correct,k
15,24,469,A,38.497081764490844,48.02163221777945,1.9248540882245422,0.7543220349438341,A,1480.575374996988,Correct,k
15,24,470,A,23.877988703421522,54.222946414556276,1.193899435171076,0.8517320505598149,A,1708.7193329934962,Correct,k
15,24,471,A,43.04503875695852,68.51199443955399,2.152251937847926,1.0761838920704379,B,690.122333006002,Incorrect,d
15,24,472,A,34.5551114668621,59.5822934492273,1.7277555733431051,0.9359164769206186,A,669.3327500252053,Correct,k
15,24,473,A,63.42037911493509,75.43871403386095,3.1710189557467543,1.184988549025194,B,2734.569082997041,Incorrect,d
15,24,474,B,68.50479633505076,44.635146336740604,3.4252398167525375,0.7011272391170481,B,805.9827490069438,Correct,d
15,24,475,B,45.845588367656724,19.484903750749158,2.292279418382836,0.3060681523962888,B,1645.2365829900373,Correct,d
15,24,476,B,71.18274840282798,46.92741971551154,3.559137420141399,0.7371341851508793,B,3766.7554579966236,Correct,d
15,24,477,A,53.36279718459871,80.14453423252967,2.6681398592299352,1.2589073998514542,B,1731.8171249935403,Incorrect,d
15,24,478,B,84.94652145173623,62.86134052473402,4.247326072586811,0.9874236279365538,B,2212.645457999315,Correct,d
15,24,479,A,39.22504599543148,65.28975350030795,1.961252299771574,1.0255690497562797,A,2151.8127500021365,Correct,k
15,24,480,A,60.93040007955473,70.33237147119799,3.0465200039777365,1.1047783076173197,B,782.0152080093976,Incorrect,d
15,24,481,A,41.49729474868559,57.015060567044955,2.0748647374342797,0.8955904771070279,A,619.1959999850951,Correct,k
15,24,482,B,88.51249169913135,67.65950710963882,4.425624584956568,1.0627930524057385,B,706.0503739921842,Correct,d
15,24,483,B,45.72506291082851,17.797919398139,2.2862531455414254,0.27956906415188376,B,721.5745410067029,Correct,d
15,24,484,A,24.04060503717121,46.71246135594581,1.2020302518585606,0.7337576271346824,A,1140.9877490077633,Correct,k
15,24,485,B,40.36030057842687,29.87561234194513,2.0180150289213437,0.46928502127475685,B,1860.67162497784,Correct,d
15,24,486,B,50.450607494988056,41.25665344720353,2.522530374749403,0.6480579969071731,B,1378.8829160039313,Correct,d
15,24,487,B,73.48600643689207,59.074196328827426,3.6743003218446035,0.9279353060168268,B,1132.664874981856,Correct,d
15,24,488,A,44.75711613604157,76.04636645292189,2.237855806802078,1.1945335309034835,A,891.1203330208082,Correct,k
15,24,489,A,37.05486624361351,65.11599014242258,1.8527433121806753,1.0228395813133007,A,1702.9864159994759,Correct,k
15,24,490,A,30.97723482293987,44.854359179992066,1.5488617411469934,0.7045706264067049,A,1103.6012910190038,Correct,k
15,24,491,A,32.658331969882035,51.98134852361454,1.6329165984941016,0.8165211132273904,A,862.1846250025555,Correct,k
15,24,492,B,44.036550562049456,28.669035820056557,2.2018275281024726,0.4503321615889615,B,1013.445958000375,Correct,d
15,24,493,B,47.9869569461248,39.733343300465094,2.39934784730624,0.6241298970765118,A,989.5625420031138,Incorrect,k
15,24,494,B,46.160760419064886,26.89427718548155,2.3080380209532443,0.42245431814758205,B,1145.2809990150854,Correct,d
15,24,495,B,67.70455907061286,57.20995156368525,3.385227953530643,0.8986518177235074,B,1273.6347909958567,Correct,d
15,24,496,B,54.448447776248244,33.91230383699981,2.7224223888124124,0.5326932230031178,B,917.327082977863,Correct,d
15,24,497,B,72.46702381538691,43.45053150816215,3.6233511907693456,0.6825193529030703,B,833.4971239964943,Correct,d
15,24,498,B,73.91414621930971,60.60113374769796,3.695707310965486,0.9519203829049019,B,939.2109580221586,Correct,d
15,24,499,B,82.66137635212544,52.30972601353276,4.133068817606272,0.8216792547770472,B,923.611416015774,Correct,d
15,24,500,B,74.97361871285493,59.41562300417035,3.7486809356427466,0.9332984236918113,B,4152.044082991779,Correct,d
15,24,501,B,67.27784104352202,42.75911209302369,3.3638920521761007,0.6716585621273284,B,2502.6451249723323,Correct,d
15,24,502,B,59.48961665157406,36.63403778912969,2.9744808325787027,0.5754461199483035,B,2312.662291020388,Correct,d
15,24,503,A,43.76157187519194,62.58336832786909,2.188078593759597,0.9830572508786883,B,2308.1710420083255,Incorrect,d
15,24,504,B,37.42774565520827,22.970780949685114,1.8713872827604134,0.3608241833937556,B,1038.1795410066843,Correct,d
15,24,505,A,29.99813818166303,44.51873005349547,1.4999069090831514,0.6992985764160424,B,814.3489999929443,Incorrect,d
15,24,506,A,41.10393154436078,51.57322043981513,2.055196577218039,0.8101102522784509,B,780.3992489934899,Incorrect,d
15,24,507,B,33.63800938058587,16.399763644491912,1.6819004690292934,0.25760688493072387,B,678.4958329808433,Correct,d
15,24,508,A,31.97686999655855,60.87584234128798,1.5988434998279275,0.9562354954024038,B,693.1330829975195,Incorrect,d
15,24,509,B,56.54170439193788,48.10004147207723,2.827085219596894,0.755553684630211,B,1847.3141249851324,Correct,d
15,24,510,B,59.779461396581816,49.51528481968214,2.9889730698290906,0.777784275149598,B,1163.7315830157604,Correct,d
15,24,511,B,32.419095450455686,19.707400197453932,1.6209547725227844,0.3095631184083766,A,1327.3898740008008,Incorrect,k
15,24,512,A,34.734766206451084,48.43205907571999,1.736738310322554,0.7607690049525441,B,1043.6160000099335,Incorrect,d
15,24,513,B,64.07705293441873,43.26128723966484,3.2038526467209363,0.6795467108848445,B,1298.3399579825345,Correct,d
15,24,514,A,45.80515298884843,65.87091054110044,2.290257649442421,1.034697843205958,B,2227.713999018306,Incorrect,d
15,24,515,A,47.007465015215786,68.52829156903766,2.3503732507607893,1.0764398867817404,A,1894.8713749996386,Correct,k
15,24,516,A,37.793711089152225,51.95809520245996,1.8896855544576112,0.8161558509128363,B,3496.011041017482,Incorrect,d
15,24,517,B,88.12125108996545,62.43216887666361,4.4060625544982726,0.9806822154530187,B,796.2089999928139,Correct,d
15,24,518,B,86.15593668268657,64.23195673908242,4.3077968341343285,1.0089532170859936,B,2599.4770410179626,Correct,d
15,24,519,A,29.13992625281287,51.70523959339346,1.4569963126406436,0.8121840042935249,A,1098.0252920126077,Correct,k
15,24,520,B,39.99743126756124,21.79703516459763,1.999871563378062,0.3423870277156915,B,1154.4200829812326,Correct,d
15,24,521,B,45.26088524378634,22.501322852194143,2.2630442621893168,0.3534499528425262,B,1006.3972909993026,Correct,d
15,24,522,B,78.57445596729563,47.01690847957475,3.928722798364782,0.7385398713696786,B,1215.664540999569,Correct,d
15,24,523,A,61.32585643886358,73.6293615097392,3.066292821943179,1.1565673060375186,A,1235.108000022592,Correct,k
15,24,524,B,73.71069782036606,53.14177780575695,3.6855348910183032,0.8347490937663357,B,1387.7254579856526,Correct,d
15,24,525,A,58.741881744225594,70.95902546068572,2.9370940872112796,1.1146217654659067,A,2089.423249999527,Correct,k
15,24,526,B,85.62423518041578,67.86415719519042,4.281211759020789,1.0660076884323655,A,1747.9862910113297,Incorrect,k
15,24,527,B,55.80197600220974,26.361714735936264,2.790098800110487,0.41408884675223584,B,1400.8819579903502,Correct,d
15,24,528,B,46.33578289919921,19.06400856404605,2.3167891449599605,0.2994567462638998,B,2325.15700001386,Correct,d
15,24,529,B,85.15528681964284,68.88368963500545,4.257764340982142,1.0820224665474625,A,1335.439791000681,Incorrect,k
15,24,530,A,32.11010230691317,52.45655680261548,1.6055051153456585,0.8239856674185624,B,1030.4752079828177,Incorrect,d
15,24,531,A,29.710754845199205,62.68207974899755,1.4855377422599603,0.9846078062559013,A,1638.7542079901323,Correct,k
15,24,532,B,75.8840441903427,64.84912271793215,3.7942022095171355,1.018647637611993,B,1685.5661669978872,Correct,d
15,24,533,A,15.110196529681673,37.3983846882263,0.7555098264840836,0.5874524529632837,A,692.5971249875147,Correct,k
15,24,534,B,87.27529494754795,64.9174334775372,4.363764747377397,1.019720660514675,B,706.009166984586,Correct,d
15,24,535,A,34.93984677228367,67.96922626041564,1.7469923386141835,1.0676581094495212,A,1469.4193750037812,Correct,k
15,24,536,B,76.23496555412119,54.22918631138767,3.811748277706059,0.8518300666300382,B,698.2802080165129,Correct,d
15,24,537,B,62.09707671885818,40.47742130138253,3.104853835942909,0.6358178469834118,B,803.6791670019738,Correct,d
15,24,538,A,45.8072842695137,60.91800129307737,2.290364213475685,0.9568977266685269,A,1023.8488739996683,Correct,k
15,24,539,A,48.94452569281109,67.35755781926794,2.4472262846405544,1.0580500440438094,B,1753.6079580022488,Incorrect,d
15,24,540,A,43.502467175938115,56.53191180154461,2.1751233587969057,0.8880011940455934,A,651.2034159968607,Correct,k
15,24,541,A,30.178157895388175,45.30537859594729,1.5089078947694088,0.7116552228256613,B,782.2791659855284,Incorrect,d
15,24,542,A,50.34134610499765,60.87411649764973,2.5170673052498826,0.9562083859139281,A,534.5139170240145,Correct,k
15,24,543,B,83.87237687788117,68.18173467660537,4.1936188438940585,1.0709961838451596,B,796.8982080055866,Correct,d
15,24,544,A,53.80204884616278,67.74969361932497,2.690102442308139,1.064209698787153,B,1358.4477080148645,Incorrect,d
15,24,545,A,21.716080021492992,47.49253246649494,1.0858040010746495,0.7460109554855763,A,764.3160829902627,Correct,k
15,24,546,A,44.22734105318434,58.353249030669105,2.211367052659217,0.9166106923392289,A,786.4116659911815,Correct,k
15,24,547,B,48.70777405780866,30.396384165195784,2.435388702890433,0.4774652859453609,B,894.3436669942457,Correct,d
15,24,548,A,66.72218435961787,81.68271140777684,3.3361092179808933,1.2830690304198347,A,915.8970830030739,Correct,k
15,24,549,B,43.592957079420174,27.710330133924963,2.1796478539710087,0.4352728478864326,B,804.8463750164956,Correct,d
15,24,550,B,75.48600887988756,61.63290687409644,3.774300443994378,0.9681274372752262,A,1610.6540829932783,Incorrect,k
15,24,551,B,60.45632133800698,35.08546554456557,3.022816066900349,0.5511212040129251,B,2547.096499009058,Correct,d
15,24,552,B,88.59794300166858,65.14474752800739,4.429897150083429,1.0232913012697493,B,1023.004624992609,Correct,d
15,24,553,A,31.820701999177132,44.20197013224427,1.5910350999588565,0.6943229232082704,B,1018.1717920058873,Incorrect,d
15,24,554,A,13.774280457025284,41.387884751891406,0.6887140228512643,0.6501193734208154,A,1029.1802079882473,Correct,k
15,24,555,A,66.36021466431202,84.87596893686305,3.3180107332156012,1.3332286023918223,B,1058.0260420101695,Incorrect,d
15,24,556,B,48.34051296544372,26.902359911385275,2.4170256482721864,0.4225812813091827,B,6608.189541992033,Correct,d
15,24,557,B,63.87533687972062,35.85466059359198,3.1937668439860314,0.56320369158892,A,3910.8868330076803,Incorrect,k
15,24,558,A,53.27278118668015,67.86609265714279,2.663639059334008,1.0660380905976201,A,1031.4789160038345,Correct,k
15,24,559,B,87.79257905648382,66.2861753481649,4.389628952824191,1.0412208075417986,B,811.5056250244379,Correct,d
15,24,560,A,13.208142066542042,36.00580930273562,0.6604071033271021,0.5655779299601462,A,864.1622499853838,Correct,k
15,24,561,A,35.496231822410856,49.57829350119322,1.7748115911205429,0.7787740132043361,A,2440.2148330118507,Correct,k
15,24,562,B,77.26541717051477,53.331026694370856,3.863270858525738,0.8377218083571831,B,3886.48225000361,Correct,d
15,24,563,A,62.582974524325664,73.55183685595932,3.1291487262162834,1.1553495516235839,A,6417.301417008275,Correct,k
15,24,564,B,37.14609222680308,27.88638856726042,1.857304611340154,0.4380383672902786,B,1509.9711249931715,Correct,d
15,24,565,A,61.11465326877509,86.73062352520574,3.0557326634387545,1.3623614485402422,A,960.0160409754608,Correct,k
15,24,566,A,27.024001803738695,48.4453758816369,1.3512000901869348,0.7609781848507331,A,931.0266660177149,Correct,k
15,24,567,A,17.97443088216155,42.570540077335096,0.8987215441080775,0.668696479831529,B,1025.245333003113,Incorrect,d
15,24,568,A,38.63654839728902,69.012682611953,1.9318274198644507,1.084048683491178,A,742.4737490073312,Correct,k
15,24,569,B,73.29526781846985,45.70741352483961,3.6647633909234925,0.7179703727211343,B,1589.3744159839116,Correct,d
15,24,570,A,41.74707634926461,72.83522603401043,2.0873538174632302,1.1440930551549962,A,1316.4697079919279,Correct,k
15,24,571,B,39.32204853790496,29.88654984915325,1.966102426895248,0.469456827236225,B,968.6477080103941,Correct,d
15,24,572,A,63.65403379220396,75.60248051559986,3.182701689610198,1.1875609869048702,A,925.8694580057636,Correct,k
15,24,573,A,48.314570728053475,63.16347754749367,2.4157285364026735,0.9921695851919496,A,1123.0356239830144,Correct,k
15,24,574,B,63.95960254668297,45.55494278325193,3.1979801273341484,0.7155753679128383,B,2488.1980000063777,Correct,d
15,24,575,B,45.56400692772293,29.58752283941479,2.2782003463861464,0.4647597219511285,B,1064.7862080077175,Correct,d
15,24,576,A,57.9484088200706,79.27602373663277,2.89742044100353,1.245264868884078,A,1062.063041026704,Correct,k
15,24,577,A,18.740633954118717,43.333088875542735,0.9370316977059359,0.6806745683437933,A,1290.4672500153538,Correct,k
15,24,578,B,57.35617661466688,27.497859567864896,2.867808830733344,0.4319353680392408,B,1060.2762500056997,Correct,d
15,24,579,B,39.22358781421894,23.09266444679604,1.961179390710947,0.3627387248893433,B,1536.0773330030497,Correct,d
15,24,580,B,70.48687775224914,45.49344266409962,3.5243438876124573,0.7146093263002192,B,944.7080420213751,Correct,d
15,24,581,A,29.01037998756208,54.04736053827942,1.4505189993781038,0.8489739540648876,B,1716.8544169981033,Incorrect,d
15,24,582,A,30.285781347102215,49.85016620926156,1.5142890673551108,0.7830445797162314,A,949.0449579898268,Correct,k
15,24,583,B,64.51311405927468,34.3880154827281,3.2256557029637345,0.5401656840603534,B,1024.1837919747923,Correct,d
15,24,584,A,29.49151655519053,58.27631676330398,1.4745758277595262,0.9154022431093375,A,815.3382499876898,Correct,k
15,24,585,A,36.0584631380219,45.02150281390578,1.8029231569010948,0.707196112468693,B,849.9876659770962,Incorrect,d
15,24,586,A,48.02852047670978,64.91745051297598,2.401426023835489,1.0197209281067214,A,730.3725419915281,Correct,k
15,24,587,B,49.253185959064766,35.95288601247315,2.462659297953238,0.5647466128606843,B,751.5488750068471,Correct,d
15,24,588,B,64.99816330712271,39.14568769468345,3.2499081653561355,0.6148990244066895,B,832.1081660105847,Correct,d
15,24,589,A,48.200680109966285,59.618687762819754,2.4100340054983143,0.9364881574616913,A,987.785665987758,Correct,k
15,24,590,B,44.944897781457854,25.266467706485003,2.247244889072893,0.3968847466442852,B,699.8177079949528,Correct,d
15,24,591,B,35.35559804278596,20.40155180336962,1.767779902139298,0.32046682633648793,B,671.1010830185842,Correct,d
15,24,592,B,47.63240681640512,38.95975380742165,2.3816203408202563,0.6119783817353142,B,1707.633165991865,Correct,d
15,24,593,A,43.3911887918176,72.09635901607498,2.1695594395908797,1.132486959177367,A,1137.1388749976177,Correct,k
15,24,594,B,68.77568582242495,44.11111762451221,3.4387842911212476,0.6928958153540141,B,1050.099375017453,Correct,d
15,24,595,B,59.92620156862712,40.29842425209118,2.996310078431356,0.6330061679080721,A,1437.393832980888,Incorrect,k
15,24,596,A,25.22171200576461,47.68012023328113,1.2610856002882302,0.7489575772357703,A,939.6594580030069,Correct,k
15,24,597,A,41.965763752622934,53.11282163485069,2.0982881876311468,0.8342942512973598,A,1350.9588740125764,Correct,k
15,24,598,B,71.49026020107334,55.10212818021422,3.574513010053667,0.8655422054406207,B,1401.1737079999875,Correct,d
15,24,599,A,33.52039243155576,56.784194551752655,1.676019621577788,0.8919640422189985,A,1078.1959159940016,Correct,k
