subject,day,trial,cat,x,y,xt,yt,resp,rt,fb
4,14,0,A,66.10636566181725,84.76840825028805,3.305318283090862,1.3315390430780267,A,836.4369999617338,Correct
4,14,1,A,36.14946891075232,56.39005966291485,1.807473445537616,0.8857729858625171,A,741.9388999696821,Correct
4,14,2,B,80.4307195741356,58.53134857478412,4.02153597870678,0.9194082734362261,B,590.3142999741249,Correct
4,14,3,A,61.26645989552046,87.1507147883076,3.063322994776023,1.3689602266702323,A,600.055799994152,Correct
4,14,4,A,46.83916956417488,78.74572471362585,2.341958478208744,1.236934951309656,A,741.6407000273466,Correct
4,14,5,A,13.943451726608664,33.37001224103065,0.6971725863304331,0.5241749265331168,A,870.0751999858767,Correct
4,14,6,B,56.038479075967864,48.31778208696888,2.801923953798393,0.7589739462108698,A,2041.3571000099182,Incorrect
4,14,7,A,27.79271957777977,42.15499087172269,1.3896359788889885,0.6621690481737439,A,608.0849000136368,Correct
4,14,8,B,41.49598147605943,26.423159844715634,2.0747990738029713,0.4150540242639373,B,835.9002000070177,Correct
4,14,9,A,47.54674884983014,62.89873986468443,2.377337442491507,0.9880110953947404,A,1095.678899961058,Correct
4,14,10,B,60.36329317671911,37.72462329264882,3.0181646588359556,0.5925769969781397,B,2751.0478000040166,Correct
4,14,11,B,56.24533205584538,44.45957296029014,2.812266602792269,0.6983693389689345,B,135416.8073000037,Correct
4,14,12,B,53.48512012691494,30.4876327751725,2.6742560063457472,0.4788986157591266,B,959.2001999844797,Correct
4,14,13,B,53.94299541683928,39.107851959347926,2.697149770841964,0.6143047020658232,B,767.6272999960929,Correct
4,14,14,A,61.7335478834643,79.26141387829573,3.0866773941732153,1.2450353777659697,A,55334.53120000195,Correct
4,14,15,B,47.963716416250975,24.506284870031067,2.398185820812549,0.3849438225723415,B,3921.0055000148714,Correct
4,14,16,B,52.685071506671825,24.50587713870648,2.6342535753335916,0.3849374179436717,B,414.95549998944625,Correct
4,14,17,A,26.050565712753986,41.50812219971698,1.3025282856376992,0.6520080588346914,A,187846.16949997144,Correct
4,14,18,B,52.427249707224206,28.265640033651554,2.62136248536121,0.4439956353936664,B,558.0773000256158,Correct
4,14,19,B,82.74808099641635,57.72305930101024,4.137404049820817,0.9067116952139086,B,550.5514999968,Correct
4,14,20,A,51.81109078772247,69.07510025749058,2.5905545393861233,1.085029137574554,A,1365.295200026594,Correct
4,14,21,A,28.713257730865088,39.70378907359618,1.4356628865432544,0.6236656603664422,A,1432.3735000216402,Correct
4,14,22,B,73.84201351868923,44.099317061211316,3.6921006759344612,0.6927104525391425,B,40673.12029999448,Correct
4,14,23,B,60.41953036056752,49.90917888544261,3.0209765180283763,0.7839715486660265,B,6388.03089997964,Correct
4,14,24,B,59.6329881195844,35.54496735225601,2.98164940597922,0.5583390415296827,B,9932.533200015314,Correct
4,14,25,A,62.41050663749563,82.46733243762279,3.1205253318747816,1.2953938287359148,A,1480.556299968157,Correct
4,14,26,B,65.59599858151047,36.1442564638095,3.2797999290755233,0.5677526528808465,B,1551.4493999653496,Correct
4,14,27,A,19.308368501600324,33.11516838078168,0.9654184250800162,0.5201718485372637,A,902.3186999838799,Correct
4,14,28,A,32.21023317161186,53.50110160837468,1.610511658580593,0.8403933388591549,A,8640.337799966801,Correct
4,14,29,B,39.97150753812467,14.553821847999984,1.9985753769062335,0.2286108989966569,B,5548.976699996274,Correct
4,14,30,A,57.19316557992801,84.1673795192482,2.8596582789964002,1.322098105847871,A,584.0923000359908,Correct
4,14,31,B,68.75937924895466,56.26638794038908,3.4379689624477328,0.8838303549877983,B,1021.0461000096984,Correct
4,14,32,A,56.49645394861574,84.07543964050203,2.824822697430787,1.320653917609666,A,508.8934999657795,Correct
4,14,33,A,49.11978846812623,61.80256198669524,2.4559894234063115,0.9707923735521479,A,1044.8761000297964,Correct
4,14,34,B,58.354297372530475,31.39103371935724,2.9177148686265237,0.493089204606611,B,1829.461099987384,Correct
4,14,35,B,83.17367980076827,58.18745137956042,4.158683990038413,0.9140063489257015,B,14478.039500012528,Correct
4,14,36,A,48.70149686319387,61.3926740280108,2.4350748431596934,0.9643538685531581,A,349895.64470003825,Correct
4,14,37,B,86.62654813764878,62.52156703160301,4.33132740688244,0.9820864783870291,B,2659.265900030732,Correct
4,14,38,A,24.44549215702669,42.97246335448071,1.2222746078513345,0.6750098759054659,A,460.40520002134144,Correct
4,14,39,A,29.400770674166164,49.77857554770343,1.4700385337083082,0.7819200362341481,A,1798.221500008367,Correct
4,14,40,B,38.232044359154465,27.7639855408125,1.9116022179577232,0.43611566504694893,B,10142.835500009824,Correct
4,14,41,B,34.71520946158856,23.958378392917517,1.7357604730794278,0.3763373277555705,B,485.2575000259094,Correct
4,14,42,A,27.187039200295025,36.65153497635616,1.3593519600147514,0.5757209651225493,A,852.3218000191264,Correct
4,14,43,B,48.24342789012412,37.97839798376093,2.4121713945062058,0.5965632805044636,B,1124.468700028956,Correct
4,14,44,B,74.90540412741177,52.69982746617413,3.7452702063705887,0.8278069540659112,B,1623.1671000132337,Correct
4,14,45,A,56.171062209965726,78.34470364796735,2.8085531104982864,1.2306357271406185,A,6271.665999956895,Correct
4,14,46,A,62.99132225722827,78.5473248726632,3.1495661128614136,1.2338184938954475,A,1388.193399994634,Correct
4,14,47,A,28.600357032423855,47.028918113068656,1.4300178516211925,0.7387285182514624,A,1078.129000030458,Correct
4,14,48,A,16.953534493639655,38.635330783723106,0.8476767246819827,0.6068823567957804,A,706.185299961362,Correct
4,14,49,B,75.91950154788927,57.654931825634634,3.795975077394463,0.9056415513331706,B,1133.8027999736369,Correct
4,14,50,B,60.90911904668209,32.87588431277221,3.045455952334105,0.5164131831863654,B,2429.50299999211,Correct
4,14,51,A,38.122901374726695,59.93766347809229,1.9061450687363348,0.9414986162805599,A,432.36370000522584,Correct
4,14,52,B,47.573509910663304,21.16811988001331,2.378675495533165,0.33250804952678936,B,37288.92319998704,Correct
4,14,53,B,62.01836183105273,30.134313620648037,3.1009180915526366,0.4733486914579935,B,5781.744999985676,Correct
4,14,54,B,47.65553927935706,17.068892223855396,2.382776963967853,0.2681175320769003,B,774.598199990578,Correct
4,14,55,A,68.15692217343106,85.49743746327789,3.407846108671553,1.3429906071769329,A,369.1938000265509,Correct
4,14,56,B,86.68494702203117,64.45216036326464,4.334247351101558,1.0124121675261173,B,1086.3816000055522,Correct
4,14,57,A,12.672151332918833,40.53776369004137,0.6336075666459416,0.6367657030079652,A,798.1975000002421,Correct
4,14,58,B,59.959414265025636,43.40474794355026,2.9979707132512816,0.681800186351871,B,428.51850000442937,Correct
4,14,59,A,41.05536997783419,72.34833218571302,2.052768498891709,1.1364449444705498,A,52840.443299966864,Correct
4,14,60,B,67.22741112212773,39.695201910648045,3.3613705561063862,0.6235307735262772,B,2035.8549999655224,Correct
4,14,61,B,58.54441060751378,44.10095668398829,2.9272205303756893,0.6927362076734964,B,5041.391099977773,Correct
4,14,62,B,85.22828975114467,62.16730138705222,4.261414487557233,0.976521686655329,B,5846.489500021562,Correct
4,14,63,A,51.94869728130395,78.72374448477336,2.597434864065198,1.2365896866822201,A,1001.0957000195049,Correct
4,14,64,B,46.09709953548027,27.699700227605025,2.3048549767740134,0.43510587370841736,B,11335.38820000831,Correct
4,14,65,B,62.34457997021753,32.76160460488357,3.1172289985108765,0.5146180817325788,B,817.9455000208691,Correct
4,14,66,B,61.23196405738663,34.549488771032294,3.0615982028693316,0.5427021005417905,B,60969.54879997065,Correct
4,14,67,A,54.01899517567966,77.58335135666675,2.7009497587839832,1.2186764333149,A,4909.049200010486,Correct
4,14,68,B,73.70024118712524,40.758317309601566,3.685012059356262,0.6402301511626298,B,1608.5312000359409,Correct
4,14,69,B,78.4866312413981,64.9173567914557,3.924331562069905,1.0197194559325238,A,11078.92639999045,Incorrect
4,14,70,B,87.92124615715571,63.15775252629774,4.396062307857785,0.992079656769296,B,1677.4474999983795,Correct
4,14,71,A,53.97446935259548,80.96546147152884,2.6987234676297738,1.2718024947673123,A,949.9402000219561,Correct
4,14,72,B,43.98415462800453,24.383616013867048,2.199207731400227,0.3830169446855958,B,1111.0444000223652,Correct
4,14,73,A,63.47356275404036,86.91763969209245,3.173678137702018,1.3652990916202112,A,1358.7542999885045,Correct
4,14,74,A,28.761795328848706,51.901068769877966,1.4380897664424352,0.8152600818045364,A,9415.28279997874,Correct
4,14,75,A,41.955185273357216,58.146717596089815,2.097759263667861,0.9133665041511806,A,10669.382799998857,Correct
4,14,76,A,42.47224800352127,50.10781501864675,2.1236124001760635,0.7870917177500848,A,4768.751600000542,Correct
4,14,77,B,45.5895491622978,16.823510719052816,2.27947745811489,0.2642630884128273,B,3492.506999988109,Correct
4,14,78,A,43.06522923810318,69.1506206212195,2.1532614619051587,1.0862154086739904,A,392.33910001348704,Correct
4,14,79,A,49.429883285855894,63.670963052968716,2.471494164292795,1.0001411488709684,A,740.4246999649331,Correct
4,14,80,B,60.50537694374867,28.817583575266866,3.0252688471874336,0.4526655442713414,B,1722.8628999437205,Correct
4,14,81,A,21.074465981811496,42.37005945352253,1.053723299090575,0.6655473375567458,A,30755.28949999716,Correct
4,14,82,B,88.73323046982446,66.08179140388206,4.436661523491223,1.0380103520524453,B,1825.4121000063606,Correct
4,14,83,B,40.660680865324835,25.16744733812999,2.0330340432662415,0.39532933833538586,A,955.0023999763653,Incorrect
4,14,84,A,20.41840085852482,46.06256381666459,1.020920042926241,0.7235490604597227,A,784.6994999563321,Correct
4,14,85,A,44.33838876241009,55.52782036275527,2.2169194381205046,0.8722289626074284,A,466.5652999537997,Correct
4,14,86,A,40.31268940648309,71.55782210679051,2.015634470324154,1.1240276411878918,A,72321.76960003562,Correct
4,14,87,A,46.48976291282188,56.47513019683397,2.324488145641094,0.8871092706845035,A,5691.069199994672,Correct
4,14,88,B,44.28260518129289,26.45398263191261,2.2141302590646443,0.4155381874730431,B,792.7103000110947,Correct
4,14,89,A,29.727929444734016,38.550594763817074,1.4863964722367007,0.6055513265076244,B,2129.5178000000305,Incorrect
4,14,90,B,84.03743355407863,55.42294770235701,4.201871677703932,0.8705816267100802,B,4386.8469999870285,Correct
4,14,91,A,45.88180171228173,72.68756620760989,2.2940900856140867,1.141773620025745,A,41885.33650001045,Correct
4,14,92,A,23.73311754182671,40.7370328481276,1.1866558770913356,0.6398958156236187,A,490463.8560000458,Correct
4,14,93,B,50.005278477141,29.58216343261008,2.50026392385705,0.46467553658590227,B,7273.901299980935,Correct
4,14,94,A,10.158459739797802,32.5109872168195,0.5079229869898901,0.5106813930065591,A,780.7076000026427,Correct
4,14,95,B,41.74246118538071,22.329500016411053,2.0871230592690355,0.35075096604945066,B,7937.406100041699,Correct
4,14,96,B,84.4545385572497,54.65132121287017,4.222726927862485,0.8584609461566447,B,588.7151000206359,Correct
4,14,97,A,68.41935243712898,85.56860888051713,3.4209676218564486,1.3441085651846547,A,492.2196000115946,Correct
4,14,98,A,60.83104021888026,78.047942779096,3.041552010944013,1.225974218313023,A,2415.2881000190973,Correct
4,14,99,A,23.85528804922953,43.34837923961434,1.1927644024614765,0.6809147488209836,A,1818.2546999887563,Correct
4,14,100,A,57.11792601427727,70.2755520264044,2.8558963007138636,1.103885789865597,A,35887.00369995786,Correct
4,14,101,B,44.48831402971125,22.820016494733757,2.2244157014855626,0.35845598087326735,B,2665.390100039076,Correct
4,14,102,A,30.25164163075675,50.80364938904329,1.5125820815378375,0.7980218584808497,A,1504.2083999724127,Correct
4,14,103,B,41.858872423160676,20.705064755613183,2.092943621158034,0.32523439664167664,B,7798.098500003107,Correct
4,14,104,B,58.12545612111744,35.06260696606257,2.9062728060558722,0.5507621423014424,B,2363.7822000309825,Correct
4,14,105,B,41.43287485814904,25.1138665424144,2.071643742907452,0.3944876931644179,B,1533.5178999812342,Correct
4,14,106,A,23.082779024942838,50.53210300943019,1.1541389512471418,0.7937564179243427,A,516.3146000122651,Correct
4,14,107,B,82.465341280725,55.76485084032624,4.12326706403625,0.8759522286424976,B,968.818299996201,Correct
4,14,108,B,70.79070431000127,47.259591433556494,3.539535215500064,0.7423519262965812,B,960.0208000047132,Correct
4,14,109,B,81.04579747840268,63.478768991434876,4.052289873920134,0.997122171612077,B,2500.2110000350513,Correct
4,14,110,B,32.995258430326615,17.612755065644038,1.6497629215163305,0.2766605096185186,B,1772.9319999925792,Correct
4,14,111,B,70.47642575540941,37.814365695176576,3.5238212877704704,0.5939866673406231,B,1053.954100003466,Correct
4,14,112,A,29.67408081837364,40.32806301014983,1.483704040918682,0.6334717324309651,A,605.386000010185,Correct
4,14,113,B,56.334696661535745,49.078701629054834,2.8167348330767874,0.7709264424278203,A,449.9972999910824,Incorrect
4,14,114,B,79.22419422378303,62.753652867836884,3.9612097111891513,0.985732074177602,B,1121.1401000036858,Correct
4,14,115,A,49.943076875003726,74.44338504794239,2.497153843750186,1.16935395787486,A,7880.016800016165,Correct
4,14,116,A,39.89993324772148,60.23692207107304,1.994996662386074,0.9461993592667197,A,593.297099985648,Correct
4,14,117,B,70.71999447408307,54.901790982023634,3.5359997237041534,0.862395316090239,B,8642.580599989742,Correct
4,14,118,A,58.469471812919224,67.59657008923767,2.923473590645961,1.061804440001083,B,889.0308999689296,Incorrect
4,14,119,B,69.06633302092267,57.75384127734499,3.4533166510461335,0.9071952173674899,B,1541.1179999937303,Correct
4,14,120,B,41.09894976074402,20.71858909030834,2.0549474880372007,0.32544683639429156,B,1046.2136999703944,Correct
4,14,121,B,60.83987848567871,28.472329589884907,3.0419939242839353,0.4472423073508485,B,503.1378000276163,Correct
4,14,122,A,53.04795284652292,71.29522779368288,2.6523976423261457,1.119902819363225,A,1729.9190000048839,Correct
4,14,123,A,27.22103462307605,49.5536712461259,1.3610517311538024,0.7783872477261645,A,19416.4728000178,Correct
4,14,124,A,36.13298806094018,48.83001384305377,1.806649403047009,0.7670200638201281,A,640.5403999960981,Correct
4,14,125,B,77.91677561753818,58.775824547251126,3.895838780876909,0.923248493031634,B,1300.619599991478,Correct
4,14,126,B,33.55855319366633,17.27939173725537,1.6779276596833166,0.2714240507013082,B,1744.035400042776,Correct
4,14,127,B,52.01502109680503,33.71597526892141,2.6007510548402513,0.5296093010672933,B,584.46520002326,Correct
4,14,128,A,32.98399389631582,65.77360095204213,1.6491996948157912,1.033169307755411,A,6529.510000022128,Correct
4,14,129,A,25.01244440319639,37.079524187421896,1.2506222201598194,0.5824438039290484,A,1827.659600006882,Correct
4,14,130,A,37.51113523664305,70.0490123872718,1.8755567618321525,1.1003273135353675,A,982.5418000109494,Correct
4,14,131,A,44.63188997020586,60.97107117385991,2.231594498510293,0.9577313464064935,A,1275.9557000244968,Correct
4,14,132,A,29.49976898253572,62.043191830565654,1.4749884491267862,0.9745721783008365,A,456.9169000023976,Correct
4,14,133,A,37.05939358135542,62.515858974741214,1.8529696790677712,0.9819968164395128,A,424.73800003062934,Correct
4,14,134,A,24.9475593425654,51.03613175826541,1.2473779671282699,0.8016736829970367,A,623.9475000184029,Correct
4,14,135,B,70.62888886510379,61.484602182625935,3.53144444325519,0.9657978726291431,B,700.8062999811955,Correct
4,14,136,A,51.58413314179237,65.66436615417476,2.5792066570896184,1.0314534515629283,B,734.6636000438593,Incorrect
4,14,137,A,36.554754449241024,51.45836198675904,1.827737722462051,0.8083060599168321,A,959.4207999762148,Correct
4,14,138,A,60.2228315955139,71.49468794061359,3.011141579775695,1.123035932024632,B,926.6773999552242,Incorrect
4,14,139,A,24.597751069541488,41.737631945360704,1.2298875534770743,0.6556131894888992,A,487.17520001810044,Correct
4,14,140,A,68.01733392107121,87.20117060194508,3.4008666960535607,1.3697527847375046,A,968.0823999806307,Correct
4,14,141,A,34.5900050020375,46.687863023521814,1.7295002501018752,0.7333712374325134,A,497.86459997994825,Correct
4,14,142,B,75.22514084123705,51.63844231286407,3.7612570420618523,0.8111347550645703,B,4138.030000030994,Correct
4,14,143,A,44.88971983944947,53.642527644150825,2.2444859919724736,0.8426148538342582,A,1368.220200005453,Correct
4,14,144,A,32.006671412998315,51.5953735363841,1.6003335706499158,0.8104582323056276,A,985.674099996686,Correct
4,14,145,A,65.15626577516878,88.48118504391292,3.257813288758439,1.3898592045743794,A,841.0468000220135,Correct
4,14,146,B,82.02491164087036,65.91795287298855,4.101245582043518,1.0354367824272952,B,7717.738499981351,Correct
4,14,147,B,71.81857952474931,54.78027793726823,3.590928976237466,0.8604865936466445,B,7809.237800014671,Correct
4,14,148,B,66.4153920753209,40.560283817201956,3.3207696037660446,0.6371194483381931,B,1181.4777000108734,Correct
4,14,149,A,10.517728876989604,33.28516355642259,0.5258864438494802,0.5228421265119596,A,2743.416299985256,Correct
4,14,150,B,48.66324384405755,30.46165266552487,2.4331621922028774,0.4784905211510843,B,425.74670002795756,Correct
4,14,151,B,86.75541609875458,62.37630714799796,4.33777080493773,0.9798047414710547,B,872.0356000121683,Correct
4,14,152,B,52.35526884142115,43.1214605735734,2.6177634420710576,0.6773503187500005,B,1381.919800012838,Correct
4,14,153,A,64.75050053124912,82.83312662751953,3.237525026562456,1.3011397104344422,A,662.752799980808,Correct
4,14,154,A,47.86353956218973,78.73549080705703,2.3931769781094863,1.2367741974811854,A,35832.02720002737,Correct
4,14,155,A,20.061600597949596,51.11238163664946,1.0030800298974798,0.8028714132858791,A,4627.805299998727,Correct
4,14,156,A,59.63225010726424,74.2567149140169,2.981612505363212,1.1664217502679355,A,7015.704200020991,Correct
4,14,157,A,33.71374440522861,61.18934500861927,1.6856872202614306,0.9611599837852479,A,4835.150500002783,Correct
4,14,158,B,63.23586907287127,55.06794600437236,3.161793453643563,0.8650052730780781,B,3134.7186000202782,Correct
4,14,159,A,48.0026137694781,62.564824551851885,2.4001306884739053,0.982765965926161,A,12699.90919996053,Correct
4,14,160,A,35.36116676581289,53.684681333919,1.7680583382906445,0.8432770024447451,A,54651.18389995769,Correct
4,14,161,B,79.50625770361427,55.24723991040044,3.9753128851807134,0.8678216151681342,B,6724.742000049446,Correct
4,14,162,A,40.49092105007073,56.454679385245214,2.0245460525035366,0.8867880300872675,A,7117.040799988899,Correct
4,14,163,B,84.5087196964231,64.8888478678013,4.225435984821155,1.0192716388069514,B,580.2288000122644,Correct
4,14,164,A,33.52771622503303,61.105405406432475,1.6763858112516516,0.9598414635973714,A,867.1063999645412,Correct
4,14,165,A,25.61608011879204,47.543707485019326,1.280804005939602,0.7468148107967939,A,592.1434999909252,Correct
4,14,166,A,17.762843759195135,48.61496803932815,0.8881421879597567,0.7636421322342797,A,1468.7778999796137,Correct
4,14,167,A,19.946502578473766,38.760963822934684,0.9973251289236883,0.6088557959609567,A,647.0169000094756,Correct
4,14,168,B,56.1653536266579,45.31158812824355,2.808267681332895,0.7117527619308821,B,1216.3221999653615,Correct
4,14,169,B,50.77269559947687,34.06961468291013,2.5386347799738433,0.535164255992327,B,1932.6497999718413,Correct
4,14,170,B,78.0950417495701,49.60606595454969,3.904752087478505,0.7792102618815204,B,1314.9838999961503,Correct
4,14,171,A,51.084017055215185,72.74259969178732,2.554200852760759,1.142638083973711,A,28751.16689997958,Correct
4,14,172,A,15.230835925571519,35.47229118981136,0.7615417962785759,0.5571974470395465,A,405.93549999175593,Correct
4,14,173,A,26.18756080717883,55.74333469031643,1.3093780403589415,0.8756142537484758,A,482.8300999943167,Correct
4,14,174,B,86.37189131218945,61.914092152013,4.318594565609472,0.9725442852922276,B,20223.17509999266,Correct
4,14,175,A,49.155938153889394,72.77011406915913,2.45779690769447,1.1430702788028078,A,1294.6771999704652,Correct
4,14,176,A,27.737100249059615,59.707892950389706,1.3868550124529806,0.9378893892713505,A,805.3038999787532,Correct
4,14,177,A,60.21810824644495,75.50202608008085,3.010905412322247,1.1859830523216348,A,927.9652000404894,Correct
4,14,178,B,72.70412206306128,54.86782496903445,3.635206103153064,0.8618617792058462,B,2088.8659000047483,Correct
4,14,179,B,51.59121776070653,29.910288189369332,2.579560888035326,0.46982970821238124,B,8101.739699952304,Correct
4,14,180,A,39.807579635953466,59.84446185938039,1.9903789817976731,0.9400346086773199,A,1461.0232000122778,Correct
4,14,181,A,33.691945001817096,43.629081010443755,1.6845972500908548,0.6853240019264203,A,356.36540001723915,Correct
4,14,182,B,51.32790756017815,39.808679256043675,2.5663953780089073,0.625313271499496,B,932.6346999732777,Correct
4,14,183,B,84.20663730475928,60.63245350461557,4.210331865237964,0.9524123524961248,B,686.6376000107266,Correct
4,14,184,A,63.48389835691691,88.09654226969045,3.174194917845846,1.383817250005611,A,24293.5020000441,Correct
4,14,185,B,81.13455243900796,57.17615684196375,4.056727621950398,0.8981209714760556,B,1814.4908999674954,Correct
4,14,186,B,64.15618008707877,46.88153878920335,3.2078090043539387,0.7364134892457309,B,807.7196000376716,Correct
4,14,187,B,73.8263553701212,45.96180466074609,3.69131776850606,0.7219663393396452,B,776.7371000372805,Correct
4,14,188,B,84.4344194344192,66.39550448443161,4.221720971720959,1.0429381455983926,B,737.1849999763072,Correct
4,14,189,A,62.329037535958975,86.47256521403514,3.1164518767979486,1.3583078780673854,A,582.938700041268,Correct
4,14,190,B,55.91120789136735,29.75309680195266,2.7955603945683674,0.46736055167280216,B,1151.0328000294976,Correct
4,14,191,B,46.32908576856967,38.22743822625847,2.316454288428483,0.6004751954858563,B,722.7843000437133,Correct
4,14,192,B,61.41586481264554,44.703860656771475,3.0707932406322764,0.7022066011320753,B,890.0357999955304,Correct
4,14,193,A,27.435681179888082,47.33712360490227,1.3717840589944041,0.7435697987961646,A,539.068199985195,Correct
4,14,194,B,61.04579281463903,35.97509045007439,3.052289640731951,0.5650953993509101,B,814.4064999651164,Correct
4,14,195,B,51.56775502003466,43.600765609958614,2.578387751001733,0.6848792246556824,B,925.6531999562867,Correct
4,14,196,B,49.96219931680436,34.82325624320666,2.498109965840218,0.5470024299386647,B,357.26849996717647,Correct
4,14,197,A,17.899590560630315,47.794149501963865,0.8949795280315158,0.7507487447997097,A,2213.6247000307776,Correct
4,14,198,A,37.522891190335734,50.581985009345566,1.8761445595167867,0.7945399625467454,A,838.9289999613538,Correct
4,14,199,B,35.3889460900245,16.246055948163686,1.7694473045012247,0.255192450082799,B,2410.90959997382,Correct
4,14,200,B,58.81489139347848,42.629234493341414,2.940744569673924,0.6696184495621899,B,923.9882999681868,Correct
4,14,201,A,38.29405220377715,62.5739508907698,1.9147026101888573,0.9829093221226545,A,878.4952000132762,Correct
4,14,202,A,61.60562114287298,83.73026291825839,3.0802810571436487,1.3152318943357122,A,2179.2957999859937,Correct
4,14,203,A,33.065670435623645,41.71143780120303,1.6532835217811823,0.6552017328346352,A,585.4244999936782,Correct
4,14,204,B,50.94883622410533,26.29821577886963,2.547441811205266,0.41309140746707995,B,2042.7482000086457,Correct
4,14,205,A,45.83316676426943,74.68865110588037,2.2916583382134714,1.1732065881038247,A,1873.8027000217699,Correct
4,14,206,B,76.2595710952959,52.288667050547176,3.8129785547647947,0.8213484613600084,B,1965.9265999798663,Correct
4,14,207,B,32.8269940629486,14.644907362806379,1.6413497031474298,0.23004166691747793,B,997.7239999570884,Correct
4,14,208,A,37.06364310741885,45.82931348759326,1.8531821553709422,0.719885172858433,A,6619.011900038458,Correct
4,14,209,A,40.74223791912469,48.26060068538221,2.037111895956235,0.7580757428551363,A,3347.3050000029616,Correct
4,14,210,A,53.78305759400348,70.03452634301526,2.689152879700174,1.1000997672842878,A,1180.908599984832,Correct
4,14,211,A,43.852538823944926,63.89498515301799,2.1926269411972465,1.0036600797897512,A,8338.305899989791,Correct
4,14,212,B,51.86306353305409,32.61283499105303,2.593153176652704,0.5122812141031416,B,4894.67909996165,Correct
4,14,213,B,66.9702235640474,49.57758917920698,3.34851117820237,0.7787629497404474,B,586.5064000245184,Correct
4,14,214,B,69.52067842269466,46.750234386884046,3.476033921134733,0.7343509645171793,B,725.1132000237703,Correct
4,14,215,A,15.000324242885121,40.932918589004686,0.750016212144256,0.6429727816460311,A,1147.6803999976255,Correct
4,14,216,B,43.511238418513905,26.029559747507985,2.1755619209256953,0.4088713683947384,B,1359.8425000091083,Correct
4,14,217,B,62.298518447230066,40.52658961688977,3.1149259223615036,0.6365901810773466,B,701.6772000351921,Correct
4,14,218,B,68.74646746629566,42.71572891869446,3.4373233733147828,0.6709771008185179,B,3924.5391999720596,Correct
4,14,219,B,86.33640634573939,62.4015807168447,4.31682031728697,0.980201737762149,B,3591.578599996865,Correct
4,14,220,B,77.67051718983754,49.68430626793359,3.883525859491877,0.7804392578502275,B,1713.6336999828927,Correct
4,14,221,A,53.64688852246593,82.05185814576215,2.6823444261232963,1.288867573820591,A,1548.5209999606013,Correct
4,14,222,B,70.57369684224506,58.32792641780322,3.528684842112253,0.9162129256664832,A,2260.2894000010565,Incorrect
4,14,223,A,41.99454049102693,61.20163959193172,2.0997270245513464,0.9613531066483145,A,558.0328999785706,Correct
4,14,224,B,44.46364405267097,19.53730718639964,2.2231822026335486,0.30689130363860095,B,1167.0927999657579,Correct
4,14,225,B,57.76164528088204,36.42245567412525,2.8880822640441024,0.5721225958576589,B,684.9478000076488,Correct
4,14,226,A,61.01105244762033,87.35563702852778,3.0505526223810167,1.3721791376923969,A,1450.3309999709018,Correct
4,14,227,B,42.94922772295462,19.600110962161718,2.147461386147731,0.30787782304136013,B,2496.4790000231005,Correct
4,14,228,A,44.2017560700226,76.2112292370089,2.21008780350113,1.1971231894601742,A,333.0562000046484,Correct
4,14,229,A,36.05188520148182,67.68679240510686,1.8025942600740907,1.0632216488247055,A,1045.0676000327803,Correct
4,14,230,B,41.49607238735629,16.408008899613346,2.0748036193678145,0.25773640109530616,B,416.1778999841772,Correct
4,14,231,B,43.85644638932098,35.47878151808936,2.1928223194660488,0.5572993968777343,B,513.4892000351101,Correct
4,14,232,A,41.155566616578426,58.16144385328657,2.0577783308289215,0.9135978236583016,B,5880.334499990568,Incorrect
4,14,233,A,55.49099537680951,68.35918230894504,2.774549768840475,1.0737835247359353,A,930.3457000060007,Correct
4,14,234,A,51.58671720723336,73.91583338091434,2.5793358603616685,1.1610671956672383,A,770.9356000414118,Correct
4,14,235,B,76.2448237795367,53.888251570387354,3.8122411889768353,0.8464746762416377,B,1046.483799989801,Correct
4,14,236,A,52.493526329731885,63.03697247291588,2.6246763164865943,0.9901824481272726,B,964.1673999722116,Incorrect
4,14,237,B,56.20749933101538,26.985007246226708,2.810374966550769,0.4238795026090658,B,974.9472999828868,Correct
4,14,238,A,44.78270331734382,76.1377576470746,2.2391351658671907,1.195969100424248,A,2507.6814999920316,Correct
4,14,239,B,86.0343614468924,65.35081002154499,4.30171807234462,1.02652812334914,B,33723.68739999365,Correct
4,14,240,A,52.21338443141815,73.33618369819348,2.6106692215709075,1.1519620797427808,A,1422.9735999833792,Correct
4,14,241,A,37.33219179220931,55.539369628702005,1.8666095896104653,0.8724103780526914,A,4889.977400016505,Correct
4,14,242,B,85.64479107312829,67.13228134456696,4.282239553656415,1.0545114094540735,B,692.0895000221208,Correct
4,14,243,A,39.85851144752018,68.9141292974307,1.992925572376009,1.0825006116467273,A,753.3972999663092,Correct
4,14,244,B,60.44661863382072,34.25324414945577,3.022330931691036,0.538048700907739,B,455.9805999742821,Correct
4,14,245,B,33.01061719202377,10.983579363342756,1.6505308596011887,0.17252966118999027,B,420.8622999722138,Correct
4,14,246,B,42.95949335102706,32.4782263167944,2.147974667551353,0.5101667859923398,B,681.1584999668412,Correct
4,14,247,A,42.50310532493125,65.82940299177324,2.1251552662465625,1.0340458441457838,A,983.3026999840513,Correct
4,14,248,B,33.12157153302332,10.59029871369492,1.6560785766511659,0.16635202319132697,B,723.2101999688894,Correct
4,14,249,B,69.71647678331138,48.11748974868125,3.4858238391655685,0.755827761518196,B,591.327200003434,Correct
4,14,250,A,37.57506641804126,63.294566569524704,1.878753320902063,0.9942287267348446,A,1137.1378999901935,Correct
4,14,251,A,57.57641928405113,75.69936799305539,2.878820964202556,1.1890828918418657,A,806.9848999730311,Correct
4,14,252,B,78.20378015853092,57.45337480614045,3.9101890079265456,0.9024755010745589,B,7596.956500026863,Correct
4,14,253,A,36.085548792627236,60.45114833314599,1.804277439631362,0.9495644175223916,A,3166.0188999958336,Correct
4,14,254,B,77.79738035173426,55.33876285605714,3.889869017586713,0.8692592542366842,B,1423.2667000032961,Correct
4,14,255,B,47.055788678612984,18.308653720360855,2.352789433930649,0.2875916601250255,B,2349.16569996858,Correct
4,14,256,B,31.392901731984274,18.061057675124445,1.5696450865992135,0.2837024305411625,B,2651.4837000286207,Correct
4,14,257,B,41.521977680541525,24.713121739038538,2.076098884027076,0.3881928085131685,B,2034.2837999924086,Correct
4,14,258,B,47.55757115993999,28.187320887022942,2.377878557996999,0.44276540111524704,B,439.77759999688715,Correct
4,14,259,A,38.21801685469224,47.57947760322189,1.9109008427346117,0.7473766864996099,A,431.74239998916164,Correct
4,14,260,B,56.965377562938,26.207781767446214,2.8482688781469,0.41167087333746777,B,30995.46459998237,Correct
4,14,261,A,20.709643587039782,44.25862867596581,1.035482179351989,0.6952129135318637,A,561.3068999955431,Correct
4,14,262,B,60.07398170076236,43.67286644448572,3.003699085038118,0.6860117819160227,B,943.5714999563061,Correct
4,14,263,A,39.02547798919113,50.51689626237483,1.9512738994595566,0.7935175509001722,A,1039.9965000106022,Correct
4,14,264,A,15.224997619984343,30.535699171833485,0.7612498809992172,0.4796536409523,A,10138.213499973062,Correct
4,14,265,B,32.63265278579563,10.050207518333941,1.6316326392897815,0.1578682905332541,B,1158.4330999758095,Correct
4,14,266,A,40.13509311344416,51.117644784267,2.006754655672208,0.8029540866153291,A,496.0370999760926,Correct
4,14,267,B,84.65947916231266,58.75137157986518,4.232973958115633,0.9228643867181431,B,5649.072600004729,Correct
4,14,268,A,60.05230630655956,75.12949679513302,3.002615315327978,1.1801313759974392,A,819.1663000034168,Correct
4,14,269,A,56.170093825484415,69.98641982282294,2.8085046912742206,1.099344111832158,A,677.5992999901064,Correct
4,14,270,A,30.305228156081803,50.70798487136233,1.51526140780409,0.7965191637510713,A,488.7451999820769,Correct
4,14,271,A,63.703192694201036,88.71014745286037,3.185159634710052,1.3934557376838672,A,690.9802000154741,Correct
4,14,272,B,80.88255598397579,53.19625220140332,4.044127799198789,0.8356047755721927,B,625.9289999725297,Correct
4,14,273,A,40.656429010802576,63.001621822026095,2.032821450540129,0.9896271614015979,A,6742.502500012051,Correct
4,14,274,B,45.71707590845011,28.189281692198687,2.2858537954225056,0.44279620137092324,B,2220.174700021744,Correct
4,14,275,A,61.00824420817037,87.40409430209756,3.0504122104085183,1.3729403027656961,A,551.6983999987133,Correct
4,14,276,A,61.90767191973568,87.6119217401851,3.0953835959867835,1.3762048485292468,A,996.50730000576,Correct
4,14,277,B,55.36802592011905,47.240240094435435,2.768401296005953,0.7420479561724818,B,5184.950100025162,Correct
4,14,278,B,70.17420627100014,45.13800321266252,3.508710313550007,0.7090260964530652,B,125533.70840003481,Correct
4,14,279,A,27.824175184199838,56.83151425043542,1.391208759209992,0.8927073383077577,A,8316.579600039404,Correct
4,14,280,B,62.874611855945126,43.293845272546825,3.1437305927972563,0.6800581312694315,B,303121.7382000177,Correct
4,14,281,B,77.18764195957668,61.719459358721735,3.859382097978834,0.96948700052447,B,1386.466299998574,Correct
4,14,282,B,74.90890440256379,46.06418390094113,3.7454452201281896,0.7235745086840293,B,1991.0406999988481,Correct
4,14,283,B,39.86781014296363,27.20099789075062,1.9933905071481814,0.427272275719468,B,7617.848900030367,Correct
4,14,284,B,68.41563641087815,51.19999487807647,3.420781820543908,0.8042476388640003,B,1161.391299974639,Correct
4,14,285,A,26.423606472492803,57.81897608673601,1.3211803236246402,0.9082183525608687,A,911.0804999945685,Correct
4,14,286,A,23.644300573217077,42.035820001613004,1.182215028660854,0.6602971165234516,A,1330.7361000333913,Correct
4,14,287,B,64.86733636145799,39.99161342496142,3.2433668180728996,0.6281867947053087,B,722.5671000196598,Correct
4,14,288,A,51.59514344205988,62.68260538750438,2.5797571721029944,0.9846160629662587,A,4213.049400015734,Correct
4,14,289,B,56.19459074719998,29.013813493175277,2.809729537359999,0.45574791661391933,B,12303.94620000152,Correct
4,14,290,A,22.874906879008634,54.85053163250106,1.1437453439504317,0.8615901361107995,A,2507.502900029067,Correct
4,14,291,B,82.82883288745714,58.756083461456065,4.141441644372857,0.9229384007810955,B,3417.987200024072,Correct
4,14,292,A,22.88103589729535,42.42342240527336,1.1440517948647675,0.666385560842717,A,1719.784599961713,Correct
4,14,293,A,51.955261611492425,59.60066159437396,2.5977630805746212,0.9362050030698827,A,1855.1149999839254,Correct
4,14,294,A,44.97045448939768,65.34068150653427,2.2485227244698844,1.0263690250073925,A,2336.7336000083014,Correct
4,14,295,B,47.434425947600694,17.202122680125495,2.371721297380035,0.2702103111901631,B,705.8569999644533,Correct
4,14,296,B,67.67708783269465,37.70661031776766,3.383854391634733,0.5922940498303598,B,1458.3511000382714,Correct
4,14,297,A,47.23833732433778,68.66321856913767,2.361916866216889,1.0785593151431658,A,15270.553399983328,Correct
4,14,298,A,48.35491691967968,62.18502298815099,2.4177458459839842,0.9768000569144378,A,511.0784000135027,Correct
4,14,299,B,86.45499729483521,58.54433009940085,4.322749864741761,0.9196121867480674,B,1169.0786000108346,Correct
