subject,day,trial,cat,x,y,xt,yt,resp,rt,fb,resp_key
4,24,0,B,62.033410802749955,52.558517297667535,3.1016705401374973,0.8255872591296222,B,9129.169199848548,Correct,d
4,24,1,B,38.00615103132439,12.552656861625547,1.9003075515662198,0.19717667289758165,B,862.8743998706341,Correct,d
4,24,2,A,23.073615504511913,34.0032789928908,1.1536807752255955,0.5341222574101494,A,692.2356002032757,Correct,k
4,24,3,A,33.427246335516884,52.49171374039476,1.6713623167758442,0.8245379113058129,A,915.2822999749333,Correct,k
4,24,4,B,60.7962509741277,47.13392402009625,3.039812548706385,0.7403779471819694,B,593.937800033018,Correct,d
4,24,5,A,17.3786550406993,44.36011978183729,0.868932752034965,0.6968071320949164,A,796.4518000371754,Correct,k
4,24,6,B,56.06461891080253,38.670409350026816,2.8032309455401263,0.6074333696267714,B,654.7709000296891,Correct,d
4,24,7,A,35.88972459448698,46.852275278913666,1.794486229724349,0.7359538191010093,A,893.6747999396175,Correct,k
4,24,8,A,44.8933553538824,62.25182532091908,2.2446677676941196,0.9778493855037723,A,1257.1453999262303,Correct,k
4,24,9,B,72.09776776751853,41.7272496838494,3.6048883883759264,0.6554501053064414,B,685.4065998923033,Correct,d
4,24,10,A,21.605060053996144,49.396342305555606,1.0802530026998072,0.7759159305067009,A,596.9356999266893,Correct,k
4,24,11,A,57.027814439357904,71.95110755458032,2.851390721967895,1.130205354555593,A,909.6999999601394,Correct,k
4,24,12,A,29.418440900808836,39.21749518754826,1.4709220450404419,0.6160269738669735,A,893.3721000794321,Correct,k
4,24,13,A,29.073367673127635,53.93543036382711,1.4536683836563815,0.8472157589960155,A,974.0154999308288,Correct,k
4,24,14,B,33.150141895738145,13.239139594312302,1.6575070947869073,0.20795991844670642,B,915.5649999156594,Correct,d
4,24,15,A,64.58332764043026,81.55949492524537,3.2291663820215124,1.2811335504382244,A,1415.8218000084162,Correct,k
4,24,16,B,59.39702821432081,50.21356513190305,2.9698514107160405,0.7887528366446961,B,1177.7642001397908,Correct,d
4,24,17,B,55.49794594610088,24.386135795551162,2.774897297305044,0.3830565253237331,B,1338.2978001609445,Correct,d
4,24,18,B,56.56401868583378,26.543843760007483,2.8282009342916887,0.41694972277237397,B,1157.0041999220848,Correct,d
4,24,19,B,51.80296468691453,26.35365472097306,2.5901482343457265,0.4139622403332546,B,1126.919599948451,Correct,d
4,24,20,B,53.1641629070079,21.220490347826146,2.658208145350395,0.3333306829115186,B,836.1613999586552,Correct,d
4,24,21,B,53.69657312053981,24.86265197416128,2.6848286560269905,0.3905416239539242,B,793.968099867925,Correct,d
4,24,22,A,45.167482287338885,65.0382709671029,2.2583741143669442,1.021618771362164,A,952.0773000549525,Correct,k
4,24,23,A,34.00111231451751,43.780608103571126,1.7000556157258757,0.687704183939364,A,1288.5401998646557,Correct,k
4,24,24,B,51.88051150239106,31.877369736410124,2.594025575119553,0.5007285528983583,B,813.2289999630302,Correct,d
4,24,25,A,39.64649054400974,70.16103137653809,1.9823245272004868,1.1020869037040752,A,650.0079000834376,Correct,k
4,24,26,B,67.08144768468648,53.298569690601376,3.3540723842343243,0.8372119749341845,B,1000.6800999399275,Correct,d
4,24,27,A,42.18617118006823,51.57205982551158,2.1093085590034115,0.8100920213916023,A,1736.7068999446929,Correct,k
4,24,28,B,47.00053767431844,37.43702525623131,2.3500268837159215,0.5880594175861592,B,1385.8541999943554,Correct,d
4,24,29,A,17.16258890155206,47.89364943611048,0.8581294450776029,0.7523116861104481,A,751.3739999849349,Correct,k
4,24,30,A,37.556239749047954,70.06353867700246,1.8778119874523977,1.1005554919608762,A,813.6622000019997,Correct,k
4,24,31,B,79.38812020261855,61.26727318152668,3.9694060101309274,0.9623840766628159,B,734.0581000316888,Correct,d
4,24,32,B,71.00173328534166,59.66207389801004,3.5500866642670825,0.9371696652795986,B,851.8214002251625,Correct,d
4,24,33,B,65.82495604807748,49.04206066544572,3.291247802403874,0.7703508875173463,B,1238.6636999435723,Correct,d
4,24,34,A,42.15471789614313,71.28438701446453,2.1077358948071567,1.119732532801467,A,938.4731999598444,Correct,k
4,24,35,B,65.07599004327709,33.19778428047634,3.2537995021638544,0.5214695760550159,B,804.4135998934507,Correct,d
4,24,36,B,50.129281863876166,21.255515214618605,2.5064640931938085,0.3338808522325594,B,683.2469999790192,Correct,d
4,24,37,B,71.14165940654344,43.11951725618855,3.5570829703271722,0.6773197931919014,B,691.8927000369877,Correct,d
4,24,38,A,60.62136977080819,84.42612181457984,3.0310684885404093,1.3261624203188052,A,825.4633999895304,Correct,k
4,24,39,A,41.95140193629246,70.78524064000376,2.097570096814623,1.1118919598861075,A,796.8867002055049,Correct,k
4,24,40,A,39.82964685965074,47.89470071865827,1.9914823429825368,0.752328199618093,A,1398.6206001136452,Correct,k
4,24,41,B,56.67565996742394,44.45048697650067,2.833782998371197,0.6982266166693164,B,1554.0545000694692,Correct,d
4,24,42,A,12.895184986170175,31.206346826851107,0.6447592493085088,0.49018814968305296,A,664.9467998649925,Correct,k
4,24,43,B,39.89596353752733,25.258780109919407,1.9947981768763665,0.39676399015981395,B,798.486800165847,Correct,d
4,24,44,B,62.618095172504184,34.21676666749483,3.130904758625209,0.5374757139609894,B,619.524700101465,Correct,d
4,24,45,A,41.3865325570253,55.776227305966216,2.069326627851265,0.8761309297468893,A,805.981099838391,Correct,k
4,24,46,B,81.94684309122302,56.57512771333208,4.097342154561151,0.8886800280005419,B,580.4310999810696,Correct,d
4,24,47,B,64.14050078796765,55.02452899526414,3.2070250393983826,0.864323280293802,B,913.0377001129091,Correct,d
4,24,48,A,68.47329633481532,84.13265409772094,3.4236648167407657,1.3215526402020565,A,901.5668001957238,Correct,k
4,24,49,B,77.5759836876245,65.50144969433218,3.878799184381225,1.0288943657959768,B,2110.782800009474,Correct,d
4,24,50,A,48.56157400383887,72.82667078462944,2.4280787001919437,1.1439586696119712,A,2522.4524000659585,Correct,k
4,24,51,B,82.36324256112826,63.72724601060917,4.1181621280564125,1.0010252395021961,B,642.1502998564392,Correct,d
4,24,52,A,45.882839514150994,64.94255375461479,2.2941419757075496,1.0201152489042904,A,758.0207998398691,Correct,k
4,24,53,B,74.17729768402435,60.771242333297344,3.7088648842012173,0.9545924423190598,B,637.8373999614269,Correct,d
4,24,54,A,16.77480897966386,38.10247039471751,0.838740448983193,0.5985122053783355,A,682.4826998636127,Correct,k
4,24,55,B,57.485609192111426,25.25218924358774,2.8742804596055715,0.3966604610735723,B,599.8368000146002,Correct,d
4,24,56,A,59.532469936885875,75.60365971429214,2.9766234968442937,1.187579509714614,A,856.9736001081765,Correct,k
4,24,57,B,81.1548834078124,58.12543130315338,4.05774417039062,0.9130321398436242,B,976.5401999466121,Correct,d
4,24,58,A,41.31151749303232,72.34454747770988,2.065575874651616,1.1363854944162568,A,804.006400052458,Correct,k
4,24,59,B,35.356133585732074,24.241354114940307,1.7678066792866036,0.38078230000282587,B,821.3108000345528,Correct,d
4,24,60,A,41.30060625868002,50.38486751821302,2.065030312934001,0.7914436482365651,A,957.6080001424998,Correct,k
4,24,61,B,31.328507078936045,15.846249973408934,1.5664253539468023,0.2489123125170448,B,753.7907999940217,Correct,d
4,24,62,B,39.69237688979398,29.504362268481103,1.984618844489699,0.46345343875756057,B,842.5173999276012,Correct,d
4,24,63,B,42.971217994576584,15.904846652449116,2.1485608997288295,0.2498327469990318,B,589.3490999005735,Correct,d
4,24,64,A,14.414841284169555,41.8781940549812,0.7207420642084778,0.6578211339436834,A,637.4045999255031,Correct,k
4,24,65,B,65.77976478708605,55.99026199285814,3.2889882393543024,0.8794929787466547,B,654.6003001276404,Correct,d
4,24,66,B,43.601743522762376,23.23387055973673,2.1800871761381186,0.36495678532462544,B,875.6899998988956,Correct,d
4,24,67,B,82.58011913078663,54.546546809094195,4.129005956539332,0.8568151536707104,B,707.5302000157535,Correct,d
4,24,68,A,60.070600721048315,84.1324197592935,3.0035300360524158,1.321548959222646,A,896.0868001449853,Correct,k
4,24,69,B,44.93363530523161,37.25546482148097,2.2466817652615805,0.585207472946188,B,611.8632999714464,Correct,d
4,24,70,A,40.34918928896271,62.910198052003466,2.0174594644481356,0.988191080180265,A,664.2703998368233,Correct,k
4,24,71,B,76.35011128786348,47.58153585406914,3.817505564393174,0.7474090174283148,B,2264.2175001092255,Correct,d
4,24,72,A,44.463753934330875,70.41559082279147,2.223187696716544,1.1060855141353327,A,1082.2088001295924,Correct,k
4,24,73,A,30.582245970540548,61.28778230988516,1.5291122985270276,0.9627062332977284,A,950.4903999622911,Correct,k
4,24,74,A,25.315709143817937,53.77192147384122,1.2657854571908969,0.8446473673581342,A,638.7856001965702,Correct,k
4,24,75,B,43.16619890598623,25.569607798689837,2.1583099452993113,0.4016464600776814,B,975.2256001811475,Correct,d
4,24,76,B,65.35903081334615,46.9223245484019,3.267951540667308,0.7370541504530771,B,1759.3733000103384,Correct,d
4,24,77,B,79.0052625736606,61.718853673811466,3.95026312868303,0.9694774864481476,B,814.8318000603467,Correct,d
4,24,78,B,51.01856299681013,39.46262933492945,2.550928149840507,0.6198775320497572,B,804.0730999782681,Correct,d
4,24,79,A,36.03898639070869,51.83750339689297,1.8019493195354346,0.8142615992605745,A,619.1795999184251,Correct,k
4,24,80,B,36.7722495651267,26.944881833382528,1.838612478256335,0.4232492140979981,B,1571.7784999869764,Correct,d
4,24,81,B,37.53002341072586,20.31152510062986,1.8765011705362928,0.3190526901967173,B,1088.9095000457019,Correct,d
4,24,82,B,89.47483511880046,64.09857934498288,4.473741755940023,1.0068581298787034,B,1088.9240000396967,Correct,d
4,24,83,B,64.2076700609498,38.202819165505126,3.2103835030474897,0.6000884801838513,B,711.7831998039037,Correct,d
4,24,84,A,52.35967691489437,69.54661147224047,2.617983845744719,1.0924356184162716,A,2180.7371999602765,Correct,k
4,24,85,B,33.90033658727317,18.90580376598496,1.6950168293636585,0.29697167110714295,B,1221.2200001813471,Correct,d
4,24,86,A,40.70056233116293,61.31948141184909,2.0350281165581463,0.9632041616270048,A,772.7026999928057,Correct,k
4,24,87,A,26.61765175092438,55.610676201925585,1.3308825875462191,0.8735304590856507,A,784.9914999678731,Correct,k
4,24,88,A,46.887194851495735,70.54197184447949,2.344359742574787,1.1080707025817742,A,722.7405998855829,Correct,k
4,24,89,B,67.67642690795935,47.59753259244444,3.3838213453979678,0.747660293607121,B,1200.2686997875571,Correct,d
4,24,90,B,42.89260014818225,26.38071837897114,2.1446300074091122,0.4143873552789848,B,897.1080000046641,Correct,d
4,24,91,A,47.35050566998475,72.47570652799723,2.3675252834992375,1.1384457359604296,A,752.9549000319093,Correct,k
4,24,92,A,56.19014553100561,74.76837436799634,2.8095072765502804,1.1744588781767433,A,1542.6634000614285,Correct,k
4,24,93,A,67.17282812998428,85.83436585228917,3.3586414064992143,1.3482830659354512,A,1192.9464999120682,Correct,k
4,24,94,A,61.185968369780554,82.2021920188201,3.0592984184890275,1.2912290127765136,A,695.2027000952512,Correct,k
4,24,95,A,47.63607946833645,61.92354273050733,2.3818039734168224,0.9726927346320772,A,41202.69159995951,Correct,k
4,24,96,A,29.599822716282986,51.22118573234352,1.479991135814149,0.8045805040244438,A,3767.3289000522345,Correct,k
4,24,97,B,72.40525467765633,42.41957556561582,3.6202627338828166,0.6663251348266789,B,691.0421000793576,Correct,d
4,24,98,B,57.015378854638946,42.323730612737094,2.8507689427319476,0.6648196058274414,B,709.8840998951346,Correct,d
4,24,99,A,30.56900825377017,55.80870007293385,1.5284504126885086,0.8766410107776256,A,876.3969000428915,Correct,k
4,24,100,B,78.21512262358391,53.10688924026367,3.9107561311791956,0.834201065461096,B,779.9762999638915,Correct,d
4,24,101,B,71.90128791383825,44.614672601878226,3.5950643956919124,0.7008056384418723,B,3201.678700046614,Correct,d
4,24,102,B,79.97108030884675,52.3913196505353,3.9985540154423376,0.8229609246299813,B,519.4594000931829,Correct,d
4,24,103,A,31.00408289637101,50.42030080975729,1.5502041448185506,0.7920002330786051,A,957.2414001449943,Correct,k
4,24,104,A,68.69679257014567,83.93072279847621,3.434839628507284,1.3183807107708712,A,1512.4395000748336,Correct,k
4,24,105,B,78.5977148296775,49.378236030723464,3.929885741483875,0.7756315178067184,B,771.8903999775648,Correct,d
4,24,106,A,18.233215395601775,46.49926136302285,0.9116607697800887,0.7304086894771216,A,958.9341001119465,Correct,k
4,24,107,B,66.80279433569936,48.059703432367996,3.3401397167849676,0.7549200561841575,B,1525.560500100255,Correct,d
4,24,108,B,54.68440901379631,40.06421492139186,2.734220450689816,0.6293272163444362,B,12902.51599997282,Correct,d
4,24,109,A,50.25751761624227,74.9758854765049,2.512875880812113,1.1777184550468873,A,981.3614999875426,Correct,k
4,24,110,B,83.40872296734821,61.21840708633191,4.170436148367411,0.9616164898344484,B,725.5627000704408,Correct,d
4,24,111,A,39.285641287202196,52.0456785611886,1.9642820643601098,0.8175316070946295,A,864.3168001435697,Correct,k
4,24,112,B,56.747766923828124,43.92352979575918,2.837388346191406,0.6899491926304472,B,689.8580000270158,Correct,d
4,24,113,B,76.72499856430086,52.59457519547241,3.836249928215043,0.8261536552638604,B,762.3411000240594,Correct,d
4,24,114,A,26.918902310229626,47.24989785533342,1.3459451155114812,0.742199659925918,A,665.0135999079794,Correct,k
4,24,115,B,41.70643128587151,14.700210552868583,2.0853215642935754,0.2309103673955755,B,942.6272001583129,Correct,d
4,24,116,A,41.07966237894038,73.03422686399813,2.053983118947019,1.1472189528827341,A,1205.2766000851989,Correct,k
4,24,117,B,60.4992801415069,42.495298184675114,3.0249640070753454,0.6675145829454151,B,3835.1024000439793,Correct,d
4,24,118,A,22.616475476462803,42.31350406529795,1.1308237738231401,0.6646589675959094,A,25412.850900087506,Correct,k
4,24,119,B,56.35096545116738,35.00554286801476,2.817548272558369,0.5498657815453888,B,1388.174599967897,Correct,d
4,24,120,A,44.68734513219779,66.09270434531798,2.2343672566098896,1.0381817721356659,A,2002.535100094974,Correct,k
4,24,121,A,17.753877422104253,38.55358476316715,0.8876938711052127,0.6055982933075865,A,668.0135999340564,Correct,k
4,24,122,B,67.72685105842069,39.971792525130496,3.3863425529210347,0.6278754487388268,B,998.525399947539,Correct,d
4,24,123,B,85.79123994039932,62.32397473849299,4.289561997019966,0.978982705904827,B,1367.290300084278,Correct,d
4,24,124,B,38.27312278547866,22.809225028436124,1.9136561392739333,0.35828646891705684,B,1128.3835000358522,Correct,d
4,24,125,A,13.068534062012137,34.07030398335405,0.6534267031006068,0.5351750834983808,A,937.1305000968277,Correct,k
4,24,126,B,70.904445989469,49.64000076140611,3.5452222994734495,0.779743308581126,B,628.6925999447703,Correct,d
4,24,127,B,47.26934758442057,34.23266130750203,2.363467379221029,0.5377253863823797,B,1056.562399957329,Correct,d
4,24,128,A,25.685707973211482,49.1446464915997,1.284285398660574,0.7719623019063853,A,813.4135000873357,Correct,k
4,24,129,A,48.448874019146864,75.924404150936,2.422443700957343,1.1926177515438148,A,1192.8614999633282,Correct,k
4,24,130,A,16.47059873069336,44.36458900114966,0.823529936534668,0.6968773344277116,A,1001.0098000057042,Correct,k
4,24,131,A,46.62921258955039,73.54729076333113,2.3314606294775193,1.1552781417675677,A,1127.5083001237363,Correct,k
4,24,132,A,24.588782803648087,38.50076866039647,1.2294391401824043,0.6047686599053085,A,794.8926000390202,Correct,k
4,24,133,A,34.31970956759506,57.30577400212777,1.715985478379753,0.9001569930668079,A,1245.001700008288,Correct,k
4,24,134,A,48.622802431452506,63.39435647833355,2.4311401215726254,0.995796222956926,A,730.7611999567598,Correct,k
4,24,135,A,37.31510887520707,63.8756784922743,1.8657554437603536,1.0033568114719624,A,783.5171001497656,Correct,k
4,24,136,A,52.07172011023545,68.56012728545826,2.6035860055117723,1.076939961045884,A,827.9858999885619,Correct,k
4,24,137,A,28.763152809649007,59.23537928566786,1.4381576404824503,0.9304671619822957,A,731.997299939394,Correct,k
4,24,138,A,28.722524374224392,46.39143114666015,1.4361262187112198,0.7287148963993213,A,1133.6144001688808,Correct,k
4,24,139,A,21.425638185870934,51.190546635364534,1.0712819092935468,0.8040992262145346,A,2521.364599931985,Correct,k
4,24,140,A,37.77354282200524,65.26764503035582,1.888677141100262,1.0252217707223612,A,1172.7304998785257,Correct,k
4,24,141,B,71.55875771306776,49.89047299359521,3.577937885653388,0.7836777172039934,B,965.9814001061022,Correct,d
4,24,142,B,32.88091273215015,16.4487014857538,1.6440456366075074,0.25837559874367827,B,3457.0098998956382,Correct,d
4,24,143,A,34.96259270478099,64.58175824043079,1.7481296352390496,1.014447886220247,A,712.9261000081897,Correct,k
4,24,144,A,60.740974199355364,79.02451169956942,3.0370487099677685,1.2413141270444397,A,842.0718000270426,Correct,k
4,24,145,B,70.43218004981684,43.599697663508756,3.521609002490842,0.684862449392076,B,798.1511999387294,Correct,d
4,24,146,B,58.12654446244074,36.50748556061604,2.9063272231220374,0.5734582421913339,B,1265.1389001403004,Correct,d
4,24,147,A,29.583919494121975,57.57051422717449,1.4791959747060988,0.9043155227973901,A,930.2111999131739,Correct,k
4,24,148,B,82.01708195262994,58.894456258818266,4.100854097631497,0.9251119555993443,B,1790.9005000256002,Correct,d
4,24,149,B,57.00760006994046,38.892432286901325,2.850380003497023,0.6109208977638384,B,872.5324000697583,Correct,d
4,24,150,B,47.16137888619641,28.594111717874434,2.3580689443098204,0.4491552565440007,B,824.4052000809461,Correct,d
4,24,151,A,40.459577415834595,64.65781433142817,2.0229788707917296,1.015642572503938,A,893.0946001783013,Correct,k
4,24,152,B,46.81602986367232,21.841575356790205,2.340801493183616,0.3430866634185999,B,681.837199954316,Correct,d
4,24,153,A,44.077395968773445,54.12462343714445,2.203869798438672,0.8501875968422348,A,728.2175000291318,Correct,k
4,24,154,A,16.872943029853282,37.43985423106382,0.843647151492664,0.5881038550189142,A,864.4735000561923,Correct,k
4,24,155,B,59.751824011677506,27.178700437173056,2.987591200583875,0.42692202813770286,B,906.2232999131083,Correct,d
4,24,156,B,81.09286267948283,54.18630150258352,4.0546431339741416,0.8511564336285897,B,758.4369999822229,Correct,d
4,24,157,A,41.93106198164959,74.00284432972914,2.096553099082479,1.1624339604551308,A,744.6147999726236,Correct,k
4,24,158,A,62.172342673035374,73.10622799887538,3.1086171336517685,1.1483499440646368,A,913.4863000363111,Correct,k
4,24,159,B,44.57164294451411,17.24839295902186,2.2285821472257057,0.27093712303146494,B,1155.8729000389576,Correct,d
4,24,160,B,85.44307608425525,59.567287535406145,4.2721538042127625,0.9356807645775139,B,1116.7882999870926,Correct,d
4,24,161,B,64.99425651772444,56.30434127458511,3.2497128258862222,0.8844265245672457,B,931.740399915725,Correct,d
4,24,162,B,56.601626100885,33.05403065057833,2.83008130504425,0.5192114993169437,B,3063.8005000073463,Correct,d
4,24,163,B,48.39715765801879,29.645141988160017,2.4198578829009394,0.46566480142314914,B,859.3144998885691,Correct,d
4,24,164,B,74.77055276650083,57.073128782537594,3.738527638325041,0.8965026105030215,B,809.7582999616861,Correct,d
4,24,165,A,55.79678322901863,69.72618570640908,2.7898391614509315,1.095256363890462,A,2801.4364999253303,Correct,k
4,24,166,A,48.685779483047824,56.46517523550131,2.434288974152391,0.8869528985175562,A,4311.910199932754,Correct,k
4,24,167,B,72.39171359538469,44.098906744559486,3.619585679769234,0.6927040073002473,B,6945.527400122955,Correct,d
4,24,168,A,34.81237724333429,65.69328345568913,1.7406188621667145,1.0319076834729244,A,659.1219000983983,Correct,k
4,24,169,A,63.23587292590767,79.99411127583083,3.1617936462953833,1.2565445615729727,A,1704.4158999342471,Correct,k
4,24,170,B,85.37224229687683,59.95501335687729,4.268612114843842,0.9417711475392181,B,870.5198001116514,Correct,d
4,24,171,A,42.27867024292187,62.94112765699525,2.1139335121460934,0.988676921279368,A,1365.1443000417203,Correct,k
4,24,172,B,82.74255178030631,52.83809191675345,4.137127589015316,0.8299788069768742,B,1535.0005000364035,Correct,d
4,24,173,B,52.057533504458036,29.708975007814377,2.602876675222902,0.4666674881511621,B,932.873300043866,Correct,d
4,24,174,B,84.73037808094006,62.29579370158691,4.236518904047003,0.9785400392122536,B,854.7580000013113,Correct,d
4,24,175,B,46.34942014089751,17.76050558334742,2.317471007044875,0.2789813693234238,B,560.3344000410289,Correct,d
4,24,176,A,13.553305982809484,39.31920605252599,0.6776652991404742,0.6176246443979949,A,14251.166199799627,Correct,k
4,24,177,B,45.838748565388016,36.831206441580555,2.2919374282694007,0.5785432378985927,A,1136.954499874264,Incorrect,k
4,24,178,B,66.68570424370647,42.8482267265343,3.3342852121853235,0.6730583715171499,B,714.7943000309169,Correct,d
4,24,179,A,54.928921288591106,83.8385190034652,2.746446064429555,1.3169323769456724,A,741.922700079158,Correct,k
4,24,180,B,85.86205645091009,59.05476200874055,4.293102822545504,0.9276300324307647,B,716.3009000942111,Correct,d
4,24,181,B,39.98785983369169,25.075728477347255,1.9993929916845843,0.3938886218392325,B,822.341299848631,Correct,d
4,24,182,B,55.47394883212582,32.2532802544682,2.7736974416062914,0.5066333415080502,B,594.3152999971062,Correct,d
4,24,183,A,39.72023519092521,49.7162659027848,1.9860117595462605,0.7809412786205272,A,923.0343999806792,Correct,k
4,24,184,A,17.69570010414962,33.09728540459582,0.884785005207481,0.5198909434042146,A,784.7457998432219,Correct,k
4,24,185,A,40.569695549313266,68.33478137099385,2.0284847774656636,1.0734002356988948,A,7085.855700075626,Correct,k
4,24,186,A,21.07167566733739,38.15679687913156,1.0535837833668695,0.5993655637999882,A,737.8414000850171,Correct,k
4,24,187,B,75.39642266440599,46.50030229593341,3.769821133220299,0.7304250404130449,B,842.1106999740005,Correct,d
4,24,188,B,77.71577875657746,52.19400536237961,3.8857889378288735,0.8198615190393903,B,627.3992001079023,Correct,d
4,24,189,A,41.92473413517849,70.02761446866762,2.0962367067589245,1.0999911958159225,A,928.8480000104755,Correct,k
4,24,190,B,53.02585482858152,24.43167264664008,2.651292741429076,0.3837718165079759,B,1101.6715001314878,Correct,d
4,24,191,A,21.767745452198177,52.54429451595625,1.0883872726099089,0.8253638481969331,A,738.9414000790566,Correct,k
4,24,192,A,11.726449653203137,37.47471995381832,0.5863224826601567,0.5886515245112525,A,837.3934000264853,Correct,k
4,24,193,B,59.594342856600036,46.249937010247805,2.979717142830002,0.7264923117019261,B,744.7263000067323,Correct,d
4,24,194,A,27.44213520884222,57.72965533587335,1.372106760442111,0.9068153054872526,A,748.4375999774784,Correct,k
4,24,195,B,75.65593991610999,47.32796932189396,3.7827969958054997,0.7434260036549258,B,658.831600099802,Correct,d
4,24,196,B,80.69736282203903,53.39990978176446,4.034868141101952,0.8388038213637447,B,1925.784100079909,Correct,d
4,24,197,A,31.74429311940341,43.060025546544466,1.5872146559701705,0.6763852996020645,A,944.952700054273,Correct,k
4,24,198,B,68.10435315892136,57.989554599263116,3.405217657946068,0.9108977935699458,B,626.2114001438022,Correct,d
4,24,199,B,77.50819186365663,59.51005391716154,3.8754095931828316,0.9347817410044358,B,643.5461000073701,Correct,d
4,24,200,A,17.278705064227832,31.75949442357162,0.8639352532113916,0.498876971814093,A,1051.6029000282288,Correct,k
4,24,201,B,70.81604155801116,60.23450634901471,3.5408020779005587,0.9461614131933618,B,741.9672999531031,Correct,d
4,24,202,A,52.740081812628524,77.70225938759175,2.637004090631426,1.220544236296934,A,2669.1138001624495,Correct,k
4,24,203,A,56.01406397546492,79.73679633862366,2.8007031987732462,1.252502667991028,A,1304.5787999872118,Correct,k
4,24,204,A,32.59845739938784,49.96887868346909,1.629922869969392,0.7849093109005306,A,1263.1333998870105,Correct,k
4,24,205,B,37.71342825091467,16.310129753871756,1.8856714125457332,0.25619891906929904,B,759.5102000050247,Correct,d
4,24,206,A,40.741455446069416,60.87436124614276,2.0370727723034707,0.9562122304142665,A,1850.6648999173194,Correct,k
4,24,207,A,27.849331137079744,44.58128226547293,1.3924665568539871,0.7002811442641134,A,1131.1065999325365,Correct,k
4,24,208,A,27.770626839737602,45.05454741590749,1.3885313419868799,0.7077151758631399,A,889.9802998639643,Correct,k
4,24,209,A,17.37943810728541,33.085804398786216,0.8689719053642705,0.5197106001866781,A,608.8223999831825,Correct,k
4,24,210,A,48.8523657867907,71.16296953427512,2.442618289339535,1.117825311482565,A,1030.0982999615371,Correct,k
4,24,211,A,60.14530990134787,78.802547199197,3.007265495067394,1.2378275168258008,A,2644.770400132984,Correct,k
4,24,212,A,39.25996636471975,61.46249568511154,1.9629983182359876,0.9654506245782039,A,782.9125998541713,Correct,k
4,24,213,B,33.50163218045779,19.00391390637022,1.6750816090228895,0.29851278158852795,B,1282.344999955967,Correct,d
4,24,214,A,63.369078606385656,74.9702431850407,3.1684539303192825,1.1776298261398206,A,670.7662001717836,Correct,k
4,24,215,A,48.34628938224869,63.07133247769326,2.417314469112435,0.9907221738202022,A,974.5358999352902,Correct,k
4,24,216,B,53.26320812737569,33.97480690542213,2.663160406368785,0.5336750189060296,B,1954.7071000561118,Correct,d
4,24,217,B,75.11630511532196,57.6152414054138,3.755815255766098,0.9050180956702524,B,971.6149000450969,Correct,d
4,24,218,B,85.64470030339416,57.28490398635942,4.282235015169708,0.8998291676257171,B,1429.0434999857098,Correct,d
4,24,219,A,40.78665904148783,51.35191744611461,2.0393329520743917,0.8066340329823158,A,2099.9757999088615,Correct,k
4,24,220,A,21.241894693001587,52.68859138149275,1.0620947346500793,0.8276304580604605,A,642.9373999126256,Correct,k
4,24,221,A,17.543418175616996,47.448707698107114,0.8771709087808497,0.7453225576335138,A,6999.919899972156,Correct,k
4,24,222,B,44.06993183576378,29.58451470973485,2.203496591788189,0.4647124703606109,B,661.797699984163,Correct,d
4,24,223,A,31.483285495679212,43.86478944408914,1.5741642747839606,0.6890265013440677,A,1074.722700053826,Correct,k
4,24,224,B,51.257475592500406,38.9943677173898,2.5628737796250203,0.612522095761654,B,1964.485000120476,Correct,d
4,24,225,A,38.640732076862236,60.67167498492132,1.9320366038431118,0.9530284420680821,A,1504.8662999179214,Correct,k
4,24,226,B,75.05118384860718,60.21891959675904,3.7525591924303594,0.945916577061463,B,1545.1543000526726,Correct,d
4,24,227,A,44.681173376528676,61.490807987282054,2.234058668826434,0.9658953531807293,A,965.5991999898106,Correct,k
4,24,228,A,33.03523441524442,64.97252783937368,1.6517617207622208,1.0205860807266733,A,1184.184700017795,Correct,k
4,24,229,B,52.70544947015277,41.17315024083069,2.6352724735076385,0.6467463316087125,B,1543.5689999721944,Correct,d
4,24,230,A,23.128316098449087,41.23018354019386,1.1564158049224544,0.6476422085801592,A,634.7990999929607,Correct,k
4,24,231,B,43.026647099760694,22.291625261197463,2.1513323549880345,0.350156030785773,B,904.3638999573886,Correct,d
4,24,232,B,65.45528965990655,32.98982613703127,3.2727644829953277,0.5182029771765099,B,1076.1764000635594,Correct,d
4,24,233,A,23.055382136604607,54.29837072376312,1.1527691068302304,0.8529168128383465,A,859.5455000177026,Correct,k
4,24,234,A,24.994544254894784,35.700958397141974,1.2497272127447392,0.5607893431328803,A,919.7493998799473,Correct,k
4,24,235,A,26.955305215887243,45.992101560992765,1.3477652607943622,0.7224422419358526,A,823.8959999289364,Correct,k
4,24,236,A,56.01182052393139,78.92584345436339,2.8005910261965696,1.2397642498730304,B,643.1597999762744,Incorrect,d
4,24,237,A,48.19169261871494,64.46064301381301,2.409584630935747,1.0125454126893458,A,12913.00390008837,Correct,k
4,24,238,B,41.129981828513934,24.935961153847778,2.056499091425697,0.3916931618556432,B,653.0774000566453,Correct,d
4,24,239,A,46.1516315161619,64.58180573574359,2.307581575808095,1.014448632274876,A,1400.1460000872612,Correct,k
4,24,240,A,43.35375822538946,72.83557906526875,2.167687911269473,1.1440986005570342,A,1076.4874999877065,Correct,k
4,24,241,B,77.55591398067625,51.97807573579433,3.8777956990338125,0.8164697043965267,B,929.2418998666108,Correct,d
4,24,242,A,64.54474604488485,78.85776298071602,3.227237302244242,1.238694844293713,A,822.8845000267029,Correct,k
4,24,243,B,57.67160395533021,30.15730484024337,2.883580197766511,0.47370983669088246,B,727.045799838379,Correct,d
4,24,244,A,57.968063258937136,72.02948684144934,2.898403162946857,1.1314365335146994,A,3376.438000006601,Correct,k
4,24,245,A,64.51907107413196,77.21968114419322,3.2259535537065975,1.2129639149757183,A,1166.2896000780165,Correct,k
4,24,246,B,72.97658774060677,55.247136377677116,3.6488293870303385,0.8678199888799193,B,704.797700047493,Correct,d
4,24,247,B,69.30536017002096,51.25196344116094,3.465268008501048,0.8050639591440194,B,911.466300021857,Correct,d
4,24,248,A,27.50036547037685,45.48438508355588,1.3750182735188423,0.7144670501577417,A,982.1045000571758,Correct,k
4,24,249,B,71.08539205946883,43.64172912230478,3.554269602973442,0.6855226780029421,B,997.0009999815375,Correct,d
4,24,250,A,59.44053590189796,77.87316549251608,2.9720267950948984,1.2232288231153534,A,796.2843999266624,Correct,k
4,24,251,A,57.495374322757364,69.81283057150259,2.8747687161378686,1.0966173782487072,A,1622.1302000340074,Correct,k
4,24,252,A,28.010034479660675,45.985816734372705,1.4005017239830337,0.7223435201101595,A,751.452700002119,Correct,k
4,24,253,B,73.09704078333786,46.50151802119851,3.6548520391668933,0.7304441369808531,B,510.152000002563,Correct,d
4,24,254,B,47.300485892662245,36.14210869718152,2.365024294633112,0.567718915841546,B,786.5261998958886,Correct,d
4,24,255,B,84.40496577781107,57.211738353447714,4.220248288890554,0.8986798845514639,B,2139.707599999383,Correct,d
4,24,256,B,41.73339746022003,18.94137609388032,2.086669873011002,0.2975304399270787,B,3944.8625000659376,Correct,d
4,24,257,A,33.43674666908122,42.38571926762279,1.671837333454061,0.6657933213414156,A,1231.3335000071675,Correct,k
4,24,258,A,60.625947347711524,84.53541764844593,3.031297367385576,1.3278792352625133,A,1800.1792998984456,Correct,k
4,24,259,B,64.6480668703704,36.69376110235354,3.2324033435185195,0.5763842515586639,B,1249.7652999591082,Correct,d
4,24,260,A,26.325798592190832,48.73611828618442,1.3162899296095416,0.7655451558618007,A,2029.9899000674486,Correct,k
4,24,261,A,32.94645785150366,45.94191025126389,1.6473228925751828,0.7216538386862612,A,1232.4818999040872,Correct,k
4,24,262,B,52.439576649108254,24.89371691017974,2.621978832455413,0.3910295908278234,B,1265.7999999355525,Correct,d
4,24,263,A,29.633946362963233,51.97810281587321,1.4816973181481616,0.8164701297694111,A,1186.2308999989182,Correct,k
4,24,264,A,14.816352393334228,36.71283896007345,0.7408176196667113,0.5766839258469594,A,1699.926400091499,Correct,k
4,24,265,B,59.04761850542397,44.28577597676289,2.9523809252711986,0.6956393423356083,B,2333.9119001757354,Correct,d
4,24,266,A,27.954517669906853,44.882215505724055,1.3977258834953425,0.705008192548083,A,2038.2012000773102,Correct,k
4,24,267,A,11.561010564400657,35.349503925319866,0.5780505282200329,0.5552687091991422,A,1524.64359998703,Correct,k
4,24,268,B,80.24720596151418,66.8739265424656,4.012360298075709,1.050453181712567,B,809.1124000493437,Correct,d
4,24,269,B,51.094574542137245,40.100657687357895,2.554728727106862,0.629899657973613,B,4533.2247000187635,Correct,d
4,24,270,A,42.08094955139707,63.93977897821939,2.1040474775698534,1.0043636995506455,A,1407.0981000550091,Correct,k
4,24,271,B,65.08405770131303,42.69279413471089,3.2542028850656517,0.6706168420741456,B,2185.0890999194235,Correct,d
4,24,272,B,64.21584984092598,47.82720558213577,3.2107924920462994,0.7512679884928324,B,4958.514200057834,Correct,d
4,24,273,B,67.38286423165526,50.50822351122825,3.369143211582763,0.7933813196437297,B,2937.7639000304043,Correct,d
4,24,274,B,53.91258921933874,32.23095219365801,2.6956294609669373,0.5062826131489992,B,3591.943999985233,Correct,d
4,24,275,A,56.78469821030628,75.27286948477855,2.839234910515314,1.1823834689400181,A,3287.513199960813,Correct,k
4,24,276,B,68.50075753137979,50.58974254961244,3.4250378765689895,0.794661817704307,B,1386.0882001463324,Correct,d
4,24,277,A,43.454640689230416,72.90999954043666,2.1727320344615206,1.145267594647355,A,2635.319299995899,Correct,k
4,24,278,A,40.07835729261539,61.26532145514735,2.003917864630769,0.9623534190165403,A,1258.1144999712706,Correct,k
4,24,279,A,31.98983288553709,41.000475806647486,1.5994916442768545,0.6440339679392489,A,1616.1632998846471,Correct,k
4,24,280,B,87.66228099748321,60.495047029455606,4.383114049874161,0.9502539766315339,B,986.1475001089275,Correct,d
4,24,281,A,25.605296008777124,44.122567304491824,1.2802648004388562,0.6930756665065636,A,544.9230999220163,Correct,k
4,24,282,B,50.42660697329565,43.55712278962901,2.5213303486647822,0.6841936848370352,B,1528.1724999658763,Correct,d
4,24,283,A,30.314375016021152,43.35557046634565,1.5157187508010577,0.6810277083463305,A,2541.73930012621,Correct,k
4,24,284,A,30.68358210684064,51.83424097506078,1.534179105342032,0.8142103532582698,A,9478.850699961185,Correct,k
4,24,285,B,53.31816902432875,35.745908302556344,2.665908451216438,0.5614954145960271,B,2950.1526998355985,Correct,d
4,24,286,B,72.66500628992324,60.66022577091926,3.633250314496162,0.9528485982350909,B,784.5882999245077,Correct,d
4,24,287,A,43.62027185628587,69.46093542122728,2.1810135928142933,1.0910898221540133,A,2215.838700067252,Correct,k
4,24,288,A,31.430103329443746,63.80374405502849,1.5715051664721873,1.0022268679740047,A,1417.6857999991626,Correct,k
4,24,289,A,44.10444867980419,75.45829238384243,2.2052224339902096,1.1852960850275502,A,1075.9139000438154,Correct,k
4,24,290,B,57.665652535757204,25.260228088771434,2.88328262678786,0.3967867349584344,B,778.3927000127733,Correct,d
4,24,291,B,40.43397643518607,31.76365302312837,2.0216988217593035,0.4989422949431766,B,824.7916998807341,Correct,d
4,24,292,B,71.85037031989417,51.75386506976944,3.5925185159947084,0.8129478114903255,B,1208.7632999755442,Correct,d
4,24,293,B,79.76018925655882,52.873011063619565,3.9880094628279408,0.8305273156531954,B,25482.67830000259,Correct,d
4,24,294,A,49.53563223313958,61.97137789078006,2.476781611656979,0.9734441275725578,A,1568.7390000093728,Correct,k
4,24,295,B,52.994472571805616,23.569400102675875,2.6497236285902805,0.3702272710604252,B,4423.308199970052,Correct,d
4,24,296,A,39.41197457434906,48.33202932941864,1.9705987287174531,0.7591977413719401,A,1183.9284000452608,Correct,k
4,24,297,A,58.42653031397226,79.09212784289633,2.9213265156986132,1.2423762389401392,A,1370.1961000915617,Correct,k
4,24,298,B,75.27326170915973,53.058095569380036,3.7636630854579862,0.8334346162711473,B,790.5772000085562,Correct,d
4,24,299,B,73.63900929132701,54.529890958967925,3.6819504645663503,0.8565535241887307,B,8200.793200172484,Correct,d
4,24,300,A,60.464204482784794,72.14701226447777,3.02321022413924,1.1332826185426803,A,828.09460000135,Correct,k
4,24,301,B,53.46501297022597,39.8453921413929,2.673250648511299,0.6258899561540221,B,617.3372000921518,Correct,d
4,24,302,B,42.49484665813097,30.88843900727086,2.1247423329065485,0.4851944653304927,B,766.5417001117021,Correct,d
4,24,303,B,80.19189199137118,53.398507059535525,4.009594599568559,0.8387817874544976,B,761.52199995704,Correct,d
4,24,304,A,24.41298855632205,50.79734504044213,1.2206494278161024,0.7979228300045945,A,751.107000047341,Correct,k
4,24,305,B,52.836475965886365,34.32988854123693,2.6418237982943187,0.5392526281985319,B,504.7009999398142,Correct,d
4,24,306,B,43.20045307179344,34.33975096939016,2.1600226535896723,0.5394075468576955,B,1236.9313000235707,Correct,d
4,24,307,B,51.579477610685686,31.960710404977753,2.578973880534284,0.5020376650589448,B,1639.3194999545813,Correct,d
4,24,308,A,66.70764835494985,86.22730877187972,3.3353824177474927,1.3544553988827803,A,21072.56029988639,Correct,k
4,24,309,A,55.48917750401466,67.28730827635562,2.7744588752007333,1.0569465668041524,A,824.7179000172764,Correct,k
4,24,310,B,66.71288733489354,55.22072404458565,3.3356443667446767,0.8674051049218976,B,1063.700299942866,Correct,d
4,24,311,B,51.79019913818544,30.271847902877166,2.5895099569092723,0.4755090749113325,B,34904.76800012402,Correct,d
4,24,312,B,46.66968147329955,36.560992964499796,2.333484073664977,0.5742987345261034,B,517.7076000254601,Correct,d
4,24,313,A,54.002316850969954,70.93814773205548,2.7001158425484975,1.1142938188714648,A,1074.3984000291675,Correct,k
4,24,314,B,53.65368636973685,32.71772379475135,2.6826843184868427,0.513928803578854,B,763.5008001234382,Correct,d
4,24,315,B,60.77846159326312,43.250070384654386,3.0389230796631557,0.6793705169383586,B,657.1392000187188,Correct,d
4,24,316,A,27.656671845170212,39.45792100366545,1.3828335922585107,0.6198035737552088,A,649.7566998004913,Correct,k
4,24,317,B,78.00871745805793,53.23294292950107,3.900435872902897,0.8361811121814264,B,728.8627999369055,Correct,d
4,24,318,A,23.26408441770826,51.15666587916781,1.163204220885413,0.8035670285407062,A,816.964800003916,Correct,k
4,24,319,B,73.66135415000386,53.713225179074264,3.6830677075001925,0.8437253681159701,B,904.8757997807115,Correct,d
4,24,320,B,79.12838167676463,49.37779446591126,3.956419083838232,0.7756245817228679,B,614.0870999079198,Correct,d
4,24,321,B,53.992892817010954,26.524630284041343,2.699644640850548,0.4166479181976481,B,913.8023999985307,Correct,d
4,24,322,A,14.918506161537234,42.8701196617444,0.7459253080768617,0.6734022649392577,A,781.3420000020415,Correct,k
4,24,323,B,72.28630574574142,44.223551540613286,3.6143152872870705,0.6946619231782013,B,709.5327998977154,Correct,d
4,24,324,B,30.330243546340398,12.431694901795687,1.5165121773170198,0.19527660687575507,B,1085.9143999405205,Correct,d
4,24,325,A,22.366490929517067,36.55283853382086,1.1183245464758533,0.5741706450285275,A,791.4593000896275,Correct,k
4,24,326,A,48.463833664647446,69.71064290711713,2.423191683232372,1.0950122181701032,A,2589.167800033465,Correct,k
4,24,327,A,49.28917802745808,66.72930104154482,2.464458901372904,1.0481814096564945,A,747.9624000843614,Correct,k
4,24,328,A,31.932288691056783,64.79513940875069,1.5966144345528392,1.0177996697742882,A,1129.5016999356449,Correct,k
4,24,329,B,86.97447615268142,63.369164663679044,4.34872380763407,0.9954005108576799,B,1263.1331000011414,Correct,d
4,24,330,A,65.3529978339202,78.99749066138973,3.26764989169601,1.2408896815692514,A,1518.7065999489278,Correct,k
4,24,331,A,58.745472220718966,85.75460662375612,2.9372736110359483,1.3470302109033743,A,2446.824499871582,Correct,k
4,24,332,A,61.613078569722944,71.29901994876599,3.080653928486147,1.1199623863959767,A,1182.5319998897612,Correct,k
4,24,333,A,25.986314476886808,41.527020205873555,1.2993157238443405,0.6523049080212363,A,823.770800139755,Correct,k
4,24,334,A,40.462451818466285,52.70314341214241,2.023122590923314,0.8278590408233795,A,693.0744999554008,Correct,k
4,24,335,B,42.9170413283901,29.144168695789347,2.145852066419505,0.4577955313483672,B,777.8158001601696,Correct,d
4,24,336,B,65.52954525380645,54.41480471549332,3.2764772626903222,0.8547457537035854,B,828.6455001216382,Correct,d
4,24,337,B,43.701044092570655,33.38023133002466,2.185052204628533,0.5243354476076666,B,685.2011999581009,Correct,d
4,24,338,B,76.88808838885822,60.061019477522294,3.8444044194429114,0.9434362877884876,B,8626.940499991179,Correct,d
4,24,339,A,23.227434272854495,49.65952202386737,1.1613717136427248,0.7800499478548113,A,722.6436000782996,Correct,k
4,24,340,A,65.4920772667889,82.15908977420912,3.2746038633394448,1.2905519643013983,A,929.0903001092374,Correct,k
4,24,341,B,62.98608146049272,31.056006649490598,3.149304073024636,0.4878266116993772,B,656.3063999637961,Correct,d
4,24,342,A,54.26691591527285,81.03613728764186,2.7133457957636424,1.2729126678907479,A,643.1549999397248,Correct,k
4,24,343,B,64.16831951833576,44.323791935042216,3.208415975916788,0.6962364956118556,B,823.5108000226319,Correct,d
4,24,344,B,65.33905664718975,49.57244669808223,3.2669528323594874,0.7786821718358337,B,717.0699001289904,Correct,d
4,24,345,B,57.64047470906054,34.8559414585681,2.8820237354530267,0.5475158481009672,B,598.6069000791758,Correct,d
4,24,346,B,46.79683943294542,35.90513481945671,2.339841971647271,0.5639965388747815,B,1070.3481000382453,Correct,d
4,24,347,A,50.93508129362746,77.00599668587978,2.546754064681373,1.2096073673535992,A,1969.7125998791307,Correct,k
4,24,348,B,43.53347084872328,21.352395063654075,2.176673542436164,0.335402637342613,B,1091.5324999950826,Correct,d
4,24,349,B,45.255225995541736,32.676496858460986,2.262761299777087,0.5132812123779549,B,1254.183700075373,Correct,d
4,24,350,A,49.88364246403551,63.094271463830204,2.494182123201776,0.9910824985718455,A,1143.916100030765,Correct,k
4,24,351,B,73.71501325647625,45.76799397861363,3.685750662823813,0.7189219682637724,B,6286.503199953586,Correct,d
4,24,352,B,54.04984641978627,29.09082059964942,2.7024923209893137,0.4569575414137861,B,1075.7077999878675,Correct,d
4,24,353,B,50.64419484441902,26.353936067396834,2.532209742220951,0.41396665971254487,B,528.358899988234,Correct,d
4,24,354,A,53.826074544563156,75.53753408137237,2.6913037272281577,1.1865408107016402,A,1488.707299809903,Correct,k
4,24,355,A,24.02133790975575,44.94165435929823,1.2010668954877874,0.7059418558767151,A,1439.9864999577403,Correct,k
4,24,356,B,56.17735147854693,29.152025547188813,2.8088675739273463,0.45791894648155174,B,1357.7790998388082,Correct,d
4,24,357,A,53.09761523988748,72.5355646388985,2.6548807619943737,1.1393859849677557,A,1429.1956999804825,Correct,k
4,24,358,B,80.77614721728825,65.58677800669327,4.038807360864413,1.030234699792261,B,1469.4191000889987,Correct,d
4,24,359,B,35.734091419616774,19.584613268056202,1.786704570980839,0.3076343858316128,B,995.1692998874933,Correct,d
4,24,360,A,34.841357880115744,44.85885244468298,1.7420678940057872,0.7046412064434229,A,1524.0207999013364,Correct,k
4,24,361,B,70.71058154932116,42.12917522355965,3.535529077466058,0.6617635369206606,B,3789.2857000697404,Correct,d
4,24,362,A,56.47079705413698,79.30597888401314,2.8235398527068494,1.2457354032388148,A,3521.2117999326438,Correct,k
4,24,363,B,55.579769709706966,34.17606720244462,2.7789884854853484,0.5368364082589554,B,643.1962999049574,Correct,d
4,24,364,A,30.501080255206688,47.63338445123798,1.5250540127603345,0.7482234532881376,A,627.6016999036074,Correct,k
4,24,365,B,82.47615742378997,52.11698941499564,4.1238078711894985,0.8186517553668367,B,575.8332000114024,Correct,d
4,24,366,A,25.629193596214073,48.229427850898475,1.2814596798107036,0.7575860811161081,A,3154.2547999415547,Correct,k
4,24,367,B,62.11622240390819,50.19191238212681,3.1058111201954097,0.7884127160465608,B,3373.452000087127,Correct,d
4,24,368,A,26.59128074080251,50.60033703080444,1.3295640370401256,0.794828235425714,A,577.0065002143383,Correct,k
4,24,369,B,31.758005034431548,10.840932954124398,1.5879002517215774,0.17028897663368353,B,966.7797000147402,Correct,d
4,24,370,A,53.03202950082874,82.50823568601757,2.651601475041437,1.29603633545924,A,702.0241999998689,Correct,k
4,24,371,A,57.17960232839958,69.83832168592565,2.8589801164199793,1.0970177917377237,B,1699.088399996981,Incorrect,d
4,24,372,A,53.41250362696469,70.90574545932293,2.6706251813482345,1.1137848451615837,A,1270.682099973783,Correct,k
4,24,373,B,61.91669499006854,43.190197934922246,3.095834749503427,0.6784300426972039,B,805.9444001410156,Correct,d
4,24,374,B,31.116495486894415,12.402311434087764,1.5558247743447209,0.19481505244431405,B,1567.5859998445958,Correct,d
4,24,375,B,41.78169048602667,24.645792330596336,2.089084524301333,0.38713520063850554,B,553.6901000887156,Correct,d
4,24,376,A,30.39059694866952,52.81757663228463,1.519529847433476,0.8296565536420066,A,638.164300005883,Correct,k
4,24,377,A,64.91538350590614,83.10561414826907,3.2457691752953064,1.3054199344013504,A,2811.776699963957,Correct,k
4,24,378,B,60.33520570004851,37.18702579123527,3.0167602850024258,0.5841324351729946,B,4955.694400006905,Correct,d
4,24,379,A,50.115738277983255,77.26602784272413,2.505786913899163,1.2136919272138325,A,774.3529002182186,Correct,k
4,24,380,B,32.073250619193146,19.552227711027786,1.6036625309596573,0.30712567469139834,B,710.2489001117647,Correct,d
4,24,381,B,38.70947418656654,25.161929701937503,1.9354737093283267,0.3952426675087483,B,753.2294997945428,Correct,d
4,24,382,B,74.67733416589009,43.18986813706222,3.7338667082945047,0.6784248622445327,B,756.2863000202924,Correct,d
4,24,383,B,50.38822317231653,29.690717035169076,2.5194111586158265,0.4663806925875024,B,489.33999985456467,Correct,d
4,24,384,B,32.59439079601184,13.503520890569057,1.629719539800592,0.21211281013704025,B,491.7057999409735,Correct,d
4,24,385,A,14.962482550244989,42.599205619914684,0.7481241275122494,0.6691467571214249,A,913.692899979651,Correct,k
4,24,386,A,48.76780867207315,56.29994647623126,2.4383904336036575,0.8843574912361335,A,1201.3036001008004,Correct,k
4,24,387,B,47.2055785493168,38.835728393375916,2.36027892746584,0.6100301950871916,B,663.7862999923527,Correct,d
4,24,388,A,55.41661505108608,63.4889747251778,2.770830752554304,0.9972824829028333,A,1360.395000083372,Correct,k
4,24,389,B,77.81680430475132,47.71229947753274,3.890840215237566,0.7494630476224649,B,1021.1296000052243,Correct,d
4,24,390,B,50.79929481382566,28.91213693722326,2.5399647406912833,0.4541507850078135,B,1145.7915999926627,Correct,d
4,24,391,B,77.21297996686621,48.42523400993285,3.8606489983433105,0.7606617970698583,B,648.1636001262814,Correct,d
4,24,392,A,48.174000541755106,66.8958053028529,2.408700027087755,1.050796852477079,A,1729.0457000490278,Correct,k
4,24,393,B,38.8826913283965,14.700635599572706,1.9441345664198248,0.23091704401359098,B,1148.8609001971781,Correct,d
4,24,394,B,59.220717364190286,41.030771526682976,2.9610358682095144,0.6445098519967425,B,711.2421998754144,Correct,d
4,24,395,A,35.80014134219752,43.66194707429912,1.790007067109876,0.6858402608502223,A,1104.8666001297534,Correct,k
4,24,396,A,58.08625948559759,80.8360828266092,2.9043129742798794,1.2697702197652574,A,850.0461999792606,Correct,k
4,24,397,A,61.22924236212192,81.10134571814288,3.061462118106096,1.2739369595218184,A,1783.3457998931408,Correct,k
4,24,398,A,48.37310537801965,76.61388949262047,2.4186552689009826,1.2034481619647837,A,1014.9616999551654,Correct,k
4,24,399,A,28.43976004042161,56.85889358033034,1.4219880020210807,0.8931374118160481,A,598.0410999618471,Correct,k
4,24,400,B,81.31760282875175,65.71382196874707,4.065880141437588,1.0322303016816168,B,652.7432999573648,Correct,d
4,24,401,B,63.59011546954178,35.82366374987838,3.179505773477089,0.5627167943064445,B,661.5061999764293,Correct,d
4,24,402,A,25.520647621283658,40.48564421658591,1.276032381064183,0.635947012233382,A,1464.7866999730468,Correct,k
4,24,403,B,34.675416114912906,11.683838951470221,1.7337708057456453,0.1835293130783256,B,1514.697799924761,Correct,d
4,24,404,A,47.261284630213346,56.74164042723521,2.363064231510667,0.8912956035941788,A,1422.3279999569058,Correct,k
4,24,405,B,53.494636538540725,24.512066797426648,2.674731826927036,0.3850346448754893,B,1267.0869000721723,Correct,d
4,24,406,A,31.248635563172705,40.150853453754024,1.5624317781586354,0.6306881312283701,A,907.7657000161707,Correct,k
4,24,407,B,39.32328604834173,29.180271546588884,1.9661643024170865,0.45836263360259455,B,1361.2732999026775,Correct,d
4,24,408,B,39.7372615056412,25.96464450210171,1.98686307528206,0.4078516821043668,B,752.2060999181122,Correct,d
4,24,409,A,35.67827391621627,68.98407187235975,1.7839136958108133,1.0835992670445784,A,827.8845001477748,Correct,k
4,24,410,B,38.555303804979026,19.82203213053478,1.9277651902489512,0.3113637526025445,B,609.6485001035035,Correct,d
4,24,411,A,43.30448593634084,63.62320390598629,2.165224296817042,0.9993909499444598,A,904.0248000528663,Correct,k
4,24,412,A,57.439689103706286,72.08231537255509,2.8719844551853146,1.1322663621408087,A,709.1326001100242,Correct,k
4,24,413,B,40.5186862837006,26.983111105315558,2.0259343141850303,0.4238497180972826,B,769.8286001104861,Correct,d
4,24,414,A,50.604743803531264,58.022186816397635,2.5302371901765635,0.9114103792380468,A,1476.8729000352323,Correct,k
4,24,415,B,76.72475200313391,46.1542227199012,3.8362376001566956,0.7249888351449436,B,641.9498000759631,Correct,d
4,24,416,B,72.25632733515913,51.59777734099005,3.6128163667579565,0.8104959911800813,B,1030.0968000665307,Correct,d
4,24,417,A,16.54250771566564,34.96097081095186,0.8271253857832819,0.5491656453102679,A,559.6149999182671,Correct,k
4,24,418,B,56.101517265452735,37.124296317294394,2.8050758632726365,0.5831470829005133,B,1176.5409000217915,Correct,d
4,24,419,A,63.95940120427702,81.46523655681924,3.1979700602138514,1.27965294344929,A,775.5305001046509,Correct,k
4,24,420,B,33.983173752633505,21.374886108699968,1.699158687631675,0.33575592585205166,B,1130.0981999374926,Correct,d
4,24,421,A,53.77098726131023,66.91214240158581,2.6885493630655115,1.0510534750238802,A,1332.205800106749,Correct,k
4,24,422,A,52.699945260721705,64.29910461153479,2.6349972630360856,1.0100079733999965,B,1204.2531999759376,Incorrect,d
4,24,423,B,72.01506077349713,39.666138420765584,3.6007530386748563,0.6230742452947649,B,801.3478999491781,Correct,d
4,24,424,B,48.739440309625394,31.382213535320325,2.4369720154812695,0.49295065747974254,B,669.8696999810636,Correct,d
4,24,425,A,41.534546578043965,68.6599971558996,2.0767273289021984,1.0785087133023514,A,675.0756001565605,Correct,k
4,24,426,A,51.49876447219028,72.91911121874718,2.574938223609514,1.145410720555566,A,841.5510000195354,Correct,k
4,24,427,A,32.83835190002853,51.47486325990335,1.6419175950014264,0.8085652613092578,A,604.7002000268549,Correct,k
4,24,428,A,34.138360625975764,63.53442292490269,1.7069180312987882,0.9979963815547062,A,625.4493000451475,Correct,k
4,24,429,B,55.42891481594997,30.985498013361752,2.771445740797499,0.4867190646329921,B,1082.5459000188857,Correct,d
4,24,430,A,39.10707822463372,49.370376939285784,1.9553539112316858,0.7755080674870958,A,1092.6520000211895,Correct,k
4,24,431,A,40.12543310362833,67.19059436035485,2.0062716551814166,1.055427388164113,A,712.4233001377434,Correct,k
4,24,432,A,36.49657275704981,47.1776843356694,1.8248286378524907,0.7410653326115861,A,24528.005300089717,Correct,k
4,24,433,B,36.7449825406548,24.705312215745245,1.8372491270327402,0.3880701368081371,B,9116.275999927893,Correct,d
4,24,434,A,44.49962423666669,69.07045497196842,2.2249812118333345,1.0849561696002028,A,3308.768199989572,Correct,k
4,24,435,B,51.177070291990375,25.89416547923695,2.558853514599519,0.4067446002020461,B,620.4593000002205,Correct,d
4,24,436,B,58.60204796161817,35.78371117883056,2.9301023980809084,0.5620892207879652,B,627.308800118044,Correct,d
4,24,437,B,72.77577244443337,55.031314346079256,3.6387886222216683,0.8644298643351659,B,933.0094000324607,Correct,d
4,24,438,A,27.114703717888226,41.87579065840484,1.3557351858944113,0.6577833814785435,A,771.1947001516819,Correct,k
4,24,439,B,83.5706885322261,65.50881403050556,4.1785344266113045,1.029010044518081,B,695.2073001302779,Correct,d
4,24,440,B,63.412817620476616,43.44065727734161,3.170640881023831,0.6823642488480419,B,926.6170000191778,Correct,d
4,24,441,A,41.09393316640105,67.06732196329529,2.0546966583200525,1.0534910298791493,A,1031.549299834296,Correct,k
4,24,442,A,17.069534566515973,47.7420434257633,0.8534767283257986,0.7499302644687144,A,793.7347001861781,Correct,k
4,24,443,A,45.541456145055264,57.69736100133392,2.2770728072527633,0.9063080272665444,A,876.9078000914305,Correct,k
4,24,444,B,47.39696615639424,40.42459217661164,2.369848307819712,0.6349880090320327,A,1073.0771000962704,Incorrect,k
4,24,445,B,67.63675569259709,42.1379611073896,3.3818377846298544,0.661901545261138,B,965.5479001812637,Correct,d
4,24,446,B,77.45071734464179,46.56934816476928,3.8725358672320898,0.7315096103845224,B,725.6801999174058,Correct,d
4,24,447,A,47.213737596740415,55.55164008266408,2.360686879837021,0.8726031218928086,A,929.5083000324667,Correct,k
4,24,448,B,75.37626894255833,64.58210330948738,3.7688134471279167,1.0144533065523131,B,16150.37739998661,Correct,d
4,24,449,A,40.7124821953327,72.78760308590776,2.035624109766635,1.143344995635488,A,1073.9362998865545,Correct,k
4,24,450,B,69.30223831049128,48.44652372198105,3.4651119155245635,0.7609962150846966,B,735.8515998348594,Correct,d
4,24,451,B,77.82934028826367,46.87574870141295,3.891467014413183,0.7363225387594012,B,613.104599993676,Correct,d
4,24,452,A,39.34969716567256,61.385061623874826,1.967484858283628,0.9642342931886094,A,842.6566999405622,Correct,k
4,24,453,B,65.8870936225106,54.69996820163508,3.2943546811255304,0.8592250912692603,B,1497.1888000145555,Correct,d
4,24,454,A,50.74732582611414,59.92785452206729,2.537366291305707,0.9413445375596224,A,1285.4587000329047,Correct,k
4,24,455,A,27.064403036084162,50.38237214693149,1.353220151804208,0.7914044510361349,A,810.9737001359463,Correct,k
4,24,456,B,43.05984200132734,21.697019340642434,2.152992100066367,0.34081598282678965,B,567.6284998189658,Correct,d
4,24,457,A,18.198970770354784,48.90354538085826,0.9099485385177392,0.7681750945149969,A,3657.4953000526875,Correct,k
4,24,458,A,40.63292615857368,64.66135889438368,2.031646307928684,1.015698250368644,A,723.1558000203222,Correct,k
4,24,459,A,58.421065314556245,81.78578569337066,2.9210532657278123,1.2846881175118123,A,1318.89669992961,Correct,k
4,24,460,B,80.44532370509323,64.78705401124239,4.0222661852546615,1.0176726646472212,B,1522.95279991813,Correct,d
4,24,461,A,19.42836306127551,44.531893155217304,0.9714181530637753,0.6995053419343813,A,15850.394500186667,Correct,k
4,24,462,A,47.989720810539986,75.41495597635077,2.399486040526999,1.1846153583305061,A,1087.8325998783112,Correct,k
4,24,463,B,62.26544746581802,39.69341824720315,3.113272373290901,0.6235027558064024,B,569.2378000821918,Correct,d
4,24,464,A,38.73186018574956,69.13343501352607,1.936593009287478,1.0859454577796044,A,871.4755999390036,Correct,k
4,24,465,A,24.758500594336823,56.916501662194406,1.2379250297168412,0.8940423174499058,A,784.7339001018554,Correct,k
4,24,466,B,85.58469439149326,65.80916244065439,4.279234719574663,1.033727906312286,B,1020.7680000457913,Correct,d
4,24,467,A,42.216952262368835,72.9506040015602,2.110847613118442,1.1459054080311983,A,695.8049999084324,Correct,k
4,24,468,B,54.785405564208695,36.4424284761851,2.7392702782104346,0.5724363278987729,B,730.9610000811517,Correct,d
4,24,469,B,52.769913599029366,21.200925912640308,2.638495679951468,0.3330233654822613,B,700.868200045079,Correct,d
4,24,470,B,70.81786292333514,44.92272696592521,3.5408931461667574,0.7056445450768536,B,2954.519300023094,Correct,d
4,24,471,A,57.89595862291235,69.09970556416485,2.8947979311456176,1.0854156368279901,A,967.7249998785555,Correct,k
4,24,472,A,52.4469048630188,77.35285150790622,2.62234524315094,1.2150557501573018,A,624.2154000792652,Correct,k
4,24,473,A,64.77850405069687,81.16265483289428,3.2389252025348436,1.2749000008443239,A,1631.5575998742133,Correct,k
4,24,474,A,43.03616977906221,64.15560768518054,2.151808488953111,1.0077539289517603,A,1124.179899925366,Correct,k
4,24,475,B,77.74877724382841,54.632694656915696,3.8874388621914204,0.8581683608999036,B,586.8140999227762,Correct,d
4,24,476,B,37.27508891739541,25.37762791215281,1.8637544458697703,0.39863084707177276,B,1053.8277998566628,Correct,d
4,24,477,A,13.716850866311823,39.700552815494085,0.6858425433155912,0.623614825343049,A,716.5215001441538,Correct,k
4,24,478,A,22.33293173192095,53.101593517828235,1.1166465865960475,0.8341178804476028,A,585.0897000636905,Correct,k
4,24,479,A,13.992004172825219,32.351666236105416,0.6996002086412609,0.5081787848936886,A,644.6804001461715,Correct,k
4,24,480,B,57.17999790637823,41.07526947912924,2.8589998953189113,0.6452088241992673,B,848.1173999607563,Correct,d
4,24,481,B,43.05666569156832,30.969354132491226,2.152833284578416,0.4864654771452757,B,1116.8535000178963,Correct,d
4,24,482,B,35.260892103404075,12.086499068679014,1.7630446051702038,0.18985428340890936,B,1045.3087000641972,Correct,d
4,24,483,A,15.805665470164328,31.99036200695683,0.7902832735082164,0.5025034313336681,A,1148.82340002805,Correct,k
4,24,484,A,14.910290755087807,42.0630684899204,0.7455145377543902,0.6607251347768911,A,849.2098001297563,Correct,k
4,24,485,B,51.57433193585484,38.811503455255256,2.5787165967927423,0.609649670649024,A,1770.7124000880867,Incorrect,k
4,24,486,B,51.324097278986585,21.235376717354903,2.5662048639493293,0.3335645174572695,B,958.2854998297989,Correct,d
4,24,487,A,31.194219688248268,46.02025430667825,1.5597109844124133,0.7228844642309721,A,660.5541999451816,Correct,k
4,24,488,B,79.69903128446401,64.33508116396041,3.9849515642232007,1.0105730917640054,B,945.8918999880552,Correct,d
4,24,489,A,35.66466183757432,50.29387818485837,1.7832330918787163,0.7900143911304552,A,823.2899999711663,Correct,k
4,24,490,B,84.8597672160605,64.61595999442682,4.242988360803025,1.0149851261157161,B,688.9530001208186,Correct,d
4,24,491,B,63.42828230838131,33.85359821306877,3.171414115419066,0.5317710772187869,B,686.2806999124587,Correct,d
4,24,492,A,39.16034821379471,61.87000559190431,1.9580174106897357,0.97185177522543,A,1639.2538000363857,Correct,k
4,24,493,A,35.68090659840579,52.61600645838093,1.7840453299202894,0.8264902967544131,A,1044.826199999079,Correct,k
4,24,494,A,16.3480046224013,46.10921170633893,0.8174002311200651,0.7242818037972544,A,1033.1697999499738,Correct,k
4,24,495,B,56.44408734678666,33.50804170043409,2.822204367339333,0.5263430882113209,B,617.1016998123378,Correct,d
4,24,496,B,74.2866672761362,52.37110375102475,3.71433336380681,0.822643374023041,B,1863.9007001183927,Correct,d
4,24,497,B,68.32992322229677,38.764625372792906,3.4164961611148383,0.6089133114516335,B,864.4433999434114,Correct,d
4,24,498,B,74.53271831576261,42.627725077588025,3.7266359157881306,0.6695947397149796,B,2182.8061998821795,Correct,d
4,24,499,B,69.00620663085502,54.67202074799063,3.4503103315427506,0.8587860936939805,B,1220.9377998951823,Correct,d
4,24,500,B,37.69092152686032,26.556403786116476,1.8845460763430162,0.41714701520113845,A,1780.4387998767197,Incorrect,k
4,24,501,A,19.247374663838322,39.96053052751937,0.9623687331919161,0.6276985456940276,A,840.6112999655306,Correct,k
4,24,502,A,43.41435733141075,60.51418821208502,2.1707178665705373,0.9505546456251818,A,2774.983400013298,Correct,k
4,24,503,A,35.44927808965952,64.0589339559371,1.772463904482976,1.006235381563829,A,603.978700004518,Correct,k
4,24,504,A,19.189222571259087,41.01847757123604,0.9594611285629543,0.6443167389961642,A,637.0381999295205,Correct,k
4,24,505,B,51.29711356435928,27.77555502282972,2.564855678217964,0.4362973980455046,B,640.780400019139,Correct,d
4,24,506,B,33.286347194656045,16.30740822733333,1.6643173597328025,0.2561561694304007,B,1257.293000118807,Correct,d
4,24,507,B,60.5227071460611,38.65664119464349,3.026135357303055,0.6072170999477428,B,716.8715000152588,Correct,d
4,24,508,A,38.71142372803844,65.2590550159303,1.9355711864019218,1.025086839091294,A,571.3529998902231,Correct,k
4,24,509,A,34.06413812931419,42.36341796908273,1.7032069064657094,0.6654430133631208,A,1132.2943000122905,Correct,k
4,24,510,B,72.42588496986666,58.62100983068116,3.6212942484933333,0.9208166691504149,B,522.6849999744445,Correct,d
4,24,511,B,46.91541232622003,31.873957465288992,2.3457706163110017,0.5006749530689273,B,1019.3523999769241,Correct,d
4,24,512,B,71.45448246129675,40.610646746646296,3.572724123064837,0.6379105473839712,B,517.62709999457,Correct,d
4,24,513,A,39.298513816478504,49.392275918669604,1.9649256908239252,0.7758520558508625,A,667.7564000710845,Correct,k
4,24,514,A,46.629545744900824,76.87920607989385,2.3314772872450416,1.2076157451720515,A,710.9056999906898,Correct,k
4,24,515,B,57.4413007366108,48.720143771589846,2.87206503683054,0.7652942287733259,B,897.9275999590755,Correct,d
4,24,516,A,64.7948301539667,83.02455087781291,3.239741507698335,1.3041465955266454,A,732.8178000170738,Correct,k
4,24,517,B,38.71633243352717,25.248574506880153,1.9358166216763584,0.39660368092214615,B,806.4315000083297,Correct,d
4,24,518,A,15.909834195590129,42.16468298698764,0.7954917097795063,0.6623212915643145,A,534.0396000538021,Correct,k
4,24,519,B,73.85606739207131,51.72284202858526,3.692803369603565,0.8124605026989442,B,689.6828999742866,Correct,d
