subject,day,trial,cat,x,y,xt,yt,resp,rt,fb
4,16,0,B,86.4304014837526,66.14860096334166,4.32152007418763,1.0390597941583846,B,3100.3945000702515,Correct
4,16,1,B,55.98982951369088,33.665794798379515,2.799491475684544,0.5288210680792528,B,4218.207499943674,Correct
4,16,2,A,51.34817202614707,62.6280547121169,2.567408601307353,0.9837591829610305,A,1489.0061999903992,Correct
4,16,3,B,33.08245960284692,11.7927603722978,1.6541229801423458,0.185240246755778,B,438.65129991900176,Correct
4,16,4,A,19.810532374312768,42.32113173429464,0.9905266187156384,0.6647787827403295,A,1089.1995000420138,Correct
4,16,5,A,36.51133523609686,65.28033264637018,1.8255667618048432,1.0254210673286726,A,534.4948000274599,Correct
4,16,6,B,38.80559118536357,20.498257903416697,1.9402795592681783,0.3219858822038141,B,1140.7851999392733,Correct
4,16,7,A,26.685706516591594,47.84449213804985,1.33428532582958,0.75153952507816,A,586.7726999567822,Correct
4,16,8,A,36.3762875165321,68.76203735602262,1.818814375826605,1.080111557017738,A,36450.242200051434,Correct
4,16,9,A,50.258709323454134,78.20742257638277,2.512935466172707,1.2284793211107834,A,1252.0390000427142,Correct
4,16,10,B,38.95617401027754,16.16491317040542,1.9478087005138773,0.2539178623103128,B,1932.3385999305174,Correct
4,16,11,B,59.58676581968096,48.73429683705259,2.9793382909840482,0.7655165446057435,B,730.6945000309497,Correct
4,16,12,A,29.560510278371474,58.87954920953111,1.4780255139185738,0.9248777962167083,A,7293.635900015943,Correct
4,16,13,A,44.13880608825554,57.717874432311426,2.206940304412777,0.9066302514868386,A,1256.6852000309154,Correct
4,16,14,B,50.13645039354826,22.778577432111195,2.506822519677413,0.35780505759973397,B,3032.2028000373393,Correct
4,16,15,B,61.61561688866207,28.883963981407803,3.0807808444331033,0.4537082452527147,B,1356.3435999676585,Correct
4,16,16,B,33.92140106951351,11.4456853432638,1.6960700534756754,0.17978840494848963,B,445.39679994340986,Correct
4,16,17,A,26.09750366797102,42.78238633628483,1.3048751833985508,0.6720241530855638,A,2058.7651000823826,Correct
4,16,18,A,16.608700671713667,31.118821521115127,0.8304350335856833,0.48881330539553614,A,441.3030999712646,Correct
4,16,19,A,13.362928735874096,35.354852950485125,0.6681464367937048,0.5553527314899575,A,475.83710006438196,Correct
4,16,20,A,66.89181563107597,79.75523221533035,3.3445907815537987,1.2527922580651494,B,922.7747999830171,Incorrect
4,16,21,A,50.7020856946511,65.87825872253458,2.535104284732555,1.0348132681700117,A,564.6240999922156,Correct
4,16,22,B,48.62730179403498,34.17143141691184,2.4313650897017487,0.5367635895100884,A,647.632300038822,Incorrect
4,16,23,B,58.08443111207871,38.7959817375223,2.9042215556039355,0.6094058560770191,B,1631.256000022404,Correct
4,16,24,A,59.635403687583576,72.75584746842534,2.9817701843791786,1.142846179562523,A,703.3771999413148,Correct
4,16,25,B,62.09885573653969,37.97800537833349,3.1049427868269843,0.5965571134728307,B,461.46610006690025,Correct
4,16,26,A,31.357167097208077,60.799258259438375,1.567858354860404,0.9550325154578008,A,401.68739994987845,Correct
4,16,27,A,66.91347526572079,85.64599213960986,3.3456737632860394,1.3453240985760373,A,1732.613299973309,Correct
4,16,28,B,64.02772162664245,53.92673216989968,3.2013860813321227,0.8470791280853059,B,652.640699991025,Correct
4,16,29,A,48.83793785117662,72.49441258258454,2.4418968925588307,1.1387395699787755,A,4816.492600017227,Correct
4,16,30,B,44.49638017668006,23.161957210584312,2.2248190088340034,0.363827173077664,B,737.8724999725819,Correct
4,16,31,B,82.88505253412714,57.9984021232845,4.144252626706357,0.9110367701522862,A,2905.611800029874,Incorrect
4,16,32,B,49.62812230941797,19.344651907747853,2.4814061154708984,0.3038650815981621,B,1122.0878000603989,Correct
4,16,33,A,54.62843255798036,82.68651037142885,2.731421627899018,1.2988366676692855,A,389.97669995296746,Correct
4,16,34,B,81.67198228115733,58.733566727262755,4.083599114057867,0.9225847087474729,A,3283.77829992678,Incorrect
4,16,35,A,47.500386602502815,61.2252133848035,2.375019330125141,0.9617234029208308,A,471.43350006081164,Correct
4,16,36,B,58.33573407101635,51.518125891124015,2.9167867035508177,0.8092448291313465,B,872.5657999748364,Correct
4,16,37,B,61.068120750608465,52.53148548467949,3.0534060375304235,0.8251626444041398,A,597.6131999632344,Incorrect
4,16,38,A,35.242745624074686,63.93704066411846,1.7621372812037344,1.0043206862133323,A,384.6414000727236,Correct
4,16,39,A,46.77415187982615,54.409112306626966,2.3387075939913076,0.8546563375542064,A,503.9018999086693,Correct
4,16,40,B,49.906273772914886,20.736043777252235,2.4953136886457443,0.3257210139756598,B,446.32999994792044,Correct
4,16,41,B,40.90295422365393,13.424945592670603,2.0451477111826963,0.21087855224388316,B,3234.0622999472544,Correct
4,16,42,A,30.539886546116364,48.526069604516046,1.526994327305818,0.7622457188856727,A,622.7026999695227,Correct
4,16,43,A,38.33271720349253,65.55462525404599,1.9166358601746265,1.029729645534714,A,487.0381999062374,Correct
4,16,44,A,45.06887043869606,57.04137822334003,2.253443521934803,0.8960038738854093,A,1235.5382000096142,Correct
4,16,45,B,74.66007263816991,61.8977216511266,3.733003631908496,0.9722871380656259,B,1379.3807999463752,Correct
4,16,46,A,37.40265062105065,67.9043120043897,1.8701325310525323,1.0666384387002992,A,521.3871999876574,Correct
4,16,47,A,42.862829162992796,61.05951526746124,2.14314145814964,0.9591206229800502,A,1210.7401000102982,Correct
4,16,48,A,39.73895822584564,50.46964274616576,1.986947911292282,0.7927752944032788,A,744.7092999937013,Correct
4,16,49,A,26.347311366791743,55.45002583495523,1.3173655683395873,0.871006969022298,A,384.7077999962494,Correct
4,16,50,B,66.15693828888027,40.29939809946189,3.3078469144440135,0.6330214650667998,B,783.4547000238672,Correct
4,16,51,B,75.76360914713828,59.18084179829162,3.7881804573569138,0.9296104891338636,B,679.3663999997079,Correct
4,16,52,B,58.076388779738565,26.112674234654467,2.9038194389869285,0.4101769277058697,B,2816.391200060025,Correct
4,16,53,B,67.78776063896167,49.052543504347575,3.3893880319480836,0.7705155515657602,B,1312.8254999173805,Correct
4,16,54,B,41.51536040732245,28.939344580167703,2.075768020366122,0.4545781616637923,B,1493.6595999170095,Correct
4,16,55,B,45.73848200422354,36.1746731535283,2.286924100211177,0.5682304371256821,B,390.1476999744773,Correct
4,16,56,B,35.511573691183656,10.452808715937113,1.7755786845591828,0.16419233535683697,B,465.22020001430064,Correct
4,16,57,A,34.96711750037735,42.8992793254959,1.7483558750188675,0.6738603038663721,B,1467.495399992913,Incorrect
4,16,58,B,54.43827839570933,42.25715626045053,2.7219139197854667,0.6637738583471366,A,683.79499996081,Incorrect
4,16,59,A,48.78942369386397,60.24366394201955,2.4394711846931982,0.9463052603279046,A,610.9875999391079,Correct
4,16,60,B,72.28731370550517,53.894973755106236,3.6143656852752586,0.8465802680722823,B,717.4279999453574,Correct
4,16,61,A,40.27478525583791,54.49531247024499,2.0137392627918955,0.8560103665580097,B,643.0429000174627,Incorrect
4,16,62,A,16.399365008627672,45.722924170886415,0.8199682504313835,0.7182140133794996,A,1873.3398999320343,Correct
4,16,63,B,81.89985956042294,52.83537579256306,4.094992978021147,0.8299361421978604,B,996.13539990969,Correct
4,16,64,B,46.2088010359528,30.22791314904592,2.3104400517976402,0.47481894941196484,A,1104.6912999590859,Incorrect
4,16,65,A,26.99823566982166,50.71885571886606,1.3499117834910832,0.7966899226243515,A,3891.896800021641,Correct
4,16,66,A,57.78428784415479,69.227505403117,2.8892143922077396,1.0874231120039004,B,2421.5625000651926,Incorrect
4,16,67,B,54.012474853345246,43.32702572844872,2.7006237426672626,0.6805793286519521,B,483.44390001147985,Correct
4,16,68,B,35.06727044388623,11.492362633695368,1.7533635221943116,0.18052161011203605,B,690.7972999615595,Correct
4,16,69,B,42.190717715197316,14.05302497535203,2.1095358857598656,0.2207444001163991,B,617.035000002943,Correct
4,16,70,A,57.031907967330696,68.05667290804965,2.851595398366535,1.0690317181784614,A,844.6946000913158,Correct
4,16,71,B,60.60506704410948,43.32055615305339,3.0302533522054738,0.6804777047992832,B,812.8778000827879,Correct
4,16,72,A,21.202478195904213,52.1516629913961,1.0601239097952107,0.8191964066313033,A,496.0334000643343,Correct
4,16,73,A,20.071903694675232,36.834777578121304,1.0035951847337616,0.5785993331801995,A,620.5003999639302,Correct
4,16,74,B,76.78367019953318,55.88718472241803,3.8391835099766585,0.8778738447688209,B,603.1285000499338,Correct
4,16,75,A,47.483169674220925,56.20063189992081,2.3741584837110463,0.882797461519477,B,1817.9679999593645,Incorrect
4,16,76,A,35.05511308905917,54.03835590111601,1.7527556544529586,0.8488325095550835,A,1030.0662000663579,Correct
4,16,77,B,63.18724869719667,50.633035674150484,3.1593624348598337,0.7953418645143053,B,955.6665000272915,Correct
4,16,78,B,86.90223552231052,63.59090888701846,4.345111776115527,0.9988836609727753,B,1002.1621999330819,Correct
4,16,79,A,38.629382955980454,65.93805595981783,1.9314691477990227,1.0357525609767817,A,901.791000040248,Correct
4,16,80,A,29.60754726526659,55.32037203502414,1.4803773632633295,0.8689703718954302,A,833.9818000094965,Correct
4,16,81,A,63.51279520644404,74.68869003667365,3.175639760322202,1.1732071996272957,A,1369.7039999533445,Correct
4,16,82,A,17.84234913456596,38.48517198547118,0.8921174567282981,0.6045236679084799,A,3548.7900000298396,Correct
4,16,83,A,43.55686686573044,52.53288649801671,2.177843343286522,0.8251846514701785,A,3504.112199996598,Correct
4,16,84,A,49.01409481392556,74.77378958995101,2.450704740696278,1.174543940284295,A,797.5158999906853,Correct
4,16,85,B,84.05951548615701,60.94512112706552,4.20297577430785,0.9573237240246458,B,1355.4059999296442,Correct
4,16,86,B,57.202065107017454,36.890407325944715,2.8601032553508725,0.579473163215615,B,824.1779999807477,Correct
4,16,87,A,63.880702332485995,81.32693274023467,3.1940351166243,1.2774804721785624,A,767.3689000075683,Correct
4,16,88,B,47.717769643323486,36.99991842071094,2.3858884821661746,0.5811933594696358,B,617.0742999529466,Correct
4,16,89,A,36.28759025696409,64.55037097588051,1.8143795128482043,1.01395485622161,A,1118.307500029914,Correct
4,16,90,B,59.662840891403754,40.12923315479147,2.983142044570188,0.6303485203664242,B,1052.3092999355868,Correct
4,16,91,A,23.363115878792872,35.88306634120552,1.1681557939396436,0.5636498880290323,A,463.030599988997,Correct
4,16,92,A,63.08327219709665,84.82036674238013,3.1541636098548325,1.3323552051632672,A,1246.439400012605,Correct
4,16,93,B,44.007970111647694,35.24953804171007,2.2003985055823847,0.5536984487713514,B,1178.017899976112,Correct
4,16,94,A,43.74100051400273,68.00292989675685,2.1870500257001364,1.0681875249311652,A,1276.8928000004962,Correct
4,16,95,A,53.081228610739934,67.80215649202404,2.6540614305369967,1.065033783664441,A,3981.0551999835297,Correct
4,16,96,B,36.97319481307804,27.200465678084697,1.8486597406539018,0.427263915742461,B,967.9738000268117,Correct
4,16,97,B,64.65275612418033,46.04759043763374,3.2326378062090164,0.7233138591719087,B,2193.548000068404,Correct
4,16,98,B,72.2553881835244,59.58077343606729,3.61276940917622,0.9358926006097346,B,512.4111999757588,Correct
4,16,99,A,46.84271224317675,71.52727949245138,2.3421356121588373,1.1235478789237456,A,3579.7547000693157,Correct
4,16,100,A,42.84644180337487,60.034320233337006,2.1423220901687436,0.9430168970415431,A,935.630299965851,Correct
4,16,101,A,31.249309747173882,45.17652560909767,1.562465487358694,0.709631204841262,A,1363.0559000885114,Correct
4,16,102,B,58.3274242724134,27.21764159136113,2.9163712136206703,0.4275337143573006,B,743.4445999097079,Correct
4,16,103,B,59.874568688513065,33.22929236133466,2.9937284344256536,0.521964503831782,B,330.884899944067,Correct
4,16,104,B,86.17449844293733,65.77752424522015,4.308724922146866,1.0332309347005406,B,689.3645999953151,Correct
4,16,105,A,25.36752695464454,54.95551440240799,1.268376347732227,0.863239201604265,A,3460.891900002025,Correct
4,16,106,A,32.896788700323945,43.56920209132823,1.6448394350161974,0.684383426064429,A,804.6589000150561,Correct
4,16,107,A,39.11459469227031,70.90132622642103,1.9557297346135156,1.1137154280134882,A,531.3494000583887,Correct
4,16,108,B,82.33674662262911,65.43555906180259,4.116837331131455,1.0278593581605002,B,762.1378999901935,Correct
4,16,109,B,49.4287725328233,32.41362044028117,2.471438626641165,0.5091519592571765,B,903.2757000532001,Correct
4,16,110,B,41.339006141971964,29.868582029470947,2.0669503070985984,0.4691745893846502,B,7521.519099944271,Correct
4,16,111,B,46.31674010832425,33.612862200547774,2.315837005416212,0.5279896047768347,B,194910.75969999656,Correct
4,16,112,A,17.030692319017625,43.381132349245114,0.8515346159508812,0.6814292334639749,A,1314.8316000588238,Correct
4,16,113,A,27.46038281763601,39.243080284946544,1.3730191408818004,0.6164288636371125,A,542.0518000610173,Correct
4,16,114,B,39.62952344522241,25.70216456824886,1.9814761722611207,0.4037286569448325,B,1370.6186999334022,Correct
4,16,115,A,29.29692005788787,47.8274077609451,1.4648460028943935,0.7512711643101428,A,880.3722999291494,Correct
4,16,116,A,49.39238297968618,69.32828196947003,2.469619148984309,1.0890061066064438,A,904.4772000052035,Correct
4,16,117,B,52.9664003066945,44.425743881371645,2.648320015334725,0.6978379530398944,B,525.0392999732867,Correct
4,16,118,A,32.47602964620984,45.37717788424394,1.6238014823104918,0.71278304340889,A,681.5392998978496,Correct
4,16,119,B,60.07614262297765,38.778872725828045,3.0038071311488825,0.609137108349775,B,432.6189999701455,Correct
4,16,120,A,23.44801262364137,40.517541974103196,1.1724006311820687,0.6364480610367934,A,528.7249999819323,Correct
4,16,121,A,51.27021571846071,71.58927840066504,2.5635107859230355,1.1245217554966187,A,760.1967999944463,Correct
4,16,122,A,59.98897149650918,84.98948323628721,2.999448574825459,1.3350116808375638,A,1072.8434999473393,Correct
4,16,123,A,41.41395472449339,54.726986992639084,2.0706977362246692,0.8596495014458956,A,831.7577999550849,Correct
4,16,124,B,63.934339528808486,42.329756179485656,3.196716976440424,0.6649142552085964,B,511.2602999433875,Correct
4,16,125,B,56.66411136049799,45.87082551662522,2.8332055680248995,0.720537242285645,B,506.28520001191646,Correct
4,16,126,B,79.71755555259925,53.65654008669066,3.9858777776299625,0.8428349607669682,B,453.4933000104502,Correct
4,16,127,A,40.46871964127769,72.26932171097916,2.0234359820638845,1.1352038508356475,A,564.527399954386,Correct
4,16,128,A,61.577899513567374,85.36449987206382,3.078894975678369,1.3409024283772126,A,1255.6803999468684,Correct
4,16,129,B,36.41809748944709,21.489456013189937,1.8209048744723546,0.33755558570339256,B,534.713999950327,Correct
4,16,130,B,85.12496268942772,56.38518355198377,4.256248134471386,0.8856963920911214,A,483.59530000016093,Incorrect
4,16,131,B,85.68180459247506,56.818552211699725,4.284090229623753,0.8925037310794198,B,580.197999952361,Correct
4,16,132,A,40.039195815090416,61.88884595207404,2.001959790754521,0.9721477189109312,A,821.865199948661,Correct
4,16,133,A,51.82964981865636,63.65378617170911,2.5914824909328176,0.9998713350510845,A,1631.3896999927238,Correct
4,16,134,B,66.04672768113709,35.49274539373535,3.3023363840568543,0.5575187409234597,B,372.18369997572154,Correct
4,16,135,B,40.036994273083565,22.24845005972783,2.0018497136541784,0.34947783630700174,B,980.0925999879837,Correct
4,16,136,B,89.23018421738539,69.06159395526443,4.461509210869269,1.0848169810753,B,897.4104999797419,Correct
4,16,137,B,31.39995649551902,13.627921969326017,1.569997824775951,0.2140668977126478,A,924.8888000147417,Incorrect
4,16,138,B,83.99960456855652,65.1537050883693,4.199980228427826,1.0234320062988849,B,1073.0363999027759,Correct
4,16,139,A,26.81503111992448,36.82532225855391,1.340751555996224,0.5784508093677483,A,653.6794999847189,Correct
4,16,140,B,75.7051249593728,51.506963920317986,3.7852562479686402,0.8090694973039276,B,1035.0083999801427,Correct
4,16,141,B,66.17135205188028,55.32838168740313,3.308567602594014,0.8690961872207885,B,666.6362000396475,Correct
4,16,142,A,44.42003568747304,66.7210844796505,2.221001784373652,1.04805234420407,A,799.7426999500021,Correct
4,16,143,B,42.39443724870627,28.629105467432346,2.119721862435313,0.44970493707666426,B,761.5046000573784,Correct
4,16,144,B,66.42795956883259,53.88201929667402,3.3213979784416297,0.8463767799150728,B,600.829100003466,Correct
4,16,145,A,59.831127171135975,84.73061477501533,2.9915563585567986,1.3309453845566748,A,1004.9479000736028,Correct
4,16,146,B,60.315883974498384,31.35491014837585,3.0157941987249193,0.4925217768805282,B,3416.62809997797,Correct
4,16,147,B,52.94665643713332,24.292474616945373,2.6473328218566663,0.3815852989705606,B,441.33469997905195,Correct
4,16,148,B,61.11966328231818,50.635611770911616,3.0559831641159088,0.7953823297476039,B,2302.105200011283,Correct
4,16,149,B,34.960016869171895,20.226403931749992,1.748000843458595,0.3177156100026274,A,1012.2742999810725,Incorrect
4,16,150,A,24.50250584556685,47.118567201851405,1.2251252922783424,0.7401367228450668,B,758.5928000044078,Incorrect
4,16,151,A,41.073230930446705,67.7078848437393,2.0536615465223353,1.0635529680759754,A,961.1317999660969,Correct
4,16,152,A,29.4842168202132,39.16848279010409,1.4742108410106598,0.6152570889282463,A,874.10000001546,Correct
4,16,153,B,58.371483261784206,38.36906587350992,2.91857416308921,0.602699877366608,B,615.7371000153944,Correct
4,16,154,B,63.70673076597804,54.93158142971858,3.185336538298902,0.8628632633483669,B,813.891900004819,Correct
4,16,155,B,54.770171112704496,35.79927809509485,2.738508555635225,0.5623337453368399,B,493.6623000539839,Correct
4,16,156,B,33.53777110106395,22.25877434788966,1.6768885550531976,0.34964000984621546,B,498.5823000315577,Correct
4,16,157,B,74.35284223882911,45.86492893515553,3.7176421119414558,0.7204446190005127,B,703.9626999758184,Correct
4,16,158,B,47.207083750628016,25.654005339198942,2.3603541875314007,0.4029721735439036,B,542.6672999747097,Correct
4,16,159,B,32.355479530993804,12.264071916939187,1.6177739765496904,0.1926435911867652,B,780.9785000281408,Correct
4,16,160,B,64.24084147761523,42.01803278607458,3.2120420738807614,0.6600177155951349,B,749.9180999584496,Correct
4,16,161,A,54.16439527008242,62.09081558954544,2.708219763504121,0.9753202505575729,B,740.2522000484169,Incorrect
4,16,162,A,25.170040297206445,51.97230961101099,1.258502014860322,0.8163791303202317,A,1262.5617999583483,Correct
4,16,163,A,42.45667054273631,56.00622446478283,2.1228335271368155,0.8797437166693135,A,749.8877999605611,Correct
4,16,164,A,35.57822731615932,45.38587697479829,1.778911365807966,0.7129196884037823,A,568.3538001030684,Correct
4,16,165,A,41.29177299858052,73.32290240315996,2.064588649929026,1.1517534576482436,A,1536.532000056468,Correct
4,16,166,A,17.313792864879684,36.16995997229117,0.8656896432439842,0.568156402647934,B,1476.8153000622988,Incorrect
4,16,167,B,59.930106270351445,40.0413774697736,2.996505313517572,0.628968486493283,B,964.4727000268176,Correct
4,16,168,A,32.065742604230714,63.83013696626812,1.6032871302115357,1.002641446854291,A,729.0987999876961,Correct
4,16,169,A,46.996379383830906,55.11645185664219,2.349818969191545,0.8657672012238132,B,1338.6592000024393,Incorrect
4,16,170,A,60.45910495364977,87.29661818452377,3.022955247682489,1.3712520718586652,A,528.0797000741586,Correct
4,16,171,B,41.54153410314705,21.665931713894558,2.0770767051573524,0.34032765952774624,B,517.716099973768,Correct
4,16,172,B,40.65596342581442,18.912577127860242,2.0327981712907213,0.2970780668266804,B,450.5649000639096,Correct
4,16,173,B,63.86271743867535,38.84481578927842,3.1931358719337677,0.6101729395682295,B,790.6167999608442,Correct
4,16,174,B,43.46098459331304,34.885480462537565,2.173049229665652,0.5479798456902913,B,1556.6302000079304,Correct
4,16,175,B,83.27274495578834,62.44111496879283,4.163637247789417,0.9808227403395762,B,789.0610999893397,Correct
4,16,176,B,83.45514499653402,60.423413419390656,4.172757249826701,0.9491287585158831,B,626.115299994126,Correct
4,16,177,B,76.62401310708943,58.89596916518383,3.831200655354471,0.9251357202769626,B,504.70469996798784,Correct
4,16,178,B,34.51155612470643,22.478149163753127,1.7255778062353215,0.3530859413957119,B,877.9223000165075,Correct
4,16,179,A,67.47570929128311,79.5416649832933,3.373785464564156,1.2494375518290737,A,1130.8795999502763,Correct
4,16,180,B,72.87766565848894,57.98321439446779,3.6438832829244467,0.9107982018659098,B,2052.918800036423,Correct
4,16,181,B,80.47042392950608,51.162941024013925,4.023521196475304,0.8036655982854499,B,416.9060999993235,Correct
4,16,182,B,66.48011148182317,54.05103787384169,3.3240055740911587,0.8490317175168237,B,1130.8927000500262,Correct
4,16,183,A,19.65842696000904,41.27682473172885,0.982921348000452,0.6483748467035643,A,684.7093000542372,Correct
4,16,184,A,36.58383664560951,60.84949214835535,1.8291918322804752,0.9558215875397148,A,1426.240099943243,Correct
4,16,185,A,50.41516993260528,75.26792406031694,2.5207584966302643,1.1823057863942306,A,842.0550000155345,Correct
4,16,186,B,59.08352558417369,40.528183313387174,2.954176279208685,0.636615214803388,B,853.5775999771431,Correct
4,16,187,A,50.59388640233001,75.00164852579273,2.5296943201165005,1.1781231400787708,A,874.5753999100998,Correct
4,16,188,A,36.29602777258819,61.4734471779929,1.8148013886294094,0.9656226502261136,A,561.8623999180272,Correct
4,16,189,A,36.94572941320303,48.7212390353199,1.8472864706601515,0.7653114331357661,B,706.6435000160709,Incorrect
4,16,190,A,27.92888723641236,38.80145948352943,1.3964443618206182,0.6094919003100904,A,4043.0665999883786,Correct
4,16,191,A,56.20523684876757,81.76478160678357,2.8102618424383787,1.2843581860912254,B,14418.400899972767,Incorrect
4,16,192,B,67.85294363054258,36.464205612233044,3.3926471815271295,0.5727784023518953,B,214208.94899999257,Correct
4,16,193,A,31.348101315970773,53.802684282740145,1.5674050657985388,0.8451305884303374,A,868.3933999855071,Correct
4,16,194,B,42.17233257447086,14.72640061480865,2.108616628723543,0.23132175992651538,B,1259.6725999610499,Correct
4,16,195,A,42.912305960106416,53.78107466554997,2.1456152980053207,0.8447911453572795,A,9330.305699957535,Correct
4,16,196,A,20.49438246301873,49.49965443402034,1.0247191231509365,0.7775387536257587,A,1674.361199955456,Correct
4,16,197,B,66.58789516362472,51.587634364964345,3.3293947581812358,0.8103366656852419,B,1833.2136999815702,Correct
4,16,198,A,33.18896297003927,44.79835709638865,1.6594481485019634,0.7036909477345338,A,1986.700200010091,Correct
4,16,199,B,45.79049137325193,22.27161474814511,2.2895245686625967,0.34984170638177386,B,2605.536499992013,Correct
4,16,200,A,38.04789099279134,58.379417723148904,1.902394549639567,0.9170217491994718,A,2071.3158000726253,Correct
4,16,201,A,23.648978423360468,44.934334426194944,1.1824489211680234,0.7058268746364048,A,2338.0852000555024,Correct
4,16,202,B,61.377907167108575,30.095924896179373,3.0688953583554284,0.47274568278413637,B,803.6905999761075,Correct
4,16,203,A,58.002038081961544,84.24032253078441,2.900101904098077,1.323243891993735,A,496.8968000030145,Correct
4,16,204,A,32.99831139496425,62.506077424192306,1.6499155697482124,0.9818431682027867,A,506.9073000922799,Correct
4,16,205,B,63.804749711374555,31.75910439215326,3.1902374855687277,0.4988708452149001,B,1412.7221999224275,Correct
4,16,206,B,42.69132370127251,18.736403237696347,2.1345661850636253,0.2943107338312143,B,1406.245999969542,Correct
4,16,207,B,61.086614916061436,43.06272090696072,3.0543307458030715,0.6764276382244768,B,619.2817999981344,Correct
4,16,208,A,30.872266421190854,63.4808846687625,1.5436133210595426,0.9971554045938261,A,791.5394000010565,Correct
4,16,209,A,41.86487601559637,51.53310811723242,2.0932438007798186,0.8094801693887297,A,497.68559995573014,Correct
4,16,210,B,59.10121348988352,36.2340671572497,2.955060674494176,0.5691633959544743,B,480.6609998922795,Correct
4,16,211,B,53.85670307541714,23.834691488817413,2.6928351537708566,0.37439445840923974,B,468.30959990620613,Correct
4,16,212,B,59.98920303422336,39.66792934659167,2.999460151711168,0.6231023770918568,B,445.66079997457564,Correct
4,16,213,A,55.29506486113793,81.65005098100073,2.764753243056896,1.28255600163572,A,658.3347999257967,Correct
4,16,214,A,25.043826116372706,36.841073572478706,1.2521913058186354,0.5786982304283009,A,469.052099972032,Correct
4,16,215,A,44.40726038262111,71.8683801614282,2.2203630191310553,1.1289058757027066,A,562.3493000166491,Correct
4,16,216,B,54.88560488381963,36.70986487808336,2.7442802441909815,0.5766372090763032,B,451.4547000871971,Correct
4,16,217,A,15.741990900783602,37.647702815629614,0.7870995450391801,0.5913687329505688,A,915.8417999278754,Correct
4,16,218,B,61.57448750476428,52.724545997469605,3.078724375238214,0.8281952318475381,B,535.6962999794632,Correct
4,16,219,B,69.75478759957439,49.67451562847656,3.4877393799787195,0.7802854668452668,A,2113.4271000046283,Incorrect
4,16,220,B,57.06390680344598,47.01773494040755,2.853195340172299,0.7385528533860825,B,619.3657000549138,Correct
4,16,221,B,57.52530800321427,31.263126858930164,2.8762654001607135,0.4910800483413037,B,315.87550009135157,Correct
4,16,222,B,43.2706738469562,22.209578767192244,2.16353369234781,0.3488672474716751,B,460.02209989819676,Correct
4,16,223,B,70.98293738226499,51.704736656496124,3.5491468691132497,0.8121761041792155,B,999.3779000360519,Correct
4,16,224,A,42.27240784375371,61.800440564921686,2.1136203921876855,0.9707590503368532,A,544.7319999802858,Correct
4,16,225,B,82.40088875318818,56.34613641871612,4.120044437659409,0.8850830411560343,B,644.0031999954954,Correct
4,16,226,A,20.47104793816198,32.98577307084125,1.0235523969080988,0.5181393117616745,A,2820.049799978733,Correct
4,16,227,B,34.086992715692276,16.42852387319836,1.7043496357846137,0.2580586495468225,B,618.8213999848813,Correct
4,16,228,A,57.68118942670296,77.53407703194499,2.884059471335148,1.2179024340321174,A,701.4456999022514,Correct
4,16,229,A,63.029546012974535,82.32839016719126,3.151477300648727,1.293211328655611,A,882.1476000593975,Correct
4,16,230,A,20.94610383107966,35.061297627034435,1.047305191553983,0.5507415752520832,B,369.15919999592006,Incorrect
4,16,231,A,43.04611491609466,54.01595468555543,2.152305745804733,0.8484806320839003,A,864.4713999237865,Correct
4,16,232,B,45.329213409712295,19.65800890503402,2.2664606704856145,0.30878728180128806,B,1051.9425000529736,Correct
4,16,233,A,49.908861163679894,74.03331639387632,2.495443058183995,1.162912614519453,A,1357.1332999272272,Correct
4,16,234,A,61.25734884951055,70.9871168846586,3.0628674424755276,1.1150630245218172,B,923.6909999744967,Incorrect
4,16,235,B,38.701152250703046,16.591871289574403,1.9350576125351524,0.2606245047631717,B,597.5975999608636,Correct
4,16,236,B,32.43912682363476,16.902927064798774,1.621956341181738,0.26551055745467955,B,596.0015999153256,Correct
4,16,237,B,49.98509233247931,26.539680826145798,2.4992546166239658,0.4168843315601876,B,499.1306000156328,Correct
4,16,238,A,56.0301296064152,79.90074118580647,2.80150648032076,1.255077907628545,A,502.4069999344647,Correct
4,16,239,A,16.795124711434337,33.792835550501024,0.8397562355717169,0.53081661954711,A,531.0036999871954,Correct
4,16,240,A,15.062048771272991,38.7861277528632,0.7531024385636497,0.6092510700479511,A,444.19130007736385,Correct
4,16,241,B,43.119765485472826,24.511266100487514,2.1559882742736414,0.38502206755738055,B,466.1124999402091,Correct
4,16,242,A,59.03777356913386,77.25327494813591,2.951888678456693,1.2134916052140812,A,1313.7902000453323,Correct
4,16,243,A,15.042832594448022,37.05735978149324,0.7521416297224011,0.5820956462548651,A,682.0740998955444,Correct
4,16,244,B,52.719607386864716,40.7749555946158,2.635980369343236,0.6404915047324751,B,2766.4005999686196,Correct
4,16,245,B,56.102835582844264,30.363708777501174,2.805141779142213,0.476952022155688,B,773.034599958919,Correct
4,16,246,B,37.91537603743231,18.220898828884625,1.8957688018716154,0.286213209513134,B,402.78280002530664,Correct
4,16,247,A,65.95695343003823,77.13607490983546,3.297847671501911,1.211650631317455,A,381.4522000029683,Correct
4,16,248,A,29.27577685515697,41.23748516414079,1.4637888427578485,0.647756902220914,A,710.9882000368088,Correct
4,16,249,A,38.79041371656753,62.645883806326346,1.9395206858283762,0.9840392417179732,A,458.2553000655025,Correct
4,16,250,A,25.02157915924891,47.88867755997367,1.2510789579624455,0.7522335880627183,A,613.8366999803111,Correct
4,16,251,B,75.80918075354106,54.407957829323465,3.790459037677053,0.8546382030671295,B,514.0312000876293,Correct
4,16,252,A,49.939485671316646,71.79425216170792,2.4969742835658324,1.1277414758059734,A,543.5801999410614,Correct
4,16,253,A,39.95694083175897,58.963431949866276,1.9978470415879486,0.9261954232207079,A,764.7909999359399,Correct
4,16,254,A,16.861275887281053,45.1182631215335,0.8430637943640527,0.7087160198267046,A,1243.1086000287905,Correct
4,16,255,A,44.58800208186179,65.77722771834772,2.2294001040930893,1.0332262768673206,A,550.1468000002205,Correct
4,16,256,A,64.14733583081455,85.28893789467814,3.2073667915407276,1.3397155036119848,A,373.84859996382147,Correct
4,16,257,A,21.221312175814088,47.39900453463936,1.0610656087907044,0.7445418221674617,A,455.2319999784231,Correct
4,16,258,B,57.34950621556556,41.90986484811783,2.8674753107782784,0.6583186175989404,B,565.8718999475241,Correct
4,16,259,B,61.95840461057371,50.02591523419656,3.0979202305286857,0.7858052389442881,B,585.7268000254408,Correct
4,16,260,A,26.740618903464892,51.42114959579109,1.3370309451732447,0.8077215290463953,A,569.7222999297082,Correct
4,16,261,A,57.973668862931405,79.72435559599607,2.8986834431465702,1.252307249262808,A,667.3310999758542,Correct
4,16,262,B,46.03182073665809,31.38845500629605,2.3015910368329044,0.49304869827656717,B,1639.8878999752924,Correct
4,16,263,A,29.202396298000835,40.34800317126148,1.4601198149000418,0.6337849517492637,B,636.6555000422522,Incorrect
4,16,264,A,44.09676690430382,64.38543114778457,2.204838345215191,1.0113639874604572,A,367.57280002348125,Correct
4,16,265,B,45.91212409649431,18.635482663654933,2.2956062048247157,0.2927254771611914,B,2024.757800041698,Correct
4,16,266,A,30.644048863491093,45.14072526835163,1.5322024431745547,0.7090688544038432,B,751.7046000575647,Incorrect
4,16,267,B,76.87688780182808,46.57492480337318,3.8438443900914034,0.7315972080188712,B,836.0894999932498,Correct
4,16,268,A,49.03959148142861,70.89185959016216,2.4519795740714305,1.113566726438863,A,475.9165000868961,Correct
4,16,269,B,75.30634324627685,43.03845412758435,3.765317162313843,0.6760464565454016,B,467.85629994701594,Correct
4,16,270,A,36.61950099552847,59.98731298823968,1.8309750497764237,0.942278508962227,A,525.0419999938458,Correct
4,16,271,A,22.620745690880497,46.37210802070964,1.1310372845440249,0.7284113694466686,A,557.3940000031143,Correct
4,16,272,B,40.09656588207857,16.579647884368995,2.0048282941039286,0.26043249996319595,B,473.9026000024751,Correct
4,16,273,B,64.84840111499817,47.42498738602549,3.2424200557499088,0.7449499598426315,B,520.502100000158,Correct
4,16,274,B,59.62172998485459,27.594537581834338,2.9810864992427293,0.433453982731491,B,465.04759998060763,Correct
4,16,275,B,79.16133125705494,62.821409378774796,3.958066562852747,0.9867963909625791,B,921.753800008446,Correct
4,16,276,A,38.331923464361374,49.20905021805345,1.9165961732180687,0.7729739532758396,B,378.21189989335835,Incorrect
4,16,277,A,22.232586121795315,43.44154745966608,1.1116293060897657,0.6823782317992965,A,584.8451000638306,Correct
4,16,278,B,77.28316774032234,56.67615719881705,3.864158387016117,0.8902669954475196,B,489.4934999756515,Correct
4,16,279,A,67.98742917712887,89.44875434375578,3.399371458856444,1.4050577475955064,A,430.97069999203086,Correct
4,16,280,B,41.85923957773029,25.452661201299914,2.092961978886515,0.3998094672215688,B,712.746899924241,Correct
4,16,281,B,54.570029382815456,33.942205930146045,2.728501469140773,0.5331629239838936,B,807.9812000505626,Correct
4,16,282,A,64.69673166807986,81.68748027666629,3.234836583403993,1.2831439396371795,A,368.60589997377247,Correct
4,16,283,B,80.79744151687852,63.64885529568875,4.039872075843926,0.9997938810316779,B,513.2828999776393,Correct
4,16,284,A,63.784058291953535,73.96350487307978,3.1892029145976766,1.1618160177151018,A,510.81780006643385,Correct
4,16,285,B,55.310176508503176,30.114806591948764,2.7655088254251585,0.4730422757677185,B,1102.5094999931753,Correct
4,16,286,A,33.27644643078144,59.596264917609766,1.6638223215390722,0.9361359402327698,A,1005.927300080657,Correct
4,16,287,A,31.214431561735566,47.80308926246223,1.5607215780867785,0.7508891702292423,A,965.1634999318048,Correct
4,16,288,B,61.686041095842235,41.26391647088712,3.084302054792112,0.6481720842164092,B,869.8948000092059,Correct
4,16,289,A,23.09570327906766,51.634323388578345,1.154785163953383,0.8110700551531868,A,2063.330200035125,Correct
4,16,290,B,44.004204119231446,17.554464867271466,2.2002102059615725,0.27574488932360075,B,1180.9294000267982,Correct
4,16,291,B,61.38121410470118,48.396443152422094,3.0690607052350587,0.7602095513376265,A,401.8790000118315,Incorrect
4,16,292,B,62.08788046119282,44.97622749965046,3.104394023059641,0.7064849294954256,B,669.1308999434114,Correct
4,16,293,A,56.117943664220064,66.1819429272368,2.8058971832110036,1.0395835285025306,A,403.98539998568594,Correct
4,16,294,A,37.2836542340344,47.63180124968454,1.86418271170172,0.7481985844162905,A,620.4489000374451,Correct
4,16,295,B,65.13714199714157,37.178070250485995,3.2568570998570783,0.5839917618678602,B,1136.9374999776483,Correct
4,16,296,B,72.75268386114094,44.768174513512164,3.637634193057047,0.7032168408313781,B,430.6319000897929,Correct
4,16,297,A,33.4431232649204,48.71385042492082,1.6721561632460202,0.7651953731150163,B,610.1989999879152,Incorrect
4,16,298,B,69.98752623148087,41.6033319522636,3.4993763115740433,0.6535036101304441,B,672.2131998976693,Correct
4,16,299,B,38.71663291135391,28.79914303147768,1.9358316455676956,0.4523758808868598,B,495.801700046286,Correct
