subject,day,trial,cat,x,y,xt,yt,resp,rt,fb
4,12,0,A,59.6372905824244,74.12084204987475,2.9818645291212196,1.1642874643088796,A,925.5246999673545,Correct
4,12,1,B,53.22519223750472,22.93358822050569,2.661259611875236,0.3602399613699705,B,577.9639999382198,Correct
4,12,2,A,47.364823904880026,62.679467383360446,2.3682411952440017,0.9845667713124312,A,434.0274999849498,Correct
4,12,3,A,42.543568374895344,65.02385452589935,2.1271784187447675,1.0213923184332843,A,414.044399978593,Correct
4,12,4,B,48.756807811002375,18.94548772759006,2.437840390550119,0.29759502531836257,B,1152.7623999863863,Correct
4,12,5,A,20.43466908342345,50.33586615419621,1.0217334541711725,0.7906739366105097,A,562.0467999251559,Correct
4,12,6,A,57.27998007509882,83.87029537823976,2.863999003754941,1.31743151907342,A,477.85580006893724,Correct
4,12,7,A,41.612222420857016,70.68266558403285,2.080611121042851,1.1102807146747085,A,471.32880007848144,Correct
4,12,8,A,28.653188455594737,46.28998157802977,1.432659422779737,0.7271213303017259,A,497.3312000511214,Correct
4,12,9,B,48.207964139330045,22.170664166925107,2.4103982069665024,0.3482559783600919,B,452.695699990727,Correct
4,12,10,A,33.03677930215409,60.78564785928175,1.6518389651077043,0.9548187237920784,A,436.8426000000909,Correct
4,12,11,A,10.410465877316948,32.95073694378014,0.5205232938658475,0.5175889655647474,A,426.0736000724137,Correct
4,12,12,B,39.49576842874512,15.438101792272125,1.9747884214372562,0.24250113587986766,B,914.0418999595568,Correct
4,12,13,A,33.06475050502733,57.571154705092816,1.6532375252513662,0.9043255834010051,A,353.6727000027895,Correct
4,12,14,A,57.46434289471959,77.88849891753807,2.87321714473598,1.2234696799923708,A,419.5651999907568,Correct
4,12,15,B,34.779126575453766,20.431679108967714,1.7389563287726884,0.32094006494618504,B,1689.3958000000566,Correct
4,12,16,B,38.733086198542445,26.33011952710668,1.9366543099271223,0.4135925503724976,B,701.3793000951409,Correct
4,12,17,A,50.41950559531137,58.51112516232624,2.5209752797655685,0.919090604816185,B,1123.5772999934852,Incorrect
4,12,18,A,51.47616045012452,69.61051489191583,2.573808022506226,1.0934394109852283,A,510.584200033918,Correct
4,12,19,A,21.863373854174668,39.442145546480205,1.0931686927087334,0.619555773453208,A,794.1079000011086,Correct
4,12,20,B,69.15891065977657,60.11524353365404,3.4579455329888282,0.9442880372704442,B,542.8983999881893,Correct
4,12,21,B,66.76087336394099,48.52008072105755,3.338043668197049,0.7621516457242907,B,5084.654800011776,Correct
4,12,22,B,77.31757715434179,47.32781459794137,3.8658788577170897,0.7434235732567618,B,2607.686100061983,Correct
4,12,23,B,70.14325256037941,46.57091140514429,3.5071626280189707,0.731534165706912,B,1640.5054000206292,Correct
4,12,24,B,64.41776432114052,31.97119087124224,3.220888216057026,0.5022022918380584,B,1255.2067999495193,Correct
4,12,25,A,55.62122794365193,72.92183959767189,2.781061397182597,1.1454535778314965,A,821.8707999913022,Correct
4,12,26,B,70.91304683618313,40.85350147492686,3.5456523418091566,0.6417253005352499,B,853.1478999648243,Correct
4,12,27,B,61.454250516214046,46.35873779628482,3.0727125258107026,0.7282013504525193,B,1866.1548999371007,Correct
4,12,28,A,46.45829660474931,55.58790351054034,2.3229148302374654,0.8731727464858591,A,866.9054999481887,Correct
4,12,29,B,84.48380716506968,66.22355508668485,4.224190358253484,1.0402371707746407,B,2858.25010004919,Correct
4,12,30,A,47.20260477070029,74.88449429569766,2.3601302385350147,1.1762828857357528,A,697.9902999009937,Correct
4,12,31,A,29.022593546646334,51.34108310730824,1.4511296773323168,0.806463847586313,A,936.5122999297455,Correct
4,12,32,A,41.975802576526974,67.7760769145304,2.098790128826349,1.0646241266191274,A,1089.5211999304593,Correct
4,12,33,B,50.446081205621034,41.10836657038891,2.522304060281052,0.6457287120930502,B,1844.7534999577329,Correct
4,12,34,B,69.88404019025342,44.9100110597915,3.4942020095126707,0.7054448040903867,B,4436.160999932326,Correct
4,12,35,B,57.585201714005784,28.18215064426016,2.879260085700289,0.44268418713184293,B,3881.951699964702,Correct
4,12,36,B,56.00495673110766,34.533565635499556,2.8002478365553833,0.5424519805137318,B,1333.9944999897853,Correct
4,12,37,A,60.56381458484814,76.7569177864033,3.028190729242407,1.2056948451498017,A,1402.2462000139058,Correct
4,12,38,B,44.97348683023096,19.972280707643158,2.248674341511548,0.3137238517328245,B,1646.5978999622166,Correct
4,12,39,A,45.83639735659345,68.51412857712074,2.291819867829673,1.0762174150249453,A,2939.4016000442207,Correct
4,12,40,A,59.27731342987006,67.8003654791853,2.9638656714935028,1.0650056505005578,A,689.9880000855774,Correct
4,12,41,B,36.6492407527635,13.628717548828874,1.8324620376381748,0.21407939464625542,B,3833.352699992247,Correct
4,12,42,A,49.24984359925623,77.57956309779144,2.4624921799628114,1.218616927483637,A,993.9301999984309,Correct
4,12,43,A,56.20005964861936,71.95654781392088,2.8100029824309676,1.1302908099494826,A,518.2518999790773,Correct
4,12,44,B,51.473253782403674,22.516070212110527,2.5736626891201837,0.35368160383039204,B,1186.0785000026226,Correct
4,12,45,A,43.54452962289578,64.94326823300017,2.177226481144789,1.0201264719045235,A,680.4502999875695,Correct
4,12,46,A,49.82453618692788,70.8876171023594,2.491226809346394,1.1135000855962922,A,811.8170999223366,Correct
4,12,47,A,19.178536580431697,35.101613783149865,0.9589268290215849,0.5513748599514491,A,799.3798000970855,Correct
4,12,48,B,56.5175256556156,28.67900828189034,2.82587628278078,0.4504888086531377,B,1128.2136999070644,Correct
4,12,49,B,53.90357940633665,40.08999944894858,2.695178970316832,0.6297322387561786,B,1539.0489000128582,Correct
4,12,50,A,33.306169474251334,54.03665720622259,1.6653084737125667,0.8488058265180942,A,909.5323999645188,Correct
4,12,51,A,53.120981255102336,77.34859640136078,2.6560490627551165,1.2149889110999845,A,1120.2822000486776,Correct
4,12,52,B,72.63337273998334,44.39139464459353,3.631668636999167,0.6972983964903017,B,1211.6211000829935,Correct
4,12,53,B,48.747734577865074,23.520591939359043,2.4373867288932534,0.3694605942238684,B,2037.3938999837264,Correct
4,12,54,A,68.32219146342655,81.72249552237899,3.4161095731713274,1.283693957830653,A,4796.112600015476,Correct
4,12,55,A,29.056929702482766,49.08370803097854,1.4528464851241383,0.7710050828053425,A,7286.170199979097,Correct
4,12,56,B,36.02872064447705,22.680868897511093,1.8014360322238525,0.3562702555272704,A,4498.588799964637,Incorrect
4,12,57,B,56.75173827114458,44.692390389081005,2.8375869135572294,0.7020264265885198,A,16436.33009993937,Incorrect
4,12,58,B,87.42183915207157,69.96799101057255,4.3710919576035785,1.099054632726257,B,3524.7727000387385,Correct
4,12,59,A,32.0303182055206,61.05244385304714,1.60151591027603,0.959009545462181,A,1478.8540999870747,Correct
4,12,60,A,23.964899592568578,42.630604918199296,1.198244979628429,0.6696399761455191,A,4248.876300058328,Correct
4,12,61,A,67.54604195824858,86.25843950618004,3.3773020979124286,1.354944399313674,A,3412.682499969378,Correct
4,12,62,A,36.02803192270117,64.25434295502359,1.8014015961350582,1.009304858943706,A,3841.240999987349,Correct
4,12,63,B,49.14088482978123,41.426567177615276,2.4570442414890614,0.6507269955432009,A,4216.665899963118,Incorrect
4,12,64,A,33.709777053186485,60.27061143687246,1.6854888526593244,0.9467285505872173,A,4735.962899983861,Correct
4,12,65,A,47.9874614858803,61.75291802451746,2.399373074294015,0.9700125680177839,A,5446.778899990022,Correct
4,12,66,B,79.51918221624554,49.081359722478496,3.975959110812277,0.7709681956616821,B,1041.2860000506043,Correct
4,12,67,A,17.242873993514976,47.0568203363609,0.8621436996757488,0.739166805350031,A,752.53449997399,Correct
4,12,68,B,56.20649274673983,32.91912301149118,2.8103246373369917,0.517092375077597,B,1060.638300026767,Correct
4,12,69,B,84.86195866863481,58.05180103490859,4.2430979334317405,0.9118755582946261,B,901.4169999863952,Correct
4,12,70,A,21.218074818260092,48.10238403315981,1.0609037409130047,0.755590481493649,A,48546.71360005159,Correct
4,12,71,B,74.0506590810536,48.99069662704187,3.7025329540526797,0.769544063088805,B,1769.0257999347523,Correct
4,12,72,A,26.65922479478582,39.561821623196344,1.332961239739291,0.6214356408703173,A,1170.1572999591008,Correct
4,12,73,B,39.53498253619789,25.459919457542927,1.9767491268098945,0.3999234796440234,B,1497.7265000343323,Correct
4,12,74,A,25.793997110685943,53.99530684994666,1.2896998555342973,0.8481562966405952,A,2909.9141000770032,Correct
4,12,75,B,82.98288119580883,64.30863075280399,4.149144059790442,1.010157609677138,B,1156.2127000652254,Correct
4,12,76,A,35.146294754512624,43.594227599051,1.757314737725631,0.6847765258205001,A,1185.2571000345051,Correct
4,12,77,B,87.27829043576791,69.5098327426004,4.363914521788396,1.0918578994820434,A,4258.772700093687,Incorrect
4,12,78,B,48.797230203378916,24.666085175817347,2.439861510168946,0.38745395990583936,A,1437.6197999808937,Incorrect
4,12,79,B,74.26058822716044,51.62145597783359,3.713029411358022,0.8108679343378545,B,6774.747899966314,Correct
4,12,80,B,61.731661746574645,49.425004458887734,3.0865830873287323,0.7763661545584223,A,2147.9837999213487,Incorrect
4,12,81,B,83.93215727545781,63.96980795145676,4.196607863772891,1.0048353935592325,B,1448.8494000397623,Correct
4,12,82,A,22.99439700393916,51.130728245536716,1.1497198501969579,0.8031596011443715,A,497.8734999895096,Correct
4,12,83,A,15.969388318855163,37.619016404376254,0.7984694159427582,0.5909181278563118,A,959.5762001117691,Correct
4,12,84,A,24.417370943009885,51.544914694645854,1.2208685471504943,0.8096656266730599,A,537.3707000399008,Correct
4,12,85,A,48.53890299548583,66.33514522440743,2.4269451497742915,1.041990024559052,A,585.1908000186086,Correct
4,12,86,A,46.932936243454655,66.37176887120799,2.346646812172733,1.0425653074577337,A,875.0672000460327,Correct
4,12,87,A,43.48931157044492,73.08272022687149,2.174465578522246,1.147980684845488,A,700.0904000597075,Correct
4,12,88,B,61.9409671465634,54.043256686568604,3.09704835732817,0.8489094909129571,B,1400.8039999753237,Correct
4,12,89,B,59.42837132442414,49.87019882113269,2.971418566221207,0.783359251247664,B,1685.35729998257,Correct
4,12,90,A,45.24696403050794,70.57449915174362,2.262348201525397,1.1085816403294844,A,4698.392499936745,Correct
4,12,91,B,70.38427421373471,52.12785519543887,3.519213710686736,0.8188224346469165,B,5344.537999946624,Correct
4,12,92,A,45.76812967191449,69.10021117544366,2.2884064835957245,1.0854235789513857,A,729.264699970372,Correct
4,12,93,B,51.00511673381845,31.37839078700666,2.5502558366909223,0.49289060988964883,B,1731.8038999801502,Correct
4,12,94,A,16.066212717856047,36.46892733853593,0.8033106358928024,0.5728525710552222,A,1049.4756000116467,Correct
4,12,95,B,74.4595051073643,54.56715376196642,3.7229752553682145,0.8571388469294918,B,8191.08750007581,Correct
4,12,96,A,68.33213635190515,83.98941655934608,3.4166068175952575,1.319302670210673,A,968.0016000056639,Correct
4,12,97,A,51.93200761306687,69.93224503070478,2.5966003806533435,1.0984931361875172,A,2502.3291999241337,Correct
4,12,98,B,68.30031751756668,59.63427798336477,3.4150158758783338,0.9367330480733516,B,4194.213700015098,Correct
4,12,99,B,58.88866363352658,28.33590020609494,2.944433181676329,0.4450992796016069,B,1862.7525999909267,Correct
4,12,100,B,66.90736252831474,52.69840305403534,3.3453681264157367,0.8277845794523567,B,2351.786999963224,Correct
4,12,101,A,19.201584519028188,34.6228931508656,0.9600792259514094,0.5438551338439187,A,6283.09389995411,Correct
4,12,102,B,72.7316801583622,62.608106706953954,3.63658400791811,0.9834458404286619,A,3108.6600000271574,Incorrect
4,12,103,A,37.00780482519838,45.88387119428994,1.850390241259919,0.720742163311208,A,4639.881600043736,Correct
4,12,104,B,49.03135265493361,40.866671088580205,2.4515676327466807,0.6419321683427698,B,1991.296699969098,Correct
4,12,105,A,52.032834299941705,63.82480190001651,2.601641714997085,1.0025576438295787,A,1119.9891000287607,Correct
4,12,106,B,81.25161856373295,59.41910404202103,4.062580928186647,0.9333531037065044,B,2071.572699933313,Correct
4,12,107,B,69.98803073772066,56.55458659489521,3.4994015368860336,0.8883573688666531,B,1340.3234999859706,Correct
4,12,108,B,38.690711049750085,13.101862843087694,1.9345355524875043,0.2058035802809269,B,4802.989799994975,Correct
4,12,109,A,51.70153875612999,62.61635761483061,2.5850769378064995,0.9835754453865159,A,4240.30390009284,Correct
4,12,110,B,59.08128764156088,29.048450020950177,2.954064382078044,0.4562919859199367,B,1252.732599969022,Correct
4,12,111,A,17.986484746593316,40.05983019718313,0.8993242373296658,0.6292583412576254,A,1183.5626000538468,Correct
4,12,112,B,62.027622298684236,30.910551716507868,3.101381114934212,0.48554181095494237,B,2057.604599976912,Correct
4,12,113,B,75.68968866146464,54.209157693219,3.784484433073232,0.851515457831537,B,4425.556399975903,Correct
4,12,114,B,39.13975280695949,20.362223900874714,1.9569876403479747,0.31984906508869243,B,3444.4385999813676,Correct
4,12,115,A,24.075794980733868,41.04850964390968,1.2037897490366933,0.6447884816905821,A,1397.8426000103354,Correct
4,12,116,B,47.74020896684363,30.320171880911722,2.3870104483421817,0.4762681461832604,B,1814.476800034754,Correct
4,12,117,A,51.81068443683986,60.7370524470079,2.590534221841993,0.95405538884109,A,6436.732799978927,Correct
4,12,118,A,27.601090918246413,49.553129142341945,1.3800545459123208,0.7783787323798387,A,4344.367799931206,Correct
4,12,119,B,81.69678801877957,51.52261475404862,4.084839400938979,0.8093153400252812,B,1498.3388000400737,Correct
4,12,120,A,22.783979974817377,34.19950537780863,1.139198998740869,0.537204574256641,A,3638.520500040613,Correct
4,12,121,B,71.37102959627842,42.858325229013296,3.568551479813921,0.6732169984231513,B,2874.801700003445,Correct
4,12,122,A,44.30042638573761,69.5580684663095,2.2150213192868806,1.092615584458269,A,3833.231700002216,Correct
4,12,123,B,33.429348407319466,11.597335490438422,1.6714674203659734,0.18217051988988764,B,1473.8861999940127,Correct
4,12,124,A,51.976872921292525,64.53112266101476,2.5988436460646263,1.013652504398729,A,1685.2742999326438,Correct
4,12,125,B,80.16446364379199,49.36634634468628,4.0082231821895995,0.7754447550551788,B,1040.2078999904916,Correct
4,12,126,B,39.13496374001946,27.897664461264025,1.9567481870009729,0.43821548861910053,A,925.517600029707,Incorrect
4,12,127,A,22.971253897070124,40.91292921967185,1.1485626948535061,0.6426587893668013,A,709.5125000923872,Correct
4,12,128,A,55.454996797018936,84.13439649931584,2.7727498398509467,1.3215800097823072,A,497.51369992736727,Correct
4,12,129,A,22.654233479853684,38.2787409486352,1.1327116739926841,0.6012810567644956,A,1988.966100034304,Correct
4,12,130,A,35.014281127368925,46.818449094250425,1.7507140563684462,0.7354224786348241,A,6013.141899951734,Correct
4,12,131,A,57.238835316815646,80.83536063228948,2.861941765840782,1.269758875563411,A,3695.1909000054,Correct
4,12,132,B,65.68649904857647,39.96262460342305,3.2843249524288236,0.6277314393614029,A,558.90589999035,Incorrect
4,12,133,B,41.464706717534256,13.657471984440217,2.0732353358767126,0.214531068264629,B,968.3858000207692,Correct
4,12,134,B,69.86449334873691,54.987112878544494,3.493224667436846,0.8637355493067405,B,1519.038699916564,Correct
4,12,135,B,49.691553446683656,35.01963359737452,2.484577672334183,0.5500871182045904,B,1378.289399901405,Correct
4,12,136,A,51.75049523551692,74.12805304766388,2.5875247617758466,1.1644007343972766,A,6345.596000086516,Correct
4,12,137,A,41.244963112438654,66.04933219193353,2.0622481556219325,1.037500483943451,A,18962.60229998734,Correct
4,12,138,B,66.52835067733804,47.144560427122165,3.326417533866902,0.7405450234728354,B,1912.230599904433,Correct
4,12,139,B,69.79327092918066,51.858774252874895,3.4896635464590333,0.8145957210850164,B,1360.2783000096679,Correct
4,12,140,B,74.62200667525286,51.274198896173516,3.731100333762643,0.8054132328546029,B,3604.9599000252783,Correct
4,12,141,A,45.27928600641714,66.50634678898564,2.2639643003208567,1.044679252446862,A,5136.585299973376,Correct
4,12,142,B,43.57341093953381,21.337620838067735,2.1786705469766905,0.3351705643497904,B,17267.650100053288,Correct
4,12,143,A,41.7847399717084,61.768008279405365,2.08923699858542,0.970249605187267,A,12597.781599964947,Correct
4,12,144,B,41.41400203203665,20.60056811392254,2.0707001016018323,0.32359296723237596,B,28946.8394999858,Correct
4,12,145,B,63.64595135410705,51.555753820037815,3.182297567705352,0.8098358872565735,B,4093.7758999643847,Correct
4,12,146,B,43.687516092562646,25.881795573553582,2.1843758046281323,0.40655029417794386,B,1259.6349999075755,Correct
4,12,147,B,58.29070725695168,44.30361247517045,2.914535362847584,0.6959195173974231,B,1144.7522999951616,Correct
4,12,148,A,25.622373481218492,56.806076688430345,1.2811186740609246,0.8923077660181559,A,1293.586099985987,Correct
4,12,149,B,66.24885682498832,37.22026976077538,3.312442841249416,0.5846546302254113,B,1448.0335999978706,Correct
4,12,150,A,53.391725027122945,73.54597790840491,2.6695862513561472,1.1552575194906103,A,1176.738999900408,Correct
4,12,151,B,32.02163468540648,12.962499379012268,1.601081734270324,0.20361446410633594,B,1079.4916999293491,Correct
4,12,152,B,48.241983483685075,21.166671233916215,2.412099174184254,0.33248529424710793,B,4203.120100079104,Correct
4,12,153,A,26.40870357218037,46.24984708513619,1.3204351786090185,0.7264908991615756,A,1073.0024999938905,Correct
4,12,154,A,42.08574593790053,62.59484026305786,2.1042872968950266,0.9832374516152459,A,1086.5397999295965,Correct
4,12,155,B,76.50011176410446,51.47671505245577,3.825005588205223,0.8085943491986509,B,2972.938399994746,Correct
4,12,156,B,70.1714150880451,56.667200215487,3.5085707544022546,0.8901262994823795,B,1695.5341999419034,Correct
4,12,157,A,65.1249613355152,78.386699182644,3.25624806677576,1.231295391456737,B,1632.4403999606147,Incorrect
4,12,158,A,47.659191630513924,55.205768711206076,2.382959581525696,0.8671701870945114,A,4035.0217999657616,Correct
4,12,159,A,44.878099095783135,76.28556060777942,2.2439049547891567,1.1982907839018933,A,6264.258800074458,Correct
4,12,160,A,40.75849534651834,47.78236232341861,2.037924767325917,0.750563592232088,A,1442.9509000619873,Correct
4,12,161,B,46.79334451443226,20.81912359667575,2.339667225721613,0.32702602872747233,B,1578.5408000228927,Correct
4,12,162,B,49.059647284225306,32.74864625294623,2.4529823642112656,0.5144145324163338,B,1142.0838000485674,Correct
4,12,163,A,59.63528411287972,80.21089434345252,2.981764205643986,1.2599497820362877,A,7414.69370003324,Correct
4,12,164,A,51.795665545685054,61.04755674565038,2.5897832772842526,0.9589327789587063,A,4741.794999921694,Correct
4,12,165,A,34.92566448839661,58.87932016835582,1.7462832244198307,0.9248741984463398,A,4411.0037999926135,Correct
4,12,166,B,53.613878210456996,23.075124232096726,2.6806939105228498,0.3624632038411345,B,5437.64579994604,Correct
4,12,167,B,49.33330087018041,39.225650347193145,2.4666650435090203,0.6161550748151196,B,5142.4630000256,Correct
4,12,168,A,25.80666333718068,47.59194214874468,1.290333166859034,0.7475724791228336,A,938.4776999941096,Correct
4,12,169,B,48.13606596498408,22.67904216776953,2.406803298249204,0.3562415613235894,B,263.0729000084102,Correct
4,12,170,B,39.53742810815967,18.401616230547116,1.9768714054079837,0.2890519118203276,A,215.93980002216995,Incorrect
4,12,171,A,18.783409081273234,49.93471989942626,0.9391704540636617,0.7843727459755081,A,430.58549996931106,Correct
4,12,172,B,32.415577208029426,10.803139545605404,1.6207788604014712,0.16969531916089656,A,1354.0440000360832,Incorrect
4,12,173,A,42.988890987644034,59.94728708304054,2.1494445493822014,0.9416497835135923,A,2768.3091999497265,Correct
4,12,174,B,78.70567731055371,60.334947859434635,3.9352838655276856,0.9477391447496154,B,1103.4572999924421,Correct
4,12,175,A,52.81618913521863,63.57727430414571,2.6408094567609317,0.9986694894458366,A,5520.218799938448,Correct
4,12,176,B,66.4782898048627,49.05015829429968,3.323914490243135,0.7704780847739418,B,7606.730900006369,Correct
4,12,177,A,58.9506669840628,74.18230618651272,2.9475333492031397,1.165252940709485,A,10293.284500017762,Correct
4,12,178,A,31.322943284555507,41.32179885018829,1.5661471642277751,0.6490812985043334,A,1459.8770999582484,Correct
4,12,179,B,50.43083106166163,31.293809518793942,2.521541553083081,0.4915620104354069,B,2230.4254000773653,Correct
4,12,180,A,24.504309871457664,48.132089816056734,1.2252154935728832,0.7560570988402395,A,935.6701000360772,Correct
4,12,181,B,54.16552229302411,37.87621987096174,2.708276114651205,0.5949582704618257,B,1045.0509000802413,Correct
4,12,182,B,51.27983177987194,40.585453519059556,2.5639915889935967,0.6375148130904376,A,3497.270799940452,Incorrect
4,12,183,B,56.74677292102264,44.9393975080912,2.8373386460511316,0.7059064053408538,B,3849.7331999242306,Correct
4,12,184,B,50.98880043412144,38.68016634230953,2.5494400217060718,0.607586632103154,B,7022.255199961364,Correct
4,12,185,A,28.722246323040153,45.199030743623354,1.4361123161520077,0.7099847146677317,A,1464.1274000750855,Correct
4,12,186,B,73.78915391448835,40.98617495427216,3.6894576957244176,0.643809330675437,B,4836.128199938685,Correct
4,12,187,B,44.562120078631565,31.971022933282,2.228106003931578,0.5021996538747477,B,2064.005900057964,Correct
4,12,188,A,59.76819739833076,73.04211500567583,2.9884098699165382,1.14734285952246,A,900.4414000082761,Correct
4,12,189,A,52.30275344001208,68.68488298234371,2.6151376720006043,1.078899618950028,A,856.3583999639377,Correct
4,12,190,B,61.499908147391714,42.0925810959474,3.074995407369586,0.6611887177083049,B,631.6181999864057,Correct
4,12,191,A,22.74140182262423,40.942383248285935,1.1370700911312115,0.6431214521663645,A,489.0113999135792,Correct
4,12,192,A,53.977013380802475,83.99101513403122,2.698850669040124,1.3193277805631078,A,618.753399932757,Correct
4,12,193,B,48.999083010190226,18.040413338779835,2.449954150509511,0.2833781500641702,B,945.4735000617802,Correct
4,12,194,A,51.00246404819133,80.34658304009534,2.550123202409566,1.2620811750990288,A,1049.0882999729365,Correct
4,12,195,B,57.0388421854996,39.795269612817016,2.85194210927498,0.6251026333162554,B,732.8412999631837,Correct
4,12,196,B,59.30273432156678,37.3424838958031,2.965136716078339,0.5865743653692509,A,616.1365000298247,Incorrect
4,12,197,B,71.51646022703449,52.39891586378134,3.575823011351724,0.8230802456686257,B,1055.984399979934,Correct
4,12,198,A,60.948789159882665,79.40844685280044,3.047439457994133,1.2473449663286669,A,2403.976400033571,Correct
4,12,199,A,51.513800188619896,80.00507081993248,2.5756900094309945,1.256716713689155,A,504.6594999730587,Correct
4,12,200,B,44.41779770393464,33.7580342006496,2.220889885196732,0.5302699612219688,B,608.6739000165835,Correct
4,12,201,A,50.51550543300868,75.35404403455054,2.525775271650434,1.1836585557861288,A,795.7883999915794,Correct
4,12,202,A,40.043824123637236,54.526650265420464,2.002191206181862,0.8565026194935245,A,1322.5230999523774,Correct
4,12,203,A,44.89568691841017,52.56656101860744,2.244784345920509,0.8257136096026835,A,5666.9304999522865,Correct
4,12,204,B,47.08987746605007,35.65817804610832,2.3544938733025034,0.5601173509502537,B,4908.233299967833,Correct
4,12,205,B,36.18556919894387,23.419561705707835,1.8092784599471934,0.3678736150247228,B,2018.4237000066787,Correct
4,12,206,A,55.011983136451725,81.60202933054576,2.7505991568225863,1.281801679314307,A,5733.360100071877,Correct
4,12,207,B,58.74028967126221,50.95353550126943,2.9370144835631105,0.8003762640260738,B,1576.2948000337929,Correct
4,12,208,A,68.85937782224246,88.04237812478378,3.442968891112123,1.3829664416069771,A,952.808800037019,Correct
4,12,209,B,54.252246077452384,42.86434627529096,2.712612303872619,0.6733115767969156,B,966.7786000063643,Correct
4,12,210,A,22.945782984817924,50.574656366637264,1.1472891492408963,0.7944248444962794,A,970.1488999417052,Correct
4,12,211,B,52.49964270625922,32.918747347917645,2.6249821353129614,0.5170864741679828,B,938.70609998703,Correct
4,12,212,B,88.91684455553676,64.53087453870145,4.445842227776837,1.0136486069025454,B,998.6413000151515,Correct
4,12,213,A,53.317713622834134,79.73403846995785,2.665885681141707,1.2524593474913277,A,886.3828999456018,Correct
4,12,214,A,43.58533907802089,63.67706801766555,2.1792669539010445,1.0002370454321783,A,649.626599973999,Correct
4,12,215,A,50.83180449011509,79.01607297133071,2.5415902245057542,1.241181571811238,A,994.848300004378,Correct
4,12,216,B,80.21604563874216,54.51619258029622,4.010802281937108,0.8563383505597248,B,999.0415000356734,Correct
4,12,217,B,41.06113773783266,15.104562241172765,2.0530568868916332,0.23726190886279067,B,1123.839300009422,Correct
4,12,218,A,61.80243249534499,76.50944496194847,3.0901216247672494,1.2018075511134496,A,859.9032999482006,Correct
4,12,219,A,53.05771568487713,61.479280004532214,2.6528857842438565,0.9657142720511414,A,716.518500004895,Correct
4,12,220,A,63.58576497177352,75.24003232738913,3.179288248588676,1.1818676640779213,A,826.6131000127643,Correct
4,12,221,B,86.04408836288269,68.22642802733974,4.302204418144134,1.0716982253568164,B,585.5583000229672,Correct
4,12,222,A,60.74575366462774,75.53741281721035,3.037287683231387,1.1865389058886378,A,1148.8675000146031,Correct
4,12,223,A,36.15664553107138,52.88589715912035,1.807832276553569,0.8307297299679888,A,1917.2337000491098,Correct
4,12,224,A,58.45057492755734,69.96656281477827,2.922528746377867,1.0990321986791811,A,792.2862999839708,Correct
4,12,225,A,12.342713162489808,39.006262644836156,0.6171356581244904,0.6127089408450561,A,968.0573999648914,Correct
4,12,226,A,37.49917888307862,62.63930710300143,1.8749589441539312,0.9839359351037211,A,1676.6505999257788,Correct
4,12,227,B,40.380895220847364,16.25258985694998,2.0190447610423683,0.2552950844820102,B,926.3408000115305,Correct
4,12,228,B,86.24612863856399,61.27380880717218,4.312306431928199,0.9624867380303884,B,2672.541599953547,Correct
4,12,229,A,26.600560676355503,43.056851156216965,1.330028033817775,0.676335436395402,A,822.3531000548974,Correct
4,12,230,B,51.251733061894335,33.734043652018826,2.5625866530947166,0.5298931185652987,B,890.224099974148,Correct
4,12,231,B,66.3220657578917,44.032928690592804,3.3161032878945855,0.6916676264520479,B,870.294600026682,Correct
4,12,232,B,75.13723627006934,44.31670210086155,3.756861813503467,0.69612512875697,B,432.210800005123,Correct
4,12,233,B,44.51738737670824,28.03037986413174,2.2258693688354123,0.4403001772924376,B,345.0816000113264,Correct
4,12,234,B,50.485361732384035,20.86846004183119,2.5242680866192018,0.3278010037957451,B,393.5149998869747,Correct
4,12,235,A,32.562180128797394,43.41294000747809,1.6281090064398698,0.681928866991138,A,4265.587499947287,Correct
4,12,236,A,45.368020719617626,69.08728667257554,2.2684010359808813,1.0852205613350767,A,523.2793000759557,Correct
4,12,237,B,43.43963260716245,30.387220785088985,2.1719816303581228,0.4773213479072331,B,3498.673600028269,Correct
4,12,238,A,33.26410603932618,58.67759356186911,1.663205301966309,0.9217054843214787,A,837.9553999984637,Correct
4,12,239,B,82.63668234059938,67.59909576073483,4.131834117029968,1.0618441131561873,B,826.5009999740869,Correct
4,12,240,B,79.38086199308015,49.90687455102514,3.9690430996540074,0.7839353522656398,B,4037.2728999936953,Correct
4,12,241,A,23.500757359943094,48.99896378961825,1.1750378679971547,0.7696739233748849,A,1230.7183999801055,Correct
4,12,242,B,55.22129671962301,30.93863754401542,2.7610648359811507,0.485982982101781,B,511.14919991232455,Correct
4,12,243,B,43.90128003474461,29.62255187860297,2.1950640017372307,0.46530995681200804,B,767.9355000145733,Correct
4,12,244,A,27.780677345268415,58.12214702990877,1.3890338672634208,0.9129805506001359,A,608.3941999822855,Correct
4,12,245,B,74.23463117196466,63.7991313222224,3.7117315585982333,1.002154411336522,B,505.7286999654025,Correct
4,12,246,B,72.02806052432919,61.19079085749979,3.6014030262164596,0.9611826951263542,B,791.6396000655368,Correct
4,12,247,B,83.99243084615388,57.02371361119191,4.1996215423076935,0.895726398806644,B,402.7231000363827,Correct
4,12,248,B,30.873990708565113,14.615589343581089,1.5436995354282557,0.22958114054839807,A,1343.0851999437436,Incorrect
4,12,249,A,47.35461960475614,71.75435927235135,2.367730980237807,1.1271148397653084,A,851.3401999371126,Correct
4,12,250,B,78.8768257150361,59.2064705108765,3.9438412857518053,0.9300130640097518,B,1139.0688000246882,Correct
4,12,251,B,70.98424593563315,51.154687501635586,3.5492122967816577,0.8035359522590999,B,988.0285999970511,Correct
4,12,252,B,78.54882185956815,61.38799339861458,3.927441092978407,0.9642803453985315,B,867.7724999142811,Correct
4,12,253,B,74.15972802129686,62.59531448997494,3.707986401064843,0.98324490075424,B,928.0291000613943,Correct
4,12,254,B,63.339529329628974,47.80718641123415,3.166976466481449,0.7509535280916548,B,4439.002199913375,Correct
4,12,255,B,64.97877961640664,41.76579629482628,3.2489389808203324,0.6560555940557702,B,449.45660000666976,Correct
4,12,256,A,59.936466109391645,81.66210122256952,2.996823305469582,1.2827452863876523,A,3362.017600098625,Correct
4,12,257,B,63.64513595973317,52.09061856192583,3.1822567979866587,0.8182375229754715,B,7259.262099978514,Correct
4,12,258,A,47.74319697529609,70.36900819101844,2.3871598487648042,1.1053537958665174,A,526.2370998971164,Correct
4,12,259,B,71.30194222629656,50.146610924829226,3.5650971113148278,0.7877011224193458,B,4358.4815999493,Correct
4,12,260,A,62.53902387568847,83.25126077912068,3.1269511937844237,1.307707746328868,A,1152.938700048253,Correct
4,12,261,A,36.67354588845643,46.87885079728059,1.8336772944228215,0.7363712663673436,A,3492.3631999408826,Correct
4,12,262,A,11.046539437231026,37.1112718345815,0.5523269718615513,0.5829424948044751,A,801.7868000315502,Correct
4,12,263,A,66.84315639247242,83.16485243677936,3.3421578196236212,1.3063504472613263,A,947.6545000215992,Correct
4,12,264,B,60.85085622126927,32.53584701639649,3.0425428110634636,0.5110718898251629,B,1436.109200003557,Correct
4,12,265,A,59.981449519817815,80.43842403308605,2.999072475990891,1.263523810043419,A,8610.966500011273,Correct
4,12,266,A,31.67492610708448,41.79436330060182,1.583746305354224,0.6565043235331677,A,3541.0297999624163,Correct
4,12,267,B,64.46339652517251,33.57661574848279,3.223169826258626,0.5274202468392044,B,800.6655999924988,Correct
4,12,268,B,56.68174560427004,30.28910968648254,2.834087280213502,0.4757802223741449,B,1050.7629999192432,Correct
4,12,269,A,41.44330714298808,73.88766182868137,2.0721653571494043,1.160624677959562,A,1152.9079000465572,Correct
4,12,270,B,83.99108397929669,60.24683626940382,4.199554198964835,0.9463550911299308,B,2173.40620001778,Correct
4,12,271,A,50.91412874057325,64.59725705555545,2.545706437028662,1.014691341038922,A,1880.0862000789493,Correct
4,12,272,A,43.87176096246156,65.80118136428783,2.193588048123078,1.0336025398578812,A,869.5578000042588,Correct
4,12,273,A,32.24022904966004,42.438425421772756,1.6120114524830018,0.666621227674798,A,1161.242499947548,Correct
4,12,274,A,50.92512263914112,63.60444566631801,2.5462561319570565,0.9990962962047789,A,862.9614999517798,Correct
4,12,275,B,38.66965765664959,27.113743073348722,1.9334828828324795,0.4259016802527675,B,2935.9390999889,Correct
4,12,276,B,48.10699904752592,26.00055409713172,2.405349952376296,0.40841574870406505,B,931.5443000523373,Correct
4,12,277,A,10.68157104607721,36.07803054313793,0.5340785523038605,0.5667123785515515,A,685.1026000222191,Correct
4,12,278,A,63.53812417494433,86.13747602339754,3.176906208747216,1.3530443093693632,A,2314.207899966277,Correct
4,12,279,A,37.22617250072908,48.748550169851,1.8613086250364541,0.7657404354337869,A,4102.189199998975,Correct
4,12,280,A,26.427314606145714,56.66528269566321,1.3213657303072859,0.8900961791514218,A,835.8640000224113,Correct
4,12,281,B,36.56431276530839,13.69573716323745,1.8282156382654193,0.2151321362876174,B,476.16110008675605,Correct
4,12,282,A,52.10580773628432,71.62174047229257,2.605290386814216,1.1250316685253454,A,703.9395999163389,Correct
4,12,283,A,26.259973712594743,42.68240033580507,1.312998685629737,0.6704535766627187,A,2863.207200076431,Correct
4,12,284,A,25.544119314707512,48.854274632418665,1.2772059657353756,0.7674011514083233,A,2804.0898999897763,Correct
4,12,285,A,40.0658719033358,59.916779677961756,2.00329359516679,0.9411705743152143,A,7722.3220999585465,Correct
4,12,286,B,52.93806467409935,31.182139540083817,2.6469032337049674,0.48980790251169565,B,1280.8570000343025,Correct
4,12,287,B,70.68126302810764,39.16426315126493,3.534063151405382,0.6151908069963568,B,1070.9706000052392,Correct
4,12,288,A,45.732222703019964,73.21946902507567,2.286611135150998,1.1501287299446155,A,795.870800036937,Correct
4,12,289,B,80.03804210155306,51.67741855657775,4.001902105077653,0.8117469924691475,B,2254.8184000188485,Correct
4,12,290,A,62.71817640917943,84.05555445619166,3.1359088204589716,1.3203415618649423,A,2323.98570002988,Correct
4,12,291,A,18.974661829745145,43.89110452288937,0.9487330914872573,0.6894398576352548,A,598.004600033164,Correct
4,12,292,B,87.27965115182472,63.417419782647755,4.363982557591236,0.9961585004939308,B,639.447099994868,Correct
4,12,293,B,54.03093599792062,27.628335344279932,2.7015467998960307,0.4339848767425253,B,925.7630000356585,Correct
4,12,294,B,72.67590233372252,48.20880270379017,3.633795116686126,0.7572621020629346,B,439.72490006126463,Correct
4,12,295,B,74.11632439230348,59.779663870609824,3.705816219615174,0.939016764249875,B,1563.3741000201553,Correct
4,12,296,A,37.407287920449086,60.20583875925629,1.8703643960224543,0.9457111037464561,A,4755.567499902099,Correct
4,12,297,A,56.37910354438613,81.19261879875307,2.8189551772193067,1.275370673719396,A,1297.1065000165254,Correct
4,12,298,A,39.09306782902218,67.94894639448037,1.954653391451109,1.067339554060331,A,5234.484300017357,Correct
4,12,299,B,73.25745805804216,49.14250270048709,3.6628729029021083,0.7719286273143342,B,1143.4312000637874,Correct
