subject,day,trial,cat,x,y,xt,yt,resp,rt,fb
4,15,0,B,40.61656180308426,26.421504109285642,2.030828090154213,0.4150280160326215,B,783.9366999687627,Correct
4,15,1,B,75.63451557622378,46.354290942111355,3.7817257788111887,0.7281314994305046,B,474.9479000456631,Correct
4,15,2,B,48.11018904913582,30.138721797784285,2.405509452456791,0.4734179349425283,B,379.8199000302702,Correct
4,15,3,B,61.58200575298596,28.865136669353618,3.079100287649298,0.4534125065265334,B,307.8699999023229,Correct
4,15,4,A,53.991213875782506,77.7134865102658,2.699560693789125,1.2207205915275028,A,542.7092000609264,Correct
4,15,5,B,45.850363152284075,36.358084483525765,2.2925181576142037,0.5711114555602079,B,369.24230004660785,Correct
4,15,6,A,58.69508526714952,86.16110614850011,2.934754263357476,1.3534154905064915,A,350.96880001947284,Correct
4,15,7,A,19.672863230414755,38.57833788055047,0.9836431615207377,0.605987114366211,A,478.12580002937466,Correct
4,15,8,B,42.70453916257854,14.110150570246002,2.135226958128927,0.22164172686265335,B,489.70889998599887,Correct
4,15,9,B,71.6829346171723,46.48722938453096,3.5841467308586146,0.7302196916009301,B,1317.8580000530928,Correct
4,15,10,B,58.21113321558625,50.60053120525187,2.9105566607793127,0.7948312855108018,B,1677.94900003355,Correct
4,15,11,B,81.57447086087589,64.54089031537063,4.078723543043794,1.013805934354565,A,974.7303000185639,Incorrect
4,15,12,B,60.76598003615732,34.729167382046526,3.038299001807866,0.5455244855636382,B,492.34939995221794,Correct
4,15,13,A,37.266307254800054,57.98404190627864,1.8633153627400025,0.9108112003910382,A,333.8122999994084,Correct
4,15,14,A,32.04154656034685,46.305554705010664,1.6020773280173426,0.7273659524083089,A,410.61869997065514,Correct
4,15,15,B,84.53557254753102,57.96128121341252,4.226778627376551,0.9104536762635445,B,652.5078000267968,Correct
4,15,16,A,53.9483364857963,64.2639269681678,2.697416824289815,1.0094554042701347,A,729.2905999347568,Correct
4,15,17,A,53.44885163885437,69.2042475272054,2.6724425819427187,1.0870577781433906,A,434.83629997354,Correct
4,15,18,B,54.83920211556433,31.625318400104817,2.7419601057782166,0.496769339766037,B,502.0001999801025,Correct
4,15,19,A,30.790900986427108,47.65238974789067,1.5395450493213554,0.7485219877898546,A,371.91030010581017,Correct
4,15,20,A,50.486760320644265,67.69566012992601,2.524338016032213,1.063360942720435,A,394.4134999765083,Correct
4,15,21,A,53.323630828213766,74.90992289293439,2.666181541410688,1.1766823172071026,A,455.01410006545484,Correct
4,15,22,A,36.89681280559538,55.52415943499259,1.844840640279769,0.8721714568886056,A,452.22420000936836,Correct
4,15,23,B,86.54928093602518,64.46590669452593,4.327464046801259,1.0126280943926385,B,449.83729999512434,Correct
4,15,24,B,78.21504745796639,50.69226192379028,3.91075237289832,0.7962721882681456,B,412.1046999935061,Correct
4,15,25,B,42.71010875060724,18.51845594847103,2.135505437530362,0.2908872258177139,B,497.5520999869332,Correct
4,15,26,B,88.50839160215831,62.51073776262953,4.425419580107916,0.9819163726277749,B,460.81769990269095,Correct
4,15,27,A,63.787701543436434,86.8755313547953,3.189385077171822,1.364637655404673,A,423.617499996908,Correct
4,15,28,B,49.355514107703854,40.037942540565076,2.467775705385193,0.6289145307514474,A,530.8053999906406,Incorrect
4,15,29,B,60.09700440591753,27.233763774757755,3.0048502202958765,0.42778696102189395,B,774.2751999758184,Correct
4,15,30,A,61.60216385258512,88.38596535579684,3.080108192629256,1.3883634972110668,A,3543.500200030394,Correct
4,15,31,A,49.65370630881029,80.79957506520523,2.4826853154405146,1.269196757190129,A,29379.258999950252,Correct
4,15,32,A,24.76124816116195,51.17199022860764,1.2380624080580975,0.8038077428588123,A,1648.0214999755844,Correct
4,15,33,A,41.370065074897184,61.896313648401154,2.068503253744859,0.9722650212105336,A,508.4356999723241,Correct
4,15,34,B,50.738635961366896,20.20792923062471,2.536931798068345,0.31742541007596514,B,1210.573000018485,Correct
4,15,35,B,40.65929214625001,26.264088726686076,2.0329646073125005,0.4125553409849374,B,601.19489999488,Correct
4,15,36,B,54.91371592828958,28.160462347355185,2.7456857964144787,0.4423435081607151,B,412.0286999968812,Correct
4,15,37,A,61.97041210792274,87.01498967302733,3.0985206053961374,1.3668282615448721,A,349.39570003189147,Correct
4,15,38,B,72.0155175218451,40.59008183028441,3.600775876092255,0.6375875144331503,B,510.14949998352677,Correct
4,15,39,B,62.463139045767946,40.91485415720198,3.1231569522883973,0.6426890262148177,B,435.9398999949917,Correct
4,15,40,A,57.12875770894463,82.74960202864597,2.8564378854472317,1.299827709103366,A,390.0275999912992,Correct
4,15,41,A,25.64200773300479,43.447710106489765,1.2821003866502394,0.6824750344292363,A,469.8322000913322,Correct
4,15,42,A,15.069633621999174,35.490994407151184,0.7534816810999587,0.557491236490513,A,492.21749999560416,Correct
4,15,43,A,28.729401443175618,39.330036619998,1.4364700721587809,0.6177947705540163,A,658.8087999261916,Correct
4,15,44,B,86.32809671741272,61.57778880841782,4.316404835870636,0.967261644724146,B,18382.472099969164,Correct
4,15,45,A,27.167508590605426,49.143070336585794,1.3583754295302715,0.7719375437213221,A,6811.778899980709,Correct
4,15,46,A,47.082640155800426,72.3387240285727,2.3541320077900214,1.1362940198911171,A,8450.11999993585,Correct
4,15,47,B,86.59384683221941,59.13272256900155,4.32969234161097,0.9288546340476933,B,1905.3210000274703,Correct
4,15,48,A,13.12642429217711,36.16690626807316,0.6563212146088554,0.5681084351742464,A,580.4374000290409,Correct
4,15,49,A,67.52975899793657,83.95821525764671,3.3764879498968288,1.3188125613096668,A,701.7421999480575,Correct
4,15,50,A,62.93150701120051,78.61506007626967,3.1465753505600254,1.2348824759856452,A,704.3091000523418,Correct
4,15,51,A,42.64342850944252,75.19819146140622,2.132171425472126,1.1812104292919625,A,681.8164000287652,Correct
4,15,52,A,45.15087011367125,64.63404177025778,2.2575435056835627,1.0152691539862884,A,293.1548999622464,Correct
4,15,53,B,60.90149271145733,39.823020634027856,3.0450746355728664,0.6255385453380833,A,220.9289000602439,Incorrect
4,15,54,B,65.6101043834423,38.665604781657855,3.2805052191721153,0.6073578996433134,B,494.22870005946606,Correct
4,15,55,B,77.12353519680101,47.07918828536809,3.856176759840051,0.739518160271415,B,755.0139999948442,Correct
4,15,56,B,79.36052609359906,59.42629920198676,3.968026304679953,0.933466125014953,B,466.97409998159856,Correct
4,15,57,A,18.714548319679597,45.816036832965494,0.9357274159839798,0.7196766236552189,A,602.5631000520661,Correct
4,15,58,A,34.59882025592,49.85321091061927,1.7299410127960002,0.7830924057733201,A,643.9112999942154,Correct
4,15,59,B,32.36964089666688,12.273141198763469,1.618482044833344,0.1927860511325277,A,583.1554000033066,Incorrect
4,15,60,A,47.133082502522775,77.08459171713687,2.3566541251261386,1.2108419352176292,A,396.7170000541955,Correct
4,15,61,A,24.294019195655416,41.00779473005436,1.2147009597827707,0.644148933319285,A,558.5390001069754,Correct
4,15,62,B,86.70870350719926,59.096203950978506,4.335435175359963,0.9282810009371908,B,503.55599995236844,Correct
4,15,63,A,31.175802579061752,55.11532582694511,1.5587901289530877,0.8657495135906927,A,468.85219996329397,Correct
4,15,64,A,22.625705809068975,50.156549217655645,1.1312852904534487,0.7878572327580093,A,424.2049000458792,Correct
4,15,65,B,58.65554111589516,40.89998414851162,2.9327770557947583,0.6424554486645155,B,1580.3770000347868,Correct
4,15,66,A,40.86963461337451,70.16092035931798,2.0434817306687254,1.1020851598496595,A,623.7650000257418,Correct
4,15,67,A,56.63992945679585,66.87194605555189,2.8319964728397924,1.050422072296874,A,791.0537999123335,Correct
4,15,68,A,56.77210944468434,74.7691653449978,2.838605472234217,1.1744713028144282,A,651.894300011918,Correct
4,15,69,A,22.733844972797137,47.85977382166358,1.1366922486398567,0.7517795692030369,A,716.8685999931768,Correct
4,15,70,B,51.11084399054664,39.97442127657468,2.555542199527332,0.6279167410699527,A,874.1128999972716,Incorrect
4,15,71,A,34.58281810780791,65.16570659354745,1.7291409053903954,1.023620525501383,A,571.9452999765053,Correct
4,15,72,A,35.20548720789664,51.601533634142314,1.7602743603948319,0.8105549948949408,A,638.2937000598758,Correct
4,15,73,B,39.77358264227972,27.83429024789387,1.988679132113986,0.43722000880334694,B,991.5500999195501,Correct
4,15,74,A,45.16896839641885,75.71015951238991,2.2584484198209425,1.1892524046311777,A,475.18740000668913,Correct
4,15,75,B,52.63266128920057,37.95898713842701,2.6316330644600283,0.5962583756589587,B,522.6766999112442,Correct
4,15,76,B,53.36484116492939,25.192463931489076,2.668242058246469,0.3957222980649596,B,680.5200000526384,Correct
4,15,77,B,83.46872395141337,59.906041257255104,4.173436197570669,0.9410018955971986,B,639.1366000752896,Correct
4,15,78,A,32.74255538920935,61.282488706191245,1.6371277694604673,0.9626230815653491,A,962.1952000306919,Correct
4,15,79,B,47.97026086909426,34.21845085993304,2.398513043454713,0.5375021691939449,B,564.3856000388041,Correct
4,15,80,B,58.754726638424664,44.66042194669363,2.9377363319212333,0.7015242674697654,B,1280.704899923876,Correct
4,15,81,A,53.617546191010476,67.48562671836292,2.680877309550524,1.06006174560656,A,667.7932000020519,Correct
4,15,82,B,50.19341404975226,30.570381567969562,2.5096707024876133,0.48019843075685,B,642.5836000125855,Correct
4,15,83,A,20.791441378700572,38.23073388240351,1.0395720689350285,0.6005269635315263,A,403.38170004542917,Correct
4,15,84,B,75.5039824802688,61.4477811474445,3.77519912401344,0.9652194891610252,B,514.6815999178216,Correct
4,15,85,B,61.82518953680286,38.67677176203509,3.091259476840143,0.607533310160893,B,650.1009999774396,Correct
4,15,86,B,78.760057321926,61.601706507930544,3.9380028660963,0.9676373430695457,B,517.6332999253646,Correct
4,15,87,B,87.29885072409576,67.61708818438578,4.364942536204788,1.0621267374859977,B,990.17849995289,Correct
4,15,88,B,43.4616161194306,21.20033560522563,2.17308080597153,0.3330140929550748,A,796.1551999906078,Incorrect
4,15,89,B,74.59135403875894,57.88179308905993,3.7295677019379467,0.9092050797259758,B,519.6706999558955,Correct
4,15,90,A,33.647709668273436,53.34976080284561,1.6823854834136716,0.8380160830449622,A,448.06940003763884,Correct
4,15,91,B,62.49932688828642,33.71698941420957,3.1249663444143208,0.5296252312242281,B,520.8660999778658,Correct
4,15,92,A,38.676714239643914,68.44090416864309,1.9338357119821956,1.075067208706261,A,537.770799943246,Correct
4,15,93,A,31.52006768114586,64.46489883209509,1.5760033840572931,1.012612262926596,A,898.96470005624,Correct
4,15,94,A,18.919514446097907,46.62010175221079,0.9459757223048954,0.7323068458717704,A,958.7254000362009,Correct
4,15,95,B,51.96690099519273,22.77872118055621,2.598345049759637,0.35780731559502804,B,825.4833999089897,Correct
4,15,96,B,83.21642275689209,55.96811498654681,4.1608211378446045,0.8791450943850213,B,897.9766999837011,Correct
4,15,97,A,17.605964243019564,33.39688907183596,0.8802982121509783,0.5245971068041655,A,631.1813000356779,Correct
4,15,98,A,16.80613764115684,43.650041767924165,0.840306882057842,0.6856532527349909,A,888.6677999980748,Correct
4,15,99,A,43.648462506032196,53.77030002422589,2.1824231253016095,0.8446218976871356,A,861.0957000637427,Correct
4,15,100,B,40.31818401253213,29.085475637438257,2.0159092006266066,0.4568735829437046,A,525.0704000936821,Incorrect
4,15,101,A,11.868106749766401,30.396151289267305,0.59340533748832,0.47746162793883046,A,645.4767000395805,Correct
4,15,102,B,55.0625064372389,27.150591725627702,2.7531253218619454,0.4264804975292391,B,825.3579000011086,Correct
4,15,103,A,42.72673129734384,52.811384221594174,2.1363365648671917,0.829559283482341,A,1259.8260999657214,Correct
4,15,104,A,34.59440338707882,44.68938630900085,1.729720169353941,0.7019792386089668,A,415.57459998875856,Correct
4,15,105,A,37.70483027058806,53.66471184855549,1.885241513529403,0.8429633225021752,A,846.3629999896511,Correct
4,15,106,B,76.34792896424139,62.49176793077798,3.8173964482120697,0.9816183952058517,B,532.7361000236124,Correct
4,15,107,B,77.9503479629827,62.83817806455663,3.8975173981491356,0.987059792862892,B,965.7802999718115,Correct
4,15,108,B,57.87309471904679,50.92938418413592,2.8936547359523392,0.7999968960236681,B,1752.0691000390798,Correct
4,15,109,A,15.3540196386713,36.29758908667097,0.7677009819335651,0.5701611960885328,A,473.7829000223428,Correct
4,15,110,B,56.82393021425572,49.767956541615064,2.841196510712786,0.78175323327657,B,847.888300078921,Correct
4,15,111,B,46.19343221271925,36.08285140223162,2.3096716106359625,0.5667881044291151,B,740.2387999463826,Correct
4,15,112,A,59.97138572608709,72.85381497498436,2.9985692863043543,1.1443850495570047,A,643.7914000125602,Correct
4,15,113,B,50.84051426933374,25.861264327426184,2.542025713466687,0.4062277901179294,B,511.34069997351617,Correct
4,15,114,A,40.335373762270955,68.63775525999112,2.016768688113548,1.0781593384184114,A,454.82350001111627,Correct
4,15,115,B,62.130489489547564,37.43238170618309,3.106524474477378,0.5879864768725688,B,584.3280999688432,Correct
4,15,116,A,26.348698462441305,43.17243816404475,1.3174349231220652,0.6781510728686129,A,772.8603000286967,Correct
4,15,117,A,40.886115325596975,70.77035512917381,2.0443057662798485,1.1116581388287659,A,518.241300014779,Correct
4,15,118,B,54.23226631073998,22.77875510847345,2.711613315536999,0.35780784853350595,B,549.4220000691712,Correct
4,15,119,A,55.043703536880514,64.6942065823424,2.7521851768440255,1.0162142206445366,A,621.7565999832004,Correct
4,15,120,A,42.14629414990806,57.93469519365765,2.107314707495403,0.9100360640417938,A,465.42450005654246,Correct
4,15,121,A,56.35263370036934,70.15758306211416,2.817631685018467,1.1020327377077677,B,399.47569998912513,Incorrect
4,15,122,B,45.98937088483919,24.529324848158495,2.2994685442419596,0.3853057337024615,B,518.0175999412313,Correct
4,15,123,B,41.843563501504946,32.058678368440404,2.0921781750752473,0.503576542230452,B,553.9207000983879,Correct
4,15,124,A,58.73665897050367,81.09484405058582,2.936832948525183,1.273834831566652,A,397.9641000041738,Correct
4,15,125,A,50.13373224669341,60.6553285842551,2.5066866123346703,0.952771673406854,A,488.2244999753311,Correct
4,15,126,B,62.83621562281399,49.28428722717919,3.1418107811406992,0.7741557734515772,B,587.5540000852197,Correct
4,15,127,A,32.36335141141604,47.39457278325892,1.6181675705708018,0.7444722083795648,B,1547.6484999526292,Incorrect
4,15,128,A,62.94158453295908,74.91469888359765,3.147079226647954,1.1767573382930094,A,446.0897999815643,Correct
4,15,129,B,45.479222868947524,25.70308234091743,2.273961143447376,0.40374307328419873,B,500.93009998090565,Correct
4,15,130,A,45.59487576779999,61.79114974323094,2.2797437883899994,0.9706131104510056,A,739.881300018169,Correct
4,15,131,B,60.22015346838703,39.16785082556645,3.0110076734193516,0.6152471620525023,B,511.2002999521792,Correct
4,15,132,A,37.44155254667654,55.73118820265077,1.872077627333827,0.8754234571663889,A,619.8638000059873,Correct
4,15,133,B,52.06440274297543,23.755735583062133,2.6032201371487713,0.37315422194184816,B,442.0049999607727,Correct
4,15,134,A,40.942900117238004,55.978747079382124,2.0471450058619003,0.8793121029087398,B,459.93139990605414,Incorrect
4,15,135,A,22.491429628084514,37.107377334305525,1.1245714814042258,0.5828813201371932,A,587.9968000808731,Correct
4,15,136,A,34.68352451874438,45.735857098077076,1.7341762259372189,0.7184171633247576,A,480.5296000558883,Correct
4,15,137,B,67.87239436929856,48.55768240286238,3.3936197184649277,0.762742291560894,B,869.0323999617249,Correct
4,15,138,A,66.192129477862,86.01504924873379,3.3096064738931,1.3511212340899315,A,957.2546000126749,Correct
4,15,139,B,66.52759771383101,36.74831923833357,3.326379885691551,0.5772412487546061,B,467.7432000171393,Correct
4,15,140,B,33.194887852045625,18.866498826680512,1.659744392602281,0.29635427056429975,B,578.7192999850959,Correct
4,15,141,A,51.169548235570616,68.20700983639516,2.558477411778531,1.071393205126729,A,1337.0241000084206,Correct
4,15,142,B,79.01741686245943,66.30841292111519,3.950870843122971,1.0415701145208698,B,1014.8036999162287,Correct
4,15,143,B,41.66521808452518,32.33628113697707,2.083260904226259,0.5079371163217068,B,438.3378999773413,Correct
4,15,144,B,57.17720864823565,29.96146241794927,2.8588604324117823,0.47063355111518046,B,741.7449000058696,Correct
4,15,145,B,53.58122692775361,36.12400181860712,2.6790613463876802,0.5674344936580022,B,499.37830003909767,Correct
4,15,146,B,65.34804147064703,43.90294150372262,3.267402073532352,0.689625792495387,B,629.2664000065997,Correct
4,15,147,B,42.50053274714122,18.05010455584116,2.125026637357061,0.2835303793457912,B,329.2053999612108,Correct
4,15,148,B,72.6003171046765,61.17051528917288,3.6300158552338253,0.9608642072438381,B,537.6159000443295,Correct
4,15,149,A,31.818271873941143,43.74180621199416,1.590913593697057,0.6870946852517461,A,486.998499953188,Correct
4,15,150,A,24.87453201735075,41.65939582530517,1.2437266008675374,0.65438425938884,A,443.17900005262345,Correct
4,15,151,A,32.3693877516805,48.604078403337354,1.618469387584025,0.7634710782321348,A,377.41600000299513,Correct
4,15,152,A,31.934528172354305,64.47491100059139,1.5967264086177153,1.0127695337015683,A,1628.4455000422895,Correct
4,15,153,A,10.861141397215459,36.78283309517978,0.543057069860773,0.5777833911501815,A,478.09690004214644,Correct
4,15,154,B,71.88315036673484,60.28175281137988,3.594157518336742,0.9469035588887345,B,615.1263000210747,Correct
4,15,155,A,48.35780433908371,57.63170909410294,2.4178902169541856,0.9052767695192894,B,543.7050999607891,Incorrect
4,15,156,B,63.86926892889545,33.04522275901746,3.1934634464447726,0.5190731452798375,B,504.925400018692,Correct
4,15,157,A,15.134572934935033,43.48869585308174,0.7567286467467517,0.6831188370312125,A,783.4236000198871,Correct
4,15,158,A,30.254672695700997,45.126185892654924,1.51273363478505,0.7088404704244604,A,554.6088999835774,Correct
4,15,159,B,82.38430112902225,55.868260786108436,4.119215056451112,0.8775765882723849,B,482.3393999831751,Correct
4,15,160,B,85.31579204135166,55.961882777351654,4.265789602067582,0.8790471990719056,B,892.9315001005307,Correct
4,15,161,B,51.30252640663524,39.73446057404271,2.5651263203317622,0.6241474471688293,B,502.196199959144,Correct
4,15,162,B,64.99099422652418,38.231263618652534,3.249549711326209,0.6005352846090677,B,438.7733000330627,Correct
4,15,163,A,28.984193762182272,51.771659632354684,1.4492096881091134,0.8132273278257837,A,479.9800000619143,Correct
4,15,164,B,33.455573041395326,13.24483608044952,1.6727786520697663,0.2080493986417062,B,453.6328000249341,Correct
4,15,165,A,63.967620946663075,76.73476615002592,3.1983810473331538,1.2053468880592606,A,823.2519000303,Correct
4,15,166,A,16.70465553941114,31.6937818075539,0.8352327769705569,0.4978447604554459,A,590.6385000562295,Correct
4,15,167,A,11.229622978548473,34.002467321744106,0.5614811489274237,0.5341095077095914,A,399.94709996972233,Correct
4,15,168,B,75.308953163818,62.78866623821082,3.7654476581909,0.986282062913323,A,553.7038999609649,Incorrect
4,15,169,A,30.484359598108625,44.973797194937774,1.5242179799054312,0.7064467543582688,A,515.2788999257609,Correct
4,15,170,A,30.6356779048235,58.5318044158685,1.531783895241175,0.9194154337712356,A,434.11370005924255,Correct
4,15,171,A,13.25316931745241,40.15269656561858,0.6626584658726205,0.6307170827618371,A,427.7767000021413,Correct
4,15,172,B,43.06627482001955,34.95475437496031,2.1533137410009773,0.549067997762055,B,558.7316000601277,Correct
4,15,173,B,76.88282767054484,56.836435971737544,3.844141383527242,0.8927846485251866,A,470.44259996619076,Incorrect
4,15,174,A,49.1006923074742,65.43969963548268,2.4550346153737097,1.0279243981397752,A,695.8318999968469,Correct
4,15,175,B,30.91558086960058,13.607777114769963,1.545779043480029,0.21375046307724313,B,780.2100999979302,Correct
4,15,176,B,54.80882346953553,23.70889439152908,2.7404411734767766,0.37241844222582005,B,343.70229998603463,Correct
4,15,177,A,19.013196918208784,45.69859838272214,0.9506598459104393,0.7178319047925514,A,423.3924000291154,Correct
4,15,178,B,63.26870993280284,51.44592078902364,3.163435496640142,0.8081106340397954,B,602.7551000006497,Correct
4,15,179,B,64.26467549393155,39.57925514551563,3.213233774696578,0.6217094859985397,B,415.6972999917343,Correct
4,15,180,A,41.72060171192475,63.82219631459557,2.0860300855962377,1.0025167153894952,A,536.1827000742778,Correct
4,15,181,A,22.18830320208502,53.46282198911538,1.109415160104251,0.8397920440059188,A,449.02890000957996,Correct
4,15,182,A,37.31119382351466,58.96535517242849,1.8655596911757328,0.9262256331300713,A,550.2162000630051,Correct
4,15,183,B,50.7183605876117,38.63749595265277,2.5359180293805847,0.6069163671897966,B,912.8888000268489,Correct
4,15,184,A,47.05308321328464,73.11745108012954,2.352654160664232,1.1485262358127302,A,680.9880000073463,Correct
4,15,185,B,62.928394720602455,37.62229762227944,3.146419736030123,0.5909696691066091,B,1228.3608000725508,Correct
4,15,186,B,52.47454980164309,29.52795648602048,2.6237274900821546,0.4638240558600051,B,512.5600000610575,Correct
4,15,187,B,79.08853843804599,48.818381157874825,3.954426921902299,0.7668373380286296,B,1149.4524999288842,Correct
4,15,188,B,71.6558479228876,56.94786219547457,3.58279239614438,0.8945349275547341,B,503.2197000691667,Correct
4,15,189,B,57.336616716283054,30.048336995496243,2.8668308358141523,0.471998173788207,B,692.1931999968365,Correct
4,15,190,B,37.16178761631875,23.09260571158752,1.8580893808159373,0.3627378022788453,B,605.6597999995574,Correct
4,15,191,B,69.96472131516886,60.537756438901624,3.4982360657584426,0.9509248544663079,B,501.39440002385527,Correct
4,15,192,A,26.11894618829759,44.55540494422013,1.3059473094148795,0.6998746642524014,A,472.70580008625984,Correct
4,15,193,B,56.633781244374475,40.21652508727771,2.8316890622187234,0.6317196988355064,B,570.0656000990421,Correct
4,15,194,A,40.79636259691007,50.58771980737851,2.0398181298455036,0.794630044543596,A,716.7545000556856,Correct
4,15,195,A,37.7359624735399,46.660366240785386,1.886798123676995,0.7329393189793026,A,570.4066000180319,Correct
4,15,196,B,66.70899799816249,43.39284637692101,3.3354498999081246,0.6816132369804276,B,612.3662999598309,Correct
4,15,197,A,36.93478131687588,63.8316261493701,1.8467390658437939,1.0026648388877564,A,719.5241999579594,Correct
4,15,198,A,37.91015402735508,47.927504757499456,1.895507701367754,0.7528434842552507,A,523.1071999296546,Correct
4,15,199,B,84.35361955649223,64.37591479285531,4.217680977824611,1.0112145049067838,B,452.1792000159621,Correct
4,15,200,A,69.36499813444941,86.6636101624549,3.4682499067224706,1.3613088050996902,A,610.7240999117494,Correct
4,15,201,A,63.28257166094362,74.5397445069485,3.164128583047181,1.1708675687174475,A,510.05710009485483,Correct
4,15,202,A,30.039422247962662,60.597906083209025,1.501971112398133,0.9518696828696687,A,488.80649998318404,Correct
4,15,203,A,39.447384697649426,59.61862711868362,1.9723692348824713,0.9364872048658283,A,969.422800000757,Correct
4,15,204,A,23.283328795533073,50.18068567412999,1.1641664397766536,0.7882363673297266,A,611.4742000354454,Correct
4,15,205,A,58.95364796017432,81.98980241574102,2.9476823980087157,1.2878928046928533,A,525.7441999856383,Correct
4,15,206,B,48.62276693141047,34.19389852909264,2.431138346570523,0.5371165020829614,B,453.0564999440685,Correct
4,15,207,B,82.12549336205261,57.89842137691538,4.106274668102631,0.9094662762608179,B,584.849699982442,Correct
4,15,208,B,50.99783319248067,26.762828118259495,2.5498916596240333,0.4203895210280519,B,548.2929999707267,Correct
4,15,209,A,40.56007712653071,62.63125326532593,2.0280038563265355,0.9838094257173485,A,473.07849989738315,Correct
4,15,210,B,65.32741335688145,57.25147416241351,3.2663706678440723,0.8993040531791205,A,477.17729990836233,Incorrect
4,15,211,B,55.06014383207291,26.036955409178603,2.7530071916036456,0.40898753917660263,B,754.0450999513268,Correct
4,15,212,A,33.81114979805166,65.17725702653426,1.6905574899025828,1.0238019592784688,A,581.1410999158397,Correct
4,15,213,B,85.08852336494786,62.7884104021542,4.2544261682473925,0.9862780442499428,B,61881.57259998843,Correct
4,15,214,B,39.874108583878545,31.061634028418858,1.9937054291939273,0.48791500636087703,B,545.9357000654563,Correct
4,15,215,A,19.537716041063934,42.56376687286797,0.9768858020531966,0.6685900865845531,A,1023.0409000068903,Correct
4,15,216,A,37.99548854239397,61.35827384443802,1.8997744271196984,0.9638135117331861,A,1688.6277999728918,Correct
4,15,217,B,71.917228515104,45.99050867582337,3.5958614257552,0.7224172209541216,B,1387.2368999291211,Correct
4,15,218,B,77.68968630821281,49.64063189081156,3.8844843154106403,0.7797532223386441,B,1297.793100005947,Correct
4,15,219,B,50.4623873359335,21.945200709339314,2.523119366796675,0.3447144066500696,B,1177.423999994062,Correct
4,15,220,A,65.7478997907399,87.82675366003252,3.2873949895369945,1.3795794204349932,A,998.62219998613,Correct
4,15,221,A,18.196890609145385,32.71703921451014,0.9098445304572692,0.5139180502175711,A,550.679000094533,Correct
4,15,222,A,14.636029432220248,40.83230713269077,0.7318014716110125,0.6413923805859173,A,445.9764000494033,Correct
4,15,223,A,54.48778746099381,73.80766168257814,2.7243893730496906,1.159368038603142,A,640.9933000104502,Correct
4,15,224,A,62.20151513550033,78.31292734622247,3.1100757567750166,1.2301365861600184,A,554.6137999044731,Correct
4,15,225,A,42.96807120565555,68.2721454255035,2.1484035602827776,1.072416352567879,A,656.314600026235,Correct
4,15,226,A,35.95017420943201,63.83694724916411,1.7975087104716005,1.0027484225278658,A,577.0425999071449,Correct
4,15,227,A,46.38338803665784,77.47868402013407,2.319169401832892,1.2170323226372903,A,542.0979000627995,Correct
4,15,228,B,34.586126895159595,12.49962277997442,1.7293063447579797,0.19634361549105633,B,1174.1526999976486,Correct
4,15,229,B,41.89103265644098,33.20540890223843,2.094551632822049,0.5215893433335869,B,1528.6940999794751,Correct
4,15,230,B,59.229809872624195,34.24561365734927,2.9614904936312096,0.5379288414180138,B,1024.3421000195667,Correct
4,15,231,B,55.96675223345572,45.109382133971074,2.7983376116727863,0.7085765176002911,B,1547.2928000381216,Correct
4,15,232,B,79.32517921161615,49.21000006206052,3.9662589605808076,0.7729888733906128,B,1082.1047000354156,Correct
4,15,233,A,35.32545002026471,43.93780148041972,1.7662725010132356,0.6901733717288667,A,672.2859999863431,Correct
4,15,234,A,43.980441110769576,54.88570326918476,2.1990220555384785,0.8621426108879007,A,453.7672000005841,Correct
4,15,235,A,14.987017729386086,43.27193857758198,0.7493508864693043,0.6797140217096016,A,482.7705000061542,Correct
4,15,236,A,64.59603783007019,77.7019409096338,3.2298018915035094,1.220539233656869,B,1275.520300026983,Incorrect
4,15,237,B,55.3568692810142,48.349277278296626,2.76784346405071,0.7594686715193628,B,1198.7849000142887,Correct
4,15,238,A,45.06962047743377,69.70090938576993,2.2534810238716885,1.0948593243743134,A,94128.03440005518,Correct
4,15,239,A,54.71498128267763,83.43721030147005,2.7357490641338815,1.3106286345956244,A,529.4868000783026,Correct
4,15,240,B,45.25957260654791,31.24926940658441,2.2629786303273955,0.49086237598886934,B,768.2137000374496,Correct
4,15,241,B,42.7632994526614,23.543230898649195,2.13816497263307,0.3698162061648227,B,2084.919900051318,Correct
4,15,242,B,53.53429071859544,21.932587216729637,2.676714535929772,0.34451627437147614,B,404.6961999265477,Correct
4,15,243,B,82.41202921649005,65.96044096157149,4.120601460824503,1.0361041837620815,B,725.7974999956787,Correct
4,15,244,B,65.50302411533661,33.38235053951575,3.275151205766831,0.5243687360725098,B,456.9459999911487,Correct
4,15,245,B,86.42183321922238,67.77645403861189,4.321091660961119,1.064630050470347,B,680.4832000052556,Correct
4,15,246,B,59.34251978392579,29.460000786012557,2.967125989196289,0.4627566102204329,B,507.510400027968,Correct
4,15,247,A,20.21722485557549,44.78596469792616,1.0108612427787746,0.7034962883946834,A,1931.7153000738472,Correct
4,15,248,A,43.82525351299513,65.88092752396447,2.1912626756497566,1.034855189604842,A,612.9615000681952,Correct
4,15,249,A,35.65348965081107,63.52316980622798,1.7826744825405536,0.997819617979914,A,1029.4052000390366,Correct
4,15,250,A,52.12916469026984,61.40377186799766,2.606458234513492,0.9645281930160253,A,585.6642000144348,Correct
4,15,251,B,72.20331410830681,56.20095664853823,3.6101657054153407,0.8828025626588306,B,678.1683000735939,Correct
4,15,252,B,45.6286331781324,19.7143436601618,2.28143165890662,0.3096721860655441,B,673.2383000198752,Correct
4,15,253,B,82.45490860796853,61.572702930998304,4.122745430398427,0.967181755948455,B,279.7335999784991,Correct
4,15,254,A,37.47736635838906,63.90503918955711,1.8738683179194533,1.003818008226402,A,5462.135800044052,Correct
4,15,255,B,62.520685688714195,36.209881315765834,3.12603428443571,0.5687834856448413,B,1993.7569999601692,Correct
4,15,256,A,43.61929222304556,65.14483965224952,2.180964611152278,1.0232927483539607,A,5807.424300001003,Correct
4,15,257,B,47.30067460404767,32.447329402609384,2.365033730202384,0.5096814583992286,B,30264.975299942307,Correct
4,15,258,A,49.50418989541717,71.5425100284824,2.4752094947708585,1.123787119624272,A,6852.073899935931,Correct
4,15,259,A,49.07136440365651,72.89420071662944,2.4535682201828255,1.1450194273033145,A,3325.2771000843495,Correct
4,15,260,B,36.513048690739,11.796257713124277,1.8256524345369498,0.1852951828570158,B,465.8258999697864,Correct
4,15,261,A,42.95715847495683,61.915462299197245,2.1478579237478415,0.9725658075138693,A,359.8338000010699,Correct
4,15,262,B,49.01913744156362,25.3882873083881,2.4509568720781814,0.3987982844762952,B,458.732399973087,Correct
4,15,263,A,46.77802591186062,65.72830044897039,2.338901295593031,1.0324577291171404,A,592.948199948296,Correct
4,15,264,A,62.007189658502384,83.39415776084596,3.1003594829251195,1.3099523668689095,A,455.57109999936074,Correct
4,15,265,B,63.9872959327575,52.8119103697327,3.199364796637875,0.8295675481979743,B,512.1445000404492,Correct
4,15,266,B,73.24933678010296,58.74462477440838,3.6624668390051482,0.9227584081458515,B,629.0546000236645,Correct
4,15,267,A,36.61019466990744,59.693977554593246,1.8305097334953724,0.9376708067453208,A,503.6752999294549,Correct
4,15,268,B,77.74630044898475,64.22491437333255,3.8873150224492377,1.0088425958634752,B,512.187699903734,Correct
4,15,269,B,79.71210038999763,63.61802065043862,3.9856050194998818,0.9993095315567087,B,418.2810999918729,Correct
4,15,270,B,45.47371457796845,25.46229397263548,2.2736857288984225,0.39996077843987643,B,386.0047999769449,Correct
4,15,271,B,67.5358298328559,51.025568305083446,3.376791491642795,0.8015077526624718,B,444.6423000190407,Correct
4,15,272,A,22.546357202288142,53.40405511875229,1.127317860114407,0.8388689361648829,A,628.7016000133008,Correct
4,15,273,A,31.632407705607008,42.47878448268429,1.5816203852803505,0.6672551863211253,A,449.38080001156777,Correct
4,15,274,A,29.545305095610914,57.13339052413536,1.4772652547805456,0.8974491997265016,A,371.93759996443987,Correct
4,15,275,B,40.04245525473638,19.249092303262184,2.002122762736819,0.30236403484100155,B,479.63529999833554,Correct
4,15,276,B,60.05711065581752,29.66349510066233,3.002855532790876,0.46595309144018804,B,317.3118999693543,Correct
4,15,277,B,45.84160288362396,16.385024063053535,2.2920801441811984,0.2573753561269049,B,375.18510001245886,Correct
4,15,278,B,77.08840473190769,50.23180711613057,3.8544202365953844,0.7890393810628764,B,513.2411000085995,Correct
4,15,279,A,28.11994826039795,49.5907717105074,1.4059974130198976,0.7789700204578929,A,403.7452000193298,Correct
4,15,280,B,63.0881404951768,43.458761232007426,3.15440702475884,0.6826486251029371,B,452.16970006003976,Correct
4,15,281,B,61.4857778184837,40.573343819446976,3.0742888909241852,0.6373245943737372,B,445.91000000946224,Correct
4,15,282,A,61.12573581726307,87.38275487404066,3.0562867908631532,1.372605103813619,A,416.22260003350675,Correct
4,15,283,B,84.77906718819489,58.472831291446134,4.238953359409744,0.9184890860990128,B,372.33980000019073,Correct
4,15,284,B,55.52366722809158,34.30574051035524,2.776183361404579,0.5388733118164489,B,338.066800031811,Correct
4,15,285,B,50.697383939740575,26.07324193206267,2.534869196987029,0.4095575265451871,B,371.9821000704542,Correct
4,15,286,B,71.44971013933473,52.89406046107998,3.5724855069667365,0.8308579588153161,B,441.90999993588775,Correct
4,15,287,B,68.15364888202545,55.21348469210598,3.4076824441012725,0.8672913894390633,B,410.82339989952743,Correct
4,15,288,B,30.204465073151514,13.75712252808702,1.5102232536575757,0.21609637534386414,B,365.17960007768124,Correct
4,15,289,A,41.31601441890054,54.067208361180825,2.0658007209450266,0.8492857229379716,A,405.69539996795356,Correct
4,15,290,A,65.77300085924959,79.81994529996312,3.2886500429624794,1.2538087688215163,A,2172.400400042534,Correct
4,15,291,B,56.366194450190655,32.472600633153014,2.818309722509533,0.5100784179603438,B,2344.1816000267863,Correct
4,15,292,A,21.07902850571918,51.964764010530985,1.053951425285959,0.816260604305057,A,3457.5027000391856,Correct
4,15,293,A,56.23009657718674,64.77642910727243,2.811504828859337,1.0175057690459357,A,7940.994500066154,Correct
4,15,294,B,80.2935446945522,53.185244313326066,4.0146772347276105,0.8354318640706174,B,9581.622099969536,Correct
4,15,295,A,35.603533361878995,60.61685175491863,1.7801766680939497,0.9521672807849697,A,4025.3545999294147,Correct
4,15,296,A,14.500926439399922,42.56232564220697,0.7250463219699961,0.6685674477862695,A,1118.9697000663728,Correct
4,15,297,A,67.33708973440234,89.18391585503906,3.366854486720117,1.4008976743428048,A,1597.8303999872878,Correct
4,15,298,A,34.25098447888158,62.17810141913307,1.712549223944079,0.9766913331625477,A,8565.48849993851,Correct
4,15,299,A,18.906176187517026,36.62805335166245,0.9453088093758513,0.5753521166243888,A,2123.215000028722,Correct
