subject,day,trial,cat,x,y,xt,yt,resp,rt,fb
12,13,0,A,16.736248742746326,33.3615378664203,0.8368124371373163,0.5240418113680186,A,752.6367999962531,Correct
12,13,1,B,56.68410827988171,33.90891650248065,2.8342054139940855,0.5326400148769146,B,1375.5987000185996,Correct
12,13,2,A,31.967763294253675,64.49882788770672,1.5983881647126839,1.0131452192858597,A,902.3762000142597,Correct
12,13,3,A,57.84914647149181,65.66292651293601,2.89245732357459,1.0314308377312311,A,2747.728399990592,Correct
12,13,4,B,65.76695285553119,43.10854949667885,3.2883476427765594,0.6771475120283912,B,536.1962000024505,Correct
12,13,5,A,37.95307093921883,69.16946830787991,1.8976535469609417,1.0865114674437377,A,619.4493000512011,Correct
12,13,6,A,64.84214737312828,78.4721248536405,3.242107368656414,1.2326372547588897,A,1216.2155999685638,Correct
12,13,7,A,32.273638791720714,48.04670000054062,1.6136819395860358,0.7547157987546557,A,945.7177000003867,Correct
12,13,8,B,58.46311249600772,43.2385414429977,2.9231556248003856,0.679189420746297,B,1523.3098000171594,Correct
12,13,9,B,84.64122377610437,60.715743725611425,4.232061188805218,0.9537206722281072,B,4698.010499996599,Correct
12,13,10,B,65.99733730790638,34.51987525696582,3.2998668653953187,0.5422369325505995,B,974.7649999917485,Correct
12,13,11,B,41.425105775042724,20.717351203571884,2.071255288752136,0.3254273917149054,B,1068.5182000161149,Correct
12,13,12,B,52.96905418608885,36.68904555440305,2.6484527093044425,0.5763101799046695,B,816.3716999697499,Correct
12,13,13,A,41.71063964015696,68.45940414275083,2.085531982007848,1.0753578056200033,A,530.8565000304952,Correct
12,13,14,B,67.77813048233676,44.146575544882594,3.3889065241168383,0.6934527870647499,B,573.1471999897622,Correct
12,13,15,A,40.85407278494942,62.26248232935641,2.0427036392474713,0.978016785400852,A,827.7480999822728,Correct
12,13,16,B,45.95418438665219,31.832614600633903,2.297709219332609,0.5000255408695332,B,609.8486999981105,Correct
12,13,17,B,89.50537012268667,66.71265332125358,4.475268506134333,1.0479199078776649,B,2596.512099960819,Correct
12,13,18,B,56.46642923438833,30.47985024578112,2.8233214617194164,0.4787763680733151,B,506.68060005409643,Correct
12,13,19,B,52.77593503616923,24.695912276709024,2.638796751808462,0.3879224829110352,B,595.0978000182658,Correct
12,13,20,A,24.13533982819903,55.07989409979264,1.2067669914099515,0.8651929533220616,A,683.7691999971867,Correct
12,13,21,A,44.92392409881488,66.77425974397872,2.2461962049407442,1.0488876193029009,A,910.3280000272207,Correct
12,13,22,B,68.61002565025333,36.960438765096356,3.4305012825126666,0.5805732144894106,B,1025.2799000008963,Correct
12,13,23,B,56.22162409011277,42.836416683208625,2.8110812045056384,0.6728728597903973,B,3018.724799971096,Correct
12,13,24,A,47.069617998991376,76.80771377168537,2.3534808999495684,1.2064927466207718,A,594.094599946402,Correct
12,13,25,A,38.03586699112599,60.87199106406129,1.9017933495562998,0.9561749996811924,A,507.46409996645525,Correct
12,13,26,A,22.61161033850078,37.06496342975147,1.130580516925039,0.582215084082408,A,547.1979000139982,Correct
12,13,27,A,22.958143435858776,42.27640328906949,1.1479071717929388,0.6640761899657004,A,423.5690000350587,Correct
12,13,28,B,60.73186589498953,27.73867306969488,3.0365932947494763,0.43571805768041233,B,647.7306999731809,Correct
12,13,29,A,58.959608444996874,72.92441461429259,2.947980422249844,1.1454940260979887,A,613.4735000086948,Correct
12,13,30,B,44.68960668471519,15.550528686824265,2.2344803342357595,0.24426713340982223,B,485.2316999458708,Correct
12,13,31,B,52.17558423959574,33.678656010012816,2.6087792119797872,0.5290230915191699,B,650.0455999630503,Correct
12,13,32,A,58.67634938809748,78.57207256703408,2.933817469404874,1.234207229769592,A,546.068700030446,Correct
12,13,33,B,53.8589508438377,42.39149604361102,2.6929475421918845,0.6658840627264458,B,996.6396999661811,Correct
12,13,34,B,78.87253411724151,50.38822107652565,3.9436267058620755,0.7914963258073566,B,1263.8388000195846,Correct
12,13,35,B,70.04741786090365,45.12889373596055,3.5023708930451822,0.7088830051276406,B,606.1129999579862,Correct
12,13,36,B,35.37206737076687,20.8543301286178,1.7686033685383435,0.3275790516380098,B,542.6925999927334,Correct
12,13,37,A,27.289315577669065,44.960087378353734,1.3644657788834533,0.7062314010629563,A,898.6546999658458,Correct
12,13,38,B,85.50203643962405,63.69108801145107,4.2751018219812025,1.000457270979578,B,2428.821000037715,Correct
12,13,39,B,35.90900083081172,15.204976887400665,1.795450041540586,0.23883921843730266,B,980.8355999994092,Correct
12,13,40,B,47.28134330544246,19.958368075469654,2.3640671652721235,0.3135053126176826,B,605.110100004822,Correct
12,13,41,B,71.61915353686334,56.40641419096802,3.580957676843167,0.8860298821884408,B,1014.0119999996386,Correct
12,13,42,A,23.331764811186556,44.33226974138021,1.1665882405593277,0.6963696646824058,A,512.0055000297725,Correct
12,13,43,A,47.168117313301686,60.56320575120702,2.3584058656650844,0.9513246113291953,A,1336.4773000357673,Correct
12,13,44,A,53.5950700818915,77.64682354050501,2.6797535040945752,1.2196734520471677,A,962.4165000277571,Correct
12,13,45,A,39.60960466543958,57.06963152930538,1.980480233271979,0.8964476757777111,A,444.72959998529404,Correct
12,13,46,A,24.36144480204492,54.41152529658172,1.2180722401022461,0.8546942407117816,A,613.5538999806158,Correct
12,13,47,B,30.962472737966472,13.409453869176978,1.5481236368983236,0.21063520882028813,B,526.5674000256695,Correct
12,13,48,A,13.449138705129737,31.695086093528584,0.6724569352564869,0.497865248131627,A,519.992400018964,Correct
12,13,49,A,30.73702484195809,54.98386398271872,1.5368512420979044,0.8636845157704476,A,629.0762000135146,Correct
12,13,50,B,60.98561073454598,45.77485164398987,3.049280536727299,0.7190296882196062,B,1114.8717000032775,Correct
12,13,51,A,29.3031230485798,59.87800553725104,1.46515615242899,0.940561511537184,A,598.5372000141069,Correct
12,13,52,B,78.07516404097463,47.26058269165806,3.9037582020487314,0.7423674969424293,B,917.7251000073738,Correct
12,13,53,A,58.163151753736045,78.81262780328734,2.908157587686802,1.2379858625845708,A,689.8962000268511,Correct
12,13,54,B,73.39041233329573,44.39694148374983,3.6695206166647862,0.697385526036022,B,2044.7950000525452,Correct
12,13,55,A,47.55426301154171,75.12761121066058,2.3777131505770854,1.1801017573058075,A,813.0901000113226,Correct
12,13,56,A,42.53092465774927,67.81649400804612,2.1265462328874634,1.0652589968394697,A,636.1831999965943,Correct
12,13,57,A,45.99204016056521,72.56819607181617,2.2996020080282604,1.139898558317407,A,618.7083999975584,Correct
12,13,58,A,48.229229693551346,62.329678113213774,2.4114614846775675,0.9790722943054446,A,952.189100033138,Correct
12,13,59,A,30.9212758676882,51.64967203926034,1.54606379338441,0.8113111511943122,A,909.1273000231013,Correct
12,13,60,B,37.216073537795836,23.519971798144134,1.8608036768897918,0.36945085306844366,B,1059.0907000005245,Correct
12,13,61,B,38.62220921099647,26.614210801533538,1.9311104605498235,0.41805504567593943,B,1059.7898999694735,Correct
12,13,62,B,49.093880888145634,34.01688153522364,2.454694044407282,0.5343359256454643,B,1201.539599976968,Correct
12,13,63,B,73.38292343011675,42.82654067498767,3.6691461715058376,0.6727177278160286,B,823.5300999949686,Correct
12,13,64,A,24.437715948035958,38.52744170631982,1.2218857974017978,0.6051876391309168,A,648.4153000055812,Correct
12,13,65,A,61.92388872800096,84.93663249535761,3.096194436400048,1.3341815033403581,A,655.9476000256836,Correct
12,13,66,A,61.4402099224598,77.0271243241329,3.0720104961229904,1.209939239519218,A,991.2334000109695,Correct
12,13,67,A,19.021719154413233,40.924244282538666,0.9510859577206616,0.6428365259586879,A,561.0827000346035,Correct
12,13,68,A,49.269640285582994,79.87615518193986,2.46348201427915,1.2546917115829028,A,705.2224000217393,Correct
12,13,69,A,22.122555696704346,39.981188914934414,1.1061277848352173,0.6280230468847182,A,479.49430003063753,Correct
12,13,70,B,73.9993822838118,50.425697772525275,3.6999691141905897,0.792085008371523,B,884.0606000158004,Correct
12,13,71,B,72.93277178279808,54.008264737297225,3.6466385891399047,0.8483598386591282,B,863.8663999736309,Correct
12,13,72,A,38.030895371841396,59.85528552389768,1.9015447685920697,0.9402046264019822,A,651.5543999848887,Correct
12,13,73,B,80.98693458351359,62.96394873952134,4.049346729175679,0.9890353940054227,B,959.0249999891967,Correct
12,13,74,A,58.996757998571866,68.62085190645371,2.9498378999285935,1.0778938211619407,A,2233.6893000174314,Correct
12,13,75,B,65.18149945824817,51.697364846749096,3.259074972912408,0.8120603080624907,B,926.8100000335835,Correct
12,13,76,B,58.38825926086227,36.51205924168664,2.919412963043113,0.5735300854055904,B,845.5595000414178,Correct
12,13,77,A,45.98082963230011,56.12746849020151,2.299041481615005,0.8816482133670482,A,838.9144000248052,Correct
12,13,78,A,35.119372582401866,44.90212219394013,1.7559686291200933,0.7053208860753676,A,930.8171999873593,Correct
12,13,79,B,60.38782726211305,51.96384362517693,3.0193913631056524,0.8162461469257232,B,817.3307999968529,Correct
12,13,80,B,63.87188281348471,34.46081462041286,3.1935941406742354,0.541309210241044,B,806.5977999940515,Correct
12,13,81,A,64.70302724812917,76.72779476229744,3.2351513624064587,1.205237381756895,A,1051.5158000052907,Correct
12,13,82,A,27.469873098352444,37.29614413773824,1.3734936549176222,0.5858464621517224,A,1133.699500001967,Correct
12,13,83,A,47.3932392045414,79.09533746211079,2.36966196022707,1.242426655520864,A,549.6196000021882,Correct
12,13,84,B,67.51215379931983,57.33430533854963,3.3756076899659915,0.9006051622513079,B,898.3154000015929,Correct
12,13,85,B,41.01576410332103,17.096037994427913,2.0507882051660515,0.2685439368439336,B,898.3499999740161,Correct
12,13,86,B,64.85578318437594,34.207825512409464,3.2427891592187965,0.5373352666253354,B,818.6698000063188,Correct
12,13,87,A,47.08012407461512,68.20487966654659,2.3540062037307563,1.0713597444969931,A,748.0465999688022,Correct
12,13,88,B,70.32974855744276,39.420389381963375,3.516487427872138,0.6192140284201261,B,861.0646999441087,Correct
12,13,89,B,33.54187318008893,10.25366185791771,1.6770936590044465,0.1610641438261407,B,880.3548999712802,Correct
12,13,90,A,58.871570952622506,84.0126526510452,2.9435785476311254,1.3196676618855732,A,764.7734000347555,Correct
12,13,91,A,61.54531546082477,84.89243384448069,3.0772657730412387,1.3334872325558902,A,515.2967000030912,Correct
12,13,92,A,38.77728604142131,53.43369159447154,1.9388643020710656,0.8393344648368724,A,502.41660000756383,Correct
12,13,93,B,40.53791276421505,27.219462328494522,2.0268956382107524,0.4275623144293126,B,991.8934999732301,Correct
12,13,94,B,63.94407046549418,30.757687236330295,3.197203523274709,0.48314062131533897,B,794.1771000041626,Correct
12,13,95,B,65.83569449288603,45.462583360187814,3.2917847246443017,0.714124589487898,B,1241.0124000161886,Correct
12,13,96,B,67.26956938921268,46.98443314406345,3.3634784694606337,0.7380297499923527,B,1115.5063000041991,Correct
12,13,97,B,56.67593800446783,31.26838942002332,2.833796900223392,0.4911627124576503,B,570.3678999561816,Correct
12,13,98,B,78.01541972513917,56.729326398366396,3.9007709862569584,0.891102175281027,B,765.8980999840423,Correct
12,13,99,A,38.808378649733,53.10239262406467,1.94041893248665,0.8341304327790119,B,1466.4990999735892,Incorrect
12,13,100,A,34.53701229632118,55.19932211799766,1.726850614816059,0.8670689242451901,A,926.6066999989562,Correct
12,13,101,B,73.17271698418071,46.360899673838716,3.658635849209036,0.7282353091457257,B,465.2598000247963,Correct
12,13,102,A,24.740028215746527,40.25150912576792,1.2370014107873262,0.6322692268270751,A,533.1295999931172,Correct
12,13,103,A,42.28241194058765,63.77026227545665,2.1141205970293826,1.0017009374103447,A,862.5485999509692,Correct
12,13,104,A,63.07095603151605,87.53072414017316,3.1535478015758027,1.3749293996108138,A,765.0072000105865,Correct
12,13,105,A,28.489271759334287,54.348768062228984,1.4244635879667142,0.8537084523797707,A,471.227900008671,Correct
12,13,106,B,46.563058411965244,35.59839601604428,2.3281529205982623,0.5591782970179243,B,2003.3000000403263,Correct
12,13,107,A,59.92586039964986,73.66996862595705,2.9962930199824935,1.157205161127486,A,920.4597999923863,Correct
12,13,108,A,50.366462781870865,58.33801926314353,2.5183231390935434,0.9163714637103578,A,631.6248999792151,Correct
12,13,109,A,34.36435004945845,62.764537668625294,1.7182175024729225,0.9859030522285653,A,652.2310999571346,Correct
12,13,110,A,50.92302739533206,61.011424586744475,2.546151369766603,0.9583652163338207,B,571.0446999873966,Incorrect
12,13,111,A,46.028140000191144,64.69806476094186,2.301407000009557,1.016274824772258,A,455.9525999939069,Correct
12,13,112,A,46.250282316938346,68.36923164952225,2.3125141158469176,1.0739413794085892,A,490.28670002007857,Correct
12,13,113,B,48.4659519319441,18.385899648014117,2.423297596597205,0.28880503631920157,B,549.7631000471301,Correct
12,13,114,B,59.96317198228025,39.23399752620051,2.9981585991140127,0.6162861919963583,B,454.49790003476664,Correct
12,13,115,B,43.476448105163485,19.089602573436014,2.173822405258174,0.299858776023277,B,465.20909998798743,Correct
12,13,116,A,33.92942857753293,56.855613837284004,1.6964714288766465,0.8930858937327479,A,755.9880999615416,Correct
12,13,117,B,84.63712189005234,56.3198557688448,4.231856094502617,0.8846702256731978,B,436.48770003346726,Correct
12,13,118,A,51.906701149898396,70.67402509913336,2.5953350574949194,1.11014499025529,A,1034.3272000318393,Correct
12,13,119,B,64.29591136354027,32.063211969087334,3.2147955681770135,0.5036477558628855,B,441.75599998561665,Correct
12,13,120,A,32.413810381978294,42.60355847497358,1.6206905190989147,0.6692151316088009,A,617.1403999906033,Correct
12,13,121,A,19.832265287899272,37.36489971955382,0.9916132643949637,0.5869264723053479,A,498.8489000243135,Correct
12,13,122,B,58.659671055209294,40.560930145176464,2.932983552760465,0.6371296008342757,B,467.6249999902211,Correct
12,13,123,A,53.738546960291266,83.89707532277652,2.6869273480145632,1.3178521774585212,A,477.60369995376095,Correct
12,13,124,B,65.87933782204385,38.34349368377779,3.2939668911021927,0.6022981903496146,B,1049.3295000051148,Correct
12,13,125,B,74.13238826420965,53.541177407803964,3.706619413210483,0.8410228480445237,B,451.9070000387728,Correct
12,13,126,B,74.86979714444176,56.23225458114609,3.743489857222088,0.8832941894345977,B,875.5710999830626,Correct
12,13,127,A,14.608927509342308,40.707989930122544,0.7304463754671154,0.6394396105344013,A,1744.3520999513566,Correct
12,13,128,A,49.47486302843924,76.2596427856896,2.473743151421962,1.1978836677045217,A,542.1385000227019,Correct
12,13,129,B,51.014071676361624,30.061746997466173,2.5507035838180814,0.4722088176065737,B,488.79370000213385,Correct
12,13,130,A,35.34232655584647,56.79217065462387,1.7671163277923234,0.8920893305499208,A,578.694399970118,Correct
12,13,131,A,31.7873398479261,59.583057331438575,1.5893669923963047,0.9359284759543344,A,554.2914999532513,Correct
12,13,132,A,63.31529636272677,75.83057790313276,3.1657648181363385,1.191143932289752,B,1149.2557000019588,Incorrect
12,13,133,B,78.70254447929429,61.3996851743416,3.9351272239647144,0.9644639993821886,B,609.1486000223085,Correct
12,13,134,A,17.678246426088755,45.676343830319986,0.8839123213044376,0.7174823311008737,A,467.73710002889857,Correct
12,13,135,A,44.2369691379288,65.87405680946327,2.21184845689644,1.0347472646738325,A,779.2412000126205,Correct
12,13,136,B,32.97576404453706,17.80708380550995,1.648788202226853,0.27971301832623924,B,505.02120004966855,Correct
12,13,137,B,34.71097056249153,11.690835588634926,1.7355485281245766,0.18363921599790792,B,435.4737999965437,Correct
12,13,138,A,25.966250305070737,45.819351972723204,1.2983125152535369,0.719728697748761,A,570.4010999761522,Correct
12,13,139,A,42.63056114494224,65.15771878547226,2.1315280572471123,1.0234950533055465,A,634.451599966269,Correct
12,13,140,B,78.37644586584663,62.296034703102535,3.9188222932923313,0.9785438248552086,B,463.7012999737635,Correct
12,13,141,A,47.17880639426294,72.99668451898684,2.358940319713147,1.1466292391063042,A,549.1611000034027,Correct
12,13,142,A,23.95743796230845,42.79822418421185,1.1978718981154224,0.6722729334190448,A,411.88620001776144,Correct
12,13,143,A,42.715983983735484,66.64247882539689,2.135799199186774,1.0468176094744013,A,470.0093999854289,Correct
12,13,144,A,46.0882378575959,54.048591466132116,2.304411892879795,0.8489932894343831,A,654.6049999888055,Correct
12,13,145,A,42.78476589908222,51.585184905834055,2.139238294954111,0.8102981896711968,A,681.2944999546744,Correct
12,13,146,A,15.883708470946864,32.129889371005916,0.7941854235473431,0.5046951220430249,A,548.1246000272222,Correct
12,13,147,B,85.40328561149414,65.14329188520082,4.270164280574707,1.0232684360860125,B,598.9879000117071,Correct
12,13,148,A,39.1482214949969,46.16214330728714,1.9574110747498452,0.7251132514406626,A,599.9360999558121,Correct
12,13,149,A,45.621253315299526,70.68801193444992,2.2810626657649764,1.1103646949506774,B,1302.3835999774747,Incorrect
12,13,150,B,45.37444145064594,34.10349209845104,2.268722072532297,0.5356964011912568,B,600.167800032068,Correct
12,13,151,B,43.99476529042683,23.257538600484015,2.1997382645213412,0.3653285620393081,B,447.20150000648573,Correct
12,13,152,A,34.42259124262462,57.87249567005489,1.7211295621312308,0.9090590362097577,A,565.2059999993071,Correct
12,13,153,B,76.51486325637852,50.929525769856,3.825743162818926,0.7999991200469583,B,564.1287999460474,Correct
12,13,154,A,37.3925757564576,46.282745517301095,1.8696287878228801,0.7270076665255952,B,570.022500003688,Incorrect
12,13,155,A,31.672756176400956,40.389224994968906,1.5836378088200478,0.6344324626418978,A,614.2032000352629,Correct
12,13,156,B,44.82998824219561,30.546096552257367,2.2414994121097807,0.47981696262208123,B,1540.3984999866225,Correct
12,13,157,B,40.61315178360162,15.435812422555227,2.030657589180081,0.24246517454444785,B,586.6050000186078,Correct
12,13,158,B,59.701546139950075,48.31563258010781,2.985077306997504,0.7589401818360517,B,454.6371000469662,Correct
12,13,159,B,79.28267181390055,52.50491879781946,3.9641335906950275,0.8247453358627911,B,502.5861999602057,Correct
12,13,160,A,28.83585526207179,41.72987767186132,1.4417927631035894,0.6554913856456014,A,496.9416999956593,Correct
12,13,161,A,36.699649392230874,44.376155700598574,1.8349824696115435,0.6970590237177865,A,461.5922999801114,Correct
12,13,162,B,42.84506695392912,29.41203225980388,2.142253347696456,0.4620031223727294,B,609.1037000296637,Correct
12,13,163,A,47.83611034154117,79.65779467437349,2.3918055170770587,1.2512617127508794,A,620.8424000069499,Correct
12,13,164,B,69.78626011437008,38.40543740034269,3.489313005718504,0.6032711999740964,B,894.2326999967918,Correct
12,13,165,A,30.169362651779835,53.747841346506725,1.5084681325889917,0.8442691176024764,A,1421.2229999830015,Correct
12,13,166,B,55.07287126015679,30.047660800954667,2.7536435630078393,0.47198755214918586,B,1320.462400035467,Correct
12,13,167,B,83.60755384648263,58.01934671926061,4.180377692324131,0.9113657670965409,B,1288.6822000145912,Correct
12,13,168,A,27.266129695901782,50.40531040753715,1.363306484795089,0.7917647643911592,A,1541.9621000182815,Correct
12,13,169,B,49.0942133743867,35.699771401806274,2.454710668719335,0.5607706978537479,B,3143.5098000220023,Correct
12,13,170,B,65.62537669442226,34.77490038690507,3.2812688347211125,0.5462428579240891,B,917.2380000236444,Correct
12,13,171,B,54.23062191384433,33.90149448997192,2.7115310956922167,0.5325234301770531,B,892.5316000240855,Correct
12,13,172,B,31.618048206647245,17.395436212925183,1.5809024103323623,0.273246873062578,B,761.0634000157006,Correct
12,13,173,A,50.22815640917218,73.74862256172077,2.511407820458609,1.1584406542613421,A,527.327999996487,Correct
12,13,174,B,80.36762271808165,57.37401886517368,4.018381135904082,0.9012289808687591,B,1981.4588999724947,Correct
12,13,175,B,42.745935852640834,18.065139605609538,2.1372967926320414,0.2837665493552847,B,940.4940999811515,Correct
12,13,176,B,58.22975704772395,30.940319830121844,2.911487852386198,0.4860094073901469,B,989.7556000505574,Correct
12,13,177,B,45.91010687612871,31.283970415517167,2.2955053438064352,0.49140745816254583,B,748.3091999893077,Correct
12,13,178,B,66.06958699304009,40.0091936347203,3.3034793496520045,0.628462943994444,B,767.6338999881409,Correct
12,13,179,A,27.261710782586587,41.00723562798386,1.3630855391293293,0.6441401509644986,A,548.6337000038475,Correct
12,13,180,A,27.335583631028953,56.73862635561726,1.3667791815514476,0.891248258667917,A,498.84899996686727,Correct
12,13,181,A,59.33046953671938,80.00878321184697,2.9665234768359685,1.256775027804984,A,626.4571000356227,Correct
12,13,182,B,68.70184693255382,45.19720534216455,3.4350923466276915,0.7099560413286675,B,1190.5637999880128,Correct
12,13,183,B,42.56299464238033,21.451838734897745,2.1281497321190166,0.3369646948777386,B,835.9413000289351,Correct
12,13,184,A,18.979998910857713,37.471133151381466,0.9489999455428857,0.5885951831503249,A,1739.9146999814548,Correct
12,13,185,B,69.16394491264826,43.73909880594562,3.4581972456324133,0.6870521574169843,B,928.8235999993049,Correct
12,13,186,B,51.36685082390362,25.96647808037163,2.568342541195181,0.40788048388447945,B,578.0109000043012,Correct
12,13,187,B,65.66270101790963,38.64150677313327,3.2831350508954813,0.6069793690105786,B,495.5813999986276,Correct
12,13,188,B,54.53249103448778,24.17704722847125,2.7266245517243886,0.37977216979229367,B,409.9090000381693,Correct
12,13,189,A,65.81971160444948,89.60191081731872,3.290985580222474,1.4074635238564817,A,521.1777000222355,Correct
12,13,190,B,75.4898012591597,52.775680707429345,3.7744900629579856,0.8289984539933031,B,515.3464999748394,Correct
12,13,191,A,47.80535297031054,76.03038582664362,2.3902676485155268,1.1942825078129056,A,567.3814000329003,Correct
12,13,192,B,59.49349274871024,31.676843068035076,2.974674637435512,0.49757868735727884,B,1037.6561000011861,Correct
12,13,193,A,69.71579605195456,86.01973396671559,3.485789802597728,1.3511948214679104,A,1214.7574999835342,Correct
12,13,194,B,52.72417109801599,38.98194231194615,2.636208554900799,0.6123269179493557,B,1219.2513000336476,Correct
12,13,195,B,43.993585755996406,32.331182953717196,2.19967928779982,0.5078570342463274,B,2358.1567999790423,Correct
12,13,196,A,28.254098478153445,49.436687402453266,1.4127049239076723,0.7765496698068113,A,782.4188999948092,Correct
12,13,197,A,34.43694192006083,43.625906015293424,1.7218470960030416,0.6852741292192229,A,1113.6520000291057,Correct
12,13,198,A,65.1536347199061,88.76743799536996,3.257681735995305,1.3943556554212087,A,707.4080999591388,Correct
12,13,199,A,18.318227905464767,48.12196546662282,0.9159113952732383,0.7558980659312198,A,843.5670000035316,Correct
12,13,200,B,76.2509116077529,61.02733987129848,3.8125455803876447,0.9586152130389939,B,1145.946400007233,Correct
12,13,201,B,88.55792930965887,64.1909436062106,4.427896465482944,1.0083089843013395,B,953.5787000204436,Correct
12,13,202,A,64.40249775919337,88.49009967952313,3.2201248879596682,1.3899992353430917,A,596.3202000129968,Correct
12,13,203,B,39.26814992807629,12.794032242551673,1.9634074964038146,0.2009681885149564,B,670.0833999784663,Correct
12,13,204,A,20.464391495725017,46.40301329512528,1.0232195747862507,0.7288968283619753,A,469.04759999597445,Correct
12,13,205,B,52.898722879030906,35.244603454413635,2.6449361439515453,0.5536209364553566,B,494.4639999885112,Correct
12,13,206,A,23.926807047890122,53.80229550485426,1.1963403523945062,0.8451244815215863,A,549.7433000127785,Correct
12,13,207,B,69.69666938789749,56.69575947695678,3.484833469394874,0.8905749073125065,B,459.087900002487,Correct
12,13,208,B,59.8894398773955,45.90252783807427,2.994471993869775,0.7210352211864756,B,486.6749999928288,Correct
12,13,209,B,43.3334926759528,23.28171614673909,2.16667463379764,0.3657083420477919,B,493.88640001416206,Correct
12,13,210,B,45.309563221922616,17.515250427755202,2.265478161096131,0.2751289103481061,B,524.3969000293873,Correct
12,13,211,B,40.54191197135739,15.506372624228991,2.0270955985678696,0.24357353160051837,B,459.4916999922134,Correct
12,13,212,B,59.666280653269084,37.51008782945355,2.983314032663454,0.589207081802596,B,499.87289996352047,Correct
12,13,213,B,56.96263003142119,27.383360946595403,2.8481315015710593,0.43013682790210883,B,456.1432000482455,Correct
12,13,214,A,25.843620348030207,57.18240476929233,1.2921810174015105,0.8982191136890337,A,445.6560999969952,Correct
12,13,215,B,77.8441296497987,64.47470975633524,3.892206482489935,1.0127663725641847,B,515.7925999956205,Correct
12,13,216,A,33.504235338704135,49.81384496891797,1.6752117669352067,0.7824740470070678,A,566.9585000141524,Correct
12,13,217,A,60.45262365542468,81.94608286629699,3.0226311827712338,1.287206059616095,A,652.9612999875098,Correct
12,13,218,B,48.11329004728385,36.6144169157959,2.4056645023641923,0.5751379159906912,B,467.7280999603681,Correct
12,13,219,B,85.77623033997436,58.052059830896,4.2888115169987175,0.91187962345249,B,745.4678000067361,Correct
12,13,220,A,14.484778984345233,32.559546585256015,0.7242389492172617,0.5114441617822747,A,515.3716999921016,Correct
12,13,221,B,56.26759482861617,35.75890447597252,2.813379741430808,0.5616995580106722,B,1220.4658000264317,Correct
12,13,222,A,30.706548835623465,61.61954504155675,1.5353274417811733,0.9679175501005002,A,869.9044999666512,Correct
12,13,223,B,80.62204607259629,52.11065158815499,4.031102303629814,0.818552201015625,B,860.3732000337914,Correct
12,13,224,B,52.824210197695265,25.783052897515844,2.6412105098847634,0.40499924784976404,B,1950.1727999886498,Correct
12,13,225,A,19.36005053794427,33.84500904469509,0.9680025268972137,0.5316361588774708,A,896.4052000083029,Correct
12,13,226,A,57.476808233002636,78.51497563382495,2.8738404116501317,1.2333103532400302,A,756.8098000483587,Correct
12,13,227,B,48.54772598289309,23.6835128633684,2.4273862991446546,0.37201975011378763,B,904.5022999634966,Correct
12,13,228,B,80.7084962197685,58.511722008860914,4.035424810988426,0.9190999800596283,B,1099.5304999523796,Correct
12,13,229,A,57.33145224916764,72.26901221942296,2.866572612458382,1.1351989893536507,A,922.1579000004567,Correct
12,13,230,B,78.08978038503916,54.98244293056621,3.904489019251958,0.8636621939354343,B,1034.2437999788672,Correct
12,13,231,B,74.92984621623192,64.56693748447697,3.746492310811596,1.0142150823301215,B,1112.7708000130951,Correct
12,13,232,B,51.774691421589885,20.92083125461407,2.5887345710794945,0.32862364888243645,B,1005.1891999901272,Correct
12,13,233,B,60.8776869261246,29.910301906753425,3.04388434630623,0.4698299236845467,B,984.8647999460809,Correct
12,13,234,B,34.99904403380666,18.42841689341769,1.749952201690333,0.2894728956482553,B,803.370600042399,Correct
12,13,235,A,18.438677268915832,33.91107408427464,0.9219338634457915,0.5326739060924821,A,697.4051999859512,Correct
12,13,236,B,79.28713430691377,51.03624829864626,3.964356715345689,0.8016755136090582,B,737.905599991791,Correct
12,13,237,B,60.6524786301917,30.388107157729465,3.032623931509585,0.47733527101611145,B,773.2956999680027,Correct
12,13,238,A,43.91695734067062,59.40400746158316,2.195847867033531,0.9331159671755145,A,1430.3828999982215,Correct
12,13,239,A,30.568100213937043,55.876412903963626,1.528405010696852,0.8777046414402103,A,701.6758000245318,Correct
12,13,240,B,63.53884243719381,55.16433397081866,3.1769421218596903,0.8665193317144889,B,725.2589999698102,Correct
12,13,241,A,40.90805765747085,58.236808322116865,2.0454028828735424,0.9147816459663963,A,923.7492000102066,Correct
12,13,242,B,48.190998117397314,28.620281648824935,2.409549905869866,0.44956633285809594,B,868.2399999815971,Correct
12,13,243,B,55.01936538661139,40.786685935581,2.7509682693305693,0.640675764497477,B,814.7086999961175,Correct
12,13,244,A,62.009536069913715,74.95245496496686,3.1004768034956856,1.1773504094322984,A,1033.033500018064,Correct
12,13,245,B,36.989448197999764,16.832518732237585,1.8494724098999882,0.2644045859530509,B,2939.563399995677,Correct
12,13,246,A,27.629551764845083,53.913418009797994,1.381477588242254,0.8468699897474852,A,2193.6887999763712,Correct
12,13,247,B,30.90279477070057,13.182184279305826,1.5451397385350285,0.20706526645067025,B,1855.0782999955118,Correct
12,13,248,A,29.221395066431235,40.83639634854272,1.4610697533215617,0.6414566138383143,B,6345.460699987598,Incorrect
12,13,249,B,68.52303556201441,58.408283990791425,3.4261517781007207,0.9174751794712831,B,1894.476899993606,Correct
12,13,250,A,41.533883618839184,67.07571397926058,2.076694180941959,1.0536228513576762,A,2417.0107000391,Correct
12,13,251,A,58.25303391908915,72.84735383474415,2.9126516959544575,1.1442835582034425,A,1372.2770999884233,Correct
12,13,252,A,47.36531361088539,66.33870383592708,2.3682656805442694,1.0420459230980876,A,1478.1869999715127,Correct
12,13,253,A,52.59900729883805,78.6681311206587,2.629950364941903,1.2357161140014998,A,2000.793999992311,Correct
12,13,254,B,40.235889211277275,22.266597205688562,2.011794460563864,0.34976289100917096,B,1131.9463000399992,Correct
12,13,255,B,65.93809893262748,48.108892633420965,3.2969049466313742,0.7556927183474771,B,2077.2701000096276,Correct
12,13,256,A,28.447087679997487,38.81799641723697,1.4223543839998742,0.6097516618573329,A,3479.172000021208,Correct
12,13,257,B,52.127841990339796,27.34799963682149,2.60639209951699,0.4295813737470736,B,1447.5336000323296,Correct
12,13,258,A,21.566148076233734,39.56521577684467,1.0783074038116867,0.621488956111151,A,1742.4628000007942,Correct
12,13,259,B,51.48234092675856,42.521491740183244,2.574117046337928,0.6679260303531938,B,2899.727099982556,Correct
12,13,260,B,42.80885102482255,18.26539195938038,2.1404425512411276,0.2869121059726374,B,2436.95740000112,Correct
12,13,261,A,58.59451066646918,67.31799972896572,2.929725533323459,1.0574286670143918,A,1313.2110000005923,Correct
12,13,262,A,31.164131805426788,44.310585542179574,1.5582065902713393,0.6960290500778673,A,2169.3581999861635,Correct
12,13,263,A,18.465394724295958,34.84934013435411,0.9232697362147979,0.547412154742694,A,1079.348500003107,Correct
12,13,264,B,47.307986988050445,39.349449387682704,2.3653993494025225,0.6180997055957368,B,3489.0092000132427,Correct
12,13,265,A,28.16405953409261,38.23905016548986,1.4082029767046305,0.6006575954007726,A,2583.431799954269,Correct
12,13,266,A,20.826893579199105,36.56252018722097,1.0413446789599552,0.5743227240845096,A,4233.766300021671,Correct
12,13,267,B,76.0243899102389,56.270366953491134,3.8012194955119445,0.8838928571794481,B,1522.7979000192136,Correct
12,13,268,A,41.61343370037071,61.16392952701251,2.0806716850185354,0.9607607583337318,A,1687.4438999802805,Correct
12,13,269,A,62.442910286447926,75.01691680739975,3.1221455143223964,1.1783629736854189,A,3576.593400037382,Correct
12,13,270,A,29.61105754630875,59.91657391824467,1.4805528773154375,0.9411673422491363,A,2456.1580999870785,Correct
12,13,271,B,62.90463603015573,33.93828675296538,3.1452318015077867,0.5331013616926992,B,1581.4154999679886,Correct
12,13,272,B,35.03110006733826,11.782070209136336,1.751555003366913,0.18507232606550936,B,1177.150800009258,Correct
12,13,273,B,79.93031359439742,62.40284541727207,3.996515679719871,0.9802216036300071,B,1377.9291999526322,Correct
12,13,274,A,56.653807743864334,81.0337614361014,2.8326903871932165,1.2728753481020203,A,3329.800700012129,Correct
12,13,275,A,33.084248931847135,48.191865870997674,1.6542124465923567,0.7569960589155549,A,1169.3113999790512,Correct
12,13,276,B,45.37880443181417,28.681927020250818,2.268940221590708,0.4505346560880928,B,1281.2634000438266,Correct
12,13,277,B,78.85703753485512,51.70642777703741,3.9428518767427563,0.8122026682385598,B,3158.5663000005297,Correct
12,13,278,A,49.05591386968206,56.69257577205745,2.452795693484103,0.890524897792892,A,1649.6973999892361,Correct
12,13,279,A,62.2550557233165,81.33714141376649,3.1127527861658253,1.2776408296474144,A,1383.7087999563664,Correct
12,13,280,A,34.133811493645354,42.415749150605876,1.7066905746822676,0.6662650296402546,A,2358.4050000063144,Correct
12,13,281,B,66.06493204804282,38.000131196533424,3.3032466024021407,0.5969046650123886,B,1334.3005999922752,Correct
12,13,282,A,40.29691217363735,59.07948597534816,2.0148456086818674,0.928018395590075,A,1597.1637000329792,Correct
12,13,283,A,47.004377937793834,75.94921803618203,2.3502188968896918,1.1930075271417944,A,1056.2637000111863,Correct
12,13,284,A,52.95297733674305,77.64672427979444,2.6476488668371525,1.2196718928635721,A,1457.4859999702312,Correct
12,13,285,B,54.22869100803393,38.00480541195972,2.7114345504016963,0.5969780874166114,B,2608.2017000298947,Correct
12,13,286,B,86.89542658303763,69.1052781275214,4.3447713291518815,1.0855031704485034,B,857.7973000355996,Correct
12,13,287,A,32.58489141941457,53.31575365047965,1.6292445709707284,0.8374818999447503,A,992.5244000041857,Correct
12,13,288,B,33.061203076917074,21.254257986038006,1.6530601538458538,0.33386110373219596,B,1415.670099959243,Correct
12,13,289,A,30.95630081684599,56.318304115551264,1.5478150408422993,0.8846458523602583,A,1906.4815000165254,Correct
12,13,290,A,42.56492065601965,67.65741528405026,2.1282460328009822,1.0627601940862303,A,1316.9436000171117,Correct
12,13,291,B,78.87675093778802,62.16908807461773,3.9438375468894007,0.9765497518779794,B,1460.6217999826185,Correct
12,13,292,A,11.413122076870575,31.504274902173204,0.5706561038435288,0.49486799294670325,A,963.1223999895155,Correct
12,13,293,A,27.116608717258266,51.94432070863435,1.3558304358629132,0.8159394816697891,A,3243.379400053527,Correct
12,13,294,B,46.30788133476013,26.826383626938387,2.3153940667380066,0.4213878486238557,B,1289.4041999825276,Correct
12,13,295,A,36.780170968055316,51.8614880733291,1.8390085484027656,0.814638349677027,A,1928.1654999940656,Correct
12,13,296,A,35.28546549800285,50.28944381774098,1.7642732749001424,0.7899447362546587,A,991.8359000002965,Correct
12,13,297,B,83.74837278533535,65.34856915016067,4.187418639266768,1.0264929238237468,B,1017.3771999543533,Correct
12,13,298,B,53.47412663266572,43.266089048198296,2.673706331633286,0.6796221375169078,B,1038.0317999515682,Correct
12,13,299,A,55.510481258114226,64.27708537013288,2.775524062905711,1.0096620959648672,A,1524.1088999900967,Correct
