subject,day,trial,cat,x,y,xt,yt,resp,rt,fb
16,3,0,B,51.405533042278314,38.08383355433028,2.570276652113916,0.5982194585741024,B,2793.4572500016657,Correct
16,3,1,A,29.778397270172153,42.165313842054374,1.4889198635086078,0.6623312010125301,B,2879.7599589961465,Incorrect
16,3,2,A,51.7648776898822,61.965181176460796,2.5882438844941102,0.9733467898116489,B,903.174624996609,Incorrect
16,3,3,A,22.88245581317863,52.30308914412613,1.1441227906589315,0.8215750030761936,A,634.6177089944831,Correct
16,3,4,B,46.87166609713243,34.83241574446674,2.343583304856622,0.5471463070480108,A,921.8337089987472,Incorrect
16,3,5,A,52.797887279014894,67.7308771137979,2.6398943639507446,1.0639141298095027,B,604.6441669968772,Incorrect
16,3,6,B,62.94618210368207,38.95208613877584,3.147309105184103,0.6118579382778749,B,1218.2749589992454,Correct
16,3,7,A,49.39101493508281,66.96169415501521,2.46955074675414,1.0518318321466118,A,866.0651250029332,Correct
16,3,8,A,67.41313198483539,89.09722613581641,3.3706565992417694,1.3995359554175468,A,1418.5543749990757,Correct
16,3,9,A,26.673166663855238,40.65535112125444,1.3336583331927618,0.6386127620582326,A,642.0380829949863,Correct
16,3,10,B,32.542444644789015,17.696865759883643,1.6271222322394507,0.27798171731407606,B,1731.6629580018343,Correct
16,3,11,A,24.41203494789481,51.87391218773748,1.2206017473947406,0.8148335072097906,A,586.042290997284,Correct
16,3,12,B,79.27602104287368,56.45498212618061,3.963801052143684,0.8867927855307605,B,764.7131660050945,Correct
16,3,13,B,35.43179054548131,19.46975874728802,1.7715895272740656,0.30583025523822827,A,2600.265875000332,Incorrect
16,3,14,B,70.30637907449378,41.378442583493396,3.5153189537246887,0.6499710561864496,A,1012.0472499984317,Incorrect
16,3,15,B,52.12962235730396,34.8286895416087,2.606481117865198,0.5470877759903878,B,1420.6532499956666,Correct
16,3,16,B,62.76763710458786,51.8174783836313,3.138381855229393,0.81394704708782,B,1137.1388749976177,Correct
16,3,17,B,61.283104885754945,40.50665506656123,3.0641552442877473,0.6362770498930226,B,919.0602919989033,Correct
16,3,18,B,79.13967619498564,66.09160197339469,3.9569838097492824,1.0381644561179872,B,1391.7664160035201,Correct
16,3,19,A,33.632113549436234,50.73059248145283,1.6816056774718118,0.796874283259949,A,903.5892090032576,Correct
16,3,20,A,47.672076175459694,61.48962613880605,2.3836038087729845,0.9658767887482801,A,901.1937499963096,Correct
16,3,21,B,48.6281181732109,35.6582152358471,2.4314059086605453,0.5601179351253045,A,248.05524999828776,Incorrect
16,3,22,A,52.73998166124287,66.78082388424339,2.6369990830621437,1.048990728577064,B,2429.0809590020217,Incorrect
16,3,23,B,35.36429716668488,24.94188329074243,1.7682148583342439,0.3917861865644522,B,2059.475832997123,Correct
16,3,24,A,57.597563479407505,73.52814882867156,2.879878173970375,1.1549774609610577,A,2183.357541995065,Correct
16,3,25,B,53.42973656588519,41.596985365842016,2.6714868282942597,0.6534039181840571,B,1457.490124994365,Correct
16,3,26,B,54.789268742437564,30.823565115334233,2.739463437121878,0.4841754286189033,B,1156.3127909976174,Correct
16,3,27,B,36.16563389216781,11.370505168263325,1.8082816946083906,0.1786074775211042,A,1569.6898340029293,Incorrect
16,3,28,A,57.84915904180607,85.79781158989469,2.8924579520903033,1.3477088729244717,B,2067.081250002957,Incorrect
16,3,29,A,28.20534142956518,59.341031513378496,1.410267071478259,0.9321267432943514,A,3289.252791997569,Correct
16,3,30,B,47.97301161976746,25.246338996955135,2.3986505809883734,0.3965685656143588,B,807.1029999991879,Correct
16,3,31,B,49.09905224820831,36.89293362568493,2.4549526124104153,0.5795128462391382,B,2360.4254590027267,Correct
16,3,32,B,62.80771897914736,42.268427393812644,3.140385948957368,0.6639509048959769,B,911.8718340032501,Correct
16,3,33,B,38.81736479467237,24.943373438672907,1.9408682397336185,0.39180959375340785,B,1108.0410840004333,Correct
16,3,34,A,42.51308271111076,68.80373449157373,2.1256541355555383,1.0807665340913535,A,861.9897089956794,Correct
16,3,35,B,61.19448178334453,51.96784733422377,3.0597240891672266,0.8163090370403667,B,3522.183583001606,Correct
16,3,36,B,54.55471501160774,25.551754554967985,2.727735750580387,0.4013660219810848,B,1266.1867499991786,Correct
16,3,37,A,19.87788908658965,39.5221314704583,0.9938944543294825,0.6208121894090087,A,2353.9303750003455,Correct
16,3,38,A,50.210599573058765,63.957377728858454,2.5105299786529383,1.0046401400792457,B,1302.309917002276,Incorrect
16,3,39,B,46.2712550309805,38.20338251531552,2.313562751549025,0.6000973292619799,B,1073.9357919956092,Correct
16,3,40,B,53.55521823825684,23.55012380368987,2.677760911912842,0.3699244796640111,B,860.6182920048013,Correct
16,3,41,A,32.262070678456716,51.91451343715293,1.613103533922836,0.8154712701442413,A,784.01458299777,Correct
16,3,42,B,41.8243959091694,13.542724515584048,2.09121979545847,0.21272861923874617,B,1076.085000000603,Correct
16,3,43,B,61.93411080400918,49.34834244790263,3.0967055402004586,0.7751619505058214,A,816.4930829952937,Incorrect
16,3,44,B,63.56271160340436,46.62854025329515,3.1781355801702182,0.73243939753684,B,524.5149170004879,Correct
16,3,45,B,51.8309366786146,25.313745922851616,2.59154683393073,0.39762739113034606,B,2778.250666000531,Correct
16,3,46,B,60.17920617597169,34.3297600268636,3.0089603087985846,0.5392506094994761,B,1574.4957079950836,Correct
16,3,47,B,84.00390152744646,66.07320195262972,4.2001950763723235,1.0378754292676815,B,663.2338340059505,Correct
16,3,48,B,73.23448231141556,61.96261750840695,3.661724115570778,0.9733065198080278,B,883.7812080018921,Correct
16,3,49,A,55.91657627604637,81.71681813489995,2.7958288138023186,1.2836047776366744,A,769.1729580037645,Correct
16,3,50,A,47.44537345945754,67.28445098453187,2.372268672972877,1.0569016845691392,A,538.3958340025856,Correct
16,3,51,A,35.3059900910197,56.5959615806148,1.7652995045509852,0.889007285622548,A,680.7849580000038,Correct
16,3,52,B,69.07818602534145,50.857321595076044,3.4539093012670725,0.7988649395217221,A,1050.751416994899,Incorrect
16,3,53,B,65.31164296881663,51.22946121457095,3.2655821484408314,0.8047104949952966,B,560.355374997016,Correct
16,3,54,B,64.82190127764942,41.873848679917415,3.241095063882471,0.6577528769517961,B,625.9615829985705,Correct
16,3,55,A,55.65237727451138,78.0107735401736,2.7826188637255687,1.2253903652733318,A,1189.7844579943921,Correct
16,3,56,B,69.97426812666038,61.05620825310932,3.4987134063330187,0.9590686765200835,B,1475.760082998022,Correct
16,3,57,A,33.115651053753126,53.2921560442596,1.6557825526876564,0.8371112296130343,A,1526.8179580016294,Correct
16,3,58,A,44.05097255462379,51.055974060855654,2.2025486277311894,0.8019853651572758,A,713.7470829984522,Correct
16,3,59,A,27.904250018965136,42.821485304861675,1.395212500948257,0.6726383182477836,A,766.4673749968642,Correct
16,3,60,A,32.78224657031528,43.752702728788464,1.639112328515764,0.6872658473372996,A,573.7488750019111,Correct
16,3,61,A,61.072096291853796,74.46778370080375,3.0536048145926897,1.169737211017794,B,1164.3968330026837,Incorrect
16,3,62,B,67.63316907987291,38.519628067730316,3.3816584539936456,0.6050649027829638,B,1946.5871670035995,Correct
16,3,63,B,35.686404683509835,20.640711571228536,1.7843202341754918,0.32422353918518704,B,1057.231833001424,Correct
16,3,64,A,40.08592562899544,50.26569825609808,2.004296281449772,0.789571741844595,B,852.3528750010883,Incorrect
16,3,65,A,39.288531392055155,64.3225251168075,1.9644265696027576,1.010375861836537,A,779.2627090020687,Correct
16,3,66,B,62.384091956535194,49.36537447582536,3.1192045978267595,0.7754294889748101,B,945.8282919949852,Correct
16,3,67,A,46.92831517818989,65.64959985359187,2.3464157589094947,1.0312215030557688,B,4770.234083000105,Incorrect
16,3,68,A,35.11304823647035,51.01174283080434,1.7556524118235175,0.8012905826203335,B,897.9347499989672,Incorrect
16,3,69,B,49.479672061984004,40.3848888403275,2.4739836030992,0.6343643504840665,B,864.0674999987823,Correct
16,3,70,A,31.11007383876681,59.38361506231166,1.5555036919383405,0.9327956441168125,A,853.8332500029355,Correct
16,3,71,B,46.376579196806674,24.986901305977145,2.3188289598403338,0.39249332789415503,B,788.3502920012688,Correct
16,3,72,B,61.09521990614376,49.00560452949489,3.0547609953071877,0.769778235872939,B,2118.4942920008325,Correct
16,3,73,A,59.56448056806354,76.60936115146059,2.978224028403177,1.2033770309481793,A,817.1730000030948,Correct
16,3,74,A,30.30742268365399,44.072916388549444,1.5153711341826994,0.6922957517427207,A,1091.3834999955725,Correct
16,3,75,B,56.25324489352134,48.975275488109176,2.8126622446760674,0.7693018284049004,A,3154.7048339998582,Incorrect
16,3,76,A,60.77433831942356,85.30259256463704,3.0387169159711784,1.3399299906661353,B,2861.9049999979325,Incorrect
16,3,77,B,82.19970269061866,64.13941330413236,4.109985134530933,1.0074995482091083,B,692.2170420002658,Correct
16,3,78,A,30.322555682627083,61.47866699927179,1.516127784131354,0.9657046429870276,A,982.6832089966047,Correct
16,3,79,A,39.79188263942496,54.32433225641411,1.989594131971248,0.8533246156396079,A,767.8246249997756,Correct
16,3,80,B,45.69613302016715,22.322034172610522,2.284806651008358,0.3506336928492676,A,318.2124169979943,Incorrect
16,3,81,A,45.749918536301685,64.82282777800353,2.2874959268150845,1.018234597661461,B,2901.686541001254,Incorrect
16,3,82,A,19.708722333614123,34.607280860974754,0.9854361166807061,0.5436098965677847,A,647.0699999990757,Correct
16,3,83,B,37.0840902061365,15.42841473214207,1.854204510306825,0.24234897189517032,B,1214.887333997467,Correct
16,3,84,B,52.3474040621143,34.235225717542484,2.617370203105715,0.537765668041099,B,2603.078000000096,Correct
16,3,85,B,75.36911256387995,64.77511369659713,3.768455628193998,1.0174851066233657,B,2151.640291995136,Correct
16,3,86,A,18.264677760541236,43.37121324851142,0.9132338880270617,0.6812734245939989,A,784.6912910026731,Correct
16,3,87,A,11.361462814332853,33.36621404673609,0.5680731407166426,0.5241152646366533,A,1629.8743340012152,Correct
16,3,88,A,18.557868293619617,41.53992435269391,0.9278934146809809,0.6525076058854947,A,730.1094159993227,Correct
16,3,89,B,88.44126773620494,65.21156493706329,4.4220633868102475,1.0243408666768588,B,654.722084000241,Correct
16,3,90,A,22.924430016323193,55.33298597465039,1.1462215008161596,0.8691685111957437,A,836.4458329961053,Correct
16,3,91,B,73.97265298999173,63.474350139145315,3.6986326494995865,0.9970527604426258,B,750.4174999994575,Correct
16,3,92,A,47.587914300695374,70.49196896857384,2.379395715034769,1.1072852592437563,A,4782.54916700098,Correct
16,3,93,B,58.38004889361117,51.19135992473818,2.9190024446805585,0.8041120013341418,B,1962.7728750056121,Correct
16,3,94,A,61.56914349487151,86.87563888051014,3.078457174743576,1.3646393444146523,A,2156.545958001516,Correct
16,3,95,B,69.42643519331355,53.67011589930824,3.471321759665677,0.8430482091328977,B,1578.1299999944167,Correct
16,3,96,B,80.58374454488506,60.503124604529006,4.029187227244253,0.9503808588840809,B,829.8202090008999,Correct
16,3,97,B,44.40462775205143,30.260008048879733,2.2202313876025714,0.47532309491964286,B,2776.8739579987596,Correct
16,3,98,B,81.01276551226482,59.830176685268555,4.050638275613241,0.9398102176870952,B,808.6488749977434,Correct
16,3,99,A,29.03078932126308,55.68465613242829,1.451539466063154,0.8746925331165526,A,730.4849590000231,Correct
16,3,100,B,72.52474499077351,46.93462488989624,3.6262372495386757,0.7372473637654535,B,2784.2274159993394,Correct
16,3,101,A,25.4038673549505,57.89967989968574,1.270193367747525,0.9094860450902666,A,893.428709001455,Correct
16,3,102,A,50.62773867789775,57.45048116482386,2.5313869338948876,0.9024300478630471,A,2507.2781670023687,Correct
16,3,103,A,51.714890879945656,74.70802708092481,2.585744543997283,1.1735109452081036,B,1075.3769169969019,Incorrect
16,3,104,B,51.788060081003806,32.943650350466676,2.58940300405019,0.5174776496172846,B,929.4621250010096,Correct
16,3,105,A,49.17224727862356,72.95381394149645,2.458612363931178,1.1459558296498094,A,631.137292002677,Correct
16,3,106,B,56.61832385478535,35.73023449350412,2.830916192739268,0.5612492109791659,B,695.5779160052771,Correct
16,3,107,B,35.89443896122666,15.822234337142941,1.794721948061333,0.24853507578472217,A,1145.5286659984267,Incorrect
16,3,108,A,49.71924481396998,71.91804603366485,2.4859622406984987,1.1296860253994703,B,941.3905420005904,Incorrect
16,3,109,A,19.596831653355935,41.66111463857421,0.9798415826677968,0.6544112584445347,A,672.4889170000097,Correct
16,3,110,B,74.04976719049607,53.24438662447389,3.7024883595248035,0.8363608693217089,B,3048.0977920014993,Correct
16,3,111,B,68.65087220070608,44.14341428395233,3.432543610035304,0.693403130094177,B,1516.6853750051814,Correct
16,3,112,A,37.04824686359337,69.110624638705,1.8524123431796684,1.085587153249787,A,773.7444999947911,Correct
16,3,113,B,52.53988317772278,37.96791616782766,2.6269941588861387,0.5963986325248025,B,1232.532292000542,Correct
16,3,114,B,86.21812632940393,59.145729008810264,4.310906316470197,0.9290589387264553,B,764.3214159979834,Correct
16,3,115,A,40.674655434958744,67.93476690968252,2.033732771747937,1.0671168232339678,A,1734.333542000968,Correct
16,3,116,B,78.25702090833389,48.49259353933668,3.912851045416694,0.7617198780834797,B,674.0294159972109,Correct
16,3,117,A,48.47190401137611,70.42374800156266,2.4235952005688057,1.1062136467998407,A,1007.4679999961518,Correct
16,3,118,A,27.866430479522673,40.83439920570984,1.3933215239761336,0.6414252427920547,A,573.1957500029239,Correct
16,3,119,B,45.77185615073891,26.42272741664969,2.2885928075369457,0.4150472316997614,B,1561.2169999949401,Correct
16,3,120,A,13.14035504473254,38.3666355986727,0.6570177522366271,0.602661702698734,A,640.6657499974244,Correct
16,3,121,A,30.31946956055157,45.99377464459329,1.5159734780275786,0.7224685226715939,A,1085.3461250007967,Correct
16,3,122,B,62.76981506157467,37.75824133813547,3.1384907530787336,0.5931050680017843,B,891.89195799554,Correct
16,3,123,B,72.07172703953279,47.53474412006613,3.6035863519766393,0.7466740145893518,B,582.1294170018518,Correct
16,3,124,B,33.64979145473167,19.000469940712627,1.6824895727365834,0.29845868390248237,B,2407.1387090007192,Correct
16,3,125,B,41.83058915494529,23.90098386963888,2.0915294577472645,0.37543577669212824,B,806.9267920000129,Correct
16,3,126,A,62.54970545508825,84.96189689134653,3.1274852727544125,1.3345783555445385,A,822.3017080017598,Correct
16,3,127,A,52.106129120093684,82.28294102488961,2.605306456004684,1.292497415197777,A,787.3522079971735,Correct
16,3,128,B,48.106185490721685,37.5138293998989,2.4053092745360845,0.5892658542537159,B,833.2525839941809,Correct
16,3,129,B,77.16174042634694,65.0957089028825,3.858087021317347,1.0225210043475768,B,1743.4090829992783,Correct
16,3,130,B,81.38884311218669,58.44647193795791,4.069442155609335,0.9180750343426529,B,850.3600839976571,Correct
16,3,131,A,24.852928003512304,56.190937091123544,1.2426464001756152,0.8826451758189999,A,1004.5236670048325,Correct
16,3,132,B,54.53973713333676,26.71195880846103,2.726986856666838,0.4195904677782717,B,2860.680208003032,Correct
16,3,133,A,58.42915230837304,86.038050748018,2.9214576154186522,1.3514825407957958,A,822.3446249976405,Correct
16,3,134,B,52.08677768834268,40.099971191025205,2.604338884417134,0.6298888745144356,A,2644.9986249936046,Incorrect
16,3,135,A,31.456312719070773,41.081602653120314,1.5728156359535388,0.6453083054636887,A,922.4990410002647,Correct
16,3,136,A,50.02426729413023,73.12096920896218,2.5012133647065116,1.148581498451205,A,841.2898750029854,Correct
16,3,137,A,44.18957252433026,73.18686003385359,2.209478626216513,1.1496165091082946,A,716.6791249983362,Correct
16,3,138,B,71.69957313352441,51.73228859059143,3.58497865667622,0.8126088889479456,B,758.0182919991785,Correct
16,3,139,B,59.389609042387605,35.46090558694508,2.9694804521193805,0.5570186024079397,B,1896.493208994798,Correct
16,3,140,A,48.344608617607754,65.93944215069865,2.417230430880388,1.0357743352122202,B,1039.9181669999962,Incorrect
16,3,141,B,59.07207660145189,38.877079131605946,2.9536038300725944,0.6106797309644116,B,997.776166004769,Correct
16,3,142,B,48.89785465540632,40.12381274041421,2.444892732770316,0.630263376696489,A,747.1270829992136,Incorrect
16,3,143,B,88.72040267858941,65.90674898031341,4.43602013392947,1.035260792092696,B,568.331208996824,Correct
16,3,144,A,65.67802077562459,80.48491091687401,3.2839010387812295,1.2642540243064018,A,1063.1755829963367,Correct
16,3,145,B,60.690689413334525,27.73966536533714,3.0345344706667263,0.4357336446239119,B,3507.772541997838,Correct
16,3,146,B,55.600552976517605,32.1008015467545,2.7800276488258806,0.504238211568139,B,627.6632090011844,Correct
16,3,147,A,23.35353181357202,51.07419022223487,1.1676765906786009,0.8022715039511035,A,734.9958330014488,Correct
16,3,148,A,33.82954701336425,59.20094246726579,1.6914773506682124,0.9299262297037711,A,623.1890839990228,Correct
16,3,149,A,37.51333056583543,56.044666501424025,1.8756665282917715,0.8803475627688183,A,734.7851660015294,Correct
16,3,150,B,44.9992301631148,23.890045615629994,2.2499615081557405,0.3752639589999412,A,783.0214580026222,Incorrect
16,3,151,A,31.388717369367015,54.477514256923,1.5694358684683507,0.8557307928769124,A,3246.773166996718,Correct
16,3,152,A,41.910551181465394,50.13781329643037,2.0955275590732696,0.7875629295956115,A,2562.5580829946557,Correct
16,3,153,B,41.0058996250076,17.44247699077033,2.05029498125038,0.2739857878730653,B,824.4101250020321,Correct
16,3,154,B,48.97198045888432,40.1774801628569,2.448599022944216,0.6311063825969044,B,2910.983458001283,Correct
16,3,155,B,48.464735021274905,41.261288686620325,2.4232367510637456,0.6481308070776702,B,900.5799169972306,Correct
16,3,156,A,24.25023496604488,36.835182397727195,1.2125117483022438,0.578605692071699,A,1268.1546669991803,Correct
16,3,157,A,32.42427404433369,51.760079632341714,1.6212137022166846,0.8130454296109371,A,620.5655000012484,Correct
16,3,158,A,43.84113560762097,56.696061730427736,2.1920567803810487,0.8905796550989259,A,2186.071707998053,Correct
16,3,159,A,26.24611365911531,56.24292036676742,1.3123056829557656,0.8834617272033615,A,765.0747079969733,Correct
16,3,160,A,51.96628077450341,77.89369978595121,2.5983140387251704,1.2235513750423659,A,2021.0046659994987,Correct
16,3,161,B,48.8757361814178,39.28123004913451,2.44378680907089,0.617028118731658,B,1216.5253329949337,Correct
16,3,162,A,28.252294835438747,48.43476913600406,1.4126147417719375,0.76081157447994,A,758.8941670037457,Correct
16,3,163,A,50.621591290468125,78.59336990200578,2.5310795645234063,1.2345417675250325,A,2115.2157920005266,Correct
16,3,164,A,29.066574218672518,57.316271996819566,1.453328710933626,0.9003218951818136,A,631.191292006406,Correct
16,3,165,A,29.39641649193298,52.54017546672261,1.4698208245966489,0.8252991463228719,A,1329.4808749997173,Correct
16,3,166,A,58.115475648381796,67.0991352952565,2.90577378241909,1.053990752529027,A,1846.9154999984312,Correct
16,3,167,A,38.95078394448919,47.13337112109035,1.9475391972244593,0.7403692622646937,A,2398.8589590007905,Correct
16,3,168,A,54.675799122814794,67.88275116344604,2.7337899561407397,1.0662997618027306,A,1076.9652079980006,Correct
16,3,169,A,18.70764466069428,49.98939070379889,0.9353822330347141,0.7852315129624224,A,636.4770840009442,Correct
16,3,170,A,39.16592273857011,58.4542516104538,1.9582961369285057,0.918197237152455,A,2195.397709001554,Correct
16,3,171,B,62.56423938091915,50.80899321511498,3.1282119690459576,0.7981057991044943,B,735.536874999525,Correct
16,3,172,B,83.85966998861015,68.91388995356549,4.1929834994305075,1.082496852042084,B,749.5430420021876,Correct
16,3,173,A,53.686414856835334,62.64405471510373,2.684320742841767,0.9840105104202347,B,680.2864999990561,Incorrect
16,3,174,A,49.840733343501135,60.59433256411695,2.4920366671750567,0.9518135501630329,B,2758.0938750033965,Incorrect
16,3,175,A,19.70632930746146,50.665302544241385,0.9853164653730729,0.7958487113244649,A,532.8878340005758,Correct
16,3,176,B,45.29865663113079,24.10189394892278,2.2649328315565396,0.3785916648376804,B,930.4400840046583,Correct
16,3,177,A,24.106891422929507,42.092786356302966,1.2053445711464754,0.6611919419304303,A,532.0729999948526,Correct
16,3,178,B,52.181658388566156,22.831340292085784,2.6090829194283076,0.3586338546661267,B,1200.386708995211,Correct
16,3,179,A,25.00968472156478,52.96573864905773,1.250484236078239,0.8319838771591836,A,1504.43549999909,Correct
16,3,180,B,47.60089366504074,27.242437991639093,2.3800446832520374,0.4279232153020443,A,1438.0012920009904,Incorrect
16,3,181,A,30.48130117136048,46.25435885725463,1.524065058568024,0.7265617699122856,B,2268.0037500031176,Incorrect
16,3,182,B,48.09107569805547,30.439783792098005,2.4045537849027734,0.4781470056905837,B,2149.7567089973018,Correct
16,3,183,A,62.717930486530534,83.63133835436619,3.1358965243265264,1.3136779909197955,A,1950.6119580037193,Correct
16,3,184,B,71.61981080546596,41.425679174077935,3.5809905402732976,0.6507130468162546,B,599.1078340011882,Correct
16,3,185,A,31.07880438698664,57.00414962930009,1.553940219349332,0.8954190884977125,A,627.4564169943915,Correct
16,3,186,A,33.300753417856995,42.891206304348856,1.6650376708928496,0.6737334931467329,A,1995.9628750002594,Correct
16,3,187,A,45.62798185206914,65.01754888622904,2.281399092603457,1.0212932696769619,A,1610.4329169975244,Correct
16,3,188,B,75.95500801823518,64.59213682990662,3.7977504009117586,1.0146109127225067,B,781.2815409997711,Correct
16,3,189,B,31.52224431537332,14.480173031324984,1.576112215768666,0.22745402608959805,A,1687.3615000004065,Incorrect
16,3,190,B,42.22336663768882,24.19340859088394,2.111168331884441,0.38002917347208587,B,610.540082998341,Correct
16,3,191,B,55.04607273795678,35.12234305713277,2.752303636897839,0.5517004746257439,A,3669.8981250010547,Incorrect
16,3,192,A,44.70493052294033,66.22210958343399,2.2352465261470167,1.0402144648626723,A,734.7000829977333,Correct
16,3,193,A,40.48381558579468,65.93961849532839,2.024190779289734,1.0357771052271865,A,1235.3317090019118,Correct
16,3,194,A,30.115213808031466,44.41194350793679,1.5057606904015735,0.6976211772808956,B,1250.3844580060104,Incorrect
16,3,195,B,41.049014819198824,15.096326539914795,2.0524507409599413,0.23713254276994475,B,1183.162834000541,Correct
16,3,196,A,56.50290420190487,66.15206384167185,2.8251452100952434,1.0391141889239963,A,989.5179169980111,Correct
16,3,197,B,78.81276776906105,55.13076942416856,3.9406383884530527,0.8659921010486038,B,758.6464999985765,Correct
16,3,198,B,33.379305702372505,21.292309411377833,1.6689652851186252,0.33445881412372713,A,777.1427080006106,Incorrect
16,3,199,A,59.47548118172985,82.82359041005688,2.9737740590864923,1.3009899158808236,A,846.2823329973617,Correct
16,3,200,A,59.10119028282035,85.63657307751131,2.955059514141017,1.345176144294575,A,938.2873330032453,Correct
16,3,201,A,60.904293032211186,74.81583389592791,3.045214651610559,1.175204370698207,A,1352.441250004631,Correct
16,3,202,B,61.39944563196134,31.549102012927396,3.069972281598067,0.4955721355558383,B,948.061916998995,Correct
16,3,203,B,40.72185666603437,18.825404126395338,2.0360928333017183,0.2957087565217128,B,1237.6293749985052,Correct
16,3,204,A,25.893256156553896,39.47898975759727,1.2946628078276947,0.6201345209680713,A,1072.190667000541,Correct
16,3,205,A,51.150251649639216,67.32320366011653,2.557512582481961,1.0575104101737578,A,1441.3948330038693,Correct
16,3,206,B,38.92916891655544,23.473611617299326,1.946458445827772,0.3687226290506379,B,737.2365830015042,Correct
16,3,207,A,23.185413923508047,47.88114338227538,1.1592706961754025,0.7521152414761795,A,680.152040993562,Correct
16,3,208,B,81.98588185111197,57.652492861670765,4.099294092555598,0.9056032401768144,B,842.6958330019261,Correct
16,3,209,A,34.45518747196316,55.948578238238866,1.7227593735981577,0.8788382118602251,A,708.7200000023586,Correct
16,3,210,A,29.088607226622873,59.271724197741776,1.4544303613311436,0.9310380665261297,A,882.5205419998383,Correct
16,3,211,B,45.4960339679224,30.747311785033197,2.27480169839612,0.4829776441074758,B,1595.9199999997509,Correct
16,3,212,B,38.273720734515294,23.698091814836737,1.9136860367257646,0.3722487557479376,B,1784.9581249975017,Correct
16,3,213,A,50.253680452991446,69.83041017979642,2.512684022649572,1.0968935180900519,A,719.5042909952463,Correct
16,3,214,B,79.353523088343,55.84071185420837,3.9676761544171497,0.8771438506620274,B,877.0730830001412,Correct
16,3,215,B,54.13027005069487,29.04771861812595,2.7065135025347433,0.4562804970712397,B,1018.9428750018124,Correct
16,3,216,B,40.04590834346574,31.359833823874084,2.0022954171732867,0.4925991177943977,B,1787.1117079994292,Correct
16,3,217,B,82.94935097930343,67.11349844711947,4.147467548965171,1.0542163683909025,B,1734.0359579975484,Correct
16,3,218,B,37.061610053940626,13.930165508682848,1.8530805026970314,0.2188145281268398,A,1877.330625000468,Incorrect
16,3,219,A,21.876113593394905,45.8337038536865,1.0938056796697453,0.7199541365677585,A,657.0651670044754,Correct
16,3,220,B,42.924757431068684,26.577667219530895,2.146237871553434,0.4174810204321627,B,2637.089957999706,Correct
16,3,221,A,21.240359223334874,38.83811544865574,1.0620179611667437,0.6100676908638457,A,811.6179579956224,Correct
16,3,222,A,54.45753913743013,83.68929868846665,2.7228769568715063,1.3145884297188437,B,907.9531249954016,Incorrect
16,3,223,A,61.332495319176196,84.21704433188499,3.06662476595881,1.3228782389004792,A,576.7304999972112,Correct
16,3,224,A,33.638093148384655,42.79658746857877,1.6819046574192327,0.6722472239500004,B,704.6836670051562,Incorrect
16,3,225,B,68.09852492239236,51.70074524481422,3.4049262461196177,0.8121134072311289,B,1814.126416000363,Correct
16,3,226,B,52.27496208830605,26.618678365947282,2.6137481044153024,0.4181252220136477,B,1167.2024159997818,Correct
16,3,227,B,74.23592389195585,62.258841983214154,3.7117961945977926,0.977959602977367,A,648.8571660011075,Incorrect
16,3,228,B,58.16341463606035,47.615447481492765,2.9081707318030174,0.7479417000262416,B,614.5922089999658,Correct
16,3,229,B,39.49029722142239,28.101986953204765,1.9745148610711194,0.44142497881732146,A,1864.4035839970456,Incorrect
16,3,230,B,88.36592062365897,69.3871725035836,4.4182960311829484,1.0899311569531298,B,665.772416999971,Correct
16,3,231,B,63.76871829344738,32.012749596854455,3.1884359146723686,0.5028550947734378,B,456.0713750033756,Correct
16,3,232,A,25.97282547156231,49.87746538747362,1.2986412735781157,0.7834733942048316,A,642.6853330049198,Correct
16,3,233,A,45.969443716670334,65.19161715752955,2.2984721858335164,1.0240275276886657,A,697.3130410042359,Correct
16,3,234,A,34.17127460834206,67.22221212876977,1.708563730417103,1.055924038908989,B,707.4350839975523,Incorrect
16,3,235,A,60.363381359333346,84.32335350095786,3.0181690679666673,1.3245481394233218,A,778.0205000017304,Correct
16,3,236,B,74.1602085568992,60.91960209797769,3.70801042784496,0.9569228720531001,B,1294.5771670056274,Correct
16,3,237,B,42.29897893855055,27.912401307832965,2.114948946927527,0.43844697446369096,A,1840.2405419983552,Incorrect
16,3,238,B,81.5133686047344,51.971826966467454,4.07566843023672,0.8163715489574703,B,623.0698750005104,Correct
16,3,239,A,15.786623456255793,35.490723582145044,0.7893311728127896,0.5574869823812645,A,627.8807499984396,Correct
16,3,240,B,56.937926089045874,25.15918424365148,2.8468963044522932,0.39519954195083784,B,3041.0242500001914,Correct
16,3,241,B,74.84569214403254,49.377318934140625,3.7422846072016274,0.775617112087282,B,1059.0790409987676,Correct
16,3,242,B,55.73050852365514,31.98879002862781,2.786525426182757,0.5024787387558178,B,1056.3290000063716,Correct
16,3,243,A,44.05311823074532,59.791331527374034,2.202655911537266,0.9392000393737503,A,944.5637499957229,Correct
16,3,244,A,19.293548456449575,38.3539164608235,0.9646774228224787,0.6024619109485987,A,627.2295419985312,Correct
16,3,245,A,58.83150612189192,68.36284917739118,2.941575306094596,1.0738411237707959,A,847.9495830033557,Correct
16,3,246,A,28.55436988460803,46.714961083162066,1.4277184942304015,0.733796892757975,A,1150.5792079988169,Correct
16,3,247,A,41.75842645379335,60.92129098925038,2.087921322689667,0.9569494010951752,A,1140.2160419966094,Correct
16,3,248,A,38.53017230650883,51.194785943310535,1.9265086153254416,0.8041658171080319,A,941.1687090032501,Correct
16,3,249,A,48.05186795875678,75.92466901119296,2.402593397937839,1.1926219119590022,A,1144.9573330028215,Correct
16,3,250,A,30.3997067160903,56.769811214549584,1.519985335804515,0.8917381092865422,A,913.5064579968457,Correct
16,3,251,A,14.83478403041217,31.20738020426321,0.7417392015206085,0.4902043819374842,A,631.2451669946313,Correct
16,3,252,A,43.25652143888174,53.90813367779793,2.162826071944087,0.8467869836545323,A,828.9540420009871,Correct
16,3,253,A,36.31143060208806,68.89287168987528,1.8155715301044029,1.0821666979280822,A,611.0975410047104,Correct
16,3,254,A,44.11440578228337,55.13227317591582,2.2057202891141685,0.8660157219258137,A,679.8664170055417,Correct
16,3,255,A,50.96087633402067,81.01293633093061,2.5480438167010333,1.2725482281149463,A,610.5452080009854,Correct
16,3,256,A,48.8347010048614,70.08892517507631,2.44173505024307,1.1009542621401223,A,528.7066670061904,Correct
16,3,257,A,40.5159195106215,50.73291425300526,2.025795975531075,0.7969107535622112,A,731.2769590062089,Correct
16,3,258,B,42.06017752630919,27.921858578162386,2.1030088763154593,0.43859552891864045,A,1568.839541003399,Incorrect
16,3,259,A,47.8710532624724,65.52426628667317,2.39355266312362,1.029252767990369,A,925.6020839966368,Correct
16,3,260,B,35.93508542208948,15.849009649089044,1.796754271104474,0.2489556614012594,B,991.057749997708,Correct
16,3,261,A,32.146141929453165,64.71964949394237,1.6073070964726583,1.0166138769653785,A,1509.5066249996307,Correct
16,3,262,A,24.720289653435895,41.240668306913506,1.2360144826717947,0.6478069029106643,A,1031.7738329977146,Correct
16,3,263,B,80.18985605862169,55.2388558673002,4.009492802931084,0.8676899189270788,B,691.9906660041306,Correct
16,3,264,B,56.98540285743171,27.092548451477274,2.8492701428715854,0.4255687559109327,B,719.8638749978272,Correct
16,3,265,B,51.15789238198569,39.30952943048372,2.5578946190992844,0.617472644374397,A,1900.2046669993433,Incorrect
16,3,266,B,67.06180736548872,54.65042271009423,3.353090368274436,0.8584468325080441,B,588.7395410027239,Correct
16,3,267,B,54.828695806524834,32.256013777300936,2.7414347903262417,0.5066762795842988,A,1977.2910000028787,Incorrect
16,3,268,A,50.615153318096056,78.02737635297538,2.5307576659048028,1.2256511616469672,A,683.141000001342,Correct
16,3,269,A,48.372560169652594,70.37534772765866,2.4186280084826297,1.105453377075198,A,664.3732090014964,Correct
16,3,270,A,53.498286832978096,80.9818139312519,2.674914341648905,1.2720593586039828,A,1379.842833004659,Correct
16,3,271,B,42.577702839419146,23.949465594439523,2.128885141970957,0.3761973258444635,A,3821.3975000035134,Incorrect
16,3,272,B,46.73836167966604,24.798702950762472,2.336918083983302,0.3895371150433545,A,818.3735829952639,Incorrect
16,3,273,A,47.80195077389448,61.483110328750136,2.390097538694724,0.9657744386432606,A,1663.88108299725,Correct
16,3,274,A,12.968964184267591,39.611555180269846,0.6484482092133795,0.6222168537580123,A,733.1081660013297,Correct
16,3,275,A,57.90199919359511,75.41935969497735,2.8950999596797558,1.184684531780935,A,1611.7254170021624,Correct
16,3,276,A,48.315114222793426,75.98346275788965,2.4157557111396715,1.1935454419724991,A,689.6407089952845,Correct
16,3,277,B,45.73972555140335,21.382799804847746,2.2869862775701675,0.3358802339004547,B,536.5755839957274,Correct
16,3,278,B,64.50629874027828,49.04294494745378,3.225314937013914,0.7703647777866472,A,830.8820000020205,Incorrect
16,3,279,A,33.864078692090835,48.97505686249848,1.6932039346045418,0.769298394241838,A,638.8992089996464,Correct
16,3,280,B,37.24874188337368,27.308317331857758,1.862437094168684,0.42895804555831574,A,661.0260000015842,Incorrect
16,3,281,B,77.27409092134357,63.86861046030366,3.863704546067179,1.0032457870853908,B,627.0384169984027,Correct
16,3,282,B,75.79242361155569,49.269667716961905,3.7896211805777846,0.7739261307220886,B,2998.917041993991,Correct
16,3,283,B,34.5479889624648,18.8783729877427,1.7273994481232398,0.29654078945010226,A,683.1855829950655,Incorrect
16,3,284,B,39.79873074871371,21.7807343465331,1.9899365374356852,0.3421309750642964,B,1121.1672909994377,Correct
16,3,285,A,32.408275177173365,40.84195648200666,1.6204137588586685,0.6415439522105307,A,2295.275042000867,Correct
16,3,286,B,54.971127872416375,39.36669661686817,2.748556393620819,0.6183706244382561,B,1357.2404580045259,Correct
16,3,287,B,60.610039504650345,35.050577636750205,3.030501975232517,0.5505731860384657,B,1222.9241249951883,Correct
16,3,288,A,27.742872487116003,54.58874670767576,1.3871436243558002,0.8574780281275409,A,569.5323330000974,Correct
16,3,289,A,23.817869848455132,38.60771365935571,1.1908934924227565,0.6064485480206511,A,697.3715830026777,Correct
16,3,290,A,12.996796755443931,31.584334687053452,0.6498398377721967,0.496125569106842,A,678.7525000036112,Correct
16,3,291,A,19.959843158566898,42.92480230069198,0.9979921579283448,0.6742612178232409,A,1669.3901249964256,Correct
16,3,292,B,65.64569497989963,52.15982274726701,3.282284748994982,0.819324579776799,A,1813.1082909967517,Incorrect
16,3,293,B,38.13517435662423,19.783420759531502,1.9067587178312118,0.31075724660509985,A,772.3839579994092,Incorrect
16,3,294,B,61.88216619353992,31.60209012543419,3.094108309676996,0.49640447088073303,B,809.4940410010167,Correct
16,3,295,B,63.14392935843335,52.18060360554084,3.157196467921667,0.8196510047352408,B,1281.0077920003096,Correct
16,3,296,B,59.50909852827332,28.1688501174854,2.975454926413666,0.4424752629458205,B,608.2588749995921,Correct
16,3,297,B,37.527366873613076,13.931813265422488,1.8763683436806537,0.2188404110291806,B,765.8924579955055,Correct
16,3,298,B,42.49216857871912,26.23930520033266,2.124608428935956,0.4121660422633277,B,1860.276542000065,Correct
16,3,299,B,64.63945792525656,47.229862133693636,3.2319728962628282,0.7418849395463535,B,2392.941541002074,Correct
