 subject,day,trial,cat,x,y,xt,yt,resp,rt,fb,ns_left_digit,ns_right_digit,ns_left_size,ns_right_size,ns_congruent,ns_cue,ns_correct_side,ns_resp,ns_rt,ns_fb
1,22,0,A,40.281014803817726,61.88515092781444,2.0140507401908865,0.9720896776055871,A,3687.086416990496,Correct,6,7,big,small,False,Size,left,right,1785.7402499648742,Incorrect
1,22,1,B,70.90669395897349,52.89671477317546,3.545334697948675,0.8308996526522135,B,2537.3558750143275,Correct,3,6,big,small,False,Value,right,right,1465.866791026201,Correct
1,22,2,B,38.53144935560029,20.848157663703475,1.9265724677800142,0.3274820947858629,B,1698.231374961324,Correct,6,8,big,small,False,Value,right,right,1258.4642079891637,Correct
1,22,3,A,47.189901397529276,57.21574781963569,2.3594950698764636,0.8987428650990685,A,1616.8240000260994,Correct,3,2,small,big,False,Size,right,right,1361.092415987514,Correct
1,22,4,B,45.312132497624724,36.18306161505332,2.265606624881236,0.5683622027711918,A,2025.6475830101408,Incorrect,8,4,small,big,False,Size,right,right,1212.141582975164,Correct
1,22,5,A,15.672594751418558,41.28708813568812,0.7836297375709279,0.6485360638759605,A,1002.6294160052203,Correct,6,4,big,small,True,Value,left,left,1425.2125410130247,Correct
1,22,6,B,79.32192640170476,49.49894873983139,3.966096320085238,0.7775276686073604,B,1046.8927499605343,Correct,2,5,big,small,False,Value,right,right,901.6398739768192,Correct
1,22,7,B,61.84917282529773,32.49780067918713,3.0924586412648862,0.5104742593577983,B,1581.6823330242187,Correct,7,5,small,big,False,Size,right,right,1087.1872499701567,Correct
1,22,8,B,49.87754374960948,35.365747459592455,2.493877187480474,0.5555238620388377,A,963.2754999911413,Incorrect,6,3,small,big,False,Value,left,left,1600.3574160276912,Correct
1,22,9,A,48.87777251389669,65.93473909799921,2.443888625694834,1.0357004598331703,A,699.993165966589,Correct,7,5,small,big,False,Size,right,right,960.6172500061803,Correct
1,22,10,B,40.4234347133564,21.377915337774155,2.0211717356678203,0.33580350887107924,A,1436.4576659863815,Incorrect,6,5,small,big,False,Value,left,right,771.80300001055,Incorrect
1,22,11,A,60.53911093894969,79.84960638887759,3.0269555469474847,1.2542746841166723,A,622.4687910289504,Correct,4,7,small,big,True,Value,right,right,745.1735410140827,Correct
1,22,12,B,58.82418805062706,35.937951762876736,2.941209402531353,0.5645120262165895,B,2083.718541020062,Correct,7,5,small,big,False,Size,right,right,1044.6247910149395,Correct
1,22,13,B,46.219010489977904,17.35650135000323,2.310950524498895,0.2726352856659574,B,993.177582975477,Correct,6,4,small,big,False,Value,left,left,504.00558300316334,Correct
1,22,14,A,50.12278634828186,77.40211393177688,2.5061393174140933,1.2158295625019522,A,825.9090830106288,Correct,5,6,big,small,False,Value,right,right,421.16308299591765,Correct
1,22,15,A,26.405663663547706,43.60180931199524,1.3202831831773851,0.6848956190889364,A,810.6020420091227,Correct,8,5,small,big,False,Value,left,right,2034.4634160283022,Incorrect
1,22,16,A,37.531728130505634,51.46003460168911,1.8765864065252815,0.8083323332907153,A,2176.8359579727985,Correct,8,4,small,big,False,Size,right,right,1533.28833298292,Correct
1,22,17,B,57.809103277614895,45.75708646871618,2.8904551638807447,0.7187506334989584,A,892.6804990042001,Incorrect,8,4,small,big,False,Size,right,right,827.2233749739826,Correct
1,22,18,B,62.62282548857206,47.063976941575696,3.131141274428603,0.739279221041868,B,1393.7985000084154,Correct,4,5,small,big,True,Size,right,right,829.5873749884777,Correct
1,22,19,B,33.519112748155806,18.712018161670844,1.6759556374077902,0.29392769395271956,B,1214.2847920185886,Correct,5,6,big,small,False,Size,left,left,561.8942080182023,Correct
1,22,20,B,82.0818712033286,68.32076414697778,4.10409356016643,1.0731800536589318,B,1821.5888330014423,Correct,2,8,big,small,False,Size,left,left,987.7431669738144,Correct
1,22,21,B,44.26309271353785,34.98698308210809,2.2131546356768923,0.5495742451101058,A,2905.8519580285065,Incorrect,6,2,big,small,True,Value,left,left,1361.5188330295496,Correct
1,22,22,A,69.20095647231588,85.96250328361363,3.4600478236157937,1.3502958439999453,A,788.5744579834864,Correct,4,7,big,small,False,Size,left,left,767.2019169549458,Correct
1,22,23,B,47.49254218662743,30.657078016631992,2.3746271093313713,0.48156025538790104,B,2060.4784580064006,Correct,7,6,small,big,False,Value,left,right,716.2213750416413,Incorrect
1,22,24,B,55.81804191325832,37.27785400799493,2.7909020956629162,0.5855591614655485,B,1239.572874037549,Correct,5,4,small,big,False,Size,right,left,1029.8431249684654,Incorrect
1,22,25,A,29.402864272212113,54.441833293974696,1.4701432136106058,0.8551703176215556,A,586.1519160098396,Correct,6,3,small,big,False,Size,right,right,1072.2877079970203,Correct
1,22,26,A,59.71284862329437,69.13618715265346,2.9856424311647185,1.085988688279926,A,636.9125829660334,Correct,7,5,small,big,False,Value,left,left,802.7262079995126,Correct
1,22,27,A,42.968099906756805,56.18582883384728,2.1484049953378404,0.882564935501341,A,586.8772499961779,Correct,4,5,big,small,False,Size,left,right,942.0528750051744,Incorrect
1,22,28,A,53.76971775228753,70.91314354078875,2.6884858876143762,1.1139010539535021,A,929.897207999602,Correct,8,5,small,big,False,Value,left,left,630.683500028681,Correct
1,22,29,B,63.73932031134393,38.52668213225662,3.1869660155671964,0.6051757077694326,B,914.8989580571651,Correct,5,3,small,big,False,Size,right,right,1012.4899579677731,Correct
1,22,30,B,74.85747796858521,56.10226876530945,3.7428738984292607,0.8812523770140814,B,952.4832490133122,Correct,5,4,small,big,False,Value,left,left,1059.7049579955637,Correct
1,22,31,A,44.23828805393872,68.25065632777542,2.211914402696936,1.072078802610105,A,836.1789170303382,Correct,8,4,small,big,False,Size,right,right,774.6879999758676,Correct
1,22,32,B,42.55767561118612,24.51517604659309,2.127883780559306,0.38508348484718663,A,2071.4252080069855,Incorrect,5,8,big,small,False,Size,left,left,1115.5236669583246,Correct
1,22,33,A,51.79532785124912,67.13415387191668,2.5897663925624563,1.0545408230449012,A,1321.9544579624198,Correct,7,4,small,big,False,Value,left,left,849.4544160203077,Correct
1,22,34,B,62.916973448503725,31.879713859855393,3.145848672425186,0.5007653743033321,B,1576.3833330129273,Correct,7,4,small,big,False,Value,left,left,1046.6654159827158,Correct
1,22,35,B,44.96207772146075,27.936577267383502,2.2481038860730376,0.43882672954827817,B,1727.2837909986265,Correct,7,8,big,small,False,Size,left,left,923.5423739883117,Correct
1,22,36,B,63.28205594351518,31.425558134120415,3.1641027971757594,0.49363151284555834,B,1713.1051670294255,Correct,5,7,small,big,True,Size,right,right,1144.2570830113254,Correct
1,22,37,A,50.25336848137968,61.06343118150402,2.512668424068984,0.9591821340139948,A,763.0280830198899,Correct,2,7,big,small,False,Value,right,right,927.054958010558,Correct
1,22,38,B,71.38379085909274,47.70526961040373,3.5691895429546374,0.7493526227278238,B,1334.2252489528619,Correct,4,5,small,big,True,Size,right,right,773.2302909716964,Correct
1,22,39,B,52.340731041789695,34.95678597406423,2.617036552089485,0.5490999100461545,B,1241.3579580024816,Correct,5,2,small,big,False,Size,right,right,1240.4903740389273,Correct
1,22,40,B,54.842055880978656,36.619311045789736,2.742102794048933,0.575214792804863,B,1715.2522910037078,Correct,2,7,big,small,False,Size,left,left,745.2693750383332,Correct
1,22,41,B,62.085345565397844,48.46405256017118,3.1042672782698926,0.7612715574311169,A,899.5297080255114,Incorrect,2,5,big,small,False,Value,right,right,1261.3813750213012,Correct
1,22,42,A,35.03732041192337,44.38839001538261,1.7518660205961682,0.6972511998850227,A,877.5613330071792,Correct,6,4,small,big,False,Size,right,right,1004.8413330223411,Correct
1,22,43,B,40.101273060662635,27.433494331735638,2.005063653033132,0.43092432127438957,A,509.9304579780437,Incorrect,4,3,big,small,True,Size,left,right,1495.1613739831373,Incorrect
1,22,44,B,44.24663261398497,19.373558500874637,2.212331630699248,0.3043191453011992,B,584.2621670453809,Correct,7,4,small,big,False,Size,right,right,529.6715410077013,Correct
1,22,45,A,54.42839622190064,66.64450972413363,2.721419811095032,1.0468495107571587,A,725.3448330448009,Correct,6,3,big,small,True,Value,left,left,1129.8441240214743,Correct
1,22,46,A,44.05943951650113,71.946355258187,2.2029719758250565,1.1301307056584085,A,862.5372080132365,Correct,7,3,small,big,False,Size,right,right,757.1168740396388,Correct
1,22,47,B,69.94248041298766,50.37040422853652,3.497124020649383,0.7912164594135929,B,799.9781249673106,Correct,7,6,small,big,False,Value,left,left,1136.4870829856955,Correct
1,22,48,B,88.29783509639644,65.25487810065414,4.4148917548198225,1.0250212282595625,B,780.7948749978095,Correct,8,5,small,big,False,Value,left,left,875.8118329569697,Correct
1,22,49,B,89.47195993625506,64.61385291112451,4.473597996812753,1.0149520281286013,B,652.0223740371875,Correct,8,7,small,big,False,Value,left,left,530.6214989977889,Correct
1,22,50,A,29.169211855183796,55.71587050361684,1.4584605927591898,0.8751828473126145,A,787.5417489558458,Correct,7,5,small,big,False,Value,left,left,1619.8367910110392,Correct
1,22,51,B,84.6716553343858,58.70226565635469,4.233582766719291,0.9220930326754015,B,673.9144999883138,Correct,3,7,big,small,False,Value,right,right,995.8939580246806,Correct
1,22,52,B,34.32460619997822,18.61729041240752,1.7162303099989111,0.29243971394683577,B,623.5853750258684,Correct,4,3,big,small,True,Value,left,left,757.14787497418,Correct
1,22,53,B,55.213372579160996,26.05507455602523,2.76066862895805,0.40927215406971595,B,1275.2106249681674,Correct,6,3,small,big,False,Size,right,right,1713.2137079606764,Correct
1,22,54,B,73.04980517048308,45.30347104078849,3.652490258524154,0.7116252590192952,B,820.4735409817658,Correct,8,3,small,big,False,Value,left,left,730.7331660413183,Correct
1,22,55,B,41.3824179467597,29.687125146981316,2.069120897337985,0.46632427133978654,A,672.9429170372896,Incorrect,5,6,big,small,False,Size,left,left,1082.599957997445,Correct
1,22,56,B,71.94162849391594,39.82157242467762,3.597081424695797,0.6255157969188055,B,567.0248750247993,Correct,3,4,big,small,False,Size,left,left,691.9866239768453,Correct
1,22,57,B,47.48874501330734,23.652209421323,2.3744372506653666,0.3715280367959781,A,2188.0583750316873,Incorrect,4,6,big,small,False,Value,right,right,638.3652079966851,Correct
1,22,58,A,64.2202338997242,81.15715723209163,3.2110116949862104,1.2748136447328542,A,659.4847919768654,Correct,3,5,big,small,False,Value,right,right,811.0076250159182,Correct
1,22,59,A,53.31734720971093,73.63454082320794,2.6658673604855467,1.1566486625032388,A,830.2409580210224,Correct,8,5,small,big,False,Value,left,right,878.2796239829622,Incorrect
1,22,60,B,55.949732980169706,45.37808609543027,2.7974866490084853,0.7127973095568444,A,529.5364999910817,Incorrect,8,4,small,big,False,Size,right,right,1530.323417042382,Correct
1,22,61,B,54.729612481860606,24.625858325474972,2.73648062409303,0.3868220780182761,B,1034.2937919776887,Correct,8,4,big,small,True,Value,left,left,662.1539579937235,Correct
1,22,62,B,83.81742200741235,68.4969158813805,4.190871100370617,1.0759470386325152,B,691.4178749429993,Correct,3,6,small,big,True,Value,right,right,970.2696240274236,Correct
1,22,63,A,25.067963465965917,46.06898395671764,1.253398173298296,0.723649907783851,A,429.4964579748921,Correct,7,5,small,big,False,Size,right,right,512.6589579740539,Correct
1,22,64,A,44.69912750835095,74.9152822508047,2.2349563754175477,1.1767665018036695,A,607.7428740100004,Correct,7,6,small,big,False,Size,right,right,1355.3235409781337,Correct
1,22,65,B,52.79087210941895,21.506376433493706,2.6395436054709474,0.33782137104400245,B,779.5431240228936,Correct,8,4,small,big,False,Value,left,left,994.8230420122854,Correct
1,22,66,B,54.17463704990865,31.84271128856514,2.7087318524954322,0.5001841392726851,B,821.0682490025647,Correct,3,6,big,small,False,Size,left,right,1248.186957964208,Incorrect
1,22,67,A,20.20617670979392,33.514385506658,1.010308835489696,0.526442736486465,A,835.649624990765,Correct,5,7,big,small,False,Size,left,left,534.0476660057902,Correct
1,22,68,B,44.699264580574166,33.04469503388012,2.234963229028708,0.5190648557927645,B,772.6362909888849,Correct,7,5,small,big,False,Value,left,right,1851.9792080041952,Incorrect
1,22,69,A,14.136738901409576,37.96189651076372,0.7068369450704788,0.5963040759727566,A,610.7874159933999,Correct,7,2,small,big,False,Value,left,left,796.9790829811245,Correct
1,22,70,B,47.16386215181215,34.18824724784683,2.358193107590607,0.5370277319647353,B,1201.6139579936862,Correct,7,3,small,big,False,Size,right,right,1104.6540410025045,Correct
1,22,71,A,64.34880187845117,75.55198965604787,3.2174400939225585,1.18676787833766,A,770.0877499883063,Correct,8,6,small,big,False,Size,right,right,1343.7832909985445,Correct
1,22,72,B,57.702281749105005,45.70195750502496,2.8851140874552503,0.7178846697622965,A,790.9095830400474,Incorrect,6,8,big,small,False,Value,right,right,1016.4644169854,Correct
1,22,73,B,78.4511341480835,51.18234064124117,3.922556707404175,0.8039703267602678,B,1142.8254170459695,Correct,3,7,big,small,False,Size,left,left,1184.486582991667,Correct
1,22,74,A,45.382069235868975,76.62084654339787,2.2691034617934487,1.2035574430628482,A,601.4756240183488,Correct,3,8,big,small,False,Value,right,right,1097.1070830128156,Correct
1,22,75,A,47.05316198340608,55.816404914685144,2.352658099170304,0.8767620381488404,A,807.2092490037903,Correct,8,4,small,big,False,Size,right,right,957.5402080081403,Correct
1,22,76,A,14.810395446194985,36.36142470689549,0.7405197723097493,0.5711639236662064,A,488.9687499962747,Correct,3,8,big,small,False,Value,right,right,806.4532080315985,Correct
1,22,77,B,65.56792159845469,33.98695517550956,3.2783960799227345,0.5338658434863321,B,700.7120419875719,Correct,4,2,small,big,False,Value,left,left,772.5899989600293,Correct
1,22,78,B,35.857318562481964,12.016123703747912,1.7928659281240982,0.18874882976160307,B,1125.8042079862207,Correct,7,3,small,big,False,Value,left,left,395.7560829585418,Correct
1,22,79,A,20.4876947709834,42.840160980403304,1.02438473854917,0.6729316750731956,A,654.4743750127964,Correct,5,6,big,small,False,Value,right,right,848.6198750324547,Correct
1,22,80,A,51.7656681154547,82.28546867817535,2.5882834057727346,1.2925371194827435,A,506.0213330434635,Correct,3,5,big,small,False,Size,left,right,870.5237499671057,Incorrect
1,22,81,A,35.92844396177456,53.681670165485656,1.7964221980887283,0.8432297031216005,A,667.3802079749294,Correct,8,4,big,small,True,Size,left,right,1643.3077080291696,Incorrect
1,22,82,B,77.02431973671096,53.538341173358596,3.8512159868355478,0.8409782965780366,B,1201.0347080067731,Correct,7,6,small,big,False,Size,right,right,1224.715083022602,Correct
1,22,83,B,31.084825583367714,11.449619821612078,1.5542412791683855,0.17985020758986292,B,733.576082973741,Correct,6,4,small,big,False,Value,left,left,833.8961660047062,Correct
1,22,84,B,50.43941688544723,30.460283098796438,2.5219708442723614,0.4784690080472212,B,986.556165968068,Correct,8,4,small,big,False,Value,left,left,763.3605409646407,Correct
1,22,85,B,35.50852943071371,20.037076295637874,1.7754264715356853,0.3147416584489706,B,1342.7515420480631,Correct,8,5,big,small,True,Size,left,left,517.9117490188219,Correct
1,22,86,B,69.75233768381275,52.90593396799872,3.4876168841906376,0.8310444674258574,B,722.295249986928,Correct,6,7,big,small,False,Size,left,left,481.6688750288449,Correct
1,22,87,A,12.842770569197597,39.45482091547437,0.6421385284598798,0.6197548776837759,A,741.748665983323,Correct,7,5,small,big,False,Size,right,right,1068.3986659860238,Correct
1,22,88,A,53.273248210103326,72.66501668171122,2.6636624105051663,1.1414194129012187,A,653.8379580015317,Correct,3,4,big,small,False,Value,right,right,594.2267499631271,Correct
1,22,89,B,60.75973247279652,34.32407781803996,3.037986623639826,0.5391613535719936,B,711.0131250228733,Correct,4,2,small,big,False,Size,right,left,559.3013330362737,Incorrect
1,22,90,B,64.690895299334,56.26925131061479,3.2345447649667,0.8838753327021263,B,867.2844170359895,Correct,7,3,small,big,False,Size,right,right,477.26733301533386,Correct
1,22,91,A,43.889598724519615,69.34947113140004,2.1944799362259806,1.0893389451837192,A,2209.9488329840824,Correct,8,7,big,small,True,Value,left,left,263.7341250083409,Correct
1,22,92,A,25.754098386412167,43.104353519879886,1.2877049193206085,0.6770816017789599,A,586.5423750365153,Correct,7,4,small,big,False,Size,right,right,577.3860409972258,Correct
1,22,93,A,43.043031920511304,52.03774812214114,2.1521515960255653,0.8174070360493733,A,591.8609169893898,Correct,4,5,big,small,False,Value,right,right,796.7082500108518,Correct
1,22,94,A,36.83014932135828,45.884945011412796,1.8415074660679138,0.7207590307911304,A,553.5714169964194,Correct,8,2,small,big,False,Value,left,left,640.8012079773471,Correct
1,22,95,A,50.97156149629591,80.00579896888283,2.5485780748147957,1.2567281514261208,A,820.477708010003,Correct,6,3,small,big,False,Size,right,right,1028.6311670206487,Correct
1,22,96,B,42.93278831194784,28.249736025461786,2.146639415597392,0.4437458158172083,A,973.5420829965733,Incorrect,7,8,big,small,False,Size,left,left,660.3855409775861,Correct
1,22,97,B,52.04437216421715,32.14970749805168,2.602218608210858,0.5050064244546992,B,743.2485410245135,Correct,5,2,small,big,False,Size,right,right,424.0255410550162,Correct
1,22,98,B,41.691842537769006,33.15228213191349,2.08459212688845,0.5207548299767779,A,641.7274579871446,Incorrect,6,2,small,big,False,Size,right,right,729.022832994815,Correct
1,22,99,A,33.116353225978095,52.80379677462635,1.6558176612989046,0.8294401001440727,A,518.9188330550678,Correct,5,3,small,big,False,Size,right,right,975.2545829978772,Correct
1,22,100,B,75.22198707065708,51.48025834596404,3.761099353532854,0.8086500071229263,B,828.1127080554143,Correct,2,5,big,small,False,Size,left,right,1171.2154999841005,Incorrect
1,22,101,A,38.64942670867245,52.37154866141225,1.9324713354336225,0.8226503626590654,A,453.68504198268056,Correct,6,4,small,big,False,Value,left,left,1041.2877079797909,Correct
1,22,102,A,41.27072960991713,51.343610690867685,2.063536480495857,0.8065035507760214,A,721.5700410306454,Correct,4,6,big,small,False,Value,right,right,881.7921250010841,Correct
1,22,103,A,56.49684275366886,70.74962722816086,2.8248421376834427,1.1113325457210328,A,674.8197490232997,Correct,3,6,big,small,False,Value,right,right,737.6707079820335,Correct
1,22,104,B,64.35915954524107,31.575087494522677,3.2179579772620537,0.49598031454623687,B,968.5942499781959,Correct,6,4,small,big,False,Value,left,left,804.1426669806242,Correct
1,22,105,A,47.57283056517153,62.59879444718574,2.3786415282585764,0.9832995637942814,A,717.9553739842959,Correct,4,8,big,small,False,Value,right,right,659.9406670429744,Correct
1,22,106,A,33.13426233634323,49.05380999073963,1.6567131168171614,0.7705354454874862,A,628.2516249921173,Correct,6,4,small,big,False,Size,right,right,778.12095801346,Correct
1,22,107,B,67.5676980501954,36.665379454172644,3.3783849025097705,0.5759384336715546,B,813.8167079887353,Correct,8,5,small,big,False,Value,left,left,685.60654099565,Correct
1,22,108,B,65.10225308308844,38.06063458475148,3.255112654154422,0.5978550500121043,B,1460.431999003049,Correct,4,6,small,big,True,Size,right,right,1084.0791669907048,Correct
1,22,109,B,59.90483196055494,30.29484527238423,2.995241598027747,0.4758703167468089,B,637.8960000001825,Correct,2,7,small,big,True,Value,right,left,657.2934999712743,Incorrect
1,22,110,B,60.816673046320695,47.869734422454464,3.0408336523160346,0.7519360299543869,B,1002.8049169923179,Correct,6,3,small,big,False,Size,right,right,423.53929101955146,Correct
1,22,111,B,52.047853032313704,30.303224890927424,2.6023926516156854,0.47600194348708474,B,850.9124160045758,Correct,8,5,small,big,False,Value,left,left,530.2930829930119,Correct
1,22,112,B,77.77445184687812,61.25467586563633,3.8887225923439064,0.9621861984875355,A,684.1157500166446,Incorrect,7,2,small,big,False,Size,right,right,1530.0339999957941,Correct
1,22,113,B,43.025349954179575,22.01086170852163,2.1512674977089787,0.3457458072133622,B,834.2112909886055,Correct,4,7,big,small,False,Value,right,right,791.7454579728656,Correct
1,22,114,B,69.67857676930163,52.07636576991942,3.4839288384650815,0.8180136406421691,B,847.1631249994971,Correct,6,5,big,small,True,Value,left,right,1061.4787919912487,Incorrect
1,22,115,B,37.84597250151305,28.413675060069593,1.8922986250756526,0.44632096415101086,A,1582.739791017957,Incorrect,8,7,small,big,False,Size,right,right,986.6903750225902,Correct
1,22,116,B,47.11254401374393,17.018686602922987,2.3556272006871963,0.2673289040274494,B,722.2929580020718,Correct,5,7,big,small,False,Value,right,right,618.9901659963652,Correct
1,22,117,A,48.86001543626758,66.84550969949385,2.443000771813379,1.0500068109869756,A,608.3362919744104,Correct,8,6,small,big,False,Value,left,left,934.1235830215737,Correct
1,22,118,B,66.5495502551929,38.90540534796443,3.327477512759645,0.6111246781304905,B,638.2081669871695,Correct,7,5,small,big,False,Size,right,right,1463.6019159806892,Correct
1,22,119,A,27.800341784402512,51.868264646773255,1.3900170892201258,0.8147447958437701,A,680.4692500154488,Correct,2,4,big,small,False,Size,left,left,798.2140409876592,Correct
1,22,120,A,24.68847719066499,36.14027532278656,1.2344238595332495,0.5676901172638936,A,652.9312080238014,Correct,4,6,big,small,False,Size,left,left,1890.0334169738926,Correct
1,22,121,B,63.542935814887805,44.15909169753718,3.17714679074439,0.6936493903309041,A,595.4209160408936,Incorrect,6,7,big,small,False,Size,left,left,1085.2758329710923,Correct
1,22,122,B,39.139557416943425,26.89041078732788,1.9569778708471715,0.42239358490740503,B,1085.9462909866124,Correct,4,7,small,big,True,Size,right,right,645.9647910087369,Correct
1,22,123,A,25.31732300225192,51.47193964778548,1.265866150112596,0.8085193373175004,A,586.7241249652579,Correct,5,3,small,big,False,Value,left,left,490.57187500875443,Correct
1,22,124,A,36.38167716494235,45.19326010521811,1.8190838582471176,0.7098940696916295,A,1073.4351249993779,Correct,8,3,small,big,False,Size,right,right,788.3658750215545,Correct
1,22,125,A,30.634019382152097,52.975730562779695,1.531700969107605,0.8321408297729048,A,549.7514990274794,Correct,8,6,small,big,False,Size,right,right,1475.5959170288406,Correct
1,22,126,A,54.7678717291926,78.11774781551651,2.73839358645963,1.227070713261034,A,616.4754169876687,Correct,2,7,big,small,False,Value,right,right,762.8041250281967,Correct
1,22,127,B,76.01628991568121,54.16888800572943,3.800814495784061,0.8508829030596391,B,1174.0907500497997,Correct,3,2,small,big,False,Value,left,left,447.96991598559543,Correct
1,22,128,A,28.60048689575886,54.510860418635005,1.430024344787943,0.8562545931602118,A,605.7267499854788,Correct,2,6,big,small,False,Value,right,right,482.74691600818187,Correct
1,22,129,A,54.762363666176235,74.07889000586206,2.7381181833088117,1.163628483142513,A,713.8643329963088,Correct,2,3,big,small,False,Value,right,right,767.4452910432592,Correct
1,22,130,A,63.88780196005678,87.02691302188926,3.194390098002839,1.3670155530708261,A,699.8160419752821,Correct,3,5,big,small,False,Value,right,right,844.9120830046013,Correct
1,22,131,A,56.91667162710977,84.04136345089432,2.8458335813554885,1.3201186500749966,A,738.9248330146074,Correct,6,7,big,small,False,Value,right,right,747.3999990033917,Correct
1,22,132,B,58.27492202244047,42.13625567954488,2.9137461011220234,0.661874756463197,B,1082.2210420155898,Correct,7,6,small,big,False,Value,left,left,1178.570333053358,Correct
1,22,133,B,41.16055875447751,29.407892477102532,2.0580279377238755,0.4619380948181193,B,886.6046670009382,Correct,7,6,small,big,False,Value,left,left,735.7343329931609,Correct
1,22,134,A,65.6985081655929,79.84141724083727,3.284925408279645,1.2541460492800591,A,554.6572500024922,Correct,8,2,small,big,False,Size,right,right,480.73850001674145,Correct
1,22,135,A,62.21916799627594,85.51433886228946,3.110958399813797,1.3432560937317837,A,503.2609579502605,Correct,3,5,big,small,False,Size,left,left,988.5724160121754,Correct
1,22,136,A,52.185768296054675,66.26712841925671,2.6092884148027338,1.0409216190821413,A,526.992873987183,Correct,4,2,big,small,True,Size,left,right,1733.1909170025028,Incorrect
1,22,137,A,36.935978556611126,45.469964573305944,1.8467989278305563,0.7142405333124306,A,717.9897489841096,Correct,8,7,small,big,False,Size,right,right,664.6681249840185,Correct
1,22,138,A,38.39810773932949,53.495769549030584,1.9199053869664744,0.8403095830668352,A,1186.8145830230787,Correct,8,2,small,big,False,Size,right,right,518.3738329797052,Correct
1,22,139,B,48.40095226076793,28.578973664983437,2.4200476130383963,0.4489174685652406,B,772.8389579569921,Correct,7,8,big,small,False,Value,right,right,775.238582980819,Correct
1,22,140,B,51.79358578784584,34.78155836577526,2.5896792893922918,0.5463474412116208,B,498.4637909801677,Correct,7,3,big,small,True,Size,left,left,1163.7583330157213,Correct
1,22,141,B,61.207008210207974,41.55269472941819,3.0603504105103987,0.6527082024939976,A,455.83649998297915,Incorrect,7,2,small,big,False,Value,left,left,670.3017079853453,Correct
1,22,142,B,58.31609081944168,30.798023564228167,2.915804540972084,0.4837742228723227,B,625.6185409729369,Correct,5,6,big,small,False,Size,left,left,1280.8459579828195,Correct
1,22,143,A,60.03697005260705,69.29995192539539,3.0018485026303527,1.08856109931474,A,1244.961749005597,Correct,3,7,big,small,False,Size,left,right,1429.217625001911,Incorrect
1,22,144,B,36.611661648364375,12.620002352055693,1.8305830824182185,0.19823453338752037,B,838.4196659899317,Correct,5,4,small,big,False,Value,left,left,586.339165980462,Correct
1,22,145,B,45.004841450781335,22.47769698201994,2.250242072539067,0.3530788385416565,B,552.364542032592,Correct,2,7,big,small,False,Size,left,left,1071.5125409769826,Correct
1,22,146,A,38.273118179688254,56.93103818965293,1.9136559089844127,0.894270656689268,A,672.9157080408186,Correct,7,8,big,small,False,Value,right,right,948.5106659703888,Correct
1,22,147,A,47.85854690961067,75.08525762127981,2.3929273454805338,1.1794364686795482,A,574.2782919551246,Correct,8,5,big,small,True,Value,left,left,1372.2758329822682,Correct
1,22,148,A,23.55530952876889,51.311840960914964,1.1777654764384444,0.8060045130248914,A,615.000541030895,Correct,4,6,big,small,False,Value,right,right,1725.1449580071494,Correct
1,22,149,B,73.07766703100503,62.2058413296222,3.6538833515502516,0.9771270706575673,B,660.9592080349103,Correct,2,6,big,small,False,Size,left,left,1461.9951240019873,Correct
1,22,150,B,58.473903286574675,49.12281263394956,2.9236951643287337,0.771619336472419,A,560.6507080374286,Incorrect,8,4,small,big,False,Value,left,left,965.3993750107475,Correct
1,22,151,A,43.30065343663685,58.154283176915314,2.1650326718318427,0.9134853440168882,A,980.1346670137718,Correct,7,6,big,small,True,Value,left,left,1057.37912398763,Correct
1,22,152,B,76.55900859329279,44.943411923257514,3.8279504296646394,0.7059694636268287,B,672.3564160056412,Correct,4,5,big,small,False,Size,left,left,1569.2186250234954,Correct
1,22,153,A,37.99450000888586,69.120172731006,1.899725000444293,1.08573713433293,A,940.1822910294868,Correct,5,3,small,big,False,Value,left,left,648.2736659818329,Correct
1,22,154,B,38.174500286154654,14.346851606030533,1.9087250143077328,0.22535981803824226,B,865.204082976561,Correct,3,2,small,big,False,Value,left,left,707.691292045638,Correct
1,22,155,B,83.62564196471314,58.34306091633157,4.181282098235657,0.9164506578134451,B,659.9761239485815,Correct,6,2,big,small,True,Value,left,left,237.15183296008036,Correct
1,22,156,B,78.25182086313686,58.6732054165827,3.912591043156843,0.9216365554965052,B,744.1239159670658,Correct,6,5,small,big,False,Size,right,right,2504.9146660021506,Correct
1,22,157,A,62.78478540788043,80.30241332976694,3.1392392703940213,1.2613873589116342,A,504.1407920070924,Correct,5,2,small,big,False,Value,left,left,542.2862079576589,Correct
1,22,158,A,56.763295654376805,71.11758262003838,2.8381647827188403,1.1171123755008887,A,687.2638750355691,Correct,7,3,small,big,False,Size,right,right,3089.519666042179,Correct
1,22,159,B,47.47073145655219,18.914313370210806,2.3735365728276094,0.2971053396577474,A,337.3137920279987,Incorrect,3,6,big,small,False,Value,right,right,1237.7127489889972,Correct
1,22,160,B,62.16675360833603,42.99818840127684,3.1083376804168017,0.6754139639956059,B,784.6777919912711,Correct,4,8,big,small,False,Value,right,right,859.6205830108374,Correct
1,22,161,A,53.32665443439724,82.78120663483887,2.6663327217198622,1.3003241530965421,A,637.0530829881318,Correct,2,5,big,small,False,Size,left,left,589.0792499994859,Correct
1,22,162,A,14.946511138036637,36.76510436974833,0.7473255569018319,0.5775049089823168,A,642.350708018057,Correct,2,3,small,big,True,Size,right,right,533.5369580425322,Correct
1,22,163,A,23.078644036609823,39.02555339750161,1.1539322018304912,0.6130119592793364,A,1479.3627919862047,Correct,8,5,small,big,False,Size,right,right,336.1237500212155,Correct
1,22,164,A,50.85438315308538,62.01655640162895,2.542719157654269,0.9741537899614727,A,740.9853329882026,Correct,6,5,small,big,False,Size,right,right,428.74291603220627,Correct
1,22,165,A,57.43307705087663,75.68162934613918,2.8716538525438318,1.1888042538276828,A,752.6999580441043,Correct,7,3,small,big,False,Value,left,left,660.0614999770187,Correct
1,22,166,A,44.64315250046374,61.75225090415032,2.232157625023187,0.9700020889155616,A,875.8335000020452,Correct,3,5,big,small,False,Value,right,left,397.7220830274746,Incorrect
1,22,167,B,53.656378219511296,37.47545354147332,2.6828189109755645,0.5886630476791909,B,980.8920830255374,Correct,7,4,small,big,False,Value,left,left,876.676292042248,Correct
1,22,168,A,39.24689029465593,52.954540710254186,1.9623445147327965,0.831807980347781,A,492.67558299470693,Correct,8,3,small,big,False,Value,left,left,589.047791028861,Correct
1,22,169,B,65.11952116776406,53.08795121524024,3.255976058388203,0.8339035876596602,B,1669.5308740017936,Correct,5,6,big,small,False,Value,right,right,401.7065000371076,Correct
1,22,170,A,35.77552780197404,64.82515408427028,1.7887763900987022,1.0182711391948496,A,516.3738749688491,Correct,2,8,big,small,False,Size,left,left,971.0892919683829,Correct
1,22,171,B,48.63871309261026,33.754645370553504,2.431935654630513,0.530216729603298,B,1675.35975005012,Correct,8,7,small,big,False,Value,left,left,485.3175419848412,Correct
1,22,172,B,66.30077894703119,41.45628137901349,3.3150389473515594,0.6511937451273007,B,999.4521249900572,Correct,4,8,small,big,True,Size,right,left,832.0599579601549,Incorrect
1,22,173,A,57.58905118543494,67.98160877664408,2.879452559271747,1.0678526135596023,A,573.5887079499662,Correct,3,6,big,small,False,Size,left,left,861.4679159945808,Correct
1,22,174,B,53.228491699256125,41.721802040321926,2.661424584962806,0.655364533922015,B,699.2390410159715,Correct,6,8,big,small,False,Size,left,left,3053.856165963225,Correct
1,22,175,B,71.38123587680015,57.24486190364402,3.569061793840007,0.8992001880612513,B,684.7682920051739,Correct,2,4,big,small,False,Size,left,left,1135.2478330372833,Correct
1,22,176,A,25.357009326654993,46.781971841975135,1.2678504663327497,0.7348494952959682,A,613.7505829683505,Correct,4,3,small,big,False,Value,left,left,420.40949896909297,Correct
1,22,177,B,82.90453759835147,56.50504602485315,4.1452268799175735,0.887579187412159,B,562.7042910200544,Correct,7,5,small,big,False,Size,right,left,1016.1985830054618,Incorrect
1,22,178,A,26.28217767959821,43.25779967917883,1.3141088839799104,0.6794919284128357,A,609.5904990215786,Correct,7,4,big,small,True,Value,left,left,228.02529198816046,Correct
1,22,179,A,67.76364537405529,81.71027316646243,3.388182268702764,1.2835019695128678,A,902.8652080451138,Correct,3,2,small,big,False,Value,left,left,895.5834579537623,Correct
1,22,180,A,50.01730764140622,59.01002758491411,2.5008653820703106,0.9269273457444862,A,1288.8254999998026,Correct,4,2,small,big,False,Size,right,right,1181.6175000276417,Correct
1,22,181,A,35.87231792423892,54.86009842366723,1.7936158962119462,0.8617404109150298,A,535.442124994006,Correct,5,7,small,big,True,Size,right,right,64.02441597310826,Correct
1,22,182,B,85.88142487125681,61.299544674192674,4.294071243562841,0.9628909960842151,B,763.3728330256417,Correct,5,2,small,big,False,Size,right,right,1233.2115420140326,Correct
1,22,183,A,66.91705386273284,89.02834246169135,3.3458526931366417,1.3984539331946289,A,582.7164580114186,Correct,3,7,big,small,False,Size,left,left,471.967332996428,Correct
1,22,184,A,51.423525538187484,67.48999706829122,2.571176276909374,1.060130394902702,A,599.3486660299823,Correct,6,2,small,big,False,Size,right,right,907.6909169671126,Correct
1,22,185,B,59.02269889611838,42.85215943734585,2.951134944805919,0.6731201463941212,B,870.6953750224784,Correct,2,8,big,small,False,Size,left,left,1618.26891702367,Correct
1,22,186,A,47.89131829992345,72.62390710993503,2.3945659149961727,1.1407736652577973,A,606.9424580200575,Correct,6,4,small,big,False,Value,left,left,558.980125002563,Correct
1,22,187,A,58.07705003183857,85.0807429106201,2.903852501591928,1.33644518444983,A,528.2250409945846,Correct,8,3,small,big,False,Size,right,right,1274.530124035664,Correct
1,22,188,A,48.285779823372806,62.199494549867964,2.4142889911686405,0.9770273756743179,A,684.0380419744179,Correct,5,3,small,big,False,Value,left,left,852.3664579843171,Correct
1,22,189,B,45.02763428211393,31.814953132358234,2.251381714105696,0.499748115174601,B,1015.5982080032118,Correct,2,7,big,small,False,Value,right,left,855.4764989530668,Incorrect
1,22,190,B,85.55894874851353,66.01680028190674,4.277947437425677,1.036989473895714,B,718.8700829865411,Correct,5,6,small,big,True,Value,right,right,667.8853750345297,Correct
1,22,191,B,88.00837550324678,65.92612796865613,4.400418775162339,1.0355651965297534,B,763.1314999889582,Correct,5,4,small,big,False,Size,right,right,754.4918329804204,Correct
1,22,192,B,69.31548413427271,49.86489330014474,3.4657742067136352,0.783275912318868,B,653.1413740012795,Correct,3,8,big,small,False,Value,right,right,1115.3939160285518,Correct
1,22,193,B,51.69998008149579,36.98494676476229,2.5849990040747897,0.580958185247934,A,518.8023329828866,Incorrect,4,5,small,big,True,Size,right,right,1495.2240000129677,Correct
1,22,194,B,61.80108329496946,51.85958265043623,3.0900541647484725,0.8146084193642158,B,1084.5982489991002,Correct,7,4,big,small,True,Size,left,left,382.05979100894183,Correct
1,22,195,A,67.72106423310755,87.60968004581916,3.3860532116553776,1.3761696360764888,A,501.9815409905277,Correct,8,6,big,small,True,Size,left,left,47.99308301880956,Correct
1,22,196,B,69.27729738264773,41.8089669585944,3.463864869132386,0.6567337172564927,B,705.8122080052271,Correct,7,8,big,small,False,Size,left,left,437.38637503702193,Correct
1,22,197,B,58.79764707181278,28.20213114906089,2.9398823535906393,0.4429980401673278,B,686.9513749843463,Correct,4,3,small,big,False,Size,right,right,555.3354170406237,Correct
1,22,198,B,42.51000926164902,24.69471893871289,2.125500463082451,0.3879037380016257,B,656.2336239730939,Correct,7,2,small,big,False,Size,right,right,744.0276240231469,Correct
1,22,199,B,70.56448412523127,54.25334520689465,3.5282242062615636,0.8522095536732562,A,770.8907500491478,Incorrect,3,2,small,big,False,Value,left,left,1481.2585830222815,Correct
1,22,200,A,38.520183283248706,67.13276429736476,1.9260091641624353,1.0545189956588814,A,694.3837080034427,Correct,6,7,small,big,True,Size,right,right,1283.96899899235,Correct
1,22,201,B,49.35798948972251,35.236757352319316,2.4678994744861256,0.5534976901718625,B,1102.8667920036241,Correct,6,8,big,small,False,Size,left,left,627.7305409894325,Correct
1,22,202,A,33.36169172788785,57.67327524668831,1.6680845863943927,0.9059296891172904,A,1159.7921249922365,Correct,4,5,big,small,False,Size,left,left,1403.9043739903718,Correct
1,22,203,B,80.00636092638959,54.52739336681302,4.000318046319479,0.8565142921029031,B,628.5823750076815,Correct,2,7,big,small,False,Value,right,right,994.3287079804577,Correct
1,22,204,B,57.99658879847197,44.47090318308255,2.8998294399235984,0.6985473136923753,A,498.0256659910083,Incorrect,7,3,small,big,False,Size,right,right,967.5315409549512,Correct
1,22,205,A,55.51402929650786,79.78096654384271,2.7757014648253926,1.2531964919521466,A,468.8376249978319,Correct,4,7,small,big,True,Size,right,right,168.30758296418935,Correct
1,22,206,B,88.64894007321338,69.28763646762441,4.432447003660669,1.0883676485564455,A,826.6702499822713,Incorrect,4,6,small,big,True,Size,right,right,621.2939579854719,Correct
1,22,207,A,39.390338386236856,68.71521400204547,1.969516919311843,1.0793760574933826,A,902.4527079891413,Correct,8,3,small,big,False,Size,right,right,1080.7039989740588,Correct
1,22,208,A,50.062531936548325,74.36817955370434,2.5031265968274163,1.168172632733821,A,506.8427079822868,Correct,7,5,small,big,False,Size,right,right,541.8052910245024,Correct
1,22,209,B,63.63928589908792,33.366965542743436,3.181964294954396,0.5241270691083327,B,900.3440829692408,Correct,3,5,big,small,False,Value,right,right,1227.955999027472,Correct
1,22,210,B,79.62945807344298,53.882134665829824,3.9814729036721483,0.8463785921295345,B,636.5707489894703,Correct,2,8,small,big,True,Size,right,right,297.131665982306,Correct
1,22,211,A,68.56180563145303,88.9627065815264,3.428090281572651,1.3974229271999383,A,546.7495000339113,Correct,8,2,small,big,False,Value,left,left,794.0149999922141,Correct
1,22,212,B,55.77626762227326,48.863955754761506,2.788813381113663,0.7675532221224772,A,563.1546670338139,Incorrect,6,5,small,big,False,Size,right,right,1572.5349170388654,Correct
1,22,213,A,38.242948165612894,66.15302828500828,1.9121474082806447,1.039129338364499,B,1088.857208029367,Incorrect,2,5,big,small,False,Size,left,left,1046.3459579623304,Correct
1,22,214,B,74.7522356518427,44.373811323039185,3.7376117825921344,0.6970221983211974,B,701.720374985598,Correct,4,3,small,big,False,Size,right,right,672.0832079881802,Correct
1,22,215,A,47.3553206906248,61.06024920288623,2.36776603453124,0.959132151610747,A,480.9532500221394,Correct,4,5,big,small,False,Size,left,left,688.9994999510236,Correct
1,22,216,B,78.51310421275357,61.392818843711005,3.9256552106376783,0.9643561433128577,B,773.4533330076374,Correct,3,5,big,small,False,Value,right,right,576.6248329891823,Correct
1,22,217,B,74.39145342235028,61.794828043683815,3.7195726711175143,0.970670889059408,A,908.7760830298066,Incorrect,2,7,big,small,False,Size,left,left,998.2869160012342,Correct
1,22,218,A,36.648035146554115,69.26752191822365,1.8324017573277058,1.088051689953307,B,973.9768329891376,Incorrect,8,3,small,big,False,Value,left,left,1615.7277909805998,Correct
1,22,219,A,52.71861676922828,66.6768166775365,2.6359308384614137,1.04735698719451,B,1696.0777080385014,Incorrect,5,4,small,big,False,Size,right,right,1099.7703750035726,Correct
1,22,220,A,32.9534979498036,58.136621214142565,1.6476748974901798,0.913207910554414,A,1092.8484160103835,Correct,6,2,small,big,False,Size,right,right,569.0588330035098,Correct
1,22,221,B,60.28166932987825,43.46820654550924,3.0140834664939127,0.6827969917404779,B,1001.2651240103878,Correct,6,3,small,big,False,Size,right,right,704.1970830177888,Correct
1,22,222,A,14.653092954201192,40.063643480766885,0.7326546477100595,0.6293182401760893,A,492.5140830455348,Correct,2,5,big,small,False,Size,left,left,453.0932079651393,Correct
1,22,223,B,72.17558670517056,48.770701010845,3.608779335258528,0.7660883800304749,B,558.4357909974642,Correct,5,8,big,small,False,Value,right,right,380.8742500259541,Correct
1,22,224,A,35.79598549373864,48.79675006328698,1.789799274686932,0.7664975575893982,A,525.4896660335362,Correct,2,3,small,big,True,Value,right,right,84.45674896938726,Correct
1,22,225,A,46.40363539319141,63.02658601121882,2.32018176965957,0.9900192979684515,A,499.11091598914936,Correct,5,4,small,big,False,Size,right,right,941.0236660041846,Correct
1,22,226,A,27.820342392266973,50.888287369872245,1.3910171196133487,0.7993513487747844,A,455.4820830235258,Correct,2,6,big,small,False,Value,right,right,951.6497500007972,Correct
1,22,227,A,48.75283074968495,78.19807320363716,2.4376415374842475,1.2283324615071172,A,541.2175829987973,Correct,2,5,big,small,False,Value,right,right,1422.8633330203593,Correct
1,22,228,A,56.965077713641136,71.64841728717701,2.8482538856820567,1.1254507069536561,A,854.759500012733,Correct,3,8,big,small,False,Size,left,left,750.8249579695985,Correct
1,22,229,A,23.290264630526917,44.212273556873704,1.1645132315263458,0.6944847690238835,A,1029.4469999498688,Correct,5,3,small,big,False,Value,left,left,606.2352079898119,Correct
1,22,230,A,37.36855615044655,66.54775207102618,1.8684278075223275,1.045329645096254,A,551.9507080316544,Correct,4,5,big,small,False,Value,right,right,796.5943330200389,Correct
1,22,231,B,52.243595686925765,26.324951713748202,2.612179784346288,0.413511374550087,B,1135.870415950194,Correct,4,3,big,small,True,Value,left,left,924.4895830051973,Correct
1,22,232,A,39.52176325161331,70.78772793275675,1.9760881625806654,1.111931030189308,A,555.7117080315948,Correct,4,3,small,big,False,Value,left,left,805.8767910115421,Correct
1,22,233,A,47.69730403848614,65.42107593819361,2.384865201924307,1.027631857786845,A,634.788875002414,Correct,6,5,small,big,False,Value,left,left,550.4170409985818,Correct
1,22,234,A,34.03939319750026,48.61581605113958,1.701969659875013,0.7636554527726642,A,758.050708041992,Correct,2,5,big,small,False,Size,left,right,1109.4728329917416,Incorrect
1,22,235,A,42.684145480548466,75.4336093945162,2.1342072740274234,1.1849083655378705,A,720.4993329942226,Correct,2,4,big,small,False,Value,right,right,466.73499897588044,Correct
1,22,236,A,66.76422288932879,88.03600188967903,3.3382111444664395,1.3828662839401638,A,648.986041021999,Correct,3,8,big,small,False,Size,left,left,453.3839159994386,Correct
1,22,237,B,70.90025067838576,59.92440126944782,3.545012533919288,0.9412902939943208,B,849.1264159674756,Correct,5,2,small,big,False,Size,right,right,719.7007079957984,Correct
1,22,238,B,59.47754997932679,30.14508134873526,2.9738774989663392,0.47351783053526686,B,596.3600829709321,Correct,8,4,small,big,False,Value,left,left,752.1251250291243,Correct
1,22,239,B,83.78418956209742,67.97537856823455,4.189209478104871,1.0677547496747537,B,743.42308298219,Correct,2,5,big,small,False,Size,left,left,700.5296659772284,Correct
1,22,240,B,52.260981692382806,44.39659957030153,2.6130490846191403,0.6973801552721354,A,1190.2262489893474,Incorrect,6,2,small,big,False,Value,left,left,810.7793750241399,Correct
1,22,241,A,51.04495853374159,80.5317903531527,2.5522479266870794,1.2649904047694895,A,1029.0748330298811,Correct,4,5,big,small,False,Size,left,left,1577.8407079633325,Correct
1,22,242,B,50.22654382807379,24.622911072574396,2.511327191403689,0.38677578267797247,B,1134.8301660036668,Correct,2,5,big,small,False,Size,left,left,509.4791249721311,Correct
1,22,243,A,35.98746222041803,45.73856973306147,1.7993731110209015,0.7184597732954519,A,773.6789580085315,Correct,5,6,big,small,False,Size,left,left,475.4869579919614,Correct
1,22,244,A,63.68105359170844,75.51801645012027,3.184052679585422,1.186234228466855,A,511.53324998449534,Correct,2,7,big,small,False,Value,right,right,803.2516670064069,Correct
1,22,245,B,43.61804503197286,33.71340037911013,2.180902251598643,0.5295688547927188,A,580.0710420007817,Incorrect,3,2,small,big,False,Size,right,right,1462.4119580257684,Correct
1,22,246,A,51.854574496432974,73.21794233073726,2.5927287248216486,1.1501047486860267,A,523.9767910097726,Correct,2,3,big,small,False,Size,left,left,1658.6110410280526,Correct
1,22,247,B,61.5748909765269,36.708110515482964,3.0787445488263447,0.5766096516130175,B,1096.0929159773514,Correct,6,3,big,small,True,Size,left,left,87.69916597520933,Correct
1,22,248,B,60.20339627871573,45.34444449425543,3.0101698139357866,0.712268868521315,B,1221.4292910066433,Correct,6,2,small,big,False,Value,left,left,1202.3268329794519,Correct
1,22,249,B,83.75643959950705,66.23156961617366,4.187821979975353,1.0403630627094607,A,581.5565419616178,Incorrect,8,5,small,big,False,Value,left,left,1106.0485410271212,Correct
1,22,250,B,33.05461047803196,14.984860686096496,1.6527305239015981,0.2353816412325363,B,1197.2895830404013,Correct,7,2,small,big,False,Size,right,right,675.2643329673447,Correct
1,22,251,A,37.380301690913875,69.32672251140843,1.8690150845456939,1.0889816106964945,A,1090.326790988911,Correct,5,8,big,small,False,Size,left,left,400.9494580095634,Correct
1,22,252,A,43.079835346465686,54.30091249309383,2.1539917673232845,0.852956738857629,A,562.9493329906836,Correct,7,3,small,big,False,Value,left,left,875.7937920163386,Correct
1,22,253,B,62.67876783906155,49.886929514300746,3.1339383919530777,0.7836220563613953,B,681.4716249937192,Correct,8,2,small,big,False,Size,right,right,868.3372910018079,Correct
1,22,254,B,38.79509053819699,20.503026086532437,1.9397545269098493,0.3220607806490509,B,725.6498739589006,Correct,5,2,small,big,False,Value,left,left,1848.3109579537995,Correct
1,22,255,B,35.199330110089136,10.67043043469414,1.7599665055044569,0.16761072932138024,B,1021.5869580279104,Correct,8,4,small,big,False,Size,right,right,371.58375000581145,Correct
1,22,256,B,66.80707290925031,42.74195885061084,3.340353645462516,0.6713891196255813,B,912.6138749998063,Correct,2,4,big,small,False,Size,left,left,482.1909160236828,Correct
1,22,257,A,16.809880908439204,40.85405154127531,0.8404940454219602,0.6417339409572463,A,849.2189579992555,Correct,3,8,big,small,False,Value,right,right,696.35062396992,Correct
1,22,258,B,49.96027425753893,23.323564030840654,2.498013712876946,0.3663656870741008,B,721.4038749807514,Correct,2,6,big,small,False,Value,right,right,457.6623330358416,Correct
1,22,259,B,56.44828434926698,31.232117876764367,2.822414217463349,0.49059296038846695,A,1601.5101249795407,Incorrect,3,4,small,big,True,Size,right,right,24.75375001085922,Correct
1,22,260,A,18.269760362633967,46.864323842146874,0.9134880181316984,0.736143077489708,A,807.1869999985211,Correct,3,4,big,small,False,Value,right,right,732.1861669770442,Correct
1,22,261,B,73.94883077824585,42.73290066080274,3.6974415389122925,0.6712468339128016,B,1899.7065409785137,Correct,3,4,big,small,False,Size,left,left,1152.2927909973077,Correct
1,22,262,B,36.837477768292004,15.377609341304456,1.8418738884146,0.24155092268207928,B,1285.0573739851825,Correct,7,5,big,small,True,Value,left,left,334.5414989744313,Correct
1,22,263,A,18.018874497607655,34.62223103579774,0.9009437248803828,0.5438447333647536,A,1339.2924989457242,Correct,5,2,small,big,False,Value,left,left,1476.1361670098267,Correct
1,22,264,B,54.07973437074143,31.63544443452804,2.703986718537071,0.49692839914280695,B,1165.2293330407701,Correct,2,8,big,small,False,Value,right,right,819.9372490053065,Correct
1,22,265,A,53.2612309772029,82.30111083798042,2.663061548860145,1.292782825954393,A,1214.840916043613,Correct,3,4,big,small,False,Size,left,left,1291.0170000395738,Correct
1,22,266,B,43.670937179062925,16.21449370298561,2.183546858953146,0.2546966714948878,B,773.012415971607,Correct,2,5,big,small,False,Value,right,right,1664.7871659952216,Correct
1,22,267,B,69.03378433722317,39.557465914788615,3.4516892168611584,0.6213672215626427,B,1302.754791046027,Correct,8,5,small,big,False,Value,left,left,1373.1798739754595,Correct
1,22,268,A,60.47446381264973,76.8341527220997,3.0237231906324866,1.206908048682723,A,688.1309990421869,Correct,3,8,big,small,False,Value,right,right,684.7206250531599,Correct
1,22,269,A,39.26116468301618,55.035066599276334,1.9630582341508092,0.8644888045905575,A,987.4482080340385,Correct,6,5,small,big,False,Size,right,right,1384.9161250400357,Correct
1,22,270,B,72.80492802139008,56.45560673878641,3.640246401069504,0.8868025969226291,B,776.0571250109933,Correct,4,5,big,small,False,Value,right,right,2771.7580829630606,Correct
1,22,271,B,80.58308718906204,56.14501110164872,4.029154359453102,0.8819237720632851,B,740.3049999848008,Correct,4,5,big,small,False,Value,right,right,747.8703329688869,Correct
1,22,272,B,87.30866611536115,63.08735162608842,4.365433305768057,0.9909738020147772,B,735.2172909886576,Correct,3,7,small,big,True,Value,right,right,86.5808330127038,Correct
1,22,273,B,83.2503871480809,61.21806295560124,4.1625193574040456,0.9616110842415716,B,981.953667011112,Correct,7,3,small,big,False,Value,left,left,1156.2952499953099,Correct
1,22,274,B,46.68434018746554,17.617164865196298,2.3342170093732766,0.27672977858790454,B,848.882207996212,Correct,3,2,small,big,False,Size,right,right,1163.1609160103835,Correct
1,22,275,B,65.75349439656574,40.40361632134588,3.287674719828287,0.6346585210680042,B,692.4272920005023,Correct,7,5,small,big,False,Size,right,right,1139.1782489954494,Correct
1,22,276,B,67.77109514754729,58.9428118828982,3.388554757377364,0.9258715239661908,B,1068.7433329876512,Correct,8,5,small,big,False,Value,left,left,512.6806249609217,Correct
1,22,277,A,30.174213989795177,42.467384613609724,1.508710699489759,0.6670761175964426,A,1393.0802500108257,Correct,6,4,small,big,False,Value,left,left,1017.8659159573726,Correct
1,22,278,A,59.3208703994154,72.87353043000809,2.96604351997077,1.1446947392003284,A,833.4484159713611,Correct,6,8,big,small,False,Size,left,left,646.1941250017844,Correct
1,22,279,A,16.829331589902246,44.01369247164628,0.8414665794951123,0.6913654646314217,A,557.0425000041723,Correct,5,8,small,big,True,Size,right,right,1962.2033740160987,Correct
1,22,280,B,47.704334142566346,25.934314537072332,2.3852167071283175,0.407375260127767,B,881.8267079768702,Correct,5,6,big,small,False,Size,left,left,836.4246240234934,Correct
1,22,281,B,79.10489572233524,58.014432965432945,3.9552447861167623,0.9112885820319082,B,741.226582962554,Correct,8,7,small,big,False,Value,left,left,1065.805415972136,Correct
1,22,282,A,58.629259820674065,83.96627562996127,2.9314629910337033,1.31893917334191,A,621.6464579920284,Correct,8,4,small,big,False,Value,left,left,966.3687080028467,Correct
1,22,283,A,63.599646511340914,73.50270914850299,3.1799823255670456,1.1545778553994213,A,620.9733330179006,Correct,6,8,big,small,False,Size,left,left,1566.744415962603,Correct
1,22,284,A,51.9939421065836,78.6112776010799,2.5996971053291804,1.2348230610043025,A,1355.6693329592235,Correct,6,4,big,small,True,Value,left,left,394.14420805405825,Correct
1,22,285,A,59.62169193273049,81.17031841064062,2.9810845966365247,1.2750203800420645,A,564.6541659953073,Correct,6,3,small,big,False,Value,left,left,789.684750023298,Correct
1,22,286,B,50.91940917088257,44.16517910060521,2.5459704585441285,0.693745011034694,A,1075.9115829714574,Incorrect,7,2,small,big,False,Size,right,right,1241.8779989820905,Correct
1,22,287,A,30.59169210224912,48.09770577698709,1.529584605112456,0.75551699561753,A,1550.3461659536697,Correct,2,8,big,small,False,Value,right,right,515.31495800009,Correct
1,22,288,A,31.592733114365533,52.57644823359714,1.5796366557182768,0.8258689176125641,A,865.972125029657,Correct,5,3,small,big,False,Value,left,left,462.89562399033457,Correct
1,22,289,B,69.18699775736982,36.13036067134233,3.4593498878684907,0.5675343782831933,B,976.004500000272,Correct,6,5,big,small,True,Size,left,left,51.090083026792854,Correct
1,22,290,B,64.16153538470896,49.271628036003236,3.2080767692354475,0.7739569233415833,B,1479.2005409835838,Correct,5,4,small,big,False,Size,right,right,451.7964579863474,Correct
1,22,291,A,31.54632725168171,50.77633352191567,1.5773163625840854,0.797592781843377,A,600.4907910246402,Correct,6,4,small,big,False,Size,right,right,1827.8866239706986,Correct
1,22,292,A,23.231257334183574,46.9832878940159,1.1615628667091786,0.7380117604466729,A,638.8611249858513,Correct,5,6,big,small,False,Size,left,left,522.5471659796312,Correct
1,22,293,A,48.85364671690279,66.03733360144308,2.4426823358451397,1.03731201052476,A,613.8198330299929,Correct,4,6,big,small,False,Size,left,left,470.3237499925308,Correct
1,22,294,A,31.358191285509847,57.56883743133502,1.5679095642754926,0.904289183749936,A,1117.3775420174934,Correct,3,4,big,small,False,Size,left,left,1115.6980830128305,Correct
1,22,295,B,77.39157028686411,54.86522541301931,3.8695785143432055,0.8618209454754475,B,842.1007079887204,Correct,4,6,big,small,False,Value,right,right,468.719125026837,Correct
1,22,296,A,63.97399460682213,85.7791307653597,3.1986997303411067,1.3474154352188612,A,657.5400410220027,Correct,8,6,small,big,False,Size,right,right,1031.5473329974338,Correct
1,22,297,B,80.99747135548924,51.896218823761856,4.049873567774462,0.8151838990290929,B,863.0306250415742,Correct,8,7,small,big,False,Value,left,left,1115.938125003595,Correct
1,22,298,A,59.19686344855992,81.31268842051216,2.959843172427996,1.2772567229275842,A,591.0991249838844,Correct,3,6,big,small,False,Value,right,right,830.3257920197211,Correct
1,22,299,A,25.853043141972456,54.21852535857939,1.2926521570986227,0.8516626047749245,A,465.75299999676645,Correct,5,2,small,big,False,Value,left,left,1043.688832956832,Correct
1,22,300,A,39.33336921006493,58.73441197478416,1.9666684605032463,0.9225979858644915,A,673.9421669626608,Correct,5,6,big,small,False,Size,left,left,1409.8104580189101,Correct
1,22,301,A,53.09589348022675,78.821341880559,2.6547946740113377,1.2381227429902684,A,600.2972080023028,Correct,4,7,big,small,False,Size,left,left,1201.1116659850813,Correct
1,22,302,A,33.91200163123541,51.223428431455545,1.6956000815617704,0.8046157322597163,A,531.5625829971395,Correct,5,7,big,small,False,Size,left,left,981.6091659595259,Correct
1,22,303,B,79.92255444297291,56.095305926858316,3.9961277221486453,0.8811430050034504,B,1319.2262079683132,Correct,6,5,small,big,False,Value,left,left,1951.0206659906544,Correct
1,22,304,A,21.73669642792059,45.43570722027618,1.0868348213960295,0.7137024200693819,A,697.4123329855502,Correct,8,7,small,big,False,Size,right,right,548.6493750358932,Correct
1,22,305,A,36.856893524339256,52.10754211848875,1.8428446762169628,0.8185033575803249,A,889.7315409849398,Correct,7,3,big,small,True,Size,left,left,129.79941599769518,Correct
1,22,306,B,76.81248769919017,62.14313457945262,3.8406243849595088,0.976142075329251,B,710.1036669919267,Correct,4,2,small,big,False,Value,left,left,952.3231249768287,Correct
1,22,307,A,43.10447178140091,63.36528644096979,2.1552235890700455,0.9953395918778182,A,488.8185000163503,Correct,2,7,big,small,False,Value,right,right,937.9109579604119,Correct
1,22,308,B,52.84819692573228,27.23483283482682,2.642409846286614,0.4278037537781901,B,702.5378330145031,Correct,3,5,big,small,False,Value,right,right,2133.297832973767,Correct
1,22,309,A,28.21112847187338,47.939355925320996,1.4105564235936692,0.753029641964074,A,588.6149990255944,Correct,7,5,small,big,False,Size,right,right,1899.2996659944765,Correct
1,22,310,A,31.665220832704975,52.00562012142559,1.5832610416352486,0.816902370594261,A,557.2239989996888,Correct,5,6,big,small,False,Value,right,right,1721.8389160116203,Correct
1,22,311,A,29.646046145286736,47.37306571676598,1.4823023072643369,0.7441343761690924,A,832.7638749615289,Correct,2,8,big,small,False,Value,right,right,1902.239415969234,Correct
1,22,312,B,84.74773681563191,61.41468677441895,4.237386840781595,0.9646996439651642,B,821.8493750318885,Correct,3,2,small,big,False,Size,right,right,726.7480409936979,Correct
1,22,313,B,65.04435869628689,39.59517011312971,3.252217934814345,0.6219594777252322,B,967.5322079565376,Correct,6,3,small,big,False,Value,left,left,702.8042909805663,Correct
1,22,314,B,57.60616445730163,47.84080847184745,2.880308222865082,0.7514816621847615,B,696.761165978387,Correct,3,5,big,small,False,Size,left,left,1379.2792080203071,Correct
1,22,315,B,58.57681660916891,34.20360107928104,2.9288408304584452,0.5372689093849262,B,713.8215829618275,Correct,3,8,big,small,False,Size,left,left,862.1611249982379,Correct
1,22,316,A,25.567966002440876,43.75398265902565,1.2783983001220438,0.6872859524344509,A,488.7905000359751,Correct,7,3,small,big,False,Size,right,right,986.5738329826854,Correct
1,22,317,A,22.177534278873686,42.88554484788362,1.1088767139436841,0.673644563196534,A,658.4421659936197,Correct,6,5,small,big,False,Value,left,left,2677.3046239977702,Correct
1,22,318,A,18.457067380946544,45.140065849430044,0.9228533690473272,0.7090584962756447,A,668.8592919963412,Correct,6,3,small,big,False,Size,right,right,909.3486240017228,Correct
